Time,placement_label,user_acc_x(m/s^2),user_acc_y(m/s^2),user_acc_z(m/s^2),rotation_rate_x(rad/s),rotation_rate_y(rad/s),rotation_rate_z(rad/s),gravity_x(m/s^2),gravity_y(m/s^2),gravity_z(m/s^2),attitude_roll(rad),attitude_pitch(rad),attitude_yaw(rad),target_delta_x,target_delta_y,target_delta_z,target_delta_roll,target_delta_pitch,target_delta_yaw
149610000000.0,2,0.00016671305,-0.11739540715,-0.3262868588,-0.005689,0.10679,-0.057627,-0.2051747313,-4.0739766095,-8.9180694435,-0.023002,0.42841,0.28427,0.0,0.0,0.0,0.0,0.0,0.0
149610000000.0,2,-0.0651357693,-0.10416623629999999,-0.33631906175,0.00632,0.13015,-0.074726,-0.1914846479,-4.074270809,-8.91816751,-0.021469,0.42845,0.2835,0.000300000000000189,-0.0008000000000001339,0.0007999999999999119,-0.005357063050180355,-0.0033174589701057133,-0.0018909554337659396
149610000000.0,2,-0.136508568,-0.0405603044,-0.28652089305,0.021526,0.16306,-0.076891,-0.1775788182,-4.0740746759999995,-8.918559776,-0.019909,0.42842,0.2828,0.00019999999999997797,-0.00039999999999995595,0.00020000000000020002,0.00028931522171976587,-0.0024425282200537524,5.908821936245756e-05
149610000000.0,2,-0.16831153395,0.0081395195,-0.19233782644999997,0.035419,0.16933,-0.071541,-0.15925018935,-4.076918604499999,-8.917579111,-0.017856,0.42875,0.28199,9.999999999998899e-05,-0.00039999999999995595,9.999999999998899e-05,0.00021341939807301147,-0.0026345991336493846,0.0007956974312021692
149610000000.0,2,-0.07742350174999998,-0.004501252349999999,-0.19367153084999997,0.048821,0.12338,-0.051156,-0.14463828085,-4.0810373975,-8.916010046999999,-0.016221,0.42921,0.28138,-0.00014999999999987246,-0.00029999999999996696,0.00029999999999996696,-0.0009441308849420516,-0.0005653543452279752,-0.00035313006981299577
149610000000.0,2,0.04916073645,-0.0303810017,-0.2057239037,0.073788,0.050703,-0.039243,-0.13685180075,-4.087019454,-8.913362251499999,-0.015352,0.42988,0.28094,-0.0001500000000000945,-0.00039999999999995595,0.0006999999999999229,-0.005832443003700782,-0.003634619398818595,-0.0026869603583782042
149610000000.0,2,0.06530248235,0.01405292945,-0.2299267159,0.11168,-0.015668,-0.043331,-0.1330958538,-4.0935899095,-8.9104202565,-0.014936,0.43062,0.28041,9.999999999998899e-05,-0.000300000000000189,0.0004999999999999449,1.3178775972733092e-06,-0.0018169795256040011,-0.0008134254362384963
149610000000.0,2,0.13208576884999998,0.09495779195,-0.20364489389999998,0.14436,-0.070275,-0.05065,-0.13612610865,-4.1059462885,-8.904634333,-0.015286,0.43201,0.27988,0.00039999999999995595,-0.00039999999999995595,0.000500000000000167,0.004431225228662183,-0.009268266198667163,-0.004276886295594334
149610000000.0,2,0.11228614249999999,0.15338581264999998,-0.1916611676,0.15265,-0.10444,-0.055912,-0.1425102378,-4.1196755985,-8.8982600105,-0.016014,0.43354,0.2793,-9.999999999998899e-05,-0.00029999999999996696,0.0004999999999999449,-0.00026618354544272194,0.0012750813823765306,-0.0008673586579597825
149610000000.0,2,0.07830610025,0.1828351826,-0.2290637307,0.14736,-0.096938,-0.052732,-0.14922779304999997,-4.1330126425,-8.8919837545,-0.016781,0.43504,0.27873,-9.999999999998899e-05,-0.00029999999999996696,0.0012999999999998568,0.0006236275909493605,0.0002893421112100114,-0.0033977783572173847
149610000000.0,2,0.0520536982,0.1868755224,-0.1841885003,0.11881,-0.060472,-0.049645,-0.1518657819,-4.138014033999999,-8.889532092,-0.017082,0.43561,0.27812,0.00034999999999985043,-0.00029999999999996696,0.000400000000000178,-0.00014630588670155875,-0.0025569166991723513,-0.001345646552855767
149610000000.0,2,-0.024761791249999998,0.18502206554999998,-0.09685047539999998,0.078655,-0.020698,-0.065795,-0.15285625355,-4.1406618295,-8.888257227499999,-0.017196,0.43591,0.27751,0.0003500000000000725,0.0018000000000000238,-0.0030000000000001137,0.005948823254420588,0.0115224868396826,0.014540663045371632
149610000000.0,2,-0.0768252961,0.18907221199999996,-0.12552512,0.07054,0.018818,-0.08936,-0.15062033735,-4.1412502285,-8.8880610945,-0.016945,0.43598,0.27669,0.00029999999999996696,-0.0001500000000000945,0.00029999999999996696,-0.0006803605196287199,-0.003050078740473694,0.00035390992718933867
149610000000.0,2,-0.03429385505,0.21987489964999998,-0.08980930069999998,0.088915,0.045314,-0.096846,-0.14377529565,-4.142917359,-8.887374628999998,-0.016176,0.43616,0.27568,-9.999999999998899e-05,-0.00014999999999987246,0.00029999999999996696,-0.0005372870305370148,-0.0027635579619600392,-0.001558305199546195
149610000000.0,2,-0.0282039254,0.2519132252,0.030596747999999997,0.1049,0.050499,-0.086153,-0.13624378845000001,-4.146840019,-8.885707498499999,-0.015332,0.4366,0.27474,-0.00019999999999997797,-0.00020000000000020002,0.000500000000000167,-0.001220326113206216,0.0016384655292258632,-0.0006478296372116332
149610000000.0,2,-0.00811009955,0.19980068709999999,0.049454935949999994,0.099427,0.047327,-0.065876,-0.12910454724999998,-4.152135609999999,-8.8833539025,-0.014532,0.4372,0.27397,3.333333333332966e-05,-9.999999999998899e-05,0.00039999999999995595,-0.0019423260193052183,-0.0005664422927076362,-0.00042975758719945856
149610000000.0,2,0.02570322965,0.13645953475,0.06906823594999999,0.080229,0.055999,-0.054183,-0.12131806715,-4.157823467,-8.8808041735,-0.01366,0.43783,0.27332,3.333333333332966e-05,-0.0009500000000000064,0.00019999999999997797,-0.0017763660922153202,-0.0014079225413015095,0.0004292116697032222
149610000000.0,2,0.014847268099999998,0.10915782115,0.11493393799999999,0.055848,0.077511,-0.052129,-0.11210962279999999,-4.1624325925,-8.878744777,-0.012626,0.43835,0.27273,3.333333333332966e-05,-0.0009500000000000064,0.0020999999999999908,-0.007669691088134645,-0.02005680670375054,-0.013006929831707426
149610000000.0,2,0.00626644935,0.09438900624999999,0.1919553671,0.01868,0.095939,-0.057563,-0.1012830812,-4.164982321499999,-8.8776660455,-0.011408,0.43864,0.2721,-0.0004999999999999449,-0.00019999999999997797,0.001000000000000112,-0.00029557987621076087,0.00989806190025222,0.0005198306741867886
149610000000.0,2,0.0119248864,0.0953990912,0.22111053754999999,-0.016428,0.097313,-0.075772,-0.0897308475,-4.164295856,-8.878058311499998,-0.010107,0.43857,0.27133,0.00029999999999996696,-9.999999999998899e-05,-0.000300000000000189,-0.002903825390237591,0.0009580627503040784,0.00013326782526246195
149610000000.0,2,0.03170489945,0.11353158705,0.19054320949999998,-0.025789,0.11234,-0.10037,-0.0749424193,-4.161549994,-8.879529309,-0.00844,0.43825,0.27022,0.00039999999999995595,-4.999999999988347e-05,-0.0005999999999999339,-0.0008229963127990292,-0.00956851858551544,-0.000707535329679182
149610000000.0,2,0.1128353149,0.1492964396,0.21836467554999997,-0.008743,0.11007,-0.099266,-0.05731986925,-4.159294464499999,-8.880706107,-0.006454,0.438,0.26893,5.0000000000105516e-05,-5.0000000000105516e-05,9.999999999998899e-05,-0.00105680734143343,-0.00018605440255869965,-0.00018736628612966988
149610000000.0,2,0.17437204365,0.1627707767,0.29327767489999995,0.014433,0.089605,-0.072505,-0.0453851762,-4.160177063,-8.8804119075,-0.00511,0.4381,0.26804,4.999999999988347e-05,-9.999999999998899e-05,9.999999999998899e-05,-0.000495025386072101,-0.0015568762790860724,-0.00010865091152184592
149610000000.0,2,0.15869121029999997,0.150237878,0.2866483795,0.031279,0.078789,-0.044706,-0.0316558662,-4.1623345259999995,-8.879431242499999,-0.003565,0.43834,0.26725,9.999999999998899e-05,-9.999999999998899e-05,9.999999999998899e-05,-0.000685788353064265,-0.0004356696180665143,0.0004190709471824927
149610000000.0,2,0.10968738025,0.1428240506,0.28699161224999997,0.047373,0.0957,-0.035106,-0.018858187949999997,-4.1661591195,-8.8776660455,-0.002125,0.43877,0.26669,9.999999999998899e-05,-9.999999999998899e-05,4.999999999988347e-05,-9.809287794354526e-05,-0.0007164099554319847,8.970674745747975e-05
149610000000.0,2,0.05981075835,0.13284088089999999,0.35971772864999996,0.047514,0.1085,-0.042601,-0.0057859235,-4.1712585775,-8.875312449499999,-0.000652,0.43935,0.26615,9.999999999998899e-05,-9.999999999998899e-05,5.0000000000105516e-05,-0.0002587822389321093,-0.001177669442801621,-0.00031557224573094955
149610000000.0,2,0.032911117399999995,0.1430201836,0.3534120527,0.043289,0.10961,-0.049015,0.00734518085,-4.1757696365,-8.8731549865,0.000828,0.43986,0.26557,5.0000000000105516e-05,-9.999999999998899e-05,-5.0000000000105516e-05,0.001449748242435378,-0.001147029018452761,0.00032992243785981423
149610000000.0,2,0.07485415945,0.13404709885,0.34977378554999994,0.035658,0.09049,-0.046861,0.02001537265,-4.179986496,-8.8711936565,0.002256,0.44033,0.26494,5.0000000000105516e-05,-9.999999999998899e-05,-4.999999999988347e-05,-0.0005378229862697537,4.880695434028581e-06,0.00033239682012170535
149610000000.0,2,0.11868988494999999,0.08962297435,0.34334062314999997,0.024761,0.068196,-0.036168,0.0312439869,-4.184007222499999,-8.8692323265,0.003523,0.44078,0.26435,9.999999999998899e-05,-9.999999999998899e-05,-9.999999999998899e-05,0.0007382688257084324,-0.0006257315703324107,9.26769184393661e-05
149610000000.0,2,0.1855614313,0.06276256,0.29546455785,0.017121,0.054401,-0.02335,0.0421882083,-4.187341483499999,-8.867565196,0.004758,0.44116,0.26382,9.999999999998899e-05,-9.999999999998899e-05,-9.999999999998899e-05,-0.00040991498880249555,-0.0016897765211767446,-3.7628235944053845e-06
149610000000.0,2,0.16793888125,0.08354285135,0.28200983405,0.005355,0.05769,-0.011637,0.05202427824999999,-4.189204747,-8.866682597499999,0.005868,0.44137,0.26345,0.00019999999999997797,-9.999999999998899e-05,-9.999999999998899e-05,0.0005414895523773167,-0.0013499909926697473,3.5148975780302516e-05
149610000000.0,2,0.0921432834,0.1059902732,0.30095628185,-0.013698,0.071712,-0.019168,0.0612327226,-4.189204747,-8.866682597499999,0.006906,0.44137,0.26315,9.999999999998899e-05,-0.00019999999999997797,-0.00019999999999997797,-0.00011193121798197536,-0.001897137721930564,-0.00044164136210131377
149610000000.0,2,0.0020299765499999997,0.07240249694999999,0.2850989288,-0.034864,0.080433,-0.039501,0.06995083444999999,-4.1877337494999995,-8.867270996499999,0.007888,0.44121,0.26275,-1.1111111111183902e-05,-9.999999999998899e-05,-9.999999999998899e-05,0.0005303801175776668,-0.0015468764046016048,3.428490341328416e-05
149610000000.0,2,-0.00758054045,-0.0367357109,0.2261805756,-0.058181,0.080656,-0.069429,0.07985555094999999,-4.185870486,-8.8680555285,0.009005,0.441,0.26207,-1.1111111110961858e-05,-0.00019999999999997797,-0.00019999999999997797,0.001155291777293177,-0.0005429189353847175,-0.0006805301219525994
149610000000.0,2,-0.0849648156,-0.092967042,0.1953288547,-0.070826,0.077597,-0.10467,0.08900515540000001,-4.1832226905,-8.8692323265,0.010035,0.4407,0.26109,-1.1111111111183902e-05,-0.00020000000000020002,-9.999999999998899e-05,0.0022937391717919864,-0.001518613315522277,-0.0013001506808318908
149610000000.0,2,-0.11362965355,-0.10303847155,0.11082495165,-0.071841,0.075483,-0.11747,0.0983606995,-4.179398097,-8.870899457,0.011088,0.44027,0.25993,-1.1111111111183902e-05,-0.00019999999999997797,-0.00019999999999997797,0.0016354953835534536,-0.0007184313446955137,-0.0005257005775038404
149610000000.0,2,-0.10311692474999999,-0.10435256265,0.10249910579999999,-0.084756,0.068114,-0.10574,0.10715726454999999,-4.1749851045,-8.872860787,0.012076,0.43977,0.25884,-1.1111111110961858e-05,-0.00029999999999996696,-9.999999999998899e-05,0.0017224127169821468,-0.00018099912371183358,-0.0007927336992283596
149610000000.0,2,-0.1573771192,-0.11374733335,0.0924178696,-0.10305,0.053333,-0.098272,0.1130902878,-4.1689049815,-8.8757047155,0.012741,0.43908,0.25791,-1.1111111111183902e-05,-0.00019999999999997797,-0.00019999999999997797,0.0004923312840546812,0.0011162014565047063,-7.283884581529843e-05
149610000000.0,2,-0.15917173615,-0.06934282215,-0.0273017136,-0.10965,0.032063,-0.091839,0.11697372119999999,-4.1598828635,-8.879921575,0.013173,0.43806,0.25705,-1.1111111111183902e-05,-9.999999999998899e-05,-9.999999999998899e-05,0.0005537383651670336,0.0021981351207658317,-0.00014815653793634476
149610000000.0,2,-0.11243324224999998,-0.0042953127,-0.056456884049999996,-0.11318,-0.003088,-0.081108,0.1187193049,-4.149193615,-8.8848249,0.013361,0.43686,0.25625,-1.1111111110961858e-05,-0.00029999999999996696,-0.00020000000000020002,0.0015463745102539672,0.0011292480923250636,-0.000786326543433663
149610000000.0,2,-0.1058333668,0.04659139415,-0.0703725204,-0.11462,-0.042518,-0.070365,0.11645396875,-4.137425635,-8.8904146905,0.013099,0.43554,0.25557,-1.1111111111183902e-05,-9.999999999998899e-05,-9.999999999998899e-05,0.0007184330573842823,0.0013794259723107771,-0.0008175781085473788
149610000000.0,2,-0.08515114195,0.08020859035,-0.16607561775,-0.1137,-0.050004,-0.054338,0.11253130875,-4.124186657499999,-8.89659288,0.012649,0.43405,0.25503,-9.999999999998899e-05,-0.00019999999999997797,-9.999999999998899e-05,0.002156703475945876,0.00037267519208294964,-0.0011559806626538216
149610000000.0,2,-0.10041028934999999,0.1301734721,-0.1826782762,-0.096462,-0.019261,-0.040485,0.10968738025,-4.1112418795,-8.902574936499999,0.01232,0.4326,0.25466,-9.999999999998899e-05,-0.00019999999999997797,-0.00019999999999997797,0.0009635572264100056,0.0005419116576843575,-0.0002375728378811448
149610000000.0,2,-0.18488477245,0.1724793602,-0.1294870066,-0.077966,0.032789,-0.028803,0.11276666835,-4.103886892,-8.9059091975,0.012661,0.43177,0.25432,-0.00019999999999997797,-4.999999999988347e-05,-9.999999999998899e-05,3.668293967057368e-05,-0.00037257083855024575,-0.00018267389696777214
149610000000.0,2,-0.21367709684999997,0.18400217395,-0.04162922925,-0.070134,0.079609,-0.026738,0.12000397604999999,-4.097512569499999,-8.908753126,0.01347,0.43105,0.25403,-0.00010000000000021103,-5.0000000000105516e-05,-5.0000000000105516e-05,0.001393231709898135,-0.0005203639681177208,-0.0001299062106932536
149610000000.0,2,-0.18015796715,0.16877244649999998,-0.033107250399999996,-0.057072,0.11253,-0.025706,0.13047747825,-4.0920208455,-8.9112047885,0.014641,0.43043,0.25375,-9.999999999998899e-05,-5.0000000000105516e-05,-4.999999999988347e-05,0.0006839960528037814,-0.001868827382464966,0.00032650572041292847
149610000000.0,2,-0.094732239,0.1487276539,-0.012415218899999999,-0.027101,0.12614,-0.024609,0.140823494,-4.086038789,-8.9137545175,0.015797,0.42976,0.25357,-9.999999999998899e-05,-4.999999999988347e-05,-9.999999999998899e-05,0.00028321675594267237,-0.001631576496742726,0.00035407041358645475
149610000000.0,2,0.0189464478,0.15113028315,0.035362779899999995,0.012215,0.10876,-0.020241,0.15209133484999998,-4.0861368554999995,-8.913460317999998,0.017062,0.42978,0.25334,-9.999999999998899e-05,-0.00012500000000015277,-9.999999999998899e-05,-0.0007139799233840116,-0.0011439715744578915,0.00010023536826558876
149610000000.0,2,0.1313894967,0.16454578034999998,0.08236605335,0.039541,0.059511,-0.015837,0.1593580625,-4.0890788505,-8.9119893205,0.01788,0.43011,0.25316,-9.999999999998899e-05,-0.00012499999999993072,-0.00019999999999997797,0.0005164330344344381,1.948466682377692e-05,-0.00024448684608341376
149610000000.0,2,0.23117216045,0.13633204829999998,0.08690653229999999,0.052857,-0.013054,-0.021023,0.16073099349999997,-4.093491843,-8.9100279905,0.018037,0.43061,0.25293,0.00045000000000006146,-0.00012499999999993072,-0.00019999999999997797,-0.0008400994872430068,0.0006963084357496374,-0.0004440723474267716
149610000000.0,2,0.26198465475,0.11766999334999999,0.07397156095,0.050181,-0.091858,-0.039038,0.1616332053,-4.0965319045,-8.908556993,0.018142,0.43095,0.25226,0.00045000000000006146,-0.00012500000000015277,-0.00029999999999996696,-0.0014219071922516036,0.0022571290641291153,0.0026737624734844145
149610000000.0,2,0.2875702046,0.0938496405,0.09096648539999999,0.036072,-0.13434,-0.059268,0.15251302079999998,-4.099964232,-8.907184061999999,0.017121,0.43133,0.25166,-0.001000000000000112,0.000500000000000167,-5.0000000000105516e-05,0.0006491657103996351,0.001564954423494358,-0.004847140780290221
149610000000.0,2,0.21792337629999997,0.0514849125,0.08407241045,0.018161,-0.11926,-0.080674,0.14435388799999999,-4.101925562,-8.90639953,0.016206,0.43155,0.25083,-9.999999999998899e-05,-0.00010000000000021103,-4.999999999988347e-05,8.604340761275697e-06,-8.99092152453207e-05,-0.0014422789614242926
149610000000.0,2,0.05899680639999999,0.0146315218,0.1451972599,-0.011283,-0.077435,-0.10001,0.1404704546,-4.1015332959999995,-8.906595663,0.01577,0.43151,0.24978,-9.999999999998899e-05,-4.999999999988347e-05,-0.00019999999999997797,-0.000445720938899552,-0.00020148531613672915,-0.0011303271234196222
149610000000.0,2,-0.0223003221,-0.0463658412,0.1464328978,-0.049215,-0.021705,-0.10658,0.14171589915,-4.097806769,-8.9082627935,0.015906,0.43109,0.24861,-9.999999999998899e-05,-5.0000000000105516e-05,-0.000300000000000189,0.0008140019353765071,-1.0966316525529152e-05,-0.0009601145921279419
149610000000.0,2,-0.0577023286,-0.0870438254,0.0534070159,-0.071232,0.031746,-0.098173,0.1462956047,-4.0939821755,-8.9100279905,0.016417,0.43066,0.24756,-9.999999999998899e-05,-9.999999999998899e-05,-9.999999999998899e-05,0.0010605917471364634,-0.0018601486651805832,-0.001294745528891278
149610000000.0,2,-0.09366331415,-0.10176360705,0.044649677449999994,-0.088068,0.069162,-0.08439,0.15336619934999998,-4.0886865844999996,-8.91228352,0.017206,0.43007,0.2467,-0.00019999999999997797,-9.999999999998899e-05,-0.00019999999999997797,0.0008976249038585848,-0.0006807866600118118,-0.000470270440164261
149610000000.0,2,-0.07116685905,-0.08589644734999999,0.06345883214999999,-0.11466,0.085352,-0.07379,0.16244715725,-4.080939331,-8.9157158475,0.018218,0.42919,0.24594,-4.999999999988347e-05,-5.0000000000105516e-05,-0.00019999999999997797,0.0017717882173128308,-0.0002448533133245778,3.375567199065399e-06
149610000000.0,2,-0.0102773692,-0.07861991304999999,-0.0105323421,-0.13187,0.074825,-0.06206,0.1721851607,-4.070544282,-8.920324973,0.0193,0.42803,0.24525,-5.0000000000105516e-05,-4.999999999988347e-05,-0.00029999999999996696,0.001759384016866039,0.0008035785739626267,0.00033655200570370525
149610000000.0,2,0.0746678331,-0.07978690439999998,-0.04094276375,-0.13854,0.047169,-0.053485,0.1812072787,-4.0590705015,-8.9253263645,0.0203,0.42674,0.24459,-9.999999999998899e-05,-4.999999999988347e-05,-0.00029999999999996696,0.0003049228137148585,0.00017846765730178404,-0.000272678731397219
149610000000.0,2,0.09656608254999999,-0.0550153065,-0.07210829745,-0.12378,0.025737,-0.051288,0.18819942015,-4.047596721,-8.930425822499998,0.021071,0.42546,0.24395,-9.999999999998899e-05,-5.0000000000105516e-05,-0.00019999999999997797,0.002138999208388781,-0.0005127182289910159,-0.0007794340299157321
149610000000.0,2,0.0912802982,-0.013297817399999998,-0.1049899949,-0.081094,0.021136,-0.060814,0.19467180914999999,-4.0382804035,-8.934446548999999,0.021786,0.42442,0.24323,-5.0000000000105516e-05,-2.4999999999941735e-05,-0.00019999999999997797,0.00022457504046791144,-0.0005430503900463179,-0.00021959581200464706
149610000000.0,2,0.06090910315,0.05184775855,-0.08043414329999998,-0.034176,0.017557,-0.061795,0.20021256639999999,-4.0323964135,-8.936996278,0.022399,0.42375,0.2425,-4.999999999988347e-05,-2.500000000016378e-05,-9.999999999998899e-05,0.00026713606916278776,-0.0009337030083791387,-0.0007704355416502662
149610000000.0,2,0.058271114299999996,0.05116129305,-0.0614876955,-0.007573,0.013071,-0.055337,0.20508647145,-4.029552485,-8.938173076,0.022941,0.42344,0.24182,-9.999999999998899e-05,-2.4999999999941735e-05,-9.999999999998899e-05,-0.0005205838191406631,-0.0002024605203747587,-0.00013780053099032852
149610000000.0,2,0.09111358515,-0.0045698989,-0.07136299204999999,-0.007607,0.016259,-0.043603,0.210254576,-4.0282776205,-8.938565341999999,0.023518,0.4233,0.24121,-5.0000000000105516e-05,-2.4999999999941735e-05,-0.00010000000000021103,-0.0002492414186356373,5.2177164233668805e-06,0.00019960330935825388
149610000000.0,2,0.14224545824999998,-0.052867650149999994,-0.07873759285,-0.019237,0.040845,-0.02552,0.21449104879999997,-4.026904689499999,-8.939153741,0.02399,0.42314,0.24089,-4.999999999988347e-05,-3.333333333332966e-05,-9.999999999998899e-05,0.000293070716869015,-0.0005307569921371158,-0.0001331458645082162
149610000000.0,2,0.1289182209,-0.092378643,-0.01581812645,-0.040426,0.069778,-0.008531,0.2236308466,-4.025237559,-8.93974214,0.02501,0.42295,0.24061,9.999999999998899e-05,-3.333333333332966e-05,-9.999999999998899e-05,0.0009692836995983667,0.0005268736743682112,0.00038176697755865074
149610000000.0,2,0.1255055067,-0.1262508121,0.04149193615,-0.071387,0.075351,0.00528,0.23332962345,-4.0220013644999995,-8.940918938,0.026091,0.4226,0.24051,5.0000000000105516e-05,-3.333333333332966e-05,-0.00019999999999997797,0.0010111070876125394,-0.001252453480520943,0.00032827296254014926
149610000000.0,2,0.15634742094999998,-0.12563299314999998,0.03003776895,-0.095023,0.059559,0.013804,0.24213599515,-4.0163135075,-8.9431744675,0.027068,0.42196,0.2405,4.999999999988347e-05,-5.0000000000105516e-05,-9.999999999998899e-05,0.000984266731619332,0.00016620161518865473,0.0006236017060116394
149610000000.0,2,0.16293748975,-0.1220143393,-0.010444082249999998,-0.097433,0.021229,0.008528,0.24811805165,-4.009448852499999,-8.9461164625,0.027728,0.4212,0.24048,-1.6666666666775853e-05,-4.999999999988347e-05,-0.00019999999999997797,0.0011286877307677967,0.0003328866303582423,0.00022559026010368632
149610000000.0,2,0.16029950089999997,-0.09760558744999999,-0.043806305549999994,-0.090311,-0.031025,-0.005246,0.25015783485,-4.002289997999999,-8.949254590499999,0.027945,0.4204,0.24034,-1.666666666655381e-05,1.6666666666775853e-05,-4.999999999988347e-05,0.0009184185386287291,0.0011523878010910593,-0.00044404290757452114
149610000000.0,2,0.12888880095,-0.045620535799999994,-0.12486807444999999,-0.064987,-0.074904,-0.019003,0.24759829919999998,-3.9953272765,-8.952490785,0.02765,0.41962,0.24007,-1.666666666655381e-05,1.666666666655381e-05,-5.0000000000105516e-05,0.0012833880453095858,0.0008951775402128437,-0.0008612440841405389
149610000000.0,2,0.08162074795,0.000392266,-0.17610782069999997,-0.02777,-0.097574,-0.030641,0.2417535358,-3.9905220179999996,-8.9547463145,0.02699,0.41907,0.2397,-1.6666666666775853e-05,1.666666666655381e-05,4.0000000000040004e-05,0.00036728556934551015,0.0012307057317384462,-0.0007467907409987318
149610000000.0,2,0.00784532,0.028037212349999997,-0.1483157746,0.003162,-0.095702,-0.026321,0.23396705569999998,-3.988364555,-8.955923112499999,0.026118,0.41884,0.23939,-1.6666666666775853e-05,1.6666666666775853e-05,4.0000000000040004e-05,-0.00043922775272753345,0.0008440977986412523,-0.00044129122259234377
149610000000.0,2,-0.0938496405,0.0565451439,-0.15011039154999997,0.026828,-0.059689,-0.008196,0.22598444259999997,-3.9881684219999998,-8.956217312,0.025227,0.41881,0.23934,-1.666666666655381e-05,1.6666666666775853e-05,3.999999999981796e-05,-0.0006567549269889117,-0.00040148493095637505,4.248008746940424e-05
149610000000.0,2,-0.17698061255,0.07136299204999999,-0.1352140902,0.046358,-0.004468,0.014158,0.2200808393,-3.9896394195,-8.9557269795,0.024569,0.41898,0.2396,1.999999999990898e-05,1.666666666655381e-05,4.0000000000040004e-05,-0.0010517505964139362,-0.00039420804856882263,0.00041354693985518054
149610000000.0,2,-0.21443220889999998,0.08801468375,-0.12480923455,0.067971,0.044341,0.036527,0.21727613739999999,-3.9929736804999996,-8.954354048499999,0.024261,0.41935,0.24013,2.0000000000131024e-05,5.0000000000105516e-05,4.0000000000040004e-05,-0.0008386771410600069,-0.0003772503071839406,0.0009402782539770504
149610000000.0,2,-0.19234763309999997,0.1114427706,-0.0814344216,0.077623,0.059161,0.049329,0.21673677164999997,-3.9973866729999994,-8.952294651999999,0.024206,0.41985,0.24082,1.999999999990898e-05,4.999999999988347e-05,5.0000000000105516e-05,-0.0013991256202502411,-0.0004973290420111631,0.0005020398671782833
149610000000.0,2,-0.06842099704999999,0.0612915625,-0.0645473703,0.068835,0.027264,0.048303,0.21671715835,-4.0024861309999995,-8.9500391225,0.024209,0.42041,0.2414,2.0000000000131024e-05,4.999999999988347e-05,4.999999999988347e-05,-0.0010137911765620289,-0.00034863212654490106,0.0005078651516038091
149610000000.0,2,0.11396307965,-0.014013702849999999,-0.11129567084999999,0.060962,-0.029134,0.038781,0.21598165959999996,-4.007683655499999,-8.947783592999999,0.024134,0.42099,0.24174,1.999999999990898e-05,5.0000000000105516e-05,0.0004999999999999449,0.0018765255551367321,0.005651930592331933,-0.0011095752749887833
149610000000.0,2,0.23237837839999997,-0.06964682829999999,-0.062144741049999994,0.051927,-0.10043,0.025012,0.21204919295,-4.0133715125,-8.9453319305,0.0237,0.42163,0.24183,1.999999999990898e-05,9.999999999998899e-05,5.0000000000105516e-05,-0.0008870753491668215,0.0015991439976099642,-0.00020990131682988022
149610000000.0,2,0.31188088994999996,-0.10527438774999999,-0.03286208415,0.046278,-0.15151,0.006943,0.20496879164999998,-4.0191574359999995,-8.942880268,0.022915,0.42228,0.24167,2.0000000000131024e-05,9.999999999998899e-05,5.0000000000105516e-05,-0.0007859352484499427,0.001732686373669523,-0.0006592172482606795
149610000000.0,2,0.33609350879999994,-0.1085596155,-0.029792602699999997,0.048454,-0.1547,-0.00586,0.19751573764999997,-4.025041426,-8.9404286055,0.022089,0.42294,0.24133,1.999999999990898e-05,-5.0000000000105516e-05,9.999999999998899e-05,-0.0008007875591068969,0.0005800875135184569,-0.00045360614008124744
149610000000.0,2,0.24951059595,-0.0441103117,0.0281646988,0.052053,-0.10251,-0.001679,0.1919161405,-4.030533149999999,-8.938075009499999,0.021469,0.42355,0.24104,2.0000000000131024e-05,-4.999999999988347e-05,-9.999999999998899e-05,-0.0022836415370715013,-0.003974857359202444,0.0007970005239683609
149610000000.0,2,0.14909049994999998,0.011365907350000001,0.05023946795,0.05035,-0.024741,0.036605,0.1898371307,-4.035436474999999,-8.935917546499999,0.021241,0.4241,0.24116,1.999999999990898e-05,9.999999999998899e-05,9.999999999998899e-05,0.00046324264835395645,6.882849528100365e-07,0.0005110825091155791
149610000000.0,2,0.07450112005,0.00030400615,0.08851482289999998,0.037876,0.054155,0.097286,0.19110218855,-4.0400456005,-8.9337600835,0.021388,0.42462,0.24198,9.999999999998899e-05,5.0000000000105516e-05,9.999999999998899e-05,-0.0003459794546384898,-0.0004047976278782617,0.001180750599383773
149610000000.0,2,-0.0002941995,-0.02903749065,0.07746272835,0.018867,0.10754,0.14412,0.1945247094,-4.043477928,-8.932092953,0.021774,0.425,0.24344,0.00019999999999997797,4.999999999988347e-05,9.999999999998899e-05,-0.000565579324668164,-0.0009541549045770648,0.002229822716496188
149610000000.0,2,0.0154160538,-0.03764772935,0.0448752304,0.00605,0.11829,0.16436,0.19900634844999998,-4.0455373245,-8.931112288,0.022279,0.42523,0.24519,0.00019999999999997797,6.666666666665932e-05,9.999999999998899e-05,-0.000534266938759409,-0.0010123988952976948,0.0017889709924606145
149610000000.0,2,0.0911430051,-0.02262394155,-0.007766866799999999,0.016522,0.091565,0.16123,0.203193788,-4.047204455,-8.9302296895,0.022749,0.42542,0.24691,0.00019999999999997797,6.666666666665932e-05,9.999999999998899e-05,-0.00014268225408448076,-0.0014509097393140546,0.001001101336901844
149610000000.0,2,0.13163466294999998,0.025850329399999997,-0.030949787399999998,0.041883,0.047692,0.14,0.20520415124999997,-4.0500483835,-8.928954825,0.022978,0.42573,0.24838,9.999999999998899e-05,6.666666666665932e-05,0.0004499999999998394,-0.00017457205883780746,0.0007811372841362019,0.00146061450968199
149610000000.0,2,0.16595793795,0.05663340374999999,0.021349077049999998,0.069261,-0.015368,0.11133,0.20364489389999998,-4.055245908,-8.926601229,0.02281,0.42632,0.24952,-9.999999999998899e-05,-0.00019999999999997797,0.00045000000000006146,0.002989717077607812,-0.001961246839064179,-0.0017387232807920816
149610000000.0,2,0.19022939669999997,0.050465020900000004,0.0461893215,0.076357,-0.0772,0.086902,0.19778051719999998,-4.0618163635,-8.923757300499998,0.02216,0.42705,0.25036,9.999999999998899e-05,9.999999999998899e-05,0.00029999999999996696,0.0012734105845746413,2.9393611790329288e-05,-0.00022724411645619336
149610000000.0,2,0.19002345704999998,0.0245754649,0.0419332354,0.063417,-0.10903,0.063451,0.18915066519999998,-4.0678964865,-8.921109504999999,0.0212,0.42774,0.25095,9.999999999998899e-05,-9.999999999998899e-05,0.00019999999999997797,-0.0001105218497338134,-0.0016214346610099462,-0.0003988090740746908
149610000000.0,2,0.15742615245,-0.0095712904,0.07751176159999999,0.0444,-0.095002,0.048448,0.1809130792,-4.073290144,-8.9188539755,0.020281,0.42834,0.25138,0.00019999999999997797,9.999999999998899e-05,5.0000000000105516e-05,-0.0009361173592269956,0.0003292121955864591,5.9179229799505295e-05
149610000000.0,2,0.09184908389999999,-0.0259680092,0.1300557923,0.019203,-0.046835,0.044049,0.17541154855,-4.0771147375,-8.917186845,0.019668,0.42877,0.25178,0.00019999999999997797,2.4999999999941735e-05,5.0000000000105516e-05,-0.00017378846791293867,6.11595614359306e-05,0.00036861414062927533
149610000000.0,2,-0.017995202749999998,-0.0328915041,0.1646732668,-0.011286,0.009892,0.044964,0.17272452645,-4.078389602,-8.9166965125,0.019369,0.42891,0.25229,0.00020000000000020002,2.500000000016378e-05,-0.00010000000000021103,0.00013216952681766037,-0.0005305075805093207,0.000818849085336304
149610000000.0,2,-0.07437363359999999,-0.04174690905,0.07610941064999999,-0.006739,0.05991,0.069435,0.17313640575,-4.0786838014999995,-8.916598446,0.019415,0.42894,0.25304,0.00029999999999996696,2.4999999999941735e-05,-9.999999999998899e-05,-0.0007832677942551936,-0.002325502038375893,0.0007729974620647728
149610000000.0,2,-0.0880833303,0.00722750105,0.0627429467,0.024262,0.085197,0.098265,0.17501928254999996,-4.0806451315,-8.915617780999998,0.019629,0.42917,0.25411,4.999999999988347e-05,2.4999999999941735e-05,6.666666666665932e-05,-0.00141171980783239,-0.0013871202053314935,0.0018352771771778242
149610000000.0,2,-0.1258977727,0.044002438549999995,0.1017538004,0.049793,0.087095,0.11645,0.1758724611,-4.084960057499999,-8.913656451,0.019729,0.42965,0.25545,5.0000000000105516e-05,0.00019999999999997797,6.666666666688137e-05,-0.0007585070156780338,-0.0006239594349579658,0.0013761887868506129
149610000000.0,2,-0.09033885979999999,0.06861713004999999,0.01834824215,0.0678,0.07096,0.11651,0.17607840074999997,-4.089961449,-8.911302854999999,0.019757,0.43021,0.25681,0.00019999999999997797,0.00019999999999997797,6.666666666665932e-05,-0.0002588390147817421,0.0011393828685168916,0.0013955747649322392
149610000000.0,2,-0.045806862149999995,0.06864655,0.0108069283,0.073015,0.050679,0.10802,0.17658834654999997,-4.096629971,-8.9082627935,0.019821,0.43095,0.25801,0.00019999999999997797,0.00020000000000020002,0.00019999999999997797,-0.001967056440281667,-0.0020399483947757258,-0.00010604756624771339
149610000000.0,2,-0.019966339399999998,0.043580752599999995,0.04489484369999999,0.059167,0.040159,0.086667,0.1761862739,-4.1022197615,-8.905713064499999,0.019781,0.43158,0.25903,-0.00039999999999995595,0.00019999999999997797,0.00019999999999997797,1.7328073012634615e-05,0.025653902829725572,0.004537504302967538
149610000000.0,2,-0.04963145565,0.029537629799999996,0.08446467645,0.030479,0.035099,0.054605,0.175931301,-4.1059462885,-8.9039478675,0.019756,0.432,0.25977,0.0004999999999999449,0.0010999999999998789,-0.0023999999999999577,0.005346300911228896,-0.0026147551555073534,0.010759952927216154
149610000000.0,2,-0.0575061956,-0.0081395195,0.10485270179999999,-0.003583,0.026883,0.025741,0.1761666606,-4.1075153525,-8.903261402,0.019785,0.43218,0.26018,9.999999999998899e-05,9.999999999998899e-05,1.999999999990898e-05,-0.00039639224944854057,0.000648457832019389,0.0004550349580638158
149610000000.0,2,-0.060820843299999997,-0.03947176625,0.09467339909999999,-0.027023,0.020698,0.009701,0.17649028004999998,-4.106828887,-8.903555601499999,0.01982,0.4321,0.26037,9.999999999998899e-05,-5.0000000000105516e-05,2.0000000000131024e-05,7.548465081724798e-05,0.00019091741857701905,0.0002363065955763577
149610000000.0,2,-0.042099948449999994,-0.048042778349999996,0.06738149215,-0.03661,0.025034,0.013948,0.17737287854999997,-4.1049656235,-8.9043401335,0.019917,0.4319,0.26053,9.999999999998899e-05,-4.999999999988347e-05,1.999999999990898e-05,-0.00012263751275548573,-0.00030251571980577374,0.0006455805093137368
149610000000.0,2,-0.018338435499999996,-0.08132654845,0.11776805985,-0.039865,0.030367,0.034214,0.17845161005000001,-4.103690759,-8.9049285325,0.020036,0.43175,0.26087,3.333333333332966e-05,-4.999999999988347e-05,2.0000000000131024e-05,0.0007501446422352731,1.580457591665585e-05,0.000608073723303737
149610000000.0,2,-0.029145363799999997,-0.09453610599999998,0.10195974005,-0.035743,0.028173,0.06091,0.17833393025,-4.102612027499999,-8.905418865,0.020022,0.43163,0.2615,3.333333333332966e-05,-5.0000000000105516e-05,1.999999999990898e-05,-0.0004824872539713754,0.0008172431991140261,0.0006035171175190479
149610000000.0,2,0.00226533615,-0.07940444505,0.0585653138,-0.017793,0.021603,0.088706,0.17700022584999997,-4.1024158945,-8.905614997999999,0.019873,0.4316,0.26241,3.333333333332966e-05,-9.999999999998899e-05,-4.999999999988347e-05,0.0007375266345907572,-0.00020192711261102225,0.00041990311798367763
149610000000.0,2,0.008335652499999999,-0.049023443349999994,0.05704528305,0.017373,0.015986,0.088777,0.1749702493,-4.104475291,-8.904634333,0.019646,0.43184,0.26339,0.00039999999999995595,9.999999999998899e-05,-5.0000000000105516e-05,-0.0002601248336261963,0.000404141684493986,0.002202698476805598
149610000000.0,2,-0.015288567349999999,0.00505042475,0.0576827153,0.049382,0.009339,0.07817,0.17241071365,-4.1086921505,-8.9027710695,0.019364,0.43231,0.2643,9.999999999998899e-05,-1.999999999990898e-05,3.333333333332966e-05,-0.000660001092588125,-5.8430949287702205e-05,0.0008225154750481911
149610000000.0,2,0.014621715149999999,0.0738636878,0.053897348399999996,0.070739,-0.006789,0.048348,0.17017479745,-4.114085808,-8.900319407,0.019118,0.43291,0.26491,9.999999999998899e-05,-2.0000000000131024e-05,3.333333333332966e-05,-0.0006998752431259248,7.434666668526546e-06,0.000277589642278836
149610000000.0,2,-0.01760293675,0.1039308767,0.018152109149999998,0.064326,-0.031207,0.011021,0.16679150319999997,-4.1186949335,-8.8982600105,0.018742,0.43344,0.26514,5.0000000000105516e-05,-1.999999999990898e-05,3.333333333332966e-05,0.00014064028403781847,0.0008676708933177402,-0.00023548990009655824
149610000000.0,2,0.013327237349999998,0.0467384939,-0.029733762799999997,0.051571,-0.044921,-0.020999,0.16370240844999998,-4.12271566,-8.8964948135,0.018398,0.43389,0.26496,5.0000000000105516e-05,-2.0000000000131024e-05,0.0001666666666666483,-0.0002715805738319199,0.00041412991496336815,-0.000525930797435431
149610000000.0,2,-0.0028635417999999997,-0.009669356899999999,-0.024634304799999996,0.029166,-0.052184,-0.032766,0.16028969424999998,-4.125755721499999,-8.8951218825,0.018017,0.43422,0.26463,4.999999999988347e-05,-1.999999999990898e-05,0.0001666666666666483,0.0005989107076030953,0.0001398459501453786,-0.0008807367857062987
149610000000.0,2,-0.051573172349999995,-0.011424747249999999,0.018152109149999998,0.01417,-0.059521,-0.032779,0.15557269559999998,-4.127520918499999,-8.8943373505,0.01749,0.43443,0.2643,5.0000000000105516e-05,-6.666666666665932e-05,0.0001666666666666483,-5.837768290195555e-05,0.0011996242318321748,0.00016637910619679563
149610000000.0,2,-0.015278760699999998,-0.020044792599999996,0.02013305245,0.010831,-0.06697,-0.01676,0.15024768465,-4.128991916,-8.8937489515,0.016892,0.43459,0.26408,9.999999999998899e-05,-6.666666666665932e-05,0.0001666666666666483,-0.0003205292920599456,-9.930243467382027e-05,-0.0006125747465365317
149610000000.0,2,0.032038325549999996,-0.00493274495,0.030989014,0.021401,-0.062821,0.009936,0.1449815136,-4.130953246,-8.8929644195,0.016302,0.43481,0.26408,0.00029999999999996696,-6.666666666665932e-05,0.0001666666666666483,-0.001515118985831343,-0.0012878328546888085,-0.001632189941527501
149610000000.0,2,0.02387919275,0.0369906838,0.053897348399999996,0.030931,-0.056531,0.034491,0.13893081055,-4.133306842,-8.8919837545,0.015623,0.43508,0.26439,5.0000000000105516e-05,-0.0012999999999998568,0.0001666666666666483,-0.016117676415774884,-0.008242065444221236,-0.00789751403731312
149610000000.0,2,0.026164142199999997,0.0680189244,0.0639785846,0.022462,-0.046873,0.036594,0.1333508267,-4.1349739725,-8.8911992225,0.014997,0.43527,0.26477,4.999999999988347e-05,-3.333333333332966e-05,9.999999999998899e-05,0.0004286443651004279,0.0005164942921174198,0.000352604040160992
149610000000.0,2,0.0364611247,0.09656608254999999,-0.0037461403,0.01302,-0.029739,0.03121,0.12963410635,-4.1349739725,-8.891297288999999,0.014579,0.43527,0.26509,-9.999999999998899e-05,-3.333333333332966e-05,0.00019999999999997797,0.0008876335367600796,-0.000386026176793397,0.0003128067950808888
149610000000.0,2,0.008973084749999999,0.09907658494999999,-0.009983169699999999,0.005534,-0.032872,0.029067,0.12570163969999998,-4.134091374,-8.891787621499999,0.014136,0.43516,0.26542,-9.999999999998899e-05,-3.333333333332966e-05,0.00019999999999997797,0.001024748735305392,0.0022418432357051987,0.0004924821084119069
149610000000.0,2,-0.043374812949999994,0.07171603145,-0.0146119085,-0.009464,-0.045528,0.020525,0.12014126915,-4.1326203765,-8.8925721535,0.01351,0.435,0.26571,9.999999999998899e-05,3.333333333332966e-05,-9.999999999998899e-05,-0.0005235118858538668,0.0004116506922922092,9.274505611917006e-05
149610000000.0,2,-0.02058415835,0.042296081449999995,-0.0439534053,-0.007335,-0.055121,0.005602,0.11440437889999999,-4.130855179499999,-8.893454752,0.012863,0.4348,0.26584,9.999999999998899e-05,3.333333333332966e-05,-0.00019999999999997797,-0.00030536276619558267,-0.0005295535859701772,-0.0004401461561279463
149610000000.0,2,-0.041138896749999994,0.023408473549999996,-0.059016419699999996,0.001301,-0.047725,-0.002935,0.10906956129999999,-4.1298745145,-8.8939450845,0.012263,0.4347,0.26587,3.333333333332966e-05,3.333333333332966e-05,3.333333333332966e-05,-0.000709651150058721,0.0010602641136674418,-9.000278896192926e-05
149610000000.0,2,-0.08526882174999999,0.0298710559,-0.07649186999999999,0.015311,-0.030797,-0.004008,0.10456830895,-4.129972581,-8.8939450845,0.011757,0.4347,0.2659,3.333333333332966e-05,5.0000000000105516e-05,3.333333333332966e-05,-0.00027757444825315947,0.0001976456381322933,0.0001546681763212321
149610000000.0,2,-0.11875853149999999,0.03980519235,-0.06318424595,0.026071,-0.015977,0.001323,0.1006554556,-4.1310513124999995,-8.8935528185,0.011317,0.43482,0.266,3.333333333332966e-05,4.999999999988347e-05,3.333333333332966e-05,-0.00021514641612851992,0.0003047336442545401,0.00019127841585878103
149610000000.0,2,-0.12710399065,0.0580749813,-0.07579559785,0.042017,-0.018251,0.008828,0.0965758892,-4.133110708999999,-8.8925721535,0.01086,0.43506,0.26618,-9.999999999998899e-05,4.999999999988347e-05,5.0000000000105516e-05,-0.00038960565353740595,2.7471801721024036e-05,-5.632652277293149e-06
149610000000.0,2,-0.08441564319999999,0.0656457151,-0.1073239776,0.053535,-0.041797,0.014227,0.0912999115,-4.136052704,-8.891297288999999,0.010268,0.43539,0.26639,-3.333333333332966e-05,5.0000000000105516e-05,4.999999999988347e-05,-0.00016433873146692868,0.0006725840820331896,-0.0001244359144431939
149610000000.0,2,-0.059624432,0.0844940964,-0.11012867949999999,0.060823,-0.068491,0.006816,0.08401357055,-4.139386965,-8.8898262915,0.00945,0.43576,0.26655,-3.333333333332966e-05,5.0000000000105516e-05,0.00019999999999997797,-0.0008146960065377185,0.0005256904736585799,-0.0003446791630564716
149610000000.0,2,-0.0564470774,0.12743741674999998,-0.11778767315000001,0.075765,-0.079252,-0.012352,0.0761976705,-4.143113492,-8.888159160999999,0.008572,0.43618,0.26652,-3.333333333332966e-05,4.999999999988347e-05,9.999999999998899e-05,-0.000910306801736871,0.00042231399536873937,-0.0007214118323694563
149610000000.0,2,-0.08928954825,0.16823308074999999,-0.06142885559999999,0.086647,-0.063342,-0.030506,0.0693918554,-4.147820684,-8.886001698,0.007809,0.43671,0.2663,-9.999999999998899e-05,9.999999999998899e-05,9.999999999998899e-05,0.0002509148144170803,-0.0011267876274243527,-0.000403855029940281
149610000000.0,2,-0.10682383844999999,0.1605152472,0.0011964113,0.077458,-0.016374,-0.039143,0.06642044044999999,-4.1528220755,-8.883648102,0.007476,0.43728,0.26597,-9.999999999998899e-05,9.999999999998899e-05,0.00010000000000021103,-0.0011143526278712956,-0.00021185667995982094,-0.0004524797722132434
149610000000.0,2,-0.1566514271,0.11400230624999999,0.03317589695,0.051148,0.030723,-0.037135,0.0670186461,-4.1567447355,-8.881882905,0.007545,0.43772,0.26568,-9.999999999998899e-05,0.00019999999999997797,4.999999999988347e-05,0.0004086391960175795,-0.0006039224702201196,0.00018377277532785619
149610000000.0,2,-0.1442754348,0.015347407249999999,0.0447575506,0.011813,0.052348,-0.030835,0.07020580735,-4.158804132,-8.88090224,0.007905,0.43795,0.26545,-9.999999999998899e-05,4.999999999988347e-05,5.0000000000105516e-05,-0.0005222288327040858,-0.0003287946234760142,-0.00017360939364066685
149610000000.0,2,-0.06757762515,-0.068058151,0.02584052275,-0.013853,0.047225,-0.0266,0.0746089932,-4.159196398,-8.880608040499999,0.008402,0.43799,0.2652,-0.00010000000000021103,5.0000000000105516e-05,-3.333333333332966e-05,0.0001525067982403039,-0.00021452059138948876,6.572480447086804e-05
149610000000.0,2,0.014239255799999998,-0.09703680174999998,0.011571847,-0.008696,0.027997,-0.021221,0.07867875295,-4.159588663999999,-8.8804119075,0.00886,0.43803,0.26495,-9.999999999998899e-05,-3.333333333332966e-05,-3.333333333332966e-05,-0.0008293578087484321,-0.00136140233997728,-0.0004886208980656448
149610000000.0,2,0.044845810449999995,-0.0557213853,0.08248373315,0.023897,-0.042583,-0.037051,0.0784532,-4.163707457,-8.878450577499999,0.008836,0.4385,0.2646,-9.999999999998899e-05,-3.333333333332966e-05,-3.333333333332966e-05,0.0013160693843993765,0.0005977567352870583,-0.0006308235330668988
149610000000.0,2,-0.042178401649999996,-0.25170728555,0.8970927287,-0.069249,-0.1121,-0.079786,0.07210829745,-4.169591447,-8.875802782,0.008124,0.43917,0.26387,-0.00019999999999997797,-3.333333333332966e-05,-0.00010000000000021103,0.0005901884282593084,0.0010458708641614134,-0.001195670955340733
149610000000.0,2,0.00652142225,-0.17087106959999998,0.6146710153499999,-0.096068,-0.13425,-0.086198,0.0639589713,-4.1612557945,-8.879725442,0.007203,0.43822,0.26293,-0.00019999999999997797,-9.999999999998899e-05,-0.00019999999999997797,0.00033603039336677076,0.0007198103534689082,-0.0012425956934624394
149610000000.0,2,0.006982334799999999,-0.2077440736,0.5873300751499999,-0.098252,-0.13318,-0.074462,0.05511337299999999,-4.152724009,-8.883844235,0.006204,0.43726,0.26208,-9.999999999998899e-05,-0.00019999999999997797,-9.999999999998899e-05,0.0006559472986998327,0.0009213427942200703,-0.0011943511540355167
149610000000.0,2,0.0102577559,-0.10635311925,0.49698140869999996,-0.082039,-0.091782,-0.049957,0.048248717999999996,-4.144682556,-8.887570762,0.005429,0.43636,0.26145,-0.00019999999999997797,-9.999999999998899e-05,-0.00019999999999997797,0.0009368608778123066,0.0008173519779433036,-0.0007014463366807611
149610000000.0,2,0.061252335899999996,0.1255839599,-0.0149845612,-0.033558,-0.029314,-0.044646,0.047091533299999995,-4.1387004995,-8.8904146905,0.005297,0.43568,0.26092,-0.00019999999999997797,-9.999999999998899e-05,5.0000000000105516e-05,0.00031982951254561076,0.0003973588626262625,-0.0008196612583944995
149610000000.0,2,-0.017955976149999997,0.1268195978,-0.1254662801,0.003102,0.008762,-0.060661,0.049523582499999996,-4.1381121005,-8.8906108235,0.00557,0.43562,0.2603,-0.00029999999999996696,9.999999999998899e-05,4.999999999988347e-05,-8.581034732280113e-05,0.00041219428953853665,-0.0001636664065625959
149610000000.0,2,0.0874557047,0.23968433265,-0.32373712979999997,0.020349,0.032061,-0.058537,0.05439748755,-4.1396811645,-8.889924358,0.006119,0.43579,0.25964,-9.999999999998899e-05,3.333333333332966e-05,4.999999999988347e-05,-0.00035312110613894276,-0.0005754248013150054,-0.00039330954762006876
149610000000.0,2,0.11908215094999998,0.20793039994999998,-0.44190726229999994,0.053432,0.03711,-0.052085,0.0598794049,-4.143701891,-8.887963028,0.006737,0.43625,0.25904,-9.999999999998899e-05,3.333333333332966e-05,5.0000000000105516e-05,-0.00012742969190598918,0.0007779810221932859,-0.0004260879026820319
149610000000.0,2,0.0884755963,0.1741857173,-0.39070674265,0.052139,0.016861,-0.039242,0.06385109815,-4.148409083,-8.885805565,0.007186,0.43678,0.25857,-0.00019999999999997797,3.333333333332966e-05,9.999999999998899e-05,-0.0008017902610522598,-0.0003651691492092546,-0.0004328246675155134
149610000000.0,2,0.13336063334999998,0.1186212384,-0.43067864804999995,0.052886,-0.017248,-0.031711,0.0669990328,-4.1481148835,-8.8859036315,0.00754,0.43674,0.25808,-9.999999999998899e-05,9.999999999998899e-05,9.999999999998899e-05,-0.00047676374019456347,0.00017939133899091964,-0.00035864190152049
149610000000.0,2,0.11930770389999999,0.06308617945,-0.4203914722,0.05582,-0.046051,-0.024183,0.06459640355,-4.152724009,-8.8837461685,0.007271,0.43726,0.25779,-9.999999999998899e-05,9.999999999998899e-05,0.00020000000000020002,-0.0009577850043753222,-0.0004573413025850126,-0.0007040040032024186
149610000000.0,2,0.138666031,-0.00565843705,-0.33598563565,0.058791,-0.0674,-0.012399,0.0596048187,-4.157823467,-8.8813925725,0.006712,0.43784,0.25761,-0.00010000000000021103,0.00019999999999997797,0.00019999999999997797,-0.00022321654961376947,6.503979621452771e-05,-0.00041967949472965227
149610000000.0,2,0.10766721034999999,-0.0374221764,-0.20608674974999996,0.071673,-0.056851,-0.011328,0.054534780649999996,-4.1636093905,-8.878744777,0.006142,0.43849,0.25748,-0.00019999999999997797,9.999999999998899e-05,0.00029999999999996696,0.0017855937975194691,-0.00013119640770886676,0.00017048699367211428
149610000000.0,2,0.03978557905,-0.046885593649999995,-0.13891119725,0.072077,-0.011024,-0.01888,0.05388754175,-4.170081779499999,-8.8757047155,0.006072,0.43921,0.25726,-9.999999999998899e-05,9.999999999998899e-05,0.00029999999999996696,-0.0005791936889154581,-0.001216982916267595,-0.0009086517604877387
149610000000.0,2,0.00169655045,-0.027713592899999997,-0.05151433245,0.074661,0.043303,-0.022174,0.0574081291,-4.176652235,-8.8725665875,0.00647,0.43996,0.25701,-0.0004999999999999449,9.999999999998899e-05,0.0007999999999999119,0.0013611613414751256,0.0034289061500991647,-0.00014715331863601744
149610000000.0,2,-0.06306656615,-0.050308114499999994,0.0040403398,0.062318,0.09882,-0.025495,0.06605759439999999,-4.182536225,-8.869722659,0.007448,0.44061,0.25673,0.00019999999999997797,-0.00039999999999995595,0.000500000000000167,0.0009925144009420017,-0.015154886079506769,-0.005987199554148531
149610000000.0,2,-0.0634686388,-0.0723338504,-0.011983726299999999,0.056207,0.13723,-0.022371,0.07858068644999999,-4.1877337494999995,-8.867172929999999,0.008862,0.4412,0.25645,0.00029999999999996696,9.999999999998899e-05,0.00029999999999996696,0.00502045329908668,-0.007555307119823329,0.0012107271924844676
149610000000.0,2,-0.04155077605,-0.06110523615,-0.0076688003,0.062561,0.13291,-0.01915,0.09093706545,-4.194108072,-8.864034801999999,0.010259,0.44193,0.25627,-0.00029999999999996696,0.00029999999999996696,-9.999999999998899e-05,-0.0051607597833410734,0.0020420122068836033,0.002335054304573564
149610000000.0,2,0.0007256920999999999,-0.04090353715,0.0337544893,0.060045,0.087106,-0.015871,0.10057700239999999,-4.199992062,-8.8611908735,0.01135,0.44259,0.25609,-9.999999999998899e-05,9.999999999998899e-05,9.999999999998899e-05,-0.0005230917068986818,-0.0013167105420135439,2.0865353510785e-05
149610000000.0,2,0.06320385925,-0.04914112314999999,0.0217315364,0.057361,0.010418,-0.02855,0.10439178924999999,-4.20509152,-8.858739211,0.011783,0.44316,0.25582,-4.999999999988347e-05,0.00013333333333331865,0.00029999999999996696,-0.0008781773683970706,-0.0017234146600748623,-0.0019274273402871411
149610000000.0,2,0.12506420745,-0.054789753549999994,-0.008070872949999999,0.050421,-0.071552,-0.0519,0.10163612059999999,-4.209602578999999,-8.856581748,0.011476,0.44367,0.2553,-5.0000000000105516e-05,0.00013333333333331865,9.999999999998899e-05,-0.0011564270423143896,9.485807717735106e-05,-0.0009503075264018779
149610000000.0,2,0.1920926602,-0.07763924805,-0.039059886950000004,0.049105,-0.11627,-0.073174,0.0989490985,-4.2149962365,-8.854032019,0.011175,0.44428,0.25434,-9.999999999998899e-05,0.00013333333333331865,-0.00019999999999997797,-0.0015770057700298379,0.002041400185362807,0.0010850487726101754
149610000000.0,2,0.17696099924999997,-0.054132707999999995,0.012817291549999998,0.058754,-0.11315,-0.077433,0.09193734375,-4.2197034285,-8.851874556,0.010386,0.44481,0.25347,-9.999999999998899e-05,-5.0000000000105516e-05,0.00039999999999995595,0.00040853616221192546,-0.0017001868744797033,-0.0017268931180658142
149610000000.0,2,0.09672298894999999,-0.0032950343999999998,0.03219523195,0.090017,-0.065463,-0.065721,0.08777932415,-4.2267642164999994,-8.848540295,0.00992,0.44562,0.2527,-9.999999999998899e-05,-4.999999999988347e-05,0.00029999999999996696,-0.0007116677623151269,-0.001339598799650732,-0.001799066481571271
149610000000.0,2,-0.0157494799,0.036304218299999996,0.09991995684999999,0.12243,-0.006072,-0.050826,0.08817159015,-4.2369631325,-8.8437350365,0.009969,0.44676,0.25209,-9.999999999998899e-05,0.000400000000000178,9.999999999998899e-05,0.0015487530909454872,0.005280157110070016,0.0019932217430432275
149610000000.0,2,-0.05675108354999999,0.07775692785,0.1696354317,0.13015,0.039661,-0.029544,0.09116261839999999,-4.2487311125,-8.838047179499998,0.010315,0.4481,0.25175,-9.999999999998899e-05,9.999999999998899e-05,9.999999999998899e-05,-0.0009122251378567148,-0.0007195188383513074,-4.458722418093641e-05
149610000000.0,2,-0.02189824945,0.05630978429999999,0.17121430234999999,0.11095,0.054713,-0.005054,0.0964189828,-4.259028095,-8.8329477215,0.010915,0.44926,0.2516,-9.999999999998899e-05,9.999999999998899e-05,0.00019999999999997797,-0.0010267246648120731,-0.0006359537579831986,0.00042165045723227546
149610000000.0,2,0.02221206225,0.0007256920999999999,0.15566095545,0.081905,0.036818,0.01414,0.10034164279999999,-4.2685405455,-8.828338596,0.011366,0.45034,0.25168,-9.999999999998899e-05,-0.00019999999999997797,0.000500000000000167,-0.0023966974933265495,-0.00452602000145097,-0.0023017831333297656
149610000000.0,2,0.06999006105,-0.0474445727,0.18327648185,0.053844,-0.001316,0.017361,0.10044951595,-4.273934203,-8.8256908005,0.011381,0.45095,0.25186,9.999999999998899e-05,0.00029999999999996696,-0.00019999999999997797,0.00018782850086274117,0.004368961056347986,0.002468806932149681
149610000000.0,2,0.11539485054999998,-0.05235770435,0.21329463749999997,0.021399,-0.060712,0.011003,0.0987333522,-4.2796220599999995,-8.823043005,0.01119,0.4516,0.25186,9.999999999998899e-05,9.999999999998899e-05,-0.00010000000000021103,-0.0020096102175070074,0.002438235365226804,-1.9812181672518303e-05
149610000000.0,2,0.15685736674999998,-0.07338316195,0.18141321835000002,-0.002412,-0.11165,-0.002825,0.0897504608,-4.279916259499999,-8.8229449385,0.010172,0.45162,0.25187,0.0001500000000000945,9.999999999998899e-05,-0.00019999999999997797,-0.0026474305678716448,0.0034592297298627894,0.0002239666733216128
149610000000.0,2,0.14951218589999998,-0.05008256155,0.13118355704999998,-0.002549,-0.1372,-0.015591,0.08197378735,-4.281779523,-8.8221604065,0.009292,0.45184,0.25155,0.00014999999999987246,-0.00019999999999997797,-0.00019999999999997797,-0.0004420997576140562,0.00045168004524320793,0.0010622081156615448
149610000000.0,2,0.09376138064999999,0.0154356671,0.19667236575,-0.019534,-0.1296,-0.019905,0.07308896245,-4.2820737225,-8.822062339999999,0.008284,0.45187,0.25124,-9.999999999998899e-05,3.333333333332966e-05,9.999999999998899e-05,0.00022176601181345124,0.0008548378996060535,-0.0007435053764834887
149610000000.0,2,0.0166320784,0.04790548524999999,0.1801285472,0.004179,-0.0957,-0.013519,0.06461601685,-4.2826621215,-8.821866207,0.007325,0.45194,0.25105,-4.999999999988347e-05,3.333333333332966e-05,1.999999999990898e-05,-0.0002752551563495187,0.0008275421348593603,-0.0004561116536614396
149610000000.0,2,-0.04219801495,0.09621304315,0.14263772425,0.013057,-0.041448,0.004547,0.05865357365,-4.282956321,-8.8217681405,0.006649,0.45197,0.25109,-5.0000000000105516e-05,3.333333333332966e-05,2.0000000000131024e-05,-0.000582853849693088,0.0005957752747995926,0.00024095896160683528
149610000000.0,2,-0.07363813485,0.17278336635,0.16955697849999998,0.038831,-0.000138,0.036542,0.05492704665,-4.2842311854999995,-8.8211797415,0.006227,0.45211,0.25147,9.999999999998899e-05,5.0000000000105516e-05,1.999999999990898e-05,-0.0007263691914115578,-0.00037159982891954435,0.00040399747433883526
149610000000.0,2,-0.08044394995,0.20278190869999999,0.15250321415,0.045203,0.014695,0.065348,0.0517202721,-4.285800249499999,-8.820395209499999,0.005863,0.45229,0.25222,-9.999999999998899e-05,4.999999999988347e-05,2.0000000000131024e-05,-0.0002093330830208462,0.0006432713410844393,0.0007261201447257837
149610000000.0,2,-0.016994924449999997,0.1758136212,0.10243045925,0.033269,-0.00546,0.071768,0.04842523769999999,-4.2869770475,-8.819904876999999,0.00549,0.45243,0.25304,-1.999999999990898e-05,9.999999999998899e-05,1.999999999990898e-05,-0.00047315020114069295,0.0005899079265416773,0.0004228415787135842
149610000000.0,2,0.07527584539999999,0.17308737249999998,0.0725299834,0.012703,-0.048966,0.060066,0.0439926319,-4.2859963825,-8.820395209499999,0.004987,0.45232,0.25367,-2.0000000000131024e-05,9.999999999998899e-05,-9.999999999998899e-05,0.00020214826850872836,0.0005851915158798793,-3.379788166507636e-05
149610000000.0,2,0.14028412825,0.1345276247,0.00438357255,-0.032249,-0.082662,0.033361,0.03853032785,-4.28158339,-8.822552672499999,0.004367,0.45182,0.25397,-1.999999999990898e-05,9.999999999998899e-05,-9.999999999998899e-05,0.00015721532100831936,0.0007282997827267046,-0.00026407450049784065
149610000000.0,2,0.11160948365,0.1093637608,-0.0393050532,-0.052335,-0.08139,-0.00297,0.03309744375,-4.2748168015,-8.825788867,0.00375,0.45105,0.25393,-2.0000000000131024e-05,5.0000000000105516e-05,-9.999999999998899e-05,-0.000307701477442468,-0.00016793481884702643,-0.0008653633757830792
149610000000.0,2,0.018867994599999997,0.1196019034,0.0023143694,-0.050756,-0.04087,-0.041465,0.030057382249999997,-4.2680502129999995,-8.829123127999999,0.003405,0.45028,0.25356,-1.999999999990898e-05,4.999999999988347e-05,5.999999999994898e-05,0.0009493394396596355,-0.00010132277369967468,-0.0002847795645020412
149610000000.0,2,-0.0713139588,0.17591168769999999,0.06901920269999999,-0.018163,0.019621,-0.062863,0.031508766449999996,-4.263146888,-8.831476724,0.003568,0.44972,0.25298,-9.999999999998899e-05,0.00019999999999997797,5.999999999994898e-05,0.0004045457603555902,0.0002506503833057394,-0.00015601044566423972
149610000000.0,2,-0.09950807754999999,0.20683205514999997,0.14947295929999999,0.002478,0.071653,-0.054378,0.03725546335,-4.260401025999999,-8.832751588499999,0.004218,0.44941,0.25244,-9.999999999998899e-05,0.00019999999999997797,6.000000000017103e-05,0.00022888645233026805,-0.0005938983039242007,-6.681044207140774e-05
149610000000.0,2,-0.095909037,0.17610782069999997,0.16035834079999997,0.003737,0.11211,-0.028829,0.045924541949999995,-4.259126161499999,-8.8333399875,0.005199,0.44927,0.25214,-9.999999999998899e-05,9.999999999998899e-05,5.999999999994898e-05,0.0003215857200991046,-0.0008801783463852075,0.0002645394201496176
149610000000.0,2,-0.0597421118,0.13241919494999999,0.1592207694,-0.015466,0.13248,0.003125,0.05629997764999999,-4.2573609645,-8.8341245195,0.006373,0.44907,0.25214,-0.00029999999999996696,0.00029999999999996696,5.999999999994898e-05,0.0010947163952504946,0.00023072837887805342,-0.0015215209186348888
149610000000.0,2,0.0156318001,0.08999562704999998,0.10305808484999998,-0.046494,0.13378,0.022282,0.06800911775,-4.253242171499999,-8.8360858495,0.007697,0.4486,0.25232,-0.00010000000000021103,0.00019999999999997797,-9.999999999998899e-05,0.00033747283039703424,0.0005287278942409657,0.0008891686785125474
149610000000.0,2,0.04872924385,0.05641765745,0.0611346561,-0.075573,0.099921,0.02229,0.07802170739999999,-4.2465736495,-8.839125911,0.008826,0.44785,0.25253,-4.999999999988347e-05,0.00010000000000021103,-9.999999999998899e-05,0.0007187236092179305,-0.0005495663657322236,-0.00010201851033966869
149610000000.0,2,0.0715100918,0.04790548524999999,-0.02358499325,-0.089903,0.036116,0.011703,0.08351343139999999,-4.237453465,-8.843440837,0.009443,0.44682,0.25263,-5.0000000000105516e-05,0.00019999999999997797,-4.999999999988347e-05,0.0007889168208889963,0.0002869596683852116,0.00015773761580861745
149610000000.0,2,0.0959286503,0.0612327226,-0.10450946905,-0.069051,-0.026918,0.007579,0.0840822171,-4.2289216795,-8.84755963,0.009504,0.44586,0.25263,-5.0000000000105516e-05,0.00019999999999997797,-5.0000000000105516e-05,0.00017330852638874905,0.0015524286969628154,0.0006852630945846927
149610000000.0,2,0.061252335899999996,0.0684896436,-0.046257968049999994,-0.029893,-0.06773,0.005583,0.07970845119999999,-4.2236260885,-8.850109359,0.009006,0.44526,0.25264,-4.999999999988347e-05,0.00019999999999997797,-9.999999999998899e-05,8.171410098190002e-05,0.0005323763857603137,-0.00019779365628580514
149610000000.0,2,-0.01456287525,0.06067374354999999,-0.022682781449999998,-0.015999,-0.065711,0.003469,0.07291244274999999,-4.22078216,-8.8515803565,0.008238,0.44493,0.25271,-9.999999999998899e-05,0.00029999999999996696,-9.999999999998899e-05,0.0004613628422313054,-0.0006592676623731197,-0.0001312410483067794
149610000000.0,2,-0.0970662217,0.04285506049999999,0.023408473549999996,-0.014621,-0.027363,0.002338,0.0674305254,-4.2189188965,-8.852462954999998,0.007617,0.44473,0.25283,0.001100000000000101,-0.0004999999999999449,-0.0005999999999999339,0.0009628074842755185,-0.003009503715319717,0.004557646197700244
149610000000.0,2,-0.1578282251,0.00095124505,0.08976026744999999,-0.025972,0.025996,0.010765,0.0650573161,-4.2175459655,-8.8531494205,0.007348,0.44458,0.25307,-0.0016000000000000458,0.0004999999999999449,0.0014000000000000679,0.002131365873843716,-0.004649983306918237,-0.00788240119563069
149610000000.0,2,-0.1668307298,-0.0522498312,0.11785631969999999,-0.020478,0.060021,0.0342,0.06537112889999999,-4.2173498325,-8.853247486999999,0.007384,0.44455,0.25353,-9.999999999998899e-05,0.00019999999999997797,-0.00010000000000021103,0.0011163931663779048,2.0667007462504827e-05,0.0007291824852243001
149610000000.0,2,-0.12016088244999999,-0.09191773044999998,0.176911966,-0.016213,0.071682,0.054469,0.06718535915,-4.2187227635,-8.8525610215,0.007589,0.4447,0.2542,-0.00019999999999997797,0.00029999999999996696,0.00010000000000021103,0.0015044590829138005,0.0018548940603579922,0.0011020709806936757
149610000000.0,2,-0.05724141605,-0.14224545824999998,0.19747651104999997,-0.023853,0.049366,0.054496,0.06876422979999999,-4.2210763595,-8.85148229,0.007769,0.44496,0.25488,9.999999999998899e-05,9.999999999998899e-05,-0.000300000000000189,-0.0015451343841473286,-0.0029820875320027973,0.00042546446585262077
149610000000.0,2,0.0357746592,-0.18186432425,0.1282905953,-0.016605,0.014154,0.043896,0.06971547485,-4.2230376895,-8.850501625,0.007877,0.44519,0.25536,-9.999999999998899e-05,9.999999999998899e-05,-0.00019999999999997797,0.0010698874076411347,0.0002815011012280433,0.0003651136753734241
149610000000.0,2,0.1140905661,-0.19922209475,0.08728899164999998,-0.013695,-0.028482,0.035435,0.06877403644999999,-4.225881618,-8.849128694,0.007771,0.44551,0.25567,-9.999999999998899e-05,0.00019999999999997797,-4.999999999988347e-05,0.0005609049184910897,0.0003956866674550419,-0.00022756361708228812
149610000000.0,2,0.1293104869,-0.21625624579999997,0.12553492665,-0.016188,-0.081726,0.023782,0.06387071144999999,-4.2289216795,-8.847755763,0.007219,0.44585,0.25587,-4.999999999988347e-05,4.999999999988347e-05,-5.0000000000105516e-05,0.00021679428576787396,0.0012729245202494077,-0.00019983921461813603
149610000000.0,2,0.11803283939999999,-0.23678156425,0.0889855421,-0.028083,-0.11996,-0.003926,0.05584887175,-4.230981076,-8.846775098,0.006313,0.44609,0.25582,-5.0000000000105516e-05,5.0000000000105516e-05,-0.00019999999999997797,8.56217995421904e-05,0.0010955733139039747,-0.0006249782205571819
149610000000.0,2,0.1389798438,-0.2487358706,0.0710197593,-0.037573,-0.12624,-0.034887,0.0482094914,-4.232354007,-8.846186698999999,0.00545,0.44624,0.25539,-9.999999999998899e-05,2.0000000000131024e-05,-9.999999999998899e-05,0.0001004080647717398,0.0006182131200334062,-0.0008832299530352195
149610000000.0,2,0.0843175767,-0.20483149855,0.07242211024999999,-0.049938,-0.085617,-0.05633,0.04317867994999999,-4.2316675415,-8.846578964999999,0.004881,0.44616,0.25475,-9.999999999998899e-05,1.999999999990898e-05,-9.999999999998899e-05,0.0014502677194631053,0.000712483755607618,-0.0010742680294827944
149610000000.0,2,-0.036108085299999995,-0.14145111959999998,0.04659139415,-0.06426,-0.011969,-0.060753,0.04223724155,-4.229019746,-8.8478538295,0.004774,0.44587,0.25412,-9.999999999998899e-05,2.0000000000131024e-05,5.0000000000105516e-05,0.0019264413299796557,0.00019928259347934407,-0.0006445778487473575
149610000000.0,2,-0.11464954514999999,-0.0844744831,0.039962098749999994,-0.071036,0.077589,-0.055584,0.047611285749999996,-4.2240183545,-8.850207425499999,0.00538,0.4453,0.25357,-0.000400000000000178,1.999999999990898e-05,4.999999999988347e-05,0.0022120645738190614,0.0008768809288044466,0.00019329400993958745
149610000000.0,2,-0.1348218242,-0.032999377249999996,0.010571568699999999,-0.076951,0.14688,-0.041838,0.05910467955,-4.2177420985,-8.8531494205,0.006677,0.44459,0.25317,-9.999999999998899e-05,2.0000000000131024e-05,-0.0001500000000000945,0.001216788876588104,-0.001530413045995882,1.5233403034858872e-05
149610000000.0,2,-0.09351621439999999,-0.0090417313,0.00842391235,-0.07049,0.16493,-0.024779,0.0733145154,-4.2113677759999995,-8.8560914155,0.008278,0.44387,0.25293,-4.999999999988347e-05,9.999999999998899e-05,-0.00014999999999987246,-0.0004408862099852251,-0.0038561020404923596,0.0005286738121886292
149610000000.0,2,-0.027448813349999997,0.013758729949999998,-0.07644283674999999,-0.06543,0.13823,-0.012982,0.08685749905,-4.204503121,-8.859131476999998,0.009804,0.4431,0.25278,-5.0000000000105516e-05,4.999999999988347e-05,1.999999999990898e-05,0.0006949277658244712,-0.0009737139839136599,0.00030639745219809833
149610000000.0,2,0.1102855859,0.04670907395,-0.1276629697,-0.044633,0.081569,0.004231,0.0977134606,-4.1987171975,-8.8617792725,0.011026,0.44244,0.25266,-9.999999999998899e-05,5.0000000000105516e-05,2.0000000000131024e-05,0.0002119447768833549,-0.0008634732879542195,0.00037102297997243516
149610000000.0,2,0.17766707805,0.05269113045,-0.14714878324999997,-0.018507,0.019544,0.013989,0.10364648385,-4.194500337999999,-8.8637406025,0.011693,0.44197,0.25264,-4.999999999988347e-05,9.999999999998899e-05,1.999999999990898e-05,-0.001160919381005654,-0.0007588014852013547,0.0003982364073332467
149610000000.0,2,0.18043255334999997,0.05599597149999999,-0.14659961085,0.014132,-0.037192,0.009874,0.1043231427,-4.1930293405,-8.864427068,0.011769,0.4418,0.25262,-5.0000000000105516e-05,9.999999999998899e-05,2.0000000000131024e-05,-0.0006081090508771592,-6.229767627830007e-05,-0.0003661457017695158
149610000000.0,2,0.18708146204999998,0.08942684135,-0.1029502117,0.04702,-0.072601,-0.010291,0.1021656797,-4.1944022715,-8.8637406025,0.011526,0.44196,0.2524,5.0000000000105516e-05,9.999999999998899e-05,1.999999999990898e-05,-0.00017807685383380845,0.0014037078428645877,-0.000617477600389521
149610000000.0,2,0.10527438774999999,0.13861699775,-0.057025669749999994,0.059873,-0.079076,-0.031607,0.09807630664999999,-4.197050067,-8.8625638045,0.011066,0.44226,0.252,4.999999999988347e-05,9.999999999998899e-05,4.999999999988347e-05,-0.0011990709095290875,8.025376419884545e-05,-0.0003448250109275297
149610000000.0,2,0.06246836049999999,0.1133060341,0.029753376099999996,0.053675,-0.05664,-0.036995,0.09509508505,-4.2006785275,-8.860896674,0.010732,0.44266,0.25154,-9.999999999998899e-05,9.999999999998899e-05,5.0000000000105516e-05,-0.000626435300622119,3.533965487090285e-05,-0.0005996472638122863
149610000000.0,2,0.0018436501999999997,0.034519408,0.09189811715,0.027355,-0.003158,-0.022191,0.09467339909999999,-4.203718588999999,-8.8594256765,0.010685,0.44301,0.25123,5.0000000000105516e-05,9.999999999998899e-05,-9.999999999998899e-05,-0.0011219761491358948,-0.0020232285455255017,6.641516261995939e-05
149610000000.0,2,-0.04701308009999999,-0.0334014499,0.1681840475,0.007344,0.044931,0.003308,0.09698776849999999,-4.206856716999999,-8.857954678999999,0.010949,0.44337,0.25123,4.999999999988347e-05,9.999999999998899e-05,-9.999999999998899e-05,-4.5825623850248576e-05,-0.0010409079875590699,0.00034193080877459314
149610000000.0,2,-0.08051259649999999,-0.0661164343,0.2364383315,-0.036274,0.068717,0.017068,0.1007142955,-4.207052849999999,-8.857758546,0.011369,0.44339,0.25146,-9.999999999998899e-05,4.999999999988347e-05,-5.0000000000105516e-05,0.00027713169507970203,-0.001348705419880858,0.000417315721061573
149610000000.0,2,-0.03986403225,-0.0711570524,0.1248190412,-0.044819,0.073039,0.026653,0.10555878059999999,-4.2049934535,-8.858739211,0.011915,0.44316,0.25176,-1.4285714285744433e-05,5.0000000000105516e-05,-4.999999999988347e-05,-2.8468292414096652e-05,-0.00010693162751174157,0.0006299011547654665
149610000000.0,2,0.02513444395,-0.0631155994,0.0770018158,-0.038678,0.047402,0.03845,0.10954028049999999,-4.202934057,-8.859719876,0.012364,0.44292,0.25214,-1.4285714285744433e-05,9.999999999998899e-05,1.4285714285744433e-05,0.0002477500970858859,-0.0002626815242454672,0.00042836563546869155
149610000000.0,2,0.0382655483,-0.042168594999999996,0.09072131915,-0.036935,0.001563,0.04387,0.10957950709999999,-4.200776594,-8.860700541,0.012366,0.44268,0.25258,-1.4285714285744433e-05,9.999999999998899e-05,1.4285714285744433e-05,0.00035731015128609434,0.0006040860596978614,0.00024277028232172482
149610000000.0,2,0.06889171625,-0.0006472389,-0.0304790682,-0.015832,-0.030573,0.039693,0.10693171159999999,-4.198619131,-8.8617792725,0.012066,0.44244,0.25299,-1.4285714285522388e-05,9.999999999998899e-05,1.4285714285744433e-05,-0.00019044088082958988,0.0004505537964871742,0.0002096007809645195
149610000000.0,2,0.07075497975,0.048886150249999996,-0.0484056244,0.006476,-0.053114,0.022692,0.10252852575,-4.1977365325,-8.8621715385,0.011569,0.44233,0.25325,-1.4285714285744433e-05,9.999999999998899e-05,1.4285714285522388e-05,-0.0003105949982558087,0.00029254962974722964,-0.00011665466785729106
149610000000.0,2,-0.0130428445,0.0906330593,0.0240459058,0.029011,-0.053273,-0.003954,0.09729177464999998,-4.1991094635,-8.861681206,0.010978,0.44249,0.25328,-1.4285714285744433e-05,5.0000000000105516e-05,1.4285714285744433e-05,-0.0005080070747121024,0.00028376992386380806,0.000122171494066875
149610000000.0,2,-0.07863952635,0.10888323494999999,0.0386578143,0.039898,-0.030978,-0.012513,0.09300626859999998,-4.20116886,-8.860700541,0.010496,0.44272,0.25322,-1.4285714285744433e-05,4.999999999988347e-05,1.4285714285744433e-05,-0.0007314861666485872,2.861383162011677e-05,-0.00030191095640322296
149610000000.0,2,-0.1222693122,0.051886985149999995,0.050818060299999995,0.035728,-0.010715,0.000255,0.0894954879,-4.204306988,-8.8592295435,0.010101,0.44308,0.25328,-9.999999999998899e-05,0.00019999999999997797,1.4285714285744433e-05,-0.0006456313793766766,2.0882630612506503e-05,0.0004351981761018253
149610000000.0,2,-0.15964245534999996,-0.027478233299999995,0.05686876335,0.027332,0.013847,0.011941,0.0867692392,-4.2077393155,-8.8576604795,0.009795,0.44346,0.25353,-9.999999999998899e-05,9.999999999998899e-05,9.999999999998899e-05,-0.0005335814843031028,-3.1616329165817803e-06,0.0001254731050624458
149610000000.0,2,-0.16700724949999998,-0.06450814369999999,-0.0035598139499999995,0.00931,0.032099,0.018284,0.08560224785000001,-4.2098967785,-8.856581748,0.009665,0.44371,0.25386,-9.999999999998899e-05,5.0000000000105516e-05,9.999999999998899e-05,9.399293145817555e-05,-1.523362418009988e-05,0.0004626340511249827
149610000000.0,2,-0.1227988713,-0.06136020905,0.02501676415,0.022037,0.028779,0.028987,0.08508249539999999,-4.212740707,-8.855306883499999,0.009608,0.44403,0.25425,-9.999999999998899e-05,4.999999999988347e-05,9.999999999998899e-05,0.00018814407645384446,0.00022900624751187593,0.00033856024849601707
149610000000.0,2,-0.05647649735,-0.06306656615,0.035352973249999996,0.006898,0.008647,0.037536,0.0838664708,-4.2146039705,-8.854424285,0.009471,0.44424,0.25469,-0.00029999999999996696,0.00010000000000021103,9.999999999998899e-05,0.00040340282973638786,0.0030163916320755657,0.0005548910873539314
149610000000.0,2,-0.016994924449999997,-0.0622918408,0.018583601749999998,0.010913,-0.021227,0.040798,0.08059104969999999,-4.2165653005,-8.85344362,0.009102,0.44446,0.25515,-9.999999999998899e-05,9.999999999998899e-05,9.999999999998899e-05,0.00027551032011563503,0.0006775837183357059,0.00013023014141733125
149610000000.0,2,0.0396777059,-0.05054347409999999,0.033960428949999996,0.009649,-0.052108,0.031243,0.0758446311,-4.218330497499999,-8.852757154499999,0.008567,0.44466,0.2555,-9.999999999998899e-05,9.999999999998899e-05,-4.999999999988347e-05,-0.0005724274506920257,0.0005318236612452676,-0.0002426618043701867
149610000000.0,2,0.06163479524999999,-0.0147295883,0.08752435125000001,0.011786,-0.065954,0.008855,0.07050000684999999,-4.2202918275,-8.8517764895,0.007964,0.44488,0.25562,-9.999999999998899e-05,4.999999999988347e-05,-5.0000000000105516e-05,-0.0003843301968313728,4.2402574639721635e-05,-0.0002503272153359104
149610000000.0,2,0.06832293055,0.00324600115,0.112972608,0.029005,-0.062871,-0.015672,0.0663517939,-4.223233822499999,-8.850501625,0.007497,0.44521,0.25545,-9.999999999998899e-05,5.0000000000105516e-05,9.999999999998899e-05,-0.00026548991002456335,0.0010797629112726526,-0.00034948661142655824
149610000000.0,2,0.0730203159,0.0007060788,0.1354102232,0.010002,-0.044586,-0.026412,0.0641943309,-4.2253912855,-8.8494228935,0.007254,0.44546,0.25511,-9.999999999998899e-05,3.333333333332966e-05,4.999999999988347e-05,-8.25397870851674e-05,0.0006211095517880683,-0.00038286976559570585
149610000000.0,2,0.0532501095,-0.0204370586,0.0937319607,0.005862,-0.022184,-0.015785,0.0634686388,-4.2271564825,-8.848540295,0.007173,0.44566,0.25485,-0.00019999999999997797,3.333333333332966e-05,5.0000000000105516e-05,0.00021377720067927708,0.0007261593953584722,-1.8652008519803864e-05
149610000000.0,2,0.05512317965,-0.05941849235,0.05810440124999999,-0.002604,0.000241,0.006575,0.06398839125,-4.228431347,-8.847951896,0.007231,0.4458,0.25481,-3.333333333332966e-05,3.333333333332966e-05,-0.00021999999999988695,-0.00024496222511360966,-0.0004973207463765394,0.00022033932015746993
149610000000.0,2,0.08579838085,-0.08801468375,0.03882452735,-0.01224,0.010954,0.031089,0.06518480255,-4.2293139454999995,-8.84755963,0.007367,0.4459,0.255,-3.333333333355171e-05,3.333333333332966e-05,-0.000220000000000109,0.0002505034299667974,-0.0002851698275538883,0.0004181856421572039
149610000000.0,2,0.11600286284999999,-0.0774529217,-0.00187307015,-0.015478,0.017358,0.049216,0.06670483329999999,-4.2289216795,-8.847657696499999,0.007539,0.44586,0.25541,-3.333333333332966e-05,3.333333333332966e-05,-0.00021999999999988695,0.0005296181573897774,0.00034420787309974443,0.0004954741550241004
149610000000.0,2,0.15368001215,-0.0465227476,-0.01640652545,-0.02946,0.00788,0.056678,0.06794047119999999,-4.227450682,-8.8484422285,0.007678,0.44569,0.25591,0.00010000000000021103,3.333333333332966e-05,-0.000220000000000109,-0.0003646116473772776,-0.0008164572764324252,0.0005438907107599145
149610000000.0,2,0.1531210331,0.00911037785,0.0037755602499999997,-0.012502,-0.013556,0.045001,0.06773453154999999,-4.2255874185,-8.849324826999998,0.007655,0.44548,0.25634,0.00019999999999997797,0.0005999999999999339,-0.00021999999999988695,-0.005889748111575832,0.014456699485770885,0.007477609508796168
149610000000.0,2,0.12941836005,0.058388794099999995,-0.039520799499999995,0.000292,-0.026425,0.025831,0.0666067668,-4.224116421,-8.8500112925,0.007526,0.44532,0.25656,1.6666666666775853e-05,9.999999999998899e-05,4.999999999988347e-05,-6.61522846476803e-05,5.916444967501988e-05,3.641432564985281e-05
149610000000.0,2,0.10239123265,0.12849653495,-0.060624710299999995,0.053692,-0.025785,0.015247,0.06520441585,-4.2253912855,-8.8494228935,0.007368,0.44546,0.25667,1.666666666655381e-05,9.999999999998899e-05,5.0000000000105516e-05,-0.0004901444262784826,-0.0006267007178126782,0.00011888428232317838
149610000000.0,2,0.00985568325,0.16611484434999998,-0.057525808899999996,0.099657,-0.012315,0.018504,0.06316463265,-4.2305888099999995,-8.846971231,0.00714,0.44604,0.25684,1.666666666655381e-05,0.00019999999999997797,9.999999999998899e-05,-0.0008813745395653827,-5.8459386840237215e-06,0.0003462901974896626
149610000000.0,2,-0.0032558077999999997,0.17261665329999998,-0.0240655191,0.1306,-0.002993,0.03135,0.061468082199999996,-4.239414795,-8.8427543715,0.006951,0.44705,0.25714,1.6666666666775853e-05,9.999999999998899e-05,9.999999999998899e-05,-0.0019183052928384292,-0.0009533572399686996,0.0005679397940600017
149610000000.0,2,0.00824739265,0.10925588765,-0.025909169299999996,0.14235,0.006489,0.043095,0.060291284199999996,-4.25020211,-8.837556847,0.006822,0.44826,0.25758,1.6666666666775853e-05,9.999999999998899e-05,9.999999999998899e-05,-0.0017207009646937887,-0.001215449474813557,0.000213738241452599
149610000000.0,2,-0.00440318585,0.03319551025,0.02025073225,0.11148,0.01314,0.039828,0.059467525599999994,-4.2608913584999994,-8.832457389,0.006733,0.44947,0.25803,1.666666666655381e-05,9.999999999998899e-05,9.999999999998899e-05,-0.0003518632337471961,-3.979745666593537e-05,0.00019856355668193548
149610000000.0,2,0.049621649,-0.02656621485,0.0646454368,0.075194,0.00599,0.031238,0.05976172509999999,-4.2693250775,-8.828338596,0.00677,0.45043,0.25835,3.333333333332966e-05,9.999999999998899e-05,9.999999999998899e-05,-0.00011045998011177671,-1.8228073237480658e-06,0.00021383757183893182
149610000000.0,2,0.07093149944999999,-0.08322903855,0.12194569274999999,0.025024,-0.007431,0.015163,0.0598597916,-4.275012934499999,-8.825592733999999,0.006782,0.45107,0.2585,3.333333333332966e-05,0.00010000000000021103,9.999999999998899e-05,0.00025506851222178994,0.0010512625272667275,0.0002608071106061094
149610000000.0,2,0.07332432205,-0.12185743289999999,0.14667806405,-0.017744,-0.029437,-0.000884,0.058810480049999996,-4.277072331,-8.824612068999999,0.006664,0.4513,0.25847,3.333333333332966e-05,3.333333333332966e-05,-9.999999999998899e-05,0.0006010976600219209,-0.0006800598001484026,-0.00019613429958489914
149610000000.0,2,0.0735302617,-0.12932029355,0.1024402659,-0.053963,-0.032318,-0.015887,0.05755522885,-4.275111001,-8.825592733999999,0.006521,0.45108,0.25827,-1.999999999990898e-05,3.333333333332966e-05,4.999999999988347e-05,0.0003029029299485009,0.00014008337868243181,-0.00035670840418913774
149610000000.0,2,0.0252815437,-0.08635735989999999,0.045287109699999994,-0.053709,-0.003543,-0.020207,0.0577611685,-4.271972873,-8.8270637315,0.006544,0.45073,0.25802,-2.0000000000131024e-05,3.333333333332966e-05,5.0000000000105516e-05,0.00042716720183511026,5.5581375914215414e-05,0.00013724508519830092
149610000000.0,2,-0.029468983249999997,0.0031283213499999998,0.05246557749999999,-0.027663,0.058035,-0.009596,0.0616446019,-4.268834745,-8.828534729,0.006982,0.45037,0.2579,-1.999999999990898e-05,6.666666666665932e-05,9.999999999998899e-05,0.00013499750545636902,-0.00032000811839982823,0.00022355227919254594
149610000000.0,2,-0.13806782534999998,0.10703958474999999,0.0664106338,-0.014473,0.11332,0.001006,0.0683327372,-4.266481149,-8.8296134605,0.007739,0.45011,0.258,-2.0000000000131024e-05,6.666666666665932e-05,9.999999999998899e-05,-0.0005884419459554202,-0.0020393054765357466,0.0006554804057736785
149610000000.0,2,-0.1284475017,0.15957380879999997,0.0236536398,-0.000575,0.1313,0.023415,0.07697239585,-4.264127553,-8.830692191999999,0.008716,0.44984,0.25829,-1.999999999990898e-05,6.666666666665932e-05,9.999999999998899e-05,0.0007487750065963139,-0.0004942409857791041,0.0006933270162302607
149610000000.0,2,-0.054466134099999994,0.14732530295,-0.02788030595,-0.004044,0.10361,0.031997,0.08483732915,-4.261577824,-8.831868989999998,0.009606,0.44955,0.25865,9.999999999998899e-05,-9.999999999998899e-05,9.999999999998899e-05,-0.0008942773681704375,-0.001525168452939596,0.00047051199091555085
149610000000.0,2,0.0026379888499999996,0.11354139369999999,-0.07487377275,0.010502,0.056602,0.03424,0.08954452115,-4.2603029595,-8.832457389,0.010138,0.4494,0.25903,9.999999999998899e-05,-9.999999999998899e-05,0.0004999999999999449,0.0014048187610544716,-0.007200434181209303,-0.003659693238635242
149610000000.0,2,0.056231331100000004,0.08763222439999999,-0.08109118885,0.025094,0.00854,0.02581,0.09100571199999999,-4.2601068264999995,-8.8325554555,0.010303,0.44938,0.25929,0.0004999999999999449,-0.00020000000000020002,-0.00019999999999997797,-0.0006877929525749837,-0.0018206015837141099,0.0021226661013185877
149610000000.0,2,0.01519050085,0.0686857766,-0.02217283565,0.046319,-0.024636,-0.00505,0.08955432779999999,-4.2630488215,-8.8311825245,0.010141,0.44971,0.25932,-4.999999999988347e-05,5.0000000000105516e-05,9.999999999998899e-05,-0.002661941030098147,-0.0013054525275078,-0.001171999123058154
149610000000.0,2,-0.02970434285,0.06434143064999999,0.012415218899999999,0.061309,-0.04177,-0.04342,0.08717131184999999,-4.267069547999999,-8.829221194499999,0.009872,0.45017,0.25896,-5.0000000000105516e-05,5.0000000000105516e-05,9.999999999998899e-05,7.091294440225715e-05,0.0006187288799872626,-0.0006596593319701527
149610000000.0,2,-0.023163307299999998,0.056172491199999994,0.0439926319,0.065556,-0.05564,-0.061533,0.08467061609999998,-4.272365139,-8.8266714655,0.009592,0.45077,0.25832,-5.0000000000105516e-05,0.00019999999999997797,0.00020000000000020002,3.0298479328338956e-05,0.0007803767150353913,-0.0008828754172224285
149610000000.0,2,-0.01513166095,0.0078060934,0.08969162089999999,0.062273,-0.062013,-0.055123,0.0815717147,-4.278445262,-8.823729470499998,0.009245,0.45146,0.25768,-4.999999999988347e-05,9.999999999998899e-05,9.999999999998899e-05,0.00020770401092068402,0.00021575032409071326,-0.0007760796574743656
149610000000.0,2,0.0033636809499999996,-0.04812123155,0.08387627745,0.046302,-0.046982,-0.037031,0.07878662609999999,-4.2840350525,-8.821081674999999,0.008931,0.45209,0.2572,-9.999999999998899e-05,0.00019999999999997797,9.999999999998899e-05,0.0007830982871740999,0.0012197030628557926,0.0006979494466159142
149610000000.0,2,0.011287454149999999,-0.026713314599999996,0.0925551627,0.047609,-0.006517,-0.020022,0.07834532685,-4.2896248429999995,-8.818335813,0.008884,0.45272,0.25694,9.999999999998899e-05,4.999999999988347e-05,-9.999999999998899e-05,-0.0017357257347932475,-0.0020840912701958203,-0.0007122060780702932
149610000000.0,2,-0.0394423463,0.023604606549999997,0.1233088171,0.028768,0.044776,-0.010538,0.0810421556,-4.292762971,-8.816766749,0.009192,0.45308,0.25682,-1.6666666666775853e-05,5.0000000000105516e-05,0.00019999999999997797,-0.0008565624346448253,-0.0007339531625818463,-1.3160426301506156e-06
149610000000.0,2,-0.057094316299999996,0.06643024709999999,0.10949124724999999,0.02154,0.078926,-0.004206,0.08687711235,-4.294920434,-8.8156880175,0.009854,0.45332,0.25679,-1.666666666655381e-05,9.999999999998899e-05,4.999999999988347e-05,-0.00017424954772915502,-0.0011565095408943016,0.0007430241112166835
149610000000.0,2,-0.01958388005,0.06846022365,0.08134616174999999,0.020417,0.079988,0.0086,0.09366331415,-4.2962933649999995,-8.814903485499999,0.010625,0.45349,0.25685,-1.666666666655381e-05,9.999999999998899e-05,5.0000000000105516e-05,-8.388196615310983e-05,-0.0007259447678269471,0.00031246071447063595
149610000000.0,2,0.00701175475,0.06389032474999999,0.07305954249999999,0.026489,0.044763,0.018279,0.0981841798,-4.2981566285,-8.814020887,0.011139,0.4537,0.25701,-1.6666666666775853e-05,9.999999999998899e-05,9.999999999998899e-05,-5.716793969728906e-05,0.00023581866170929722,0.0004494955514700305
149610000000.0,2,0.07132376544999999,0.04918034975,0.07534449195,0.044258,0.001989,0.023721,0.09971401719999999,-4.301392823,-8.8123537565,0.011314,0.45407,0.25719,-1.6666666666775853e-05,0.00019999999999997797,9.999999999998899e-05,0.0007573945726048192,0.00045280411078807425,0.0003537385268982951
149610000000.0,2,0.1374500064,0.033548549649999995,0.05724141605,0.035465,-0.034158,0.017363,0.09897851844999998,-4.304530950999999,-8.810882759,0.011234,0.45442,0.25729,-1.666666666655381e-05,0.00019999999999997797,9.999999999998899e-05,0.0009339337466939268,0.0011437086465171387,0.0006267309895479078
149610000000.0,2,0.14426562815,0.0361669252,0.0968700887,0.051338,-0.059844,0.00249,0.09635033625,-4.309238143,-8.808627229499999,0.010938,0.45495,0.25723,9.999999999998899e-05,4.999999999988347e-05,4.999999999988347e-05,-0.0015275300666340863,0.00026895489404621387,-0.0012238332767348648
149610000000.0,2,0.1257408663,0.0334799031,0.1514735159,0.041829,-0.057615,-0.012475,0.09362408755,-4.313553068999999,-8.806567832999999,0.010631,0.45544,0.25703,1.6666666666775853e-05,5.0000000000105516e-05,5.0000000000105516e-05,-0.001052392786766998,-0.00034652264832302215,-5.434081686164771e-05
149610000000.0,2,0.055083953049999995,0.0361865385,0.22471938475,0.040963,-0.03948,-0.023184,0.09156469105,-4.3183583275,-8.804214237,0.010399,0.45599,0.25674,1.666666666655381e-05,9.999999999998899e-05,5.0000000000105516e-05,-0.000362920693430302,3.8111795024331485e-05,-0.0004621259028857183
149610000000.0,2,0.0059918631499999995,0.02501676415,0.2738212813,0.035859,-0.011731,-0.024309,0.09127049154999999,-4.323163586,-8.8017625745,0.010369,0.45654,0.25646,1.666666666655381e-05,9.999999999998899e-05,4.999999999988347e-05,-0.00040744246999580014,0.0006249735791710176,-0.00047819590022857295
149610000000.0,2,-0.02203554255,0.005678050349999999,0.30671278539999997,0.029552,0.009616,-0.008346,0.09191773044999998,-4.328066911,-8.799408978499999,0.010445,0.4571,0.25633,1.6666666666775853e-05,9.999999999998899e-05,-4.999999999988347e-05,-5.650704351223279e-05,4.135112220815529e-05,-0.0003139036395191086
149610000000.0,2,-0.02574245625,-0.02609549565,0.32965053974999997,0.015787,0.029962,0.004404,0.09368292745,-4.33257797,-8.797153449,0.010649,0.4576,0.25636,1.6666666666775853e-05,-1.6666666666775853e-05,-5.0000000000105516e-05,-4.199271043825448e-05,-0.0006573093200561431,0.00011625498847600557
149610000000.0,2,-0.0008139519499999999,-0.04253144104999999,0.29468002584999997,-0.002208,0.05248,0.012872,0.09747810099999998,-4.3354218985,-8.795780518,0.011082,0.45793,0.25647,1.666666666655381e-05,-1.666666666655381e-05,-9.999999999998899e-05,8.14895715227637e-05,-0.001305029873058583,0.0005291997277797611
149610000000.0,2,0.008090486249999999,-0.035235293449999996,0.28567752115,-0.017126,0.058989,0.020307,0.10204799989999999,-4.336892896,-8.794995986,0.011602,0.45809,0.25666,5.0000000000105516e-05,-1.666666666655381e-05,-9.999999999998899e-05,0.0007221930207821914,-0.0002698483781948813,0.00045395525065392017
149610000000.0,2,0.031234180249999997,-0.0352058735,0.25837580754999995,-0.046142,0.044291,0.039495,0.1055391673,-4.335716098,-8.795486318499998,0.011998,0.45796,0.25701,4.999999999988347e-05,-1.6666666666775853e-05,-9.999999999998899e-05,0.00040670372544820976,-0.00035077184933474115,0.0007600466736380762
149610000000.0,2,0.0705098135,-0.06853867685,0.20466478549999997,-0.076236,0.030663,0.061883,0.10605891975,-4.329930174499999,-8.798330246999999,0.012054,0.4573,0.25765,0.00019999999999997797,-1.6666666666775853e-05,-9.999999999998899e-05,0.0009455478296437336,-0.0008313671608719542,0.00045932763474532123
149610000000.0,2,0.06565552175,-0.09319259494999999,0.13563577615,-0.083972,0.004076,0.073657,0.10507825475,-4.3248307165,-8.800879976,0.011939,0.45673,0.2584,9.999999999998899e-05,-1.666666666655381e-05,-0.00019999999999997797,0.0003952786430486688,0.00012374719302243875,0.0007477892279782739
149610000000.0,2,0.0665479269,-0.048454657649999996,0.0842979634,-0.075649,-0.024758,0.070519,0.10149882749999999,-4.319142859499999,-8.8037239045,0.011528,0.45608,0.25917,9.999999999998899e-05,2.4999999999941735e-05,-0.00019999999999997797,-0.00033089600388686025,-0.000709361396196817,0.00022906401854178027
149610000000.0,2,0.06973508815,0.01062060195,0.06853867685,-0.050049,-0.035607,0.05457,0.09711525495,-4.314533734,-8.8060775005,0.011027,0.45555,0.25978,0.00019999999999997797,2.500000000016378e-05,-9.999999999998899e-05,0.0008821106802116008,0.0005436889933423394,0.0002675064093631274
149610000000.0,2,0.0122779258,0.0867888525,0.03464689445,-0.024264,-0.023015,0.038582,0.0930651085,-4.3107091405,-8.807940764,0.010566,0.45513,0.26024,4.999999999988347e-05,2.4999999999941735e-05,-0.00010000000000021103,-0.0002670982673288469,0.00040903329342434347,0.00024419922959684204
149610000000.0,2,-0.02872367785,0.13522389685,0.007129434549999999,0.004823,0.004463,0.025775,0.09097629205,-4.308649743999999,-8.808921429,0.010327,0.45488,0.26058,5.0000000000105516e-05,2.4999999999941735e-05,-4.999999999988347e-05,-9.519810235641968e-05,-0.0002325311487509918,9.88274872662509e-05
149610000000.0,2,-0.05887912659999999,0.14469712075,-0.032254071849999996,0.024299,0.036274,0.021484,0.09164314424999999,-4.308061345,-8.8092156285,0.010403,0.45482,0.26087,9.999999999998899e-05,9.999999999998899e-05,-5.0000000000105516e-05,-0.00035702485134631035,0.0002480555703960885,0.000907331899175079
149610000000.0,2,-0.06102678295,0.13427265179999998,-0.0355196863,0.022188,0.041614,0.024674,0.09334950134999999,-4.308257478,-8.809117561999999,0.010596,0.45484,0.26118,4.999999999988347e-05,2.4999999999941735e-05,3.333333333332966e-05,-0.0002330612976838009,9.372672554763817e-05,0.00035554716468064185
149610000000.0,2,0.00279489525,0.07182390459999999,-0.06856809679999999,0.026336,0.027726,0.025773,0.09506566509999999,-4.3088458769999995,-8.8088233625,0.010791,0.4549,0.26146,5.0000000000105516e-05,2.500000000016378e-05,3.333333333332966e-05,-0.00047090760433654566,-6.998905769495245e-05,8.812008556147166e-05
149610000000.0,2,0.08051259649999999,0.0423843413,-0.07877681945,0.019826,0.017121,0.030048,0.09695834854999999,-4.309434275999999,-8.808529163,0.011007,0.45498,0.2617,0.00010000000000021103,2.4999999999941735e-05,3.333333333332966e-05,1.4954171816627948e-05,0.0005503303119693825,0.00021924843964313268
149610000000.0,2,0.0995963374,0.03350932305,0.017995202749999998,0.016448,-0.00097,0.036477,0.09762520075,-4.3107091405,-8.8078426975,0.011083,0.45512,0.26201,9.999999999998899e-05,2.4999999999941735e-05,-4.999999999988347e-05,0.00021241015200235136,0.0014031019452140914,0.00040219523742227037
149610000000.0,2,0.08035569009999999,0.009914523149999998,0.07478551289999999,0.015257,-0.015877,0.037568,0.09621304315,-4.312474337499999,-8.807058165499999,0.010924,0.45532,0.26236,9.999999999998899e-05,9.999999999998899e-05,-5.0000000000105516e-05,-0.0009369112404145619,-0.00015206798329803206,1.8304639454763683e-05
149610000000.0,2,0.0911037785,0.013454723799999999,0.0876518377,0.020534,-0.026569,0.032258,0.0943007464,-4.3146318005,-8.805979434,0.010708,0.45557,0.26266,0.00019999999999997797,3.333333333332966e-05,-6.666666666665932e-05,3.932233054798617e-05,0.0013982518690283108,0.0007355488998562199
149610000000.0,2,0.0395011862,0.019789819699999996,0.1611624861,0.029128,-0.034073,0.008802,0.09142739794999999,-4.3179660615,-8.80441037,0.010384,0.45594,0.2628,9.999999999998899e-05,3.333333333355171e-05,-6.666666666665932e-05,6.063504982667389e-05,0.0007391351169090399,-0.00012874194200318545
149610000000.0,2,-0.013905829699999999,-0.01617116585,0.1799520275,0.022889,-0.030797,-0.017899,0.08887766894999999,-4.321790654999999,-8.8025471065,0.010096,0.45638,0.26268,9.999999999998899e-05,3.333333333332966e-05,-6.666666666665932e-05,-0.0006523213988152698,-0.0006942688309836686,-0.00015221671340542864
149610000000.0,2,-0.026046462399999998,-0.03392120235,0.1846396062,0.002857,-0.006115,-0.026516,0.08888747559999999,-4.322379054,-8.802252907,0.010098,0.45644,0.26239,-0.00039999999999995595,0.00029999999999996696,9.999999999998899e-05,0.0007665141707275946,0.0020801621120378755,-0.0011591305101067428
149610000000.0,2,-0.11880756475,-0.09038789304999999,0.19371075745,-0.042729,0.030487,-0.02559,0.089632781,-4.322477120499999,-8.802252907,0.010182,0.45645,0.2622,0.00019999999999997797,-0.0001500000000000945,-0.0001500000000000945,0.0011951686310980314,0.0004755974387811168,-2.0257885767316353e-05
149610000000.0,2,-0.2017424038,-0.10339151095,0.16411428774999998,-0.063836,0.064745,-0.016077,0.09161372429999999,-4.3199273915,-8.803429705,0.010406,0.45616,0.26218,0.00019999999999997797,-0.00014999999999987246,-0.00014999999999987246,0.0015348972333806832,-0.00018811624757453238,0.0021498143547724335
149610000000.0,2,-0.18902317875,-0.0716473849,0.1466486441,-0.051721,0.11685,-0.007606,0.09774288055,-4.316887329999999,-8.804802636,0.011101,0.45583,0.26224,9.999999999998899e-05,9.999999999998899e-05,-0.00019999999999997797,0.0006243547896624957,-0.001907058157703423,0.0007831360385992248
149610000000.0,2,-0.20216408975,-0.03327396345,0.21569726675,-0.029009,0.15608,-0.005498,0.10758875714999999,-4.315906665,-8.805194902,0.012219,0.45571,0.26236,-0.00039999999999995595,9.999999999998899e-05,0.00019999999999997797,-0.00022378911287268544,0.0005978837549016625,-0.0014174293103988156
149610000000.0,2,-0.2033506944,-0.03211677875,0.30932135429999996,-0.035328,0.1604,-0.014053,0.11880756475,-4.315710532,-8.805096835499999,0.013492,0.45569,0.26241,9.999999999998899e-05,-0.00019999999999997797,-9.999999999998899e-05,0.0006226793314110246,-0.000823071495181571,0.0012014015354350205
149610000000.0,2,-0.09897851844999998,-0.08059104969999999,0.21657005859999998,-0.063176,0.13826,-0.026869,0.1309972307,-4.3138472685,-8.8058813675,0.014875,0.45547,0.26223,9.999999999998899e-05,-0.000300000000000189,-9.999999999998899e-05,0.00183045847756097,-0.000762360062394718,0.00024556665600924954
149610000000.0,2,-0.0240066792,-0.1653205057,0.1404900679,-0.091027,0.11293,-0.043951,0.14311825009999998,-4.3096304089999995,-8.8078426975,0.016247,0.45499,0.2618,-0.000700000000000145,0.000500000000000167,-9.999999999998899e-05,0.0014380614102206812,0.018522537993483912,0.0036476082691465905
149610000000.0,2,0.021084297499999998,-0.25182496535,0.1209944477,-0.14021,0.087782,-0.061071,0.1544351242,-4.302569621,-8.811078892,0.017526,0.45419,0.26116,0.000500000000000167,-0.000500000000000167,-0.00039999999999995595,0.0060643493297325435,-0.014765421276900392,-0.0038919908125737424
149610000000.0,2,-0.0013140911,-0.2750176926,0.06728342564999999,-0.17235,0.064615,-0.07176,0.16367298849999998,-4.2920765055,-8.815982217,0.018563,0.453,0.26041,-9.999999999998899e-05,-0.00019999999999997797,-0.00019999999999997797,0.0017236926783440465,-0.0008461480064196891,-0.0008842711596809827
149610000000.0,2,-0.04521846314999999,-0.23044646835,0.01407254275,-0.17456,0.053976,-0.071745,0.17105739595,-4.2793278605,-8.822062339999999,0.019388,0.45156,0.25969,-2.4999999999941735e-05,-0.00029999999999996696,-0.00019999999999997797,0.0014269255010834758,-0.00181333261636496,-0.0007941297721004159
149610000000.0,2,-0.06840138375,-0.15785764505,0.0391481468,-0.14908,0.045226,-0.058875,0.1765981532,-4.2681482795,-8.827357931,0.020003,0.45029,0.25908,-2.500000000016378e-05,-0.00019999999999997797,-0.00019999999999997797,0.0020414438098381726,-0.00023960252400878623,-0.00020713084119436398
149610000000.0,2,-0.0861808402,-0.09788998029999998,0.02433029865,-0.1033,0.042699,-0.042779,0.18105037229999998,-4.259224228,-8.8315747905,0.020498,0.44929,0.25865,-2.4999999999941735e-05,-0.00019999999999997797,-9.999999999998899e-05,0.0006094213769953782,-0.00024322863608206013,-0.00041353220235160193
149610000000.0,2,-0.09746829435,-0.020329185450000002,0.013954862949999999,-0.052103,0.053975,-0.02136,0.1850122589,-4.253928637,-8.834026453,0.02094,0.44868,0.25844,-2.4999999999941735e-05,-0.00019999999999997797,-0.00010000000000021103,0.0007095366383180757,-0.00038062613493949904,-0.0001223941543752327
149610000000.0,2,-0.09183927724999999,0.02452643165,0.046238354749999995,-0.017975,0.062199,-0.005303,0.18910163195000002,-4.251673107499999,-8.835007118,0.0214,0.44843,0.25843,-3.333333333332966e-05,-0.00019999999999997797,0.00010000000000021103,-0.00045990212809032815,-9.464115010326957e-05,0.0007720446323900843
149610000000.0,2,-0.10254813904999999,0.0028831550999999997,0.01424906245,0.001221,0.063101,-0.002067,0.19308313185,-4.2513789079999995,-8.8351051845,0.021851,0.4484,0.25849,-3.333333333332966e-05,-0.00029999999999996696,-0.00010000000000021103,-0.0006421448169139365,2.680855449832542e-05,0.0004978741308556689
149610000000.0,2,-0.10001802334999998,-0.03800076875,-0.02954743645,0.007463,0.036418,-0.012682,0.19578976725,-4.252359573,-8.834516785499998,0.022158,0.44851,0.25847,-3.333333333332966e-05,-9.999999999998899e-05,-9.999999999998899e-05,-0.001355802869669298,-0.0005966804271906323,2.835408349058377e-05
149610000000.0,2,-0.10298943829999999,-0.0638412915,-0.08755377119999999,0.001916,-0.006136,-0.038232,0.19577015395,-4.2526537724999995,-8.834418719,0.022156,0.44854,0.25821,-0.00010000000000021103,-0.000300000000000189,-9.999999999998899e-05,-0.0006715559603747145,-0.0009063175593775341,-0.0007151429099334916
149610000000.0,2,-0.069234949,-0.07753137489999999,-0.18437482664999996,0.030426,-0.053243,-0.054109,0.19298506534999998,-4.2546151025,-8.8335361205,0.021843,0.44876,0.2577,-9.999999999998899e-05,-0.00019999999999997797,9.999999999998899e-05,-8.747690111354789e-05,0.0007659333030285431,-0.0011255040537821448
149610000000.0,2,-0.034833220799999995,-0.05563312545,-0.12081792799999999,0.056757,-0.1014,-0.062517,0.1868559091,-4.259028095,-8.8315747905,0.021155,0.44926,0.25706,-9.999999999998899e-05,-0.00029999999999996696,9.999999999998899e-05,-0.000531500842563315,0.0015350842852244195,-0.0008529647889020386
149610000000.0,2,-0.004020726499999999,-0.059232165999999996,-0.12825136869999998,0.073707,-0.12178,-0.070991,0.17909884895,-4.265108217999999,-8.828730861999999,0.020283,0.44995,0.25629,-9.999999999998899e-05,-0.00019999999999997797,0.00020000000000020002,-0.00021151210474718019,0.000692253809939869,-0.000993111366551419
149610000000.0,2,0.01779906975,0.00196133,-0.14530513305,0.0878,-0.10164,-0.083811,0.17298930599999998,-4.271580607,-8.825788867,0.019598,0.45068,0.25537,-4.999999999988347e-05,-0.00029999999999996696,9.999999999998899e-05,-0.001222088294250523,-0.0008700316195944247,-0.001030081691716478
149610000000.0,2,-0.06385109815,0.0908880322,-0.08505307545,0.071273,-0.038624,-0.092489,0.17084164964999998,-4.2763858655,-8.823435271,0.01936,0.45123,0.2544,-5.0000000000105516e-05,-0.00019999999999997797,5.0000000000105516e-05,0.00017293962741182778,-0.000347329586902978,-0.0005638885923983095
149610000000.0,2,-0.0577611685,0.11954306349999999,-0.022790654599999998,0.048268,0.0223,-0.089433,0.17447011015,-4.2793278605,-8.821964273499999,0.019775,0.45156,0.25343,9.999999999998899e-05,-0.00039999999999995595,4.999999999988347e-05,0.0005589427147800752,-0.002176431846569349,0.00036290200083954893
149610000000.0,2,-0.04627758135,0.10372493705,-0.005972249849999999,0.010022,0.052436,-0.074608,0.1814034117,-4.279229794,-8.821866207,0.02056,0.45155,0.25259,-0.0004999999999999449,-9.999999999998899e-05,0.00029999999999996696,0.0003199504608552006,0.0003216835817503316,-0.0016253321535820708
149610000000.0,2,0.0204566719,0.05873202685,-0.0319108391,-0.009333,0.041927,-0.061814,0.18873878589999998,-4.2777587965,-8.822454605999999,0.02139,0.45138,0.25186,-9.999999999998899e-05,-9.999999999998899e-05,9.999999999998899e-05,0.00046498948363143944,-0.0019431497366333428,-0.0011606173781930906
149610000000.0,2,0.11945480365,0.0613504024,-0.0509553534,-0.007597,-0.002847,-0.054262,0.1941912833,-4.2754052005,-8.823435271,0.022005,0.45112,0.25113,9.999999999998899e-05,-0.00020000000000020002,-9.999999999998899e-05,0.0008385048508390835,-0.0003622670233645042,-0.0002021906066062562
149610000000.0,2,0.17869677629999997,0.11685604139999999,-0.0522890578,0.020838,-0.048897,-0.054135,0.1962899064,-4.2744245355,-8.8239256035,0.022242,0.451,0.25036,-5.0000000000105516e-05,-0.00019999999999997797,9.999999999998899e-05,-0.0010225749009576401,-0.0014874275834806383,-0.001407451496383716
149610000000.0,2,0.21903152774999998,0.19384805054999998,-0.015004174499999998,0.072712,-0.096209,-0.049695,0.19486794214999997,-4.276581998499999,-8.822846872,0.022083,0.45125,0.24959,-4.999999999988347e-05,-9.999999999998899e-05,9.999999999998899e-05,-0.000539958593340939,0.0007698811849734533,-0.0012971332607806807
149610000000.0,2,0.24042963805,0.3056536672,0.034597861199999996,0.084074,-0.13467,-0.03787,0.18963119104999998,-4.279425926999999,-8.821572007499999,0.021492,0.45157,0.24892,9.999999999998899e-05,0.000300000000000189,-9.999999999998899e-05,-0.0007625904477579493,0.0013201282055674834,-0.0002776664058267153
149610000000.0,2,0.2036056673,0.36467989354999997,0.0007453054,0.1117,-0.14023,-0.026074,0.18186432425,-4.28354472,-8.8198068105,0.020617,0.45204,0.24839,-0.00019999999999997797,0.00029999999999996696,-0.0004999999999999449,-0.0009832336510148254,0.01003853264470389,0.005311045215949134
149610000000.0,2,0.16272174344999998,0.38015478724999996,-0.024281265399999998,0.12895,-0.10842,-0.013294,0.1750094759,-4.289134510499999,-8.817159015,0.019847,0.45267,0.24803,0.00029999999999996696,-0.000700000000000145,0.0006999999999999229,-0.002229436901518944,-0.00921421910846476,-0.006282221226674906
149610000000.0,2,0.06918591575,0.36808280109999997,0.0913195248,0.125,-0.063633,-0.006976,0.1699296312,-4.295901099,-8.814020887,0.019277,0.45344,0.24785,-0.00029999999999996696,0.000700000000000145,-0.0004999999999999449,-0.00046159729248146375,0.00903880760366893,0.005584140920345565
149610000000.0,2,-0.004118793,0.3319354892,0.1079516032,0.10291,-0.024023,-0.008152,0.1672229958,-4.3014908895,-8.811275024999999,0.018976,0.45408,0.24776,9.999999999998899e-05,9.999999999998899e-05,0.00019999999999997797,-0.000210009625484453,-0.0004151847768469885,0.00017983121527731516
149610000000.0,2,-0.0180834626,0.27922474545,0.10411720305,0.059409,-0.001277,-0.022145,0.16711512265,-4.3044328845,-8.809902094,0.018967,0.45441,0.24755,9.999999999998899e-05,-0.000500000000000167,0.00019999999999997797,-0.004617410183658466,-0.004422738772716928,-0.0023129920070354693
149610000000.0,2,0.028517738199999997,0.2111764011,0.09217270334999998,0.025262,-0.005251,-0.028602,0.16855670019999996,-4.304923217,-8.8096078945,0.019131,0.45447,0.24721,-9.999999999998899e-05,0.000400000000000178,-0.00029999999999996696,0.0036396009169202825,0.003411593200385976,0.001435072981795238
149610000000.0,2,0.10077313539999999,0.17309717915,0.08355265799999999,-0.001519,-0.015688,-0.024362,0.17037093044999999,-4.303550286,-8.810294359999999,0.019336,0.45431,0.24685,0.00019999999999997797,-0.000400000000000178,0.00029999999999996696,-0.003919193094996887,-0.002782900357967577,-0.002215406339073689
149610000000.0,2,0.14020567505,0.15896579649999998,0.1485707475,-0.01563,-0.040085,-0.015806,0.17074358315,-4.301196689999999,-8.8113730915,0.019375,0.45404,0.24651,9.999999999998899e-05,9.999999999998899e-05,0.000600000000000156,-0.00024639794791958547,0.0002276109268621873,-0.0004521452927093994
149610000000.0,2,0.19618203324999997,0.1708906829,0.16280019665,-0.030902,-0.078321,-0.01043,0.1686351534,-4.29727403,-8.813334421499999,0.019132,0.4536,0.24622,-0.0004999999999999449,5.0000000000105516e-05,0.0005999999999999339,0.0026128958128520674,0.019775302447818888,-0.0016322968864918574
149610000000.0,2,0.20768523369999997,0.16665421009999998,0.13890139059999998,-0.040687,-0.099549,-0.008278,0.164163321,-4.292468771499999,-8.815786083999999,0.018619,0.45305,0.24595,9.999999999998899e-05,4.999999999988347e-05,-0.00020000000000020002,-0.00013386549020177885,0.0003090318908405276,-0.00012413876335992668
149610000000.0,2,0.16367298849999998,0.16984137135,0.09089783885,-0.015033,-0.094425,-0.010379,0.15879908345,-4.288349978499999,-8.817943546999999,0.018007,0.45258,0.24571,0.0008999999999999009,5.0000000000105516e-05,-0.0012999999999998568,-0.0021114733734060587,-0.019670974162799837,0.0020390207591992338
149610000000.0,2,0.06273314005,0.21027418929999997,0.12400508924999999,-0.006262,-0.071042,-0.02108,0.1537878853,-4.2856041165,-8.819316478,0.017436,0.45228,0.24546,-0.00024999999999986144,5.0000000000105516e-05,0.0005500000000000504,-0.0007765089835954919,0.001624575886647106,-0.0017948349436875954
149610000000.0,2,-0.006952914849999999,0.21489312144999997,0.11134470409999998,0.014163,-0.057347,-0.030676,0.14955141249999998,-4.284133119,-8.82010101,0.016955,0.4521,0.24516,-0.0002500000000000835,9.999999999998899e-05,0.0005499999999998284,0.002274589856117337,0.019092525208357358,-0.001666683461457652
149610000000.0,2,-0.011052094549999999,0.1783045103,0.054328840999999996,0.006765,-0.051952,-0.037103,0.1461779249,-4.282760188,-8.820885542,0.01657,0.45194,0.24477,5.0000000000105516e-05,9.999999999998899e-05,9.999999999998899e-05,-0.0003777896071311959,0.0007650783620050117,-0.0005209419416772609
149610000000.0,2,0.0177696498,0.12153381344999999,0.0032754210999999997,0.005781,-0.044479,-0.042455,0.14413814169999997,-4.28158339,-8.8213758745,0.016338,0.45182,0.24429,4.999999999988347e-05,0.00019999999999997797,4.999999999988347e-05,0.0003185866408948468,0.00024039650963447734,-0.0005916362944342335
149610000000.0,2,0.05728064265,0.08671039929999999,0.0037461403,-0.002542,-0.02096,-0.047849,0.1447265407,-4.280014326,-8.8221604065,0.016404,0.45164,0.24373,4.999999999988347e-05,9.999999999998899e-05,5.0000000000105516e-05,-0.0013530955925041277,-0.0003542494124795237,-0.0012663707031468074
149610000000.0,2,0.039030467,0.079826131,0.04341403955,-0.02056,-0.003764,-0.044709,0.14667806405,-4.2780529959999996,-8.8231410715,0.016622,0.45142,0.24319,5.0000000000105516e-05,9.999999999998899e-05,-9.999999999998899e-05,0.0009588789877314485,0.000101260215046306,-0.00010605444741731973
149610000000.0,2,0.051239746249999996,0.050406180999999994,0.07075497975,-0.032347,0.000579,-0.027659,0.14912972654999998,-4.275012934499999,-8.824514002499999,0.016898,0.45107,0.24279,0.00019999999999997797,0.00019999999999997797,-0.00019999999999997797,0.0006722756504389804,-0.0003581251903661542,5.1598383003365056e-05
149610000000.0,2,0.07431479369999999,-0.000196133,0.0624487472,-0.053876,-0.012047,-0.009529,0.15028691125,-4.2710902745,-8.826377266,0.017025,0.45062,0.24258,0.00019999999999997797,9.999999999998899e-05,-9.999999999998899e-05,0.0005213605295779633,-0.00023639393837959766,0.0003203676437422698
149610000000.0,2,0.061978028,-0.00565843705,-0.00705098135,-0.035957,-0.031387,0.003344,0.14901204675,-4.267265681,-8.828338596,0.016878,0.45019,0.24254,0.00020000000000020002,0.00019999999999997797,-9.999999999998899e-05,-1.012944040201802e-05,8.312906229090977e-05,0.0002682664112141908
149610000000.0,2,0.0709609194,0.05155355905,-0.03955021945,-0.012585,-0.039045,0.010869,0.14630541135,-4.2646178855,-8.8296134605,0.016569,0.44989,0.24261,0.00029999999999996696,0.00019999999999997797,-0.00019999999999997797,0.0006045265435568603,0.0002972861127130688,0.00033668271557599216
149610000000.0,2,-0.0088455983,0.0891228352,-0.022751427999999997,0.003489,-0.035971,0.001285,0.1424710112,-4.2634410875,-8.830299926,0.016133,0.44976,0.24269,0.00029999999999996696,9.999999999998899e-05,-0.00029999999999996696,6.37344732185019e-06,-0.0011222422080667815,0.0007914872998990019
149610000000.0,2,-0.11513987764999999,0.13677334754999998,-0.055093759699999995,0.006997,-0.013598,-0.025432,0.13953882285,-4.2613816909999995,-8.831280590999999,0.015799,0.44953,0.24259,9.999999999998899e-05,0.00019999999999997797,0.00019999999999997797,5.092253922978074e-07,0.0015556874505724405,-0.0013428903317843077
149610000000.0,2,-0.144746154,0.13337043999999998,-0.061379822349999995,-0.007544,0.023835,-0.045803,0.14010760854999998,-4.259224228,-8.832359322499999,0.015862,0.44928,0.24225,9.999999999998899e-05,9.999999999998899e-05,-0.00019999999999997797,-0.001089072909910671,-0.002819605584539975,0.0008465521269221954
149610000000.0,2,-0.14840403445,0.07318702895,-0.00446202575,-0.028665,0.047454,-0.052284,0.14361838924999998,-4.255889967,-8.83383032,0.016256,0.4489,0.2418,9.999999999998899e-05,0.000300000000000189,-9.999999999998899e-05,0.0002505554097945173,-0.0005810069978524623,3.1782416678477476e-05
149610000000.0,2,-0.13987224895,0.0007649187,0.0151414676,-0.044595,0.064618,-0.039532,0.14840403445,-4.2522615065,-8.8354974505,0.016795,0.4485,0.24143,0.0008999999999999009,9.999999999998899e-05,-0.0012000000000000899,-0.0007756219909380024,-0.019195760500162473,0.0021284398300600305
149610000000.0,2,-0.10851058225,-0.05351488905,0.030635974599999997,-0.035141,0.059187,-0.018157,0.15295432004999998,-4.2497117775,-8.8366742485,0.017307,0.44821,0.24127,-0.0003500000000000725,0.00019999999999997797,-9.999999999998899e-05,9.590674727377735e-05,-0.0002863463770159669,7.511132681289889e-05
149610000000.0,2,-0.044845810449999995,-0.07746272835,0.06236048735,-0.019422,0.03772,0.005392,0.1561807079,-4.249025312,-8.836968448,0.017671,0.44813,0.2413,-0.00034999999999985043,0.00019999999999997797,0.0014000000000000679,1.5672733584271015e-06,0.01742353487865045,-0.003117582117001222
149610000000.0,2,-0.03807922195,-0.06926436894999999,0.06775414485,0.021779,-0.003131,0.022614,0.1553961759,-4.251771174,-8.835595517,0.017585,0.44845,0.24154,0.00019999999999997797,0.00019999999999997797,9.999999999998899e-05,0.0007446642648433754,0.0011031218409236487,-0.00026982265357758384
149610000000.0,2,-0.06320385925,-0.055623318799999995,0.1036759038,0.046057,-0.039558,0.017384,0.15073801715,-4.256674499,-8.8333399875,0.017063,0.44899,0.24182,-9.999999999998899e-05,0.00029999999999996696,0.00019999999999997797,-0.0014524185042520954,-5.7925312125561845e-05,-0.00013876734313847394
149610000000.0,2,-0.008227779349999999,-0.03392120235,0.09056441274999999,0.060918,-0.059909,0.000367,0.14529532639999998,-4.2632449545,-8.830299926,0.016452,0.44974,0.24189,-9.999999999998899e-05,0.00019999999999997797,0.00019999999999997797,-0.0028754126927191814,0.0017209922335463812,-0.0023879424738450505
149610000000.0,2,-0.026811381099999997,-0.019417167,0.0868673057,0.061066,-0.055625,-0.022055,0.140235095,-4.2695212105,-8.827357931,0.015885,0.45045,0.24172,0.0008000000000001339,0.0006999999999999229,-0.0019000000000000128,0.004030961388018728,-0.01437035280427823,0.003143201359368769
149610000000.0,2,-0.0682346707,-0.02597781585,0.09978266375,0.046494,-0.020326,-0.038153,0.1376657527,-4.275012934499999,-8.824710135499998,0.015598,0.45108,0.24139,-0.000600000000000156,-0.00039999999999995595,0.0018000000000000238,-0.006266218215936203,0.013517802672633916,-0.0037988573126568614
149610000000.0,2,-0.10549013404999999,-0.040168038399999995,0.1523365011,0.030941,0.033084,-0.042542,0.139450563,-4.279916259499999,-8.8223565395,0.015806,0.45162,0.241,-9.999999999998899e-05,0.00029999999999996696,0.00019999999999997797,0.002470184859806601,0.0025266367264040746,-0.00036050379907007213
149610000000.0,2,-0.09995918345,-0.055603705499999996,0.18615963694999998,-0.018896,0.077172,-0.033098,0.14529532639999998,-4.281191123999999,-8.821572007499999,0.016469,0.45177,0.24068,9.999999999998899e-05,9.999999999998899e-05,-9.999999999998899e-05,-3.787856488901564e-05,-0.0014555678758925161,0.0005009895002030529
149610000000.0,2,-0.0628802398,-0.12282829124999999,0.137489233,-0.043391,0.093337,-0.015023,0.15311122645,-4.2807007915,-8.821670074,0.017354,0.45172,0.24051,0.00019999999999997797,9.999999999998899e-05,-0.00019999999999997797,-0.0004223298321818225,-0.00262359094944542,0.0012767077528951232
149610000000.0,2,-0.0112776475,-0.15211094815,0.10817715614999998,-0.073473,0.078647,0.004164,0.16046621395,-4.277268464,-8.823239138,0.018185,0.45133,0.24053,0.000600000000000156,0.00010000000000021103,-9.999999999998899e-05,0.00014239650625924583,-0.0008814224484827715,0.0003982558349692189
149610000000.0,2,0.038128255199999996,-0.16757603519999997,0.11478683825,-0.071607,0.047725,0.009559,0.16567354509999999,-4.273934203,-8.824710135499998,0.018772,0.45095,0.24062,0.0005999999999999339,5.0000000000105516e-05,-0.0015000000000000568,0.0025413743744931994,-0.01797656242589518,0.00423430930926072
149610000000.0,2,0.053691408749999996,-0.16613445765,0.11505161779999999,-0.05176,-0.006782,0.008621,0.16701705615,-4.27177674,-8.825788867,0.018922,0.45071,0.24069,-9.999999999998899e-05,4.999999999988347e-05,9.999999999998899e-05,-0.0004822648488748693,0.0001254384273481346,-0.0010564570908701276
149610000000.0,2,0.08719092514999999,-0.10437217594999999,0.1216809132,-0.040368,-0.059073,-0.005144,0.16434964735,-4.2703057425,-8.826573398999999,0.018618,0.45054,0.24061,9.999999999998899e-05,9.999999999998899e-05,0.0001500000000000945,0.0007432850926759604,0.00016046988570495024,-0.0006354339757073113
149610000000.0,2,0.11286473485,-0.079237732,0.1034601575,0.010778,-0.076527,-0.018902,0.16036814745,-4.2718748065,-8.8258869335,0.018169,0.45072,0.24033,0.00029999999999996696,-0.000300000000000189,0.00014999999999987246,0.0001143515994247446,-0.006247562482926572,-0.004648873974606699
149610000000.0,2,0.14279463064999998,-0.0331857036,0.16612465099999998,0.011874,-0.076526,-0.024239,0.15692601329999997,-4.2746206685,-8.824612068999999,0.017781,0.45102,0.23996,0.00019999999999997797,2.8571428571488866e-05,-9.999999999998899e-05,6.938869400435754e-05,0.0005088295511475049,-0.0004141225218528555
149610000000.0,2,0.07580540449999999,-0.0258699427,0.2200219994,-0.002915,-0.062543,-0.030695,0.15344465255,-4.2767781314999995,-8.823631404,0.017388,0.45127,0.23957,9.999999999998899e-05,2.8571428571488866e-05,-1.999999999990898e-05,0.0006337319737697578,0.00031947079047989213,-0.0007528094906577576
149610000000.0,2,0.0629783063,-0.07758040814999999,0.0861808402,-0.051571,-0.012053,-0.034071,0.15354271905,-4.2748168015,-8.824612068999999,0.017398,0.45104,0.23916,0.00019999999999997797,2.8571428571488866e-05,-2.0000000000131024e-05,-0.000320868035009636,0.0004196378658238853,-0.00022761064564846833
149610000000.0,2,0.0282039254,-0.10020434969999999,0.03835380815,-0.099143,0.045876,-0.028919,0.1582401044,-4.268638612,-8.8274559975,0.017924,0.45035,0.2388,0.00019999999999997797,2.857142857126682e-05,-1.999999999990898e-05,0.0014499751325072197,0.00018340647853087866,-4.05834929354254e-05
149610000000.0,2,-0.01652420525,-0.0994590443,0.05907525959999999,-0.13195,0.085564,-0.019439,0.16600697119999996,-4.2589300285,-8.832065123,0.018794,0.44925,0.23858,9.999999999998899e-05,2.8571428571488866e-05,-2.0000000000131024e-05,0.0016408455618621698,-0.00044328389811920665,6.647101147033707e-06
149610000000.0,2,0.018485535249999997,-0.08264063955,-0.00393246665,-0.16066,0.10922,0.00075,0.1758920744,-4.246083316999999,-8.838047179499998,0.0199,0.4478,0.23854,0.000300000000000189,2.8571428571488866e-05,-1.999999999990898e-05,0.0024026562971795618,-0.0017301741747699495,0.0004583661799530403
149610000000.0,2,0.04896460345,-0.0493666761,-0.0703921337,-0.1256,0.10678,0.025364,0.18566930444999996,-4.234119204,-8.843538903499999,0.020992,0.44645,0.23874,-0.000700000000000145,2.8571428571488866e-05,0.0014000000000000679,0.004709284062398622,0.016258797736014463,-0.0015545333099316883
149610000000.0,2,0.06273314005,0.01362143685,-0.0456793757,-0.098292,0.064977,0.045765,0.19194556045,-4.224116421,-8.848148028999999,0.02169,0.44531,0.23917,0.00029999999999996696,9.999999999998899e-05,4.999999999988347e-05,0.0010016413929461732,-0.000861129978327213,0.00020460961905785502
149610000000.0,2,0.07255940335,0.08586702739999999,-0.11025616594999998,-0.043387,-0.000485,0.055581,0.19229859985,-4.217055633,-8.8515803565,0.021722,0.44451,0.23972,0.00020000000000020002,5.0000000000105516e-05,5.0000000000105516e-05,0.00023700060557629854,5.4967566100572185e-05,0.0005552460231557088
149610000000.0,2,0.08901496205,0.1236814698,-0.17521541555,0.022386,-0.046846,0.055775,0.1881111603,-4.2148001035,-8.852757154499999,0.021246,0.44426,0.24027,0.00029999999999996696,4.999999999988347e-05,9.999999999998899e-05,-0.0014683642447001488,-0.0002683007572745755,0.00040122360501823606
149610000000.0,2,0.049415709349999996,0.13785207905,-0.14556010595,0.082022,-0.06757,0.044173,0.18117785874999998,-4.2181343645,-8.851286157,0.020466,0.44464,0.24074,0.00019999999999997797,0.00019999999999997797,9.999999999998899e-05,-0.00011281069882573824,0.0006720299594817902,0.00023685614911636566
149610000000.0,2,-0.027576299799999995,0.14573662564999998,-0.08936800144999998,0.12892,-0.092433,0.012276,0.17168502155,-4.2255874185,-8.8478538295,0.019401,0.44548,0.24097,0.0005999999999999339,0.00019999999999997797,-0.0009999999999998899,-0.005136632155257614,-0.012723397256325653,0.0002537907651675442
149610000000.0,2,-0.03419578855,0.22202255599999998,-0.13969572925,0.16539,-0.073544,0.002699,0.16363376189999998,-4.236080534,-8.843048570999999,0.018502,0.44666,0.24099,0.00019999999999997797,0.00019999999999997797,9.999999999998899e-05,-0.0023113284402558887,-3.772125050760522e-05,-0.0004950315240832281
149610000000.0,2,-0.12005300929999999,0.10884400835,0.024349911949999997,0.15598,-0.050026,0.001576,0.15686717339999998,-4.2493195114999995,-8.836772315,0.017749,0.44816,0.24107,9.999999999998899e-05,0.00019999999999997797,0.00019999999999997797,-0.0016413114187588396,0.0014857318723933144,-0.0003100846382085576
149610000000.0,2,-0.17886348934999996,-0.03333280335,0.10737301084999999,0.10158,-0.047454,0.003614,0.14908069329999998,-4.260793292,-8.831378657499998,0.016879,0.44946,0.24123,0.0005999999999999339,-9.999999999998899e-05,-9.999999999998899e-05,-0.0016037635704184705,-0.0017061130644637768,0.002443639107717638
149610000000.0,2,-0.0750012592,0.03190103245,-0.0408348906,0.063455,-0.001338,0.019479,0.145922952,-4.266677282,-8.828632795499999,0.016527,0.45012,0.24143,-0.00019999999999997797,0.0004999999999999449,0.00029999999999996696,-0.0009218877391738989,0.0004065023806067991,-0.0024116474504874696
149610000000.0,2,-0.0957521306,-0.1014399876,0.1424121713,0.030734,0.057512,0.04387,0.1466290308,-4.2726593385,-8.8256908005,0.016613,0.4508,0.24193,0.000500000000000167,-0.00019999999999997797,-9.999999999998899e-05,0.0008486503116295063,-0.0013583104563410497,0.0028819569716554416
149610000000.0,2,-0.13608688205,-0.1049899949,0.29069852594999995,-0.009648,0.090851,0.066159,0.1491003066,-4.2762877989999994,-8.8239256035,0.016896,0.45121,0.24272,-0.00020000000000020002,9.999999999998899e-05,0.00019999999999997797,0.0005129034885718586,0.0016194271529232918,0.0008299033136454914
149610000000.0,2,-0.0639785846,-0.08126770854999998,0.2737624414,-0.039562,0.096405,0.084244,0.15317006635,-4.276483932,-8.823729470499998,0.017357,0.45124,0.24366,-0.00019999999999997797,0.00019999999999997797,0.0013000000000000789,0.0045081657017931875,0.014219338521545666,-0.0013399876169897795
149610000000.0,2,0.0168870513,-0.14891398025,0.27302694265,-0.053635,0.07201,0.087464,0.1566906537,-4.2759935995,-8.8239256035,0.017756,0.45119,0.24463,0.00020000000000020002,-5.0000000000105516e-05,9.999999999998899e-05,0.0008798505401631518,-0.00032112578372878176,0.001584353303712066
149610000000.0,2,0.05343643585,-0.18974887085,0.2811958821,-0.068736,0.039121,0.06935,0.15860295045,-4.2748168015,-8.824415936,0.017971,0.45105,0.24544,0.0007999999999999119,-4.999999999988347e-05,-0.0012000000000000899,-0.0038818455803111274,-0.014794935310973756,0.0014299737447623084
149610000000.0,2,0.1049703816,-0.16436926065000002,0.2697809415,-0.082732,0.00836,0.046963,0.1595934221,-4.27177674,-8.8258869335,0.01808,0.45071,0.24595,0.00019999999999997797,-4.999999999988347e-05,-9.999999999998899e-05,0.00041386725773268074,-0.00020220228048772881,0.0003016552714027454
149610000000.0,2,0.0380694153,-0.13759710614999998,0.22019851909999996,-0.08475,0.007337,0.023478,0.159456129,-4.267854079999999,-8.8278482635,0.018061,0.45026,0.24626,0.00019999999999997797,-5.0000000000105516e-05,3.333333333332966e-05,0.00042252667820014134,-0.00025232008518649707,0.0009188684464382091
149610000000.0,2,-0.0212804305,-0.1078339234,0.19376959735,-0.079154,0.030748,0.00957,0.16104480629999998,-4.263343021,-8.82990766,0.018236,0.44975,0.24641,0.00019999999999997797,-5.0000000000105516e-05,3.333333333332966e-05,0.00015637500902149215,-0.00027177883041007433,6.745716627828968e-05
149610000000.0,2,0.021290237150000002,-0.0620564812,0.21695251794999998,-0.068479,0.043428,0.02878,0.1638102816,-4.257066764999999,-8.8329477215,0.018543,0.44904,0.24668,9.999999999998899e-05,-4.999999999988347e-05,3.333333333332966e-05,0.0015486063532988426,0.00020251256874281864,6.293247624528098e-05
149610000000.0,2,-0.06593010795,-0.1169541079,0.21381438995,-0.057924,0.044381,0.053346,0.16574219164999998,-4.251673107499999,-8.8354974505,0.018757,0.44843,0.24722,-0.00019999999999997797,-9.999999999998899e-05,0.001100000000000101,0.005082364730588207,0.014726449751968795,0.00044970584025963434
149610000000.0,2,-0.034833220799999995,-0.0945557193,0.1821879437,-0.04211,0.029318,0.067277,0.1660658111,-4.2477504475,-8.837360713999999,0.018789,0.44799,0.24795,0.00019999999999997797,-0.00019999999999997797,3.333333333332966e-05,0.0007493865037954128,-0.00027818727946749,9.89116677238e-05
149610000000.0,2,0.01368027675,-0.07914947215,0.18327648185,-0.028528,-0.005961,0.069497,0.1637906683,-4.247456248,-8.837556847,0.018532,0.44795,0.24872,0.00029999999999996696,-9.999999999998899e-05,3.333333333332966e-05,-0.0007331696714600877,0.00023253758562979954,0.0005646889601038374
149610000000.0,2,0.013131104349999999,-0.05545660575,0.09629149634999999,0.009667,-0.04249,0.054684,0.15834797755000002,-4.249025312,-8.836968448,0.017917,0.44813,0.24937,0.000300000000000189,-0.00019999999999997797,3.333333333332966e-05,0.0005651205334854525,-0.0007437762884152654,-0.00022791332744317994
149610000000.0,2,-0.01013026945,0.03341125655,0.04466929075,0.071479,-0.063226,0.035615,0.15109105655,-4.254222836499999,-8.834516785499998,0.0171,0.44872,0.24982,0.00019999999999997797,-9.999999999998899e-05,9.999999999998899e-05,-0.0008565796048880525,1.6577901913450432e-05,-0.00020432053232394276
149610000000.0,2,-0.053348176000000004,0.10238142599999998,0.16295710305,0.10989,-0.073118,0.019689,0.14267695084999998,-4.262754622,-8.8305941255,0.016156,0.44968,0.25011,0.00019999999999997797,-9.999999999998899e-05,-9.999999999998899e-05,-0.001751967977276836,0.000670737816034217,1.9890831577967782e-05
149610000000.0,2,-0.09888045194999999,0.15073801715,0.19955552084999997,0.12275,-0.071086,0.01117,0.1337430927,-4.2734438704999995,-8.825592733999999,0.015153,0.45089,0.25031,0.00029999999999996696,-6.666666666665932e-05,-9.999999999998899e-05,-0.0014268780892155442,-0.0006169888125080458,-9.002074044200947e-05
149610000000.0,2,-0.0820424339,0.09414383999999999,0.20625346279999998,0.082246,-0.067556,0.00896,0.1257408663,-4.2820737225,-8.821473940999999,0.014253,0.45187,0.25047,0.00029999999999996696,-6.666666666665932e-05,-0.001100000000000101,-0.0036653539662656054,-0.009651824660840802,0.0001888340329670446
149610000000.0,2,-0.0382067084,-0.0347743809,0.1629669097,-0.000948,-0.062613,0.01201,0.11886640465,-4.285702183,-8.8198068105,0.013476,0.45228,0.25063,9.999999999998899e-05,-6.666666666665932e-05,-9.999999999998899e-05,-0.00012814267619398745,0.00021423327391234537,-0.0001326351739696363
149610000000.0,2,0.025428643449999996,-0.08491578235,0.06736187885,-0.090503,-0.051224,0.017172,0.1137375267,-4.281191123999999,-8.822062339999999,0.012891,0.45177,0.2508,0.00029999999999996696,-0.00019999999999997797,-9.999999999998899e-05,0.00048398524342535554,0.0005983359370551611,0.00011741196310868784
