Time,placement_label,user_acc_x(m/s^2),user_acc_y(m/s^2),user_acc_z(m/s^2),rotation_rate_x(rad/s),rotation_rate_y(rad/s),rotation_rate_z(rad/s),gravity_x(m/s^2),gravity_y(m/s^2),gravity_z(m/s^2),attitude_roll(rad),attitude_pitch(rad),attitude_yaw(rad),target_delta_x,target_delta_y,target_delta_z,target_delta_roll,target_delta_pitch,target_delta_yaw
149550000000.0,2,-0.049347062799999994,-0.04647371435,0.0196329133,-0.026938,0.22382,-0.007719,-0.37337839209999996,-4.050930982,-8.923070835,-0.04182,0.42583,0.88586,0.0,0.0,0.0,0.0,0.0,0.0
149550000000.0,2,-0.0054426907500000005,-0.021005844299999996,-0.00752170055,0.042949,0.16356,0.002115,-0.35728567945,-4.0531865115,-8.922678569,-0.04002,0.42608,0.88588,-0.00019999999999997797,-9.999999999998899e-05,-0.00023333333333330764,0.0029369262990100453,-0.001101947045443863,-0.00039386832683932504
149550000000.0,2,0.011915079749999998,-0.00448163905,-0.028605998049999998,0.098874,0.075741,-0.013645,-0.3477045824,-4.0608356985,-8.919540440999999,-0.038963,0.42695,0.88581,-9.999999999998899e-05,-9.999999999998899e-05,-0.00023333333333352968,0.0015071578209151504,-0.0014063802367698663,6.847158154810185e-05
149550000000.0,2,0.08246411984999999,0.0105323421,-0.10351899739999999,0.13145,-0.000162,-0.034803,-0.34492930045000003,-4.072113346,-8.9145390495,-0.038673,0.42821,0.88553,0.0004999999999999449,-0.0004999999999999449,-0.00023333333333330764,-0.002555749823211606,-0.004443643620623217,-0.0029640844948743417
149550000000.0,2,0.0804733699,-0.0091397978,-0.15640626085,0.14399,-0.039682,-0.045385,-0.3460766785,-4.084960057499999,-8.9086550595,-0.038828,0.42965,0.88511,9.999999999998899e-05,-0.00019999999999997797,-0.00019999999999997797,-0.0011116152302170224,-0.0026992512188188655,-0.0005505684830738045
149550000000.0,2,-0.019338713799999997,-0.050621927299999994,-0.11194290974999999,0.13549,-0.037476,-0.049673,-0.34757709595,-4.097512569499999,-8.9027710695,-0.039021,0.43105,0.88464,9.999999999998899e-05,-9.999999999998899e-05,3.333333333332966e-05,0.00023098037890562084,-0.002975338272092287,0.0008026943365082029
149550000000.0,2,-0.0639785846,-0.06984296129999999,-0.055701772,0.10585,-0.008465,-0.048706,-0.34902848014999993,-4.1090844165,-8.897377411999999,-0.039207,0.43235,0.88423,-9.999999999998899e-05,4.999999999988347e-05,3.333333333332966e-05,0.0009134909783665157,-0.001614001962148226,0.0007397564362152109
149550000000.0,2,-0.060732583449999995,-0.08498442889999999,-0.07328509544999999,0.07309,0.04187,-0.031773,-0.3449391071,-4.1163413375,-8.894239284,-0.038763,0.43317,0.88385,-9.999999999998899e-05,5.0000000000105516e-05,3.333333333332966e-05,0.000256155603428343,-5.05943908011286e-05,0.0004930548619614117
149550000000.0,2,-0.11891543789999999,-0.07651148329999999,-0.007109821249999999,0.050891,0.085713,-0.003069,-0.3377802526,-4.1214407955,-8.8921798875,-0.037968,0.43374,0.88375,-9.999999999998899e-05,9.999999999998899e-05,0.00019999999999997797,-0.0010523875304696007,-0.00019324479753746182,2.0339589641732436e-05
149550000000.0,2,-0.1134433272,-0.07791383425000001,0.0706471066,0.035984,0.10605,0.023554,-0.32933672695,-4.1247750565,-8.890905022999998,-0.037025,0.43412,0.88396,-9.999999999998899e-05,4.999999999988347e-05,0.00019999999999997797,-0.0018150528407300803,-0.00021710855583156885,-0.00038892330081069515
149550000000.0,2,-0.02509521735,-0.07439324689999999,0.1039897166,0.027339,0.10078,0.038493,-0.32236419879999995,-4.13056098,-8.8884533605,-0.036252,0.43477,0.8844,-6.666666666665932e-05,5.0000000000105516e-05,0.00020000000000020002,-0.0017982673828453866,-0.00010482307462211793,-0.0004948862110733809
149550000000.0,2,0.0459931885,-0.04264912084999999,0.15740653915,0.027147,0.075209,0.037468,-0.3150484379,-4.1359546375,-8.886197830999999,-0.035438,0.43538,0.88476,-6.666666666665932e-05,9.999999999998899e-05,0.00019999999999997797,-0.001992242281894707,-0.0006109107096590183,-0.00036916179476984
149550000000.0,2,0.08074795609999999,-0.022927947699999996,0.23103486734999998,0.022583,0.030506,0.026861,-0.3099882065,-4.1415444279999996,-8.883844235,-0.03488,0.436,0.88499,-6.666666666665932e-05,0.00019999999999997797,0.00029999999999996696,-0.0010429229598295509,-0.0002549785639216484,-0.00026709677470204696
149550000000.0,2,0.11868988494999999,-0.0365788045,0.2716245917,0.009456,-0.031153,-0.00508,-0.30812494299999993,-4.147036151999999,-8.881294506,-0.03468,0.43662,0.88487,9.999999999998899e-05,3.333333333332966e-05,9.999999999998899e-05,-0.0010528550572346806,-0.0014803281551318825,0.0005720288163055531
149550000000.0,2,0.112580342,-0.019789819699999996,0.1574163458,0.025397,-0.064272,-0.044492,-0.30860546884999995,-4.151154945,-8.879333176,-0.034741,0.43709,0.88434,-9.999999999998899e-05,3.333333333332966e-05,9.999999999998899e-05,-0.00016140106252293673,-0.0005249835873943898,0.0006993388728626371
149550000000.0,2,0.062958693,0.0445614176,0.15594534829999998,0.057477,-0.068774,-0.065779,-0.3103020193,-4.1564505359999995,-8.876783447,-0.034943,0.43768,0.88359,-5.0000000000105516e-05,3.333333333332966e-05,0.00019999999999997797,0.00010671170756504367,-0.0009480464418352152,0.0006954536994324689
149550000000.0,2,-0.0115914603,0.07261824324999999,0.25770895535,0.082043,-0.067909,-0.068939,-0.31417564605000003,-4.1647861885,-8.872762720499999,-0.035394,0.43862,0.8829,-4.999999999988347e-05,9.999999999998899e-05,0.00019999999999997797,0.0008995934839876596,0.00014192001889101746,0.0008673459100065339
149550000000.0,2,-0.0273409402,0.0373633365,0.28430459015,0.067212,-0.059257,-0.075384,-0.3177158467,-4.1738083065,-8.8684477945,-0.035811,0.43963,0.88218,-1.6666666666775853e-05,9.999999999998899e-05,9.999999999998899e-05,-0.0005118738328754868,-0.0003359617051561514,0.0004493723227117774
149550000000.0,2,-0.01079712165,-0.0101596894,0.22313070744999997,0.025793,-0.038667,-0.079761,-0.31900051785,-4.179986496,-8.865407733,-0.035967,0.44033,0.88134,-1.666666666655381e-05,5.0000000000105516e-05,9.999999999998899e-05,-0.00046101895835032325,0.00019354067935450914,-1.8402099944941908e-05
149550000000.0,2,0.026389695149999996,-0.04990604184999999,0.15811261794999998,-0.003868,-0.007528,-0.071329,-0.3165390487,-4.1832226905,-8.864034801999999,-0.035695,0.44069,0.88048,-1.666666666655381e-05,4.999999999988347e-05,9.999999999998899e-05,0.000368738633759913,0.0005658467352394059,-0.00029421447521099653
149550000000.0,2,-0.006168382849999999,-0.04470851735,0.20634172265,-0.017645,0.019198,-0.045782,-0.31345976059999997,-4.185282087,-8.863152203499999,-0.035352,0.44093,0.87992,-1.6666666666775853e-05,4.999999999988347e-05,5.0000000000105516e-05,-0.0005223018111703004,8.990850426982e-05,-0.0008586047433920552
149550000000.0,2,0.024340105299999998,-0.0369906838,0.23633045834999997,-0.014536,0.023407,-0.0191,-0.3098509134,-4.187243417,-8.8623676715,-0.034949,0.44115,0.87962,-1.6666666666775853e-05,5.0000000000105516e-05,4.999999999988347e-05,-0.0009889145158470947,0.00024615870588950983,-0.0009499163965780988
149550000000.0,2,0.1107563051,-0.02395764595,0.20626326944999998,-0.016907,0.00955,0.007601,-0.3058890268,-4.1885182814999995,-8.861877339,-0.034503,0.44129,0.8795,-1.666666666655381e-05,9.999999999998899e-05,-2.4999999999941735e-05,-0.0001370014057254232,0.00048486497678923435,-0.0008505510737131516
149550000000.0,2,0.1604956339,0.0046581587499999995,0.13204654224999998,-0.013958,-0.00967,0.027915,-0.3031039382,-4.188420215,-8.862073472,-0.034189,0.44128,0.87955,9.999999999998899e-05,-9.999999999998899e-05,-2.4999999999941735e-05,-0.001418938388153712,-0.001237825188986852,-0.0006760756051630012
149550000000.0,2,0.16671305,0.03613750525,0.1254270535,-0.001476,-0.040685,0.042929,-0.30348639754999995,-4.188420215,-8.861975405499999,-0.034232,0.44128,0.8798,-9.999999999998899e-05,9.999999999998899e-05,-2.500000000016378e-05,0.0001379373960714303,0.00031028778338071383,-0.0007985485145956817
149550000000.0,2,0.1466290308,0.0242616521,0.1428240506,0.00032,-0.08119,0.046201,-0.3082426228,-4.1893028135,-8.861485072999999,-0.034771,0.44138,0.88014,9.999999999998899e-05,-9.999999999998899e-05,-2.4999999999941735e-05,-0.0006342698637942235,-0.0009971487629183429,-0.00047252790000748557
149550000000.0,2,0.12986946594999998,0.032469818149999996,0.07182390459999999,0.003261,-0.12701,0.024935,-0.31692150804999997,-4.18940088,-8.861092807,-0.03575,0.44139,0.88034,4.999999999988347e-05,3.333333333332966e-05,-9.999999999998899e-05,0.0005810653836508806,-0.00012190825358548985,-0.00027194275798711476
149550000000.0,2,0.0652534491,0.057231609399999994,0.0044914457,0.031994,-0.15385,-0.00379,-0.32891504099999996,-4.190381545,-8.8602102085,-0.037106,0.4415,0.88032,5.0000000000105516e-05,3.333333333332966e-05,-9.999999999998899e-05,-0.0007147805640225768,-0.00030051136866315886,8.628471129959459e-05
149550000000.0,2,0.01587696635,0.08944645465,0.04790548524999999,0.075685,-0.17018,-0.019696,-0.34283067734999995,-4.194892604,-8.857464346499999,-0.038686,0.44201,0.88016,9.999999999998899e-05,3.333333333332966e-05,-9.999999999998899e-05,2.320968497626641e-05,0.00024749082795971766,0.0002925678308247637
149550000000.0,2,-0.0253207703,0.09365350749999998,0.10688267835,0.1161,-0.18969,-0.024928,-0.35909990969999994,-4.2036205225,-8.852757154499999,-0.040542,0.443,0.87998,9.999999999998899e-05,6.666666666665932e-05,-9.999999999998899e-05,0.0004888046616673969,0.0007149938549888546,0.0004747552022763002
149550000000.0,2,-0.02291814105,0.05607442469999999,0.13302720725,0.12674,-0.19404,-0.027035,-0.37601638095,-4.215094303,-8.846578964999999,-0.042478,0.44429,0.87978,0.00019999999999997797,6.666666666688137e-05,-9.999999999998899e-05,-0.001139210891372644,0.0010752519841710217,0.0002771401470137991
149550000000.0,2,-0.018867994599999997,-0.008649465299999999,0.1207394748,0.10555,-0.1715,-0.018572,-0.39188354065000003,-4.226568083499999,-8.8404007755,-0.0443,0.44559,0.87964,3.333333333332966e-05,6.666666666665932e-05,4.999999999988347e-05,0.0008513823897037254,0.002245172078313651,-0.00023283578339527988
149550000000.0,2,-0.05034734109999999,-0.08195417405,0.13818550515,0.053696,-0.11247,-0.009157,-0.40410262654999995,-4.235492134999999,-8.835595517,-0.045704,0.4466,0.87962,3.333333333332966e-05,0.00019999999999997797,5.0000000000105516e-05,0.0018693231417173384,0.0017531308076830232,0.00027641082285895235
149550000000.0,2,-0.14099020704999998,-0.15067917725,0.1492179864,-0.008664,-0.037378,-0.005123,-0.41236963249999997,-4.24039546,-8.832849654999999,-0.046652,0.44716,0.87973,3.333333333332966e-05,9.999999999998899e-05,-9.999999999998899e-05,-0.00018070047042062498,0.0013499207964635662,-0.0008290234145208741
149550000000.0,2,-0.19059224275,-0.19936919449999999,0.11607150939999998,-0.064614,0.038729,-0.001079,-0.41469380854999993,-4.24039546,-8.832751588499999,-0.046915,0.44715,0.87989,9.999999999998899e-05,9.999999999998899e-05,-9.999999999998899e-05,-0.0006433324024401887,0.0017634989472163909,-0.0009336721772637835
149550000000.0,2,-0.2382623684,-0.23021110874999998,0.1428828905,-0.10047,0.090164,-0.001224,-0.4129580315,-4.237355398499999,-8.8343206525,-0.046711,0.44681,0.88009,9.999999999998899e-05,9.999999999998899e-05,-9.999999999998899e-05,-0.001389750673377932,0.001500808459508285,-0.0008860053811473034
149550000000.0,2,-0.27783220114999996,-0.25084430035,0.1529641267,-0.11311,0.10199,-0.011933,-0.40975125695,-4.2332366055,-8.8364781155,-0.046338,0.44634,0.88024,-0.00019999999999997797,0.0004999999999999449,0.00039999999999995595,0.0028679413094092054,0.002137437857895108,0.001914927291403773
149550000000.0,2,-0.19656449259999997,-0.23821333514999998,0.1447069274,-0.11007,0.067879,-0.031075,-0.40602472995,-4.2289216795,-8.8386355785,-0.045905,0.44586,0.8801,0.000600000000000156,-0.00039999999999995595,-0.0006999999999999229,-0.005953669189937116,-0.0007859645610914789,-0.003358195862555341
149550000000.0,2,-0.12755509655,-0.21496176799999997,0.10070448885,-0.10301,0.0039,-0.05016,-0.40500483835,-4.224312554,-8.840891108,-0.045779,0.44534,0.8797,9.999999999998899e-05,9.999999999998899e-05,-9.999999999998899e-05,3.8024994231444786e-05,0.00019577308211338185,-0.0005542586687044826
149550000000.0,2,-0.08475887594999999,-0.18586543745,0.023643833149999998,-0.086391,-0.070804,-0.07775,-0.40859407225,-4.2198995615,-8.842852438,-0.046173,0.44484,0.87896,0.00019999999999997797,7.500000000004725e-05,-0.00019999999999997797,-0.0002811260496538015,-2.775048506098443e-05,8.985223439922363e-05
149550000000.0,2,-0.026036655749999995,-0.12933990685,-0.02509521735,-0.04932,-0.11798,-0.097883,-0.4148016817,-4.217055633,-8.8439311695,-0.046868,0.44451,0.87793,4.999999999988347e-05,7.500000000004725e-05,-9.999999999998899e-05,0.00042658928753103176,-0.000430638700885444,0.0006567327365329945
149550000000.0,2,-0.014817848149999998,-0.048346784500000003,0.03823612835,-0.011062,-0.13854,-0.099914,-0.42287255464999995,-4.216761433499999,-8.84363697,-0.04778,0.44448,0.87682,5.0000000000105516e-05,7.49999999998252e-05,-0.00020000000000020002,9.692173296743656e-05,-0.0007102549874800079,0.0004740632389499122
149550000000.0,2,-0.030076995549999996,-0.011611073599999999,0.0801399438,0.009183,-0.1302,-0.08068,-0.43200254579999997,-4.218330497499999,-8.842460172,-0.048816,0.44466,0.87592,-0.00039999999999995595,7.500000000004725e-05,0.000300000000000189,0.005769415557651536,0.001283028304702949,0.0027932982832276076
149550000000.0,2,-0.051377039349999994,-0.035794272499999995,0.062429133899999996,0.011498,-0.091885,-0.055124,-0.43973018599999997,-4.22078216,-8.840891108,-0.049697,0.44494,0.87531,0.0001666666666666483,-9.999999999998899e-05,-9.999999999998899e-05,0.0012205245198047,9.927766266870641e-05,-0.0002469801720987874
149550000000.0,2,-0.08737725149999999,-0.06647928035,0.05811420789999999,-0.010576,-0.034192,-0.028576,-0.44442757134999994,-4.222155090999999,-8.840008509499999,-0.050232,0.44509,0.87501,0.0001666666666666483,-9.999999999998899e-05,-0.000300000000000189,0.0019835470158310886,0.00041433765879173023,-0.001455295679136992
149550000000.0,2,-0.16984137135,-0.09311414174999999,0.0150826277,-0.048444,0.03963,-0.018093,-0.44531016984999994,-4.2202918275,-8.840891108,-0.050328,0.44489,0.87495,0.0001666666666666483,-0.0005999999999999339,-0.0006999999999999229,-0.0030608762613555385,-0.001196375364315383,-0.004361399387027481
149550000000.0,2,-0.2514817326,-0.10414662299999998,0.0060016698,-0.087388,0.10176,-0.024667,-0.44164248274999995,-4.215290436,-8.843440837,-0.049899,0.44432,0.8749,9.999999999998899e-05,-9.999999999998899e-05,-0.00019999999999997797,-0.000546150346216856,0.00018337105122356867,-0.0017902656819094587
149550000000.0,2,-0.23956665284999998,-0.11182522995,-0.008825985,-0.11276,0.12222,-0.037549,-0.43424826865,-4.207641249,-8.8474615635,-0.049042,0.44345,0.87468,9.999999999998899e-05,-0.00020000000000020002,-0.00029999999999996696,-0.000631669524502998,0.0005133534760171088,-0.0027107746321862747
149550000000.0,2,-0.18414927369999998,-0.11643435544999998,-0.0694899219,-0.12242,0.10632,-0.051409,-0.4257655164,-4.198226865,-8.852364888499999,-0.04806,0.44239,0.87425,9.999999999998899e-05,-0.00019999999999997797,-9.999999999998899e-05,-0.0005874906851074391,-2.784650730669469e-06,-0.0010574853870556622
149550000000.0,2,-0.08163055459999999,-0.1040877831,-0.10617659954999999,-0.10025,0.075237,-0.053448,-0.41755735034999997,-4.189597012999999,-8.856777881,-0.047111,0.44142,0.87367,-9.999999999998899e-05,-5.0000000000105516e-05,-9.999999999998899e-05,0.0006452675694392784,0.0011507433737625306,-0.0005920086083645859
149550000000.0,2,-0.026654474699999996,-0.0753935252,-0.05225963785,-0.069661,0.036613,-0.044788,-0.41179104014999995,-4.183713023,-8.8598179425,-0.046445,0.44076,0.87313,9.999999999998899e-05,-4.999999999988347e-05,-9.999999999998899e-05,0.00046971578181476126,-0.0002030150689626975,0.00014687750359965168
149550000000.0,2,0.0137489233,-0.058388794099999995,0.026674088000000002,-0.058384,-0.012512,-0.030806,-0.40998661654999996,-4.1796922965,-8.861877339,-0.046231,0.44029,0.87271,-9.999999999998899e-05,-9.999999999998899e-05,-9.999999999998899e-05,0.0004567400101321839,-4.192553447168734e-05,0.00036506851163653486
149550000000.0,2,0.08364091785,-0.060820843299999997,-0.0049425516,-0.06416,-0.059363,-0.01686,-0.4118008468,-4.175083171,-8.8639367355,-0.046424,0.43978,0.87237,9.999999999998899e-05,-9.999999999998899e-05,-9.999999999998899e-05,-7.683091656796037e-05,-0.0014179223703987276,0.0004019814777521946
149550000000.0,2,0.1175228936,-0.05792788155,-0.06081103665,-0.074048,-0.089125,-0.007222,-0.41665513854999997,-4.169297247499999,-8.866388398,-0.046958,0.43913,0.87212,-9.999999999998899e-05,-0.00019999999999997797,-9.999999999998899e-05,0.000714380327492492,-0.0014905847211545975,-4.483250043230136e-05
149550000000.0,2,0.07078439969999999,0.0089240515,-0.028331411849999998,-0.080487,-0.094397,-0.008293,-0.4233236605499999,-4.16194226,-8.869526526,-0.047692,0.4383,0.87193,-4.999999999988347e-05,-9.999999999998899e-05,-0.00010000000000021103,0.000934098747845169,-0.0007468051253742836,-7.838440126803348e-05
149550000000.0,2,0.030488874849999997,0.0635078654,0.0164947853,-0.081316,-0.070935,-0.01901,-0.42911939069999994,-4.1538027405,-8.87305692,-0.048325,0.43739,0.87168,-5.0000000000105516e-05,-9.999999999998899e-05,-9.999999999998899e-05,0.00029258624704298075,0.00023483592682249643,0.00011969780879073078
149550000000.0,2,-0.0144746154,0.07586424439999999,0.0070313680499999994,-0.063844,-0.023122,-0.023333,-0.43173776625,-4.146643886,-8.876391180999999,-0.048601,0.43657,0.8714,-0.00019999999999997797,-9.999999999998899e-05,9.999999999998899e-05,0.0022514682470946568,0.0004607647277177218,0.0008854036400145482
149550000000.0,2,-0.09096648539999999,0.11830742559999999,0.05727083599999999,-0.037805,0.032071,-0.022315,-0.4309630409,-4.141348295,-8.8788428435,-0.0485,0.43598,0.87121,3.333333333332966e-05,-9.999999999998899e-05,-9.999999999998899e-05,0.0009895769420056877,0.0010272338541577053,-0.0002873353300953674
149550000000.0,2,-0.10486250844999999,0.13332140674999998,0.07667819634999999,-0.009744,0.076586,-0.015937,-0.4263539154,-4.1384063,-8.8804119075,-0.047973,0.43565,0.87111,3.333333333332966e-05,-9.999999999998899e-05,-9.999999999998899e-05,0.001149999153165271,0.0006765758949118794,-0.0005504071957024015
149550000000.0,2,-0.05526047275,0.11171735679999999,0.0478760653,0.001994,0.087128,7.8e-05,-0.41953829364999995,-4.1369353024999995,-8.8813925725,-0.047202,0.43549,0.87111,3.333333333332966e-05,-0.00019999999999997797,-9.999999999998899e-05,0.0008354456672593491,0.0002180377927563093,-0.0008408991035121771
149550000000.0,2,-0.0065900687999999995,0.06139943565,0.01569064,0.002866,0.068995,0.009719,-0.41343855735,-4.1363469035,-8.881980971499999,-0.046514,0.43542,0.87122,-0.0004999999999999449,0.00029999999999996696,0.000500000000000167,0.005835508193760164,0.002447504883223761,0.0026901306256583435
149550000000.0,2,0.04064856425,0.0016082905999999998,0.0012454445499999998,-0.004908,0.032827,0.01297,-0.40935899095,-4.1359546375,-8.8823732375,-0.046054,0.43537,0.87132,0.0001666666666666483,-9.999999999998899e-05,-0.00023333333333330764,0.000144780555572821,0.00022247057926305658,-0.00014498764395781683
149550000000.0,2,0.0593694591,-0.0410702502,0.0167497582,-0.021243,-0.010723,0.009815,-0.40862349219999994,-4.135170105499999,-8.8827655035,-0.04597,0.43529,0.87137,0.0001666666666666483,-9.999999999998899e-05,-0.00023333333333352968,-0.0001546549076543169,-0.00013861599576925343,-8.791788070661166e-05
149550000000.0,2,0.03892259385,-0.06993122115,0.03254827135,-0.039662,-0.054247,-0.002951,-0.41182046009999995,-4.133404908499999,-8.883451969,-0.046325,0.43509,0.87133,0.0001666666666666483,-0.00039999999999995595,-0.00023333333333330764,-0.003743934714571573,-0.0022162084845487318,-0.002890897671224524
149550000000.0,2,0.029312076849999997,-0.08915225515,0.02680157445,-0.060115,-0.086032,-0.016807,-0.41777309664999995,-4.129972581,-8.884726833499998,-0.046987,0.43471,0.87112,9.999999999998899e-05,-9.999999999998899e-05,0.0001666666666666483,0.00018882779386131254,-0.000836161649600875,0.00033936403895526435
149550000000.0,2,-0.0174950636,-0.08691633894999999,0.003726527,-0.071718,-0.081655,-0.036048,-0.42438277874999997,-4.125265389,-8.8866881635,-0.047719,0.43417,0.87074,-0.0002500000000000835,0.00019999999999997797,0.0001666666666666483,-0.00020210772883078043,-0.0005141184852204272,0.0004354921460159311
149550000000.0,2,-0.10055738909999999,-0.057133542899999994,-0.0067862018,-0.061744,-0.043365,-0.048905,-0.4291586173,-4.1202639975,-8.888747559999999,-0.048243,0.43361,0.87029,-0.00024999999999986144,0.00019999999999997797,0.0001666666666666483,0.004948826134600515,0.001270077778971368,0.0034346611368691327
149550000000.0,2,-0.18809154699999997,0.0029223816999999997,0.031969678999999994,-0.038863,0.013987,-0.052164,-0.430511935,-4.116635537,-8.890316624,-0.048387,0.4332,0.86986,0.0005999999999999339,-0.0004999999999999449,-0.0005999999999999339,-0.0044339370608195705,-0.002005964226265533,-0.002989937463573067
149550000000.0,2,-0.201820857,0.02958666305,0.03778502245,-0.011855,0.063829,-0.039391,-0.42785433284999996,-4.114968406499999,-8.8911992225,-0.048083,0.43302,0.86955,-0.0004999999999999449,0.00039999999999995595,0.0004999999999999449,0.00490547399140856,0.0022759572215456103,0.0029948880743376205
149550000000.0,2,-0.17655892659999997,0.0327934376,0.0255169033,0.004292,0.092444,-0.02233,-0.4222939623,-4.1148703399999995,-8.891493422,-0.047458,0.43301,0.86941,0.0005999999999999339,-0.000500000000000167,-0.0005999999999999339,-0.004111550181455426,-0.0016886991771323245,-0.003182498199886391
149550000000.0,2,-0.13810705195,0.015582766849999999,-0.00220649625,-0.001031,0.10206,-0.009544,-0.41525278759999995,-4.1147722735,-8.8919837545,-0.046666,0.43299,0.8694,9.999999999998899e-05,-0.00019999999999997797,-0.00019999999999997797,-0.001304734295595189,0.00037595233730947086,-0.0020485444813186926
149550000000.0,2,-0.0767860695,-0.0162594257,-0.0437572723,-0.022462,0.095834,-0.001029,-0.40759379395,-4.113105143,-8.893062486,-0.0458,0.43281,0.86942,9.999999999998899e-05,-0.00019999999999997797,-0.00019999999999997797,0.0004814252339336855,-0.00035456387669774436,-0.0006401738621222008
149550000000.0,2,-0.020270345549999996,-0.00911037785,-0.0462285481,-0.049384,0.069407,0.006443,-0.40125869805,-4.1090844165,-8.895219949,-0.045079,0.43235,0.86946,-0.0007999999999999119,0.000600000000000156,0.0007999999999999119,0.007458080125566813,0.0037024719663485417,0.003543524000810261
149550000000.0,2,0.0259287826,-0.013297817399999998,-0.0761388306,-0.062507,0.032216,0.010755,-0.39747333114999994,-4.1032004265,-8.898063877499998,-0.04464,0.4317,0.86952,-9.999999999998899e-05,-0.00029999999999996696,-0.0003500000000000725,0.0006630334796919879,-0.00044005723783557826,-0.00021465510885124162
149550000000.0,2,0.05990882484999999,-0.0022555294999999998,-0.07240249694999999,-0.056412,-0.001938,0.017229,-0.39644363289999995,-4.097512569499999,-8.9008097395,-0.044511,0.43106,0.86961,0.0005999999999999339,-0.000300000000000189,-0.00034999999999985043,-0.004017351631088184,-0.003938755743741362,-0.002969148035467939
149550000000.0,2,0.07198081099999999,0.02189824945,-0.009022117999999999,-0.030911,-0.017061,0.014096,-0.3969928053,-4.093687975999999,-8.90247687,-0.044564,0.43063,0.8697,-0.0005999999999999339,0.000500000000000167,0.0005999999999999339,0.0047187487160682,0.002037646631338541,0.0033813346925259113
149550000000.0,2,0.0616642152,0.026791767799999998,0.06986257459999999,-0.008431,-0.009782,0.010919,-0.39759101095,-4.092609244499999,-8.9029672025,-0.044629,0.4305,0.86978,0.0004999999999999449,-0.000500000000000167,-0.0004999999999999449,-0.0034410385433130686,-0.003357672569198167,-0.002397163200213853
149550000000.0,2,0.04500271685,0.040815277299999994,0.10372493705,-0.000847,0.004011,0.009839,-0.3972477782,-4.092511178,-8.9029672025,-0.04459,0.4305,0.86986,0.00019999999999997797,-0.00019999999999997797,-0.00019999999999997797,-0.0016435942775298584,-0.0016488669070144901,-0.0007750014285521634
149550000000.0,2,0.011424747249999999,0.03013583545,0.09154507775,-0.002825,0.022145,0.007669,-0.39569832749999995,-4.092511178,-8.903065268999999,-0.044415,0.43049,0.86994,-0.00019999999999997797,4.999999999988347e-05,9.999999999998899e-05,0.002546096701606715,0.00036775510926623234,0.0012283484054335658
149550000000.0,2,-0.0186718616,0.0228887211,0.0676266584,-0.00279,0.026406,0.007662,-0.394031197,-4.092315044999999,-8.903261402,-0.044228,0.43047,0.87004,-9.999999999998899e-05,5.0000000000105516e-05,9.999999999998899e-05,0.0007324866169798883,0.0008607891007361701,3.8208866780409245e-05
149550000000.0,2,0.010924608099999998,0.0196525266,0.054534780649999996,-0.009307,0.012606,0.008742,-0.39264845935,-4.0916285795,-8.903653667999999,-0.044072,0.43039,0.87012,9.999999999998899e-05,-9.999999999998899e-05,-9.999999999998899e-05,0.0004965399897328693,-0.00028155835137355645,0.00021550696253858082
149550000000.0,2,0.04135464305,0.02635046855,0.028566771449999997,-0.005191,-0.005543,0.009848,-0.3924032931,-4.0908440475,-8.904045933999999,-0.044042,0.4303,0.87019,3.333333333332966e-05,-3.333333333332966e-05,-3.333333333332966e-05,-0.0002933758063813352,8.06559574031418e-05,4.6967624640348316e-06
149550000000.0,2,0.04853311085,0.042403954599999995,0.021084297499999998,0.004291,-0.020538,0.00989,-0.3934526046499999,-4.090353715,-8.9041440005,-0.044158,0.43026,0.87027,3.333333333332966e-05,-3.333333333332966e-05,-3.333333333332966e-05,-8.670037027314059e-05,4.8315215678274015e-05,0.00019589035635997343
149550000000.0,2,0.05341682254999999,0.045934348599999994,0.024595078199999995,0.021332,-0.02281,0.012057,-0.39504128195,-4.09133438,-8.903653667999999,-0.044339,0.43037,0.87036,3.333333333332966e-05,-3.333333333332966e-05,-3.333333333332966e-05,-0.0016033291350308065,-6.28285372186177e-05,-0.0011146706000091378
149550000000.0,2,0.017671583299999998,0.043874952099999996,0.0270859673,0.034252,-0.007997,0.012053,-0.39625730654999997,-4.093687975999999,-8.902574936499999,-0.044481,0.43062,0.87048,-9.999999999998899e-05,0.00019999999999997797,0.00019999999999997797,0.0013528504086149917,0.00022407000195490134,0.0014540532659199357
149550000000.0,2,-0.050278694549999996,0.0258699427,0.04082508395,0.042935,0.01111,0.013103,-0.39713990504999996,-4.09721837,-8.900907806,-0.044589,0.43102,0.87069,0.00019999999999997797,-0.00019999999999997797,-0.00019999999999997797,-0.0023755047340940916,-0.0012421334294940856,-0.0008335186261544114
149550000000.0,2,-0.0641747176,-0.0163574922,0.06347844544999999,0.043033,0.027084,0.019481,-0.3968555121999999,-4.1016313625,-8.8988484095,-0.044567,0.43152,0.87095,-5.0000000000105516e-05,5.0000000000105516e-05,4.999999999988347e-05,-0.00021454153815975152,0.00012620805184027084,5.5402018301037304e-05
149550000000.0,2,-0.05184775855,-0.0678031781,0.08048317655000001,0.024849,0.022966,0.022659,-0.39631614644999996,-4.1057501555,-8.896985146,-0.044516,0.43198,0.87125,-4.999999999988347e-05,4.999999999988347e-05,5.0000000000105516e-05,0.002681761344679068,0.001064503552850038,0.0013366131388413416
149550000000.0,2,-0.035029353799999996,-0.11576750324999999,0.047846645349999994,0.006602,0.00607,0.018388,-0.3966789925,-4.1086921505,-8.895612215,-0.044563,0.43231,0.87152,9.999999999998899e-05,9.999999999998899e-05,3.333333333332966e-05,-0.0005279511993316888,0.00016589473208927785,-1.2303495579291113e-05
149550000000.0,2,-0.02672312125,-0.13582210249999999,0.028047019,-0.008334,-0.004448,0.00237,-0.3975027511,-4.1102612144999995,-8.894827683,-0.044659,0.43249,0.8716,5.0000000000105516e-05,0.00019999999999997797,3.333333333332966e-05,-0.0007654791537790029,-9.04292064907164e-05,0.00030266591997787917
149550000000.0,2,-0.0439141787,-0.10729455764999998,0.097281968,-0.011457,-0.006536,-0.015778,-0.39841476955,-4.111634145499999,-8.8941412175,-0.044765,0.43264,0.87152,4.999999999988347e-05,0.00020000000000020002,3.333333333332966e-05,-0.0002537792084255086,-0.00014238034101854424,0.00020700208861415548
149550000000.0,2,-0.0981841798,-0.07667819634999999,0.1677917815,-0.025156,0.004246,-0.03183,-0.39906200844999995,-4.112124478,-8.8939450845,-0.044839,0.4327,0.87129,-0.0005999999999999339,0.00019999999999997797,0.0006999999999999229,0.003684618513965343,0.003068481846809412,0.0038675099263150436
149550000000.0,2,-0.14570720569999998,-0.08699479215,0.17809857064999998,-0.052631,0.030053,-0.042594,-0.39808134344999996,-4.1106534805,-8.89463155,-0.044725,0.43253,0.87095,3.333333333332966e-05,-2.0000000000131024e-05,-0.00011666666666676484,-0.0001274137473561976,-0.0003453617890003535,0.0003044135496847733
149550000000.0,2,-0.1693020056,-0.10180283365,0.16030930755,-0.075842,0.06327,-0.040555,-0.39453133615,-4.10702502,-8.8964948135,-0.044319,0.43213,0.8706,3.333333333332966e-05,-1.999999999990898e-05,-0.0001166666666665428,-0.0007694580383627025,-0.00015984270198066142,0.00025070905683888256
149550000000.0,2,-0.20290939515,-0.14338302965,0.16609523105,-0.09595,0.086865,-0.034224,-0.3893632316,-4.102121695,-8.898946475999999,-0.043726,0.43157,0.87033,3.333333333332966e-05,-2.0000000000131024e-05,-0.0001166666666665428,-9.068382910470962e-05,0.00011083292395630551,-1.581284382118353e-05
149550000000.0,2,-0.22907353735,-0.16278058334999998,0.1219358861,-0.10655,0.091214,-0.04065,-0.38353808149999996,-4.095943505499999,-8.902084603999999,-0.043058,0.43088,0.87004,0.0001666666666666483,-1.999999999990898e-05,-0.00011666666666676484,0.00016780981774433545,0.00023219849877431642,3.3958969277714246e-06
149550000000.0,2,-0.18513974535,-0.11966074329999998,0.0342252085,-0.094842,0.082594,-0.047015,-0.3772029856,-4.0890788505,-8.9055169315,-0.042331,0.43011,0.86964,0.0001666666666666483,-2.0000000000131024e-05,-0.00011666666666676484,5.995018243198924e-05,-0.00022577923948308154,-0.0004123673309821274
149550000000.0,2,-0.1396270827,-0.0701371608,0.031547993049999994,-0.058804,0.049265,-0.052228,-0.3722800473,-4.084273592,-8.9078705275,-0.041768,0.42957,0.86915,0.0001666666666666483,-0.0004999999999999449,-0.0001166666666665428,-0.003953477830430485,-0.0031170227521903904,-0.0033166391379852445
149550000000.0,2,-0.07582501779999999,-0.04951377585,0.030557521399999996,-0.022798,0.010612,-0.059568,-0.36934785895,-4.0824103285,-8.908851192499998,-0.041435,0.42936,0.86855,-0.0006999999999999229,0.0004999999999999449,0.0005999999999999339,0.0051281191959769434,0.0022352776630731874,0.002516289248502307
149550000000.0,2,0.00538385085,-0.02038802535,-0.00140235095,0.013254,-0.01739,-0.059457,-0.36780821489999993,-4.083390993499999,-8.9084589265,-0.041264,0.42948,0.86789,0.00039999999999995595,-0.0004999999999999449,-0.0004999999999999449,-0.003118982528468095,-0.0017358667216422763,-0.002773152061729678
149550000000.0,2,0.028566771449999997,0.0014709974999999999,0.03329357675,0.028094,-0.024979,-0.051946,-0.36720020259999997,-4.0861368554999995,-8.9072821285,-0.041201,0.42978,0.86727,-0.0004999999999999449,0.00029999999999996696,0.00029999999999996696,0.006187797144506124,0.0013752612575277379,0.0023358060093125466
149550000000.0,2,0.0127878716,-0.023153500649999995,0.06086987654999999,0.022801,-0.015352,-0.044501,-0.36668045015,-4.08937305,-8.905811130999998,-0.04115,0.43014,0.86676,-9.999999999998899e-05,-9.999999999998899e-05,-9.999999999998899e-05,0.0014494092907130218,-0.0005277714356139995,-0.0004538433672868769
149550000000.0,2,0.00675678185,-0.0387166542,0.0537992819,-0.001659,-0.002369,-0.03923,-0.3654350056,-4.0908440475,-8.9051246655,-0.041014,0.43031,0.86631,0.0004999999999999449,-0.0007999999999999119,-0.0007999999999999119,-0.004293360203262431,-0.003710077818638302,-0.004501015826381544
149550000000.0,2,0.00122583125,-0.04108005685,0.05443671415,-0.029318,0.009577,-0.036098,-0.3633559958,-4.089961449,-8.905614997999999,-0.040778,0.43021,0.8659,-0.00029999999999996696,9.999999999998899e-05,0.00019999999999997797,0.0020648831147618285,0.0006618395481068351,0.0007800208025455779
149550000000.0,2,0.0231044674,-0.03861858769999999,0.0642139442,-0.048478,0.018254,-0.03081,-0.3602374811,-4.087215586999999,-8.9070859955,-0.040422,0.4299,0.86551,-9.999999999998899e-05,-0.00019999999999997797,0.00029999999999996696,-0.0010415031827042953,-1.6681162791964965e-05,5.355728305195262e-05
149550000000.0,2,0.02366344645,-0.04994526845,0.07204945755,-0.06777,0.010947,-0.024427,-0.35750142575,-4.082704528,-8.909145392,-0.040106,0.4294,0.86518,-0.000600000000000156,0.00039999999999995595,0.00029999999999996696,0.0026538890313579366,0.0018477933367819777,0.00266974598678546
149550000000.0,2,0.020309572149999996,-0.05724141605,-0.00026477954999999995,-0.077413,0.005699,-0.024435,-0.35550086914999995,-4.076820538,-8.9119893205,-0.039869,0.42873,0.86485,-9.999999999998899e-05,-9.999999999998899e-05,-1.999999999990898e-05,-0.00036010319747969977,9.470051614868247e-05,-0.00020404245572647195
149550000000.0,2,0.02982202265,-0.0089828914,-0.0414821295,-0.056127,-0.000869,-0.024388,-0.35393180514999995,-4.071132681,-8.914637116,-0.039682,0.4281,0.86452,-0.00029999999999996696,-9.999999999998899e-05,-2.0000000000131024e-05,-0.0002487200800154188,0.0018519131882837048,0.0008461530858850652
149550000000.0,2,0.0420705285,0.034068302099999996,0.021290237150000002,-0.027371,-0.006433,-0.023261,-0.35271578054999997,-4.06779842,-8.91620618,-0.039539,0.42773,0.86421,-5.0000000000105516e-05,-9.999999999998899e-05,-1.999999999990898e-05,0.0004832383789581396,-0.0014366531301552854,-0.0012645637743829985
149550000000.0,2,0.06632237395,0.05420135455,0.02138830365,-0.003914,-0.010883,-0.027484,-0.35138207615,-4.066425488999999,-8.916892645499999,-0.039385,0.42757,0.86386,-4.999999999988347e-05,-9.999999999998899e-05,-2.0000000000131024e-05,0.0009911499286107683,0.00012166370030208817,-0.00024396007848664913
149550000000.0,2,0.05607442469999999,0.07351064839999999,-0.0514064593,0.019665,0.002778,-0.027468,-0.34937171289999996,-4.066425488999999,-8.916990711999999,-0.03916,0.42757,0.86351,-9.999999999998899e-05,-0.00019999999999997797,-1.999999999990898e-05,0.00014701874137840187,-0.0006759368168807178,-0.0003211326812649351
149550000000.0,2,0.029792602699999997,0.1061471796,-0.03370545605,0.04012,0.028182,-0.024275,-0.34583151225,-4.067994553,-8.916402312999999,-0.038766,0.42774,0.86321,-9.999999999998899e-05,-0.00019999999999997797,-0.000180000000000069,9.999255489445691e-06,-0.00046186724983821037,-0.0004772566915388077
149550000000.0,2,0.02160404995,0.10713765125000001,-0.0091397978,0.038146,0.052701,-0.017917,-0.34047708135,-4.0699558829999996,-8.9157158475,-0.03817,0.42797,0.86299,-9.999999999998899e-05,-0.00019999999999997797,-0.00017999999999984695,9.690540041562556e-05,0.00010922033212468207,0.00018999362514737772
149550000000.0,2,0.03892259385,0.0847098427,-0.028664837949999997,0.022219,0.06668,-0.011565,-0.33355358645,-4.071034614499999,-8.915421648,-0.037396,0.42809,0.86282,-9.999999999998899e-05,-0.00019999999999997797,-0.000180000000000069,0.0001600173532729232,-0.00047087754371211155,-0.00048567204319577284
149550000000.0,2,0.0613307891,0.0357354326,-0.044296638049999996,-0.0033,0.081805,-0.005233,-0.3251492874,-4.070544282,-8.916010046999999,-0.036451,0.42803,0.8627,0.00039999999999995595,-0.00010000000000021103,-0.00017999999999984695,-5.282601895140182e-06,-0.00010449800732992287,-0.0004838964236387744
149550000000.0,2,0.07338316195,-0.00812971285,-0.0132193642,-0.029967,0.085219,-0.001017,-0.31608794279999997,-4.0684848855,-8.9172849115,-0.035432,0.4278,0.8626,0.00039999999999995595,-0.0007999999999999119,-0.000180000000000069,-0.006269749129068192,-0.0034227637375945363,-0.004238916866318471
149550000000.0,2,0.06016379775,-0.017622550049999998,0.025683616349999997,-0.049284,0.070462,-0.002094,-0.30827204275,-4.0647583585,-8.9192462415,-0.034548,0.42739,0.86252,-0.0008999999999999009,0.0005999999999999339,0.0008999999999999009,0.005918571582142262,0.0028988203076052432,0.003957029912647764
149550000000.0,2,0.08877960245,-0.02382035285,0.050729800449999994,-0.061167,0.049255,-0.006348,-0.30156429414999997,-4.060247299499999,-8.921501770999999,-0.033789,0.42688,0.86236,0.0007999999999999119,-0.0006999999999999229,-0.0008999999999999009,-0.006823598868895331,-0.003910752392763062,-0.003879463407559347
149550000000.0,2,0.13006559895,-0.014925721299999998,0.0735891016,-0.065668,0.022652,-0.002043,-0.29661193589999996,-4.055049775,-8.9240515,-0.033225,0.4263,0.86219,-9.999999999998899e-05,-9.999999999998899e-05,0.0004999999999999449,0.00024245117005294858,-0.00046212650593613347,0.00028129817351985054
149550000000.0,2,0.1209944477,0.0083160392,0.09789978695,-0.059464,-0.000841,0.000142,-0.29413085344999995,-4.05014645,-8.926405096,-0.032939,0.42575,0.86207,-0.0008999999999999009,0.0005999999999999339,0.0004999999999999449,0.00594495401934364,0.0025546988180948915,0.004165476415315339
149550000000.0,2,0.0948891454,0.04251182775,0.1257997062,-0.048909,-0.015843,-0.000883,-0.293611101,-4.0457334575,-8.928366426,-0.032873,0.42525,0.86198,0.0008999999999999009,-0.0007999999999999119,-0.0009999999999998899,-0.006118927084476478,-0.004237013090240049,-0.0034460660672621657
149550000000.0,2,0.0705686534,0.0641551043,0.1368027675,-0.04583,-0.029721,0.00128,-0.29487615884999996,-4.041516597999999,-8.9302296895,-0.033008,0.42478,0.8619,9.999999999998899e-05,-9.999999999998899e-05,-3.333333333332966e-05,0.0007431260776998849,-0.001702467537222141,-0.00010046340530253661
149550000000.0,2,0.046022608449999995,0.0942222932,0.0936731208,-0.037231,-0.02233,0.000214,-0.29651386939999996,-4.037201671999999,-8.9321910195,-0.033184,0.42429,0.86186,3.333333333332966e-05,-9.999999999998899e-05,-3.333333333332966e-05,0.0002352095828291878,-0.0006236429660255727,0.00022231640582434653
149550000000.0,2,-0.00383440015,0.12594680595,0.059889211549999995,-0.016813,-0.002255,0.002349,-0.29738666125,-4.0337693445,-8.933662017,-0.033276,0.42391,0.86188,3.333333333332966e-05,-9.999999999998899e-05,-3.333333333332966e-05,0.0012686513161876412,-3.687643508176741e-05,-0.00028952758259764844
149550000000.0,2,-0.0326169179,0.15092434349999997,0.051445685899999996,0.005754,0.023125,0.009816,-0.29673942235,-4.031906081,-8.9345446155,-0.0332,0.42371,0.86199,3.333333333332966e-05,-9.999999999998899e-05,-4.999999999988347e-05,0.0004574395572741752,0.00022678851220181429,0.00010690884119735067
149550000000.0,2,-0.03878530075,0.15894618319999998,0.0185737951,0.016474,0.040069,0.025817,-0.2949055788,-4.030925416,-8.935034948,-0.032994,0.4236,0.86226,3.333333333332966e-05,-9.999999999998899e-05,-5.0000000000105516e-05,0.0009484107668480957,0.00043896891024597373,0.00010358981157104763
149550000000.0,2,-0.0344213415,0.11246266220000001,-0.0411094768,0.010141,0.057157,0.038586,-0.2920812636,-4.030140884,-8.9355252805,-0.032676,0.42351,0.86267,3.333333333332966e-05,-9.999999999998899e-05,-2.4999999999941735e-05,7.75677930353047e-05,0.0003341905536804468,-0.00012648295237477347
149550000000.0,2,-0.02458527155,0.06704806605,-0.067469752,-0.009064,0.06157,0.04495,-0.2886097095,-4.0280814875,-8.9365059455,-0.032284,0.42328,0.86316,3.333333333332966e-05,1.999999999990898e-05,-2.500000000016378e-05,0.0012534839030446387,0.0005305616978046324,0.000800243189098715
149550000000.0,2,-0.0306752012,0.04439470455,-0.0660379811,-0.032575,0.054309,0.040653,-0.28581481425,-4.024453027,-8.9382711425,-0.031965,0.42287,0.86365,5.0000000000105516e-05,2.0000000000131024e-05,-2.4999999999941735e-05,1.63600255624341e-05,0.00035656746856504995,-6.709441848612441e-05
149550000000.0,2,-0.0078060934,0.010983447999999998,-0.05546641239999999,-0.039113,0.028802,0.026811,-0.28399077734999995,-4.020334234,-8.940134406,-0.031755,0.42241,0.86397,4.999999999988347e-05,1.999999999990898e-05,-2.4999999999941735e-05,-0.00037399428224144105,-0.0005387355386559101,-0.00015053586672747477
149550000000.0,2,0.015200307499999998,-0.0050013915,-0.009188831049999999,-0.041405,0.001129,0.014046,-0.28365735124999997,-4.0166077069999995,-8.9418015365,-0.031711,0.422,0.86413,4.999999999988347e-05,2.0000000000131024e-05,-2.4999999999941735e-05,4.272893508555642e-05,-0.00023475196113653674,0.0003192415434263851
149550000000.0,2,0.0237909329,0.00067665885,0.0220845758,-0.038387,-0.024465,0.009827,-0.2852166086,-4.0131753795,-8.9433706005,-0.03188,0.42161,0.86422,5.0000000000105516e-05,1.999999999990898e-05,-2.500000000016378e-05,-0.0010639326657796988,3.5437485226941234e-05,0.0007131998036054854
149550000000.0,2,0.0263014353,-0.01093441475,0.0253992235,-0.034218,-0.036221,0.010922,-0.28831551,-4.0102333845,-8.9445473985,-0.032222,0.42129,0.8643,9.999999999998899e-05,-9.999999999998899e-05,-2.500000000016378e-05,-0.0012928320624023826,-0.0013210613494967216,-0.00020607579514933527
149550000000.0,2,0.02011343915,-0.0100812362,-0.00463854545,-0.018188,-0.031028,0.014142,-0.29155170449999995,-4.0082720545,-8.9453319305,-0.032582,0.42106,0.86441,0.00010000000000021103,9.999999999998899e-05,-2.4999999999941735e-05,0.0006839478285167733,0.00017726162907361065,0.0006505006936720348
149550000000.0,2,-0.008835791649999999,0.013131104349999999,0.00304986815,0.008624,-0.011007,0.018423,-0.2938856872,-4.0082720545,-8.945233863999999,-0.032842,0.42107,0.86461,4.999999999988347e-05,5.0000000000105516e-05,-2.4999999999941735e-05,0.0007364565985068516,3.89129280282674e-05,0.0004075652655304851
149550000000.0,2,-0.03753004955,0.03678474415,0.04341403955,0.024732,0.00803,0.028025,-0.2952586182,-4.0099391849999995,-8.944449332,-0.032999,0.42125,0.86494,5.0000000000105516e-05,4.999999999988347e-05,-2.4999999999941735e-05,0.0005076904906647917,0.0009369703174040289,0.00030045787041824146
149550000000.0,2,-0.05002372164999999,0.01979962635,0.023055434149999998,0.023806,0.025087,0.026927,-0.29534687805,-4.011998581499999,-8.943566733499999,-0.033011,0.42148,0.86529,5.0000000000105516e-05,3.333333333332966e-05,-2.500000000016378e-05,0.0006498971808580611,0.00035044926212624006,-1.817815354687724e-06
149550000000.0,2,-0.06869558325,-0.0054721106999999995,-0.0016082905999999998,0.012191,0.036908,0.02155,-0.2943171798,-4.0133715125,-8.9429783345,-0.032899,0.42163,0.8656,4.999999999988347e-05,3.333333333332966e-05,-2.4999999999941735e-05,0.00028323363093685217,0.00029267933609378183,-0.00028716595973590775
149550000000.0,2,-0.0745109267,-0.030008348999999997,-0.0034715540999999996,-0.000524,0.039156,0.007649,-0.29254217615,-4.0139599115,-8.9427822015,-0.032701,0.4217,0.86578,4.999999999988347e-05,3.333333333332966e-05,2.4999999999941735e-05,-0.00018805465619226025,0.0005525794729113187,1.4346216292232539e-05
149550000000.0,2,-0.0891816751,-0.05565273875,-0.0122190859,-0.013266,0.03927,-0.004114,-0.29044355304999997,-4.0135676455,-8.9429783345,-0.032466,0.42166,0.86584,5.0000000000105516e-05,9.999999999998899e-05,2.500000000016378e-05,0.001240057135720729,0.0009924333599904411,0.00022345104136300975
149550000000.0,2,-0.11013848614999999,-0.07710968894999999,-0.021947282699999997,-0.016406,0.039305,-0.015859,-0.2881978302,-4.013077312999999,-8.943272534,-0.032213,0.4216,0.86578,3.333333333332966e-05,9.999999999998899e-05,2.4999999999941735e-05,-0.0005088928410698634,0.0002523980768780465,0.00021152429873297351
149550000000.0,2,-0.09662492245,-0.079629998,-0.0235555733,-0.013259,0.02969,-0.020105,-0.28614824034999997,-4.012783113499999,-8.943468667,-0.031985,0.42157,0.86563,3.333333333332966e-05,0.00019999999999997797,2.4999999999941735e-05,0.0010764450190157704,0.0012164788152058126,0.00037670573633050153
149550000000.0,2,-0.06634198725,-0.10505864144999999,-0.03254827135,-0.00806,0.013659,-0.017932,-0.2850008623,-4.0132734459999995,-8.943272534,-0.031857,0.42162,0.86547,3.333333333332966e-05,9.999999999998899e-05,0.000300000000000189,-0.0005222451064058053,-9.133805078143098e-05,0.0002628113130348775
149550000000.0,2,-0.03078307435,-0.11160948365,-0.04509097669999999,-0.002903,-0.005571,-0.012552,-0.2850989288,-4.0141560445,-8.942880268,-0.031869,0.42172,0.86534,-0.000500000000000167,0.0005999999999999339,0.00029999999999996696,0.007650072872727287,0.0024640446283803463,0.004878550567280676
149550000000.0,2,-0.0102185293,-0.10418584959999999,-0.049955075099999996,0.004484,-0.008842,-0.000792,-0.28591288075,-4.015627042,-8.9421938025,-0.031963,0.42189,0.86531,0.000400000000000178,-0.00029999999999996696,-0.00039999999999995595,-0.005447605248498022,-0.0016462798711527338,-0.0031652728882688164
149550000000.0,2,-0.01828940225,-0.077080269,-0.028066632299999998,0.010851,-0.006775,0.00989,-0.28726619844999995,-4.0174903055,-8.9414092705,-0.032117,0.42209,0.86541,-0.000600000000000156,0.0008000000000001339,0.0005999999999999339,0.0021523430916819963,0.006087028684802265,0.006366090863345636
149550000000.0,2,-0.02656621485,-0.043698432399999994,0.010071429549999998,0.016217,0.001697,0.017356,-0.28826647675,-4.0194516355,-8.9404286055,-0.032232,0.42231,0.86562,3.333333333332966e-05,9.999999999998899e-05,5.0000000000105516e-05,-5.545051155908531e-06,-0.00027912757476378225,9.066279791886123e-06
149550000000.0,2,-0.034911674,-0.0264975683,0.014778621550000001,0.015157,0.001706,0.016287,-0.2893550149,-4.0212168325,-8.9396440735,-0.032356,0.42251,0.86583,3.333333333332966e-05,3.333333333332966e-05,4.999999999988347e-05,-0.0002210234147128065,-0.0002784315591422004,-0.00015475641043186106
149550000000.0,2,-0.0549956932,-0.0014808041500000001,-0.010404855650000001,0.019483,0.001681,0.004555,-0.29052200624999996,-4.022883962999999,-8.9388595415,-0.03249,0.42269,0.86598,3.333333333332966e-05,3.333333333332966e-05,4.999999999988347e-05,0.00014235268783069355,-4.014177295896815e-06,-0.00010016998235251595
149550000000.0,2,-0.0800614906,0.0196721399,-0.040011132,0.02596,0.005897,-0.003979,-0.29133595819999997,-4.024453027,-8.938075009499999,-0.032584,0.42287,0.86602,5.0000000000105516e-05,3.333333333332966e-05,5.0000000000105516e-05,-0.0001926038438530564,0.0001033379575943183,6.475266999422802e-05
149550000000.0,2,-0.0864358131,0.01599464615,-0.024663724749999998,0.032423,0.009045,-0.011444,-0.29154189784999995,-4.026904689499999,-8.936996278,-0.032611,0.42314,0.86599,4.999999999988347e-05,3.333333333332966e-05,9.999999999998899e-05,-0.00034733604141690133,2.3883968624849317e-05,-8.886515871275869e-05
149550000000.0,2,-0.09897851844999998,-0.0235751866,-0.00856120545,0.030309,0.010128,-0.013583,-0.29187532395,-4.029944751,-8.935623347,-0.032653,0.42349,0.86593,5.0000000000105516e-05,3.333333333332966e-05,9.999999999998899e-05,-0.0003165497988213417,-0.00015076345098163912,0.00020450656825832247
149550000000.0,2,-0.08107157555,-0.07057846005,-0.033734876,0.025057,0.017632,-0.017874,-0.2910809853,-4.033082879,-8.934250416,-0.032569,0.42384,0.86581,5.0000000000105516e-05,3.333333333332966e-05,9.999999999998899e-05,-0.00021498338886594137,-8.860249646169827e-05,0.00023314779197070035
149550000000.0,2,-0.07273592305,-0.0671755525,-0.0173381572,0.027286,0.027205,-0.021088,-0.2892373351,-4.0363190735,-8.9327794185,-0.032369,0.4242,0.86565,3.333333333332966e-05,5.0000000000105516e-05,4.999999999988347e-05,8.382587920691131e-05,1.7119662031106486e-05,0.0002961515380757729
149550000000.0,2,-0.0666263801,-0.04563034245,0.019122967499999997,0.027342,0.03466,-0.020032,-0.28652089305,-4.0396533345,-8.931406487499999,-0.032069,0.42457,0.86548,3.333333333332966e-05,4.999999999988347e-05,5.0000000000105516e-05,-0.0007216121689624933,-0.00024168697023685404,-7.329074094020172e-05
149550000000.0,2,-0.05251461075,-0.0261445289,0.024085132399999997,0.033773,0.038867,-0.018961,-0.28326508525,-4.043085661999999,-8.929935489999998,-0.031711,0.42496,0.86531,3.333333333332966e-05,4.999999999988347e-05,0.00019999999999997797,-0.0006570787851969961,-0.0005394001677774263,-4.8495642173407294e-05
149550000000.0,2,-0.01579851315,-0.0097281968,0.0287530978,0.040156,0.037746,-0.016813,-0.27944049174999996,-4.046910255499999,-8.928268359499999,-0.031288,0.42539,0.86515,-2.4999999999941735e-05,5.0000000000105516e-05,9.999999999998899e-05,-1.8454086288866023e-05,-0.000622416706628437,3.480414666331977e-05
149550000000.0,2,0.00383440015,0.013876409749999999,0.05928119925,0.033716,0.033536,-0.015749,-0.27557667165,-4.050538716,-8.926797361999999,-0.030861,0.42579,0.86498,-2.500000000016378e-05,-9.999999999998899e-05,0.00019999999999997797,-0.00044187937547363054,-0.00040067946123012455,-0.00021478095921248497
149550000000.0,2,0.018593408399999997,0.028615804699999997,0.0563293976,0.025147,0.029345,-0.015757,-0.27192859785,-4.0529903785,-8.925816697,-0.030456,0.42606,0.8648,-2.4999999999941735e-05,9.999999999998899e-05,9.999999999998899e-05,4.1590801896973506e-05,-0.00028007655107620266,0.0003570206684748167
149550000000.0,2,0.033538742999999996,0.02023111895,0.047405346099999995,0.022982,0.026166,-0.014688,-0.26831975064999997,-4.055049775,-8.9249340985,-0.030055,0.42629,0.86462,-2.4999999999941735e-05,9.999999999998899e-05,0.00020000000000020002,-0.0005365733734022382,-0.0007886412272024579,-0.00010633842571156071
149550000000.0,2,0.023163307299999998,0.04169787579999999,0.107677017,0.024104,0.033615,-0.013632,-0.26453438375,-4.0574033709999995,-8.9240515,-0.029634,0.42656,0.86446,0.0010999999999998789,-0.001100000000000101,-0.0008000000000001339,-0.005099577319676418,-0.0091633020340669,-0.007052499012342894
149550000000.0,2,0.000588399,0.06057567705,0.12903590069999998,0.025134,0.030408,-0.01149,-0.26125896265,-4.0596589005,-8.923070835,-0.029271,0.42681,0.86433,-2.4999999999941735e-05,9.999999999998899e-05,9.999999999998899e-05,-0.00012923166009815024,-0.00047407670226640164,-2.8556304394578014e-05
149550000000.0,2,0.026909447599999997,0.04946474259999999,0.10015531644999999,0.030418,0.031419,0.000258,-0.2577972152,-4.062110562999999,-8.92209017,-0.028887,0.42709,0.86428,-2.500000000016378e-05,5.0000000000105516e-05,9.999999999998899e-05,-0.00022334721247296851,-0.0006253421554165417,-0.0004448377547666693
149550000000.0,2,0.05243615755,0.04755244585,0.13918578345,0.033466,0.022852,0.017356,-0.25519845295,-4.0653467574999995,-8.920619172499999,-0.0286,0.42745,0.86439,-2.4999999999941735e-05,4.999999999988347e-05,9.999999999998899e-05,-1.3145765553612687e-05,-7.083981193201083e-05,0.0002483598194806258
149550000000.0,2,0.06396877795,0.0283412185,0.1438831688,0.02904,0.012219,0.03231,-0.2540118483,-4.068582952,-8.9192462415,-0.028471,0.42781,0.86469,-2.4999999999941735e-05,9.999999999998899e-05,0.00019999999999997797,0.0028287253598740514,0.0010708181460621358,-0.00021886396724471457
149550000000.0,2,0.08091466915,0.01642613875,0.12578989955,0.01825,0.001647,0.03978,-0.25374706874999997,-4.070838481499999,-8.91816751,-0.028445,0.42806,0.86505,9.999999999998899e-05,0.0001500000000000945,0.0002500000000000835,-0.0020611929439092735,-0.0011942023729984985,-3.6999511799529206e-05
149550000000.0,2,0.06536132224999999,0.01617116585,0.11831723224999999,0.006499,-0.005705,0.031232,-0.2545021808,-4.072113346,-8.917579111,-0.028532,0.42821,0.86538,-0.00029999999999996696,0.0001500000000000945,0.0002500000000000835,0.0032277010255393757,0.0013005259501306377,0.0016481191288425512
149550000000.0,2,0.0329895706,0.013003617899999998,0.10592162664999999,0.000202,-0.001375,0.017337,-0.25490425344999995,-4.072701745,-8.9172849115,-0.028577,0.42827,0.86558,4.999999999988347e-05,5.0000000000105516e-05,4.999999999988347e-05,0.0005100888937765724,-0.00027187577370102467,0.00017111309806563946
149550000000.0,2,0.007511893899999999,0.0166516917,0.12879073445,-0.008258,0.007221,0.016239,-0.2550121266,-4.072701745,-8.9172849115,-0.02859,0.42828,0.86576,5.0000000000105516e-05,4.999999999988347e-05,5.0000000000105516e-05,-0.0001525958710011377,-0.00017084557084290353,0.00022748778169742745
149550000000.0,2,-0.0327149844,-0.0070411747,0.12629984535,-0.017856,0.009426,0.019422,-0.25549265244999997,-4.0722114125,-8.917481044499999,-0.028642,0.42822,0.86599,0.00029999999999996696,-0.00019999999999997797,-0.00019999999999997797,-0.003638041765649136,-0.0014878547838930167,-0.0008577642447356315
149550000000.0,2,-0.034401728199999995,-0.040609337649999994,0.08818139679999999,-0.027451,0.012697,0.023669,-0.25604182485,-4.071132681,-8.917971376999999,-0.028703,0.4281,0.86626,-9.999999999998899e-05,0.00029999999999996696,0.00029999999999996696,0.0022430098903565288,0.0007683966489604455,0.0017858250625121252
149550000000.0,2,-0.0188876079,-0.049415709349999996,0.07304973584999999,-0.031769,0.01272,0.034336,-0.25659099725,-4.0694655504999995,-8.918755909,-0.028762,0.42791,0.86662,0.00019999999999997797,-9.999999999998899e-05,-0.00019999999999997797,-0.003071211819641484,-0.00032935756872620736,-0.001032748705411951
149550000000.0,2,-0.02750765325,-0.053191269599999993,0.057869041649999994,-0.028512,0.020151,0.035396,-0.2569538433,-4.067994553,-8.919442374499999,-0.0288,0.42774,0.86702,-9.999999999998899e-05,0.00019999999999997797,0.00029999999999996696,0.0024837033113038753,0.00023623357881197293,0.001415431120629418
149550000000.0,2,-0.04610106165,-0.0303810017,0.0742363405,-0.028375,0.032942,0.02897,-0.2564635108,-4.066229356,-8.9202269065,-0.028743,0.42755,0.86739,0.00029999999999996696,-0.00019999999999997797,-0.00019999999999997797,-0.002675696044828757,-0.0004403597346420707,-0.0015305547793020846
149550000000.0,2,-0.0555644789,-0.0194956202,0.07491299935,-0.031388,0.048961,0.017196,-0.254188368,-4.064268026,-8.9212075715,-0.028484,0.42733,0.86764,5.0000000000105516e-05,9.999999999998899e-05,-6.666666666710341e-06,5.248156988058028e-05,-0.00011360052422992872,0.000282350495845074
149550000000.0,2,-0.05877125345,-0.0317931593,0.0718631312,-0.035502,0.063918,0.010759,-0.2502264814,-4.0620124965,-8.922286303,-0.028038,0.42707,0.86781,4.999999999988347e-05,3.333333333332966e-05,-6.666666666710341e-06,-0.00012634691054480562,2.8951199215754286e-05,-0.00014798978148380937
149550000000.0,2,-0.06230164745,-0.05111225979999999,0.0638609048,-0.051467,0.070438,0.013923,-0.24549967609999998,-4.0588743685,-8.9239534335,-0.027504,0.42672,0.86799,9.999999999998899e-05,3.333333333332966e-05,-6.666666666488297e-06,0.00018509704916491732,-5.833618845763056e-07,-1.3296250366362505e-05
149550000000.0,2,-0.04455161095,-0.06355689865,0.006541035549999999,-0.064335,0.064146,0.017115,-0.2411062969,-4.0541671765,-8.9261108965,-0.027005,0.4262,0.86818,5.0000000000105516e-05,3.333333333332966e-05,-6.666666666710341e-06,-0.001151064853070538,-0.00024891055674114426,0.00010989975499645088
149550000000.0,2,0.0067763951499999996,-0.057329675899999995,-0.0971839015,-0.027122,0.053175,0.025737,-0.23691885734999998,-4.050538716,-8.9278760935,-0.026531,0.42579,0.86842,4.999999999988347e-05,4.999999999988347e-05,-6.666666666710341e-06,0.00023235910577784624,0.00021255571770328885,0.0003118195037501992
149550000000.0,2,-0.011915079749999998,-0.038893173899999994,0.1901117169,-0.030541,0.023369,0.022582,-0.2354380532,-4.0499503169999995,-8.928170292999999,-0.026364,0.42572,0.86869,3.333333333332966e-05,5.0000000000105516e-05,-6.666666666710341e-06,0.00014845194121870797,-0.00033798001670204414,0.00021745061144684552
149550000000.0,2,-0.022006122599999997,-0.05853589385,0.22772021964999997,-0.029641,0.003112,0.024754,-0.2364187182,-4.0494599845,-8.928366426,-0.026473,0.42567,0.86897,3.333333333332966e-05,3.333333333332966e-05,-6.666666666710341e-06,0.0009109500191819553,-0.00012394860874387348,0.0005808310260259353
149550000000.0,2,-0.045581309199999996,-0.016671304999999997,0.0715100918,-0.009371,0.004007,0.026923,-0.23797797555,-4.0486754524999995,-8.928758691999999,-0.026647,0.42558,0.86929,3.333333333332966e-05,3.333333333332966e-05,-6.666666666488297e-06,0.0006465666854287289,-0.0004422895049960296,0.0003030675925427273
149550000000.0,2,-0.08626910004999999,-0.0216530832,0.20441961925,-0.013418,0.02855,0.022604,-0.23859579449999999,-4.0492638515,-8.9284644925,-0.026717,0.42564,0.86962,5.0000000000105516e-05,3.333333333332966e-05,-6.666666666710341e-06,0.0005985799816641268,-0.0003491501515024975,0.0004369847743067312
149550000000.0,2,-0.093751574,0.07920831205000001,0.0472484397,-0.014266,0.054132,0.019358,-0.2367913709,-4.0471063885,-8.9294451575,-0.026512,0.42541,0.86991,5.0000000000105516e-05,-1.6666666666775853e-05,-6.666666666710341e-06,0.0003053332092831651,-0.00024754151872685703,0.0006345606174950336
149550000000.0,2,-0.12520150055,-0.008492558899999999,-0.0738048479,-0.019437,0.068035,0.008653,-0.23332962345,-4.045046992,-8.930523889,-0.026122,0.42517,0.87013,5.0000000000105516e-05,-1.666666666655381e-05,-6.666666666710341e-06,-6.709933495685494e-05,-0.00018657146052247775,0.0004843966110794351
149550000000.0,2,-0.07581521114999999,0.01413138265,-0.08340555825,-0.017341,0.059498,0.002268,-0.22915199054999996,-4.042693396,-8.931700687,-0.02565,0.42491,0.87023,4.999999999988347e-05,-1.666666666655381e-05,-6.666666666710341e-06,0.00023468251961733522,0.00045308774246644035,0.00029716805397225765
149550000000.0,2,-0.012297539099999998,-0.02276123465,-0.09417325995,-0.007931,0.034912,0.001261,-0.2256314032,-4.041516597999999,-8.932289085999999,-0.025254,0.42478,0.87024,4.999999999988347e-05,-1.6666666666775853e-05,-6.666666666488297e-06,-4.7181861423162275e-05,0.00010628304769988439,0.00033260272157920046
149550000000.0,2,0.0008825985,-0.04839581775,-0.056907989949999994,0.003652,0.015636,0.001315,-0.22398388599999997,-4.041908864,-8.932092953,-0.025071,0.42483,0.87025,5.0000000000105516e-05,-1.6666666666775853e-05,-6.666666666710341e-06,-0.0006925033586907547,-0.0003226269657887748,0.0003305994767500986
149550000000.0,2,-0.0071490478500000005,-0.049955075099999996,-0.0098262633,0.000426,0.010338,-0.001884,-0.22299341434999997,-4.042791462499999,-8.931798753499999,-0.024961,0.42492,0.87023,2.4999999999941735e-05,-1.666666666655381e-05,-6.666666666710341e-06,-0.0005041031032725352,-0.000418169922021594,0.00027210602621519087
149550000000.0,2,-0.0274193934,-0.0744913134,0.007639380349999999,-0.01132,0.011495,0.002364,-0.2224736619,-4.0432817949999995,-8.9316026205,-0.024903,0.42497,0.87027,2.500000000016378e-05,9.999999999998899e-05,4.999999999988347e-05,0.00025991500784344757,-0.0005807992835800135,0.0004749425820565478
149550000000.0,2,-0.05066115389999999,-0.0975957808,0.0078060934,-0.02727,0.019082,0.004458,-0.22197352274999999,-4.042595329499999,-8.93189682,-0.024847,0.4249,0.87035,2.4999999999941735e-05,-1.4285714285744433e-05,5.0000000000105516e-05,0.0002579444022051125,-0.0003371052149436782,0.0005001911765349643
149550000000.0,2,-0.059330232499999996,-0.10657867219999999,-0.0039030467,-0.028306,0.026541,0.010848,-0.22123802399999998,-4.0414185315,-8.932485219,-0.024763,0.42476,0.87049,2.4999999999941735e-05,-1.4285714285744433e-05,2.4999999999941735e-05,0.00018316745115709576,-0.0005585274110966321,0.0001881612171283631
149550000000.0,2,-0.0671951658,-0.0753542986,0.0303221618,-0.016486,0.036033,0.009786,-0.21981605975,-4.040928199,-8.932681352,-0.024603,0.42471,0.87066,1.999999999990898e-05,-1.4285714285744433e-05,2.500000000016378e-05,0.00021338996985398317,-0.0001312520703204978,3.908834793087124e-05
149550000000.0,2,-0.0721573307,-0.033117057049999996,0.06749917194999999,0.005928,0.034783,0.006626,-0.21828622235,-4.0418107975,-8.932289085999999,-0.024433,0.42481,0.8708,2.0000000000131024e-05,-1.4285714285522388e-05,2.4999999999941735e-05,0.0001866007501106215,-7.255205346790028e-05,0.00025138767427662634
149550000000.0,2,-0.05150452579999999,-0.005236751099999999,0.04159000265,0.032533,0.022847,0.001357,-0.2170996177,-4.0445566594999995,-8.931112288,-0.024303,0.42512,0.87088,1.999999999990898e-05,-1.4285714285744433e-05,2.4999999999941735e-05,0.0001430729540928266,1.082708656463538e-05,0.00012500081686708797
149550000000.0,2,-0.0573885158,0.0107480884,0.0537796686,0.036841,0.021754,-0.00824,-0.21584436649999997,-4.0480870535,-8.929543224,-0.024167,0.42552,0.87087,2.0000000000131024e-05,-1.4285714285744433e-05,0.00024999999999986144,0.00036153672950539617,-0.0007983912679196958,-0.00011589922225210825
149550000000.0,2,-0.055740998599999994,-0.014543261949999999,0.04969029555,0.022982,0.019741,-0.013596,-0.21450085545,-4.0512251814999996,-8.928170292999999,-0.024021,0.42587,0.87079,1.999999999990898e-05,-1.4285714285744433e-05,0.0002500000000000835,0.00040573023452600276,-0.0008210196397431258,-5.778070390308199e-05
149550000000.0,2,-0.03733391655,-0.0410898635,0.023428086849999998,0.004865,0.02202,-0.013631,-0.21255913875,-4.052892312,-8.9274838275,-0.023805,0.42605,0.87066,-0.00045000000000006146,9.999999999998899e-05,0.0002500000000000835,0.0005827765153150755,0.00017602199295874144,0.0007262427105364788
149550000000.0,2,-0.03723585005,-0.046650234049999996,0.0647435033,-0.011083,0.032799,-0.007273,-0.21011728289999998,-4.0532845779999995,-8.927287694499999,-0.023532,0.4261,0.87058,-0.00045000000000006146,0.0006999999999999229,0.00024999999999986144,0.006668448662843773,0.003709336440483657,0.004723249466355273
149550000000.0,2,-0.03721623675,-0.059889211549999995,0.12063160164999999,-0.024974,0.035035,0.001238,-0.20759697384999998,-4.052892312,-8.927581894,-0.023249,0.42605,0.8706,0.0008000000000001339,-0.0007999999999999119,-0.0007999999999999119,-0.0058605265817917584,-0.004156132821548253,-0.0039983991204694536
149550000000.0,2,-0.028772711099999997,-0.06296849965,0.10044951595,-0.036781,0.027668,0.004433,-0.2055669973,-4.051323247999999,-8.928366426,-0.02302,0.42588,0.87066,-0.001100000000000101,0.0011999999999998678,0.0009999999999998899,0.003441389716333676,0.01025944212106733,0.007436719680011056
149550000000.0,2,-0.0300671889,-0.040207265,0.0684111904,-0.0337,0.013787,0.006598,-0.20471381875,-4.0490677185,-8.929347091,-0.022922,0.42563,0.87074,-9.999999999998899e-05,-5.0000000000105516e-05,3.333333333332966e-05,-0.00034203046853953367,-0.0003999586354992424,-6.607370524483458e-05
149550000000.0,2,-0.0476407057,0.0110422879,0.08863250269999999,-0.019914,-0.000176,0.001311,-0.20539047759999998,-4.0474005879999995,-8.930131623,-0.022996,0.42544,0.8708,-2.4999999999941735e-05,-4.999999999988347e-05,3.333333333332966e-05,8.474731578222983e-05,-0.000539528394268185,1.1511437672279135e-05
149550000000.0,2,-0.05684915005,0.05042579429999999,0.0734714218,-0.009312,-0.015172,-0.009317,-0.20726354775,-4.046027657,-8.930720022,-0.023203,0.42529,0.87077,-2.500000000016378e-05,-3.333333333332966e-05,3.333333333332966e-05,0.0002736212688559947,1.0881622509728572e-05,1.6567830737779232e-05
149550000000.0,2,-0.07820803374999999,0.08843636969999999,0.027429200049999998,0.00454,-0.023802,-0.01995,-0.20998979645000002,-4.0451450585,-8.9310142215,-0.023508,0.42519,0.87065,-2.4999999999941735e-05,-3.333333333332966e-05,1.4285714285744433e-05,0.0002971962855756738,-0.0003839787517723181,0.00030752683577284223
149550000000.0,2,-0.089436648,0.09332988804999999,0.05020024135,0.015197,-0.027086,-0.023126,-0.2129808247,-4.045243125,-8.930916154999998,-0.023843,0.4252,0.87048,-2.4999999999941735e-05,-3.333333333332966e-05,1.4285714285744433e-05,-0.0004520076327969025,0.0002941883465432671,-2.085369673091031e-05
149550000000.0,2,-0.08175804105000001,0.0785316532,0.05800633475,0.010941,-0.022795,-0.018869,-0.21571688004999998,-4.0457334575,-8.9306219555,-0.02415,0.42525,0.87032,-2.4999999999941735e-05,-9.999999999998899e-05,1.4285714285744433e-05,0.0002787022985042964,0.00015831775237096224,0.00016418283148425528
149550000000.0,2,-0.07783538104999999,0.02336924695,0.0462677747,-0.003922,-0.00883,-0.011446,-0.21769782334999999,-4.045831524,-8.930523889,-0.024372,0.42526,0.87023,-2.4999999999941735e-05,-4.999999999988347e-05,1.4285714285522388e-05,5.8396763022439124e-05,-0.0002440388945723626,0.00012120261002185329
149550000000.0,2,-0.10429372275,-0.013023231199999999,0.051239746249999996,-0.018666,0.015795,-0.010446,-0.21832544895,-4.0449489255,-8.930916154999998,-0.024441,0.42517,0.8702,-2.500000000016378e-05,-5.0000000000105516e-05,1.4285714285744433e-05,-0.00025022736345131635,2.9404248218511952e-05,5.558516535578151e-05
149550000000.0,2,-0.10909898124999999,-0.0233594403,0.09515392495,-0.032215,0.051076,-0.018002,-0.2157659133,-4.0433798615,-8.931700687,-0.024153,0.42498,0.8701,-2.4999999999941735e-05,-5.0000000000105516e-05,1.4285714285744433e-05,-8.017239373775409e-05,-0.00031137059443664405,-0.00011690705793707123
149550000000.0,2,-0.1041073964,-0.04129580315,0.16461442689999997,-0.041595,0.075663,-0.02233,-0.21028399595,-4.0416146645,-8.9325832855,-0.023537,0.42479,0.86993,-9.999999999998899e-05,-4.999999999988347e-05,1.4285714285744433e-05,-0.0007219406312906074,4.1646667032102513e-05,-0.00042051264388770493
149550000000.0,2,-0.07269669645,-0.0911822317,0.21174518679999998,-0.066089,0.077998,-0.026646,-0.203389921,-4.038966869,-8.933956216499999,-0.022762,0.42449,0.86969,-4.999999999988347e-05,-9.999999999998899e-05,-0.00029999999999996696,6.697833063151748e-05,-3.860735785266023e-05,-0.0003362228155158742
149550000000.0,2,-0.024820631149999998,-0.140627361,0.17996183414999997,-0.097162,0.061201,-0.025603,-0.19679004555000001,-4.0340635439999994,-8.9363098125,-0.022018,0.42395,0.8694,-5.0000000000105516e-05,-0.0005499999999998284,-0.00029999999999996696,0.00015512146548768424,5.315914409531608e-05,4.531967416876448e-05
149550000000.0,2,-0.0035598139499999995,-0.17295988604999998,0.12981062605,-0.12403,0.031592,-0.032003,-0.19216130675,-4.026806623,-8.93974214,-0.021492,0.42313,0.86904,0.0009999999999998899,-0.0005500000000000504,-0.00029999999999996696,-0.004226511823732015,-0.007981177916103865,-0.0077223797004588035
149550000000.0,2,-0.03115572705,-0.15899521645,0.13132085015,-0.13702,-0.000258,-0.044779,-0.1903078499,-4.0178825715,-8.9437628665,-0.021275,0.42213,0.86859,-0.00019999999999997797,-5.0000000000105516e-05,9.999999999998899e-05,0.0013284692811570964,0.000329164721379005,6.888575277100295e-05
149550000000.0,2,-0.03127340685,-0.11745424704999999,0.10988351325,-0.13715,-0.029009,-0.063942,-0.19049417625,-4.0078797884999995,-8.948175859,-0.021285,0.42102,0.86793,-0.00014999999999987246,-5.0000000000105516e-05,-0.00019999999999997797,0.00019600770650146648,-0.0015773132719811844,0.00028239548383027224
149550000000.0,2,-0.057731748549999996,-0.0448752304,0.06816602414999999,-0.11481,-0.047294,-0.079881,-0.1924653129,-3.9980731384999997,-8.9525888515,-0.021495,0.41992,0.86712,-0.0001500000000000945,-4.999999999988347e-05,9.999999999998899e-05,0.0028143479976439623,-0.00025706759146570946,0.0015013285419903377
149550000000.0,2,-0.10221471295,-0.0049621649000000006,0.09725254805,-0.073117,-0.043368,-0.089421,-0.1948189089,-3.9914046164999997,-8.955530846499999,-0.02175,0.41918,0.86622,-9.999999999998899e-05,-5.0000000000105516e-05,-5.0000000000105516e-05,0.00027659319846301544,-0.0007980634942621467,0.0002369931306916151
149550000000.0,2,-0.08544534145,0.034411534849999995,0.1175228936,-0.03466,-0.036231,-0.08723,-0.1961722266,-3.9878742225,-8.9570999105,-0.021898,0.41878,0.86529,-0.00019999999999997797,-9.999999999998899e-05,-4.999999999988347e-05,0.002557043610565468,0.0006638192185322023,-0.00028357815478211035
149550000000.0,2,-0.08144422825,0.05970288519999999,0.097085835,-0.005882,-0.031157,-0.073311,-0.1973294113,-3.986599358,-8.957590243,-0.022026,0.41865,0.86451,-9.999999999998899e-05,-9.999999999998899e-05,-9.999999999998899e-05,0.00201534553646876,0.0001390956688789302,-0.0007823599174313633
149550000000.0,2,-0.06216435435,0.0162986523,0.06453756364999999,0.001544,-0.031228,-0.064757,-0.19849640265,-3.9870896904999995,-8.95739411,-0.022157,0.4187,0.86384,-9.999999999998899e-05,-0.00019999999999997797,-9.999999999998899e-05,0.0014015595514118573,0.0004178235829588317,-0.0005077435203696412
149550000000.0,2,-0.0067763951499999996,-0.01352337035,0.0282627653,-0.008082,-0.034346,-0.064769,-0.19912402825,-3.9871877569999996,-8.9572960435,-0.022227,0.41871,0.86313,-0.00019999999999997797,-0.00019999999999997797,-9.999999999998899e-05,0.0009698525836828176,0.00021214206504494015,-0.0006528661160160598
149550000000.0,2,0.036421898099999996,-0.030910560799999997,0.01915238745,-0.028351,-0.03737,-0.070136,-0.19908480164999998,-3.985814826,-8.9578844425,-0.02222,0.41855,0.86235,9.999999999998899e-05,-0.0004999999999999449,-0.00039999999999995595,-0.0012371212924444097,-0.0007398154844986404,-0.0026103393006758346
149550000000.0,2,0.05415232129999999,-0.0423058881,0.020182085699999998,-0.058154,-0.030726,-0.073403,-0.1982512364,-3.9821863654999996,-8.959551572999999,-0.022124,0.41815,0.8615,-0.00039999999999995595,-0.0001500000000000945,9.999999999998899e-05,0.0027258861430582426,0.0010778724045823473,7.4323867389480824e-06
149550000000.0,2,0.04808200495,-0.05320107625,0.011159967699999999,-0.08691,-0.025158,-0.074532,-0.19697637189999997,-3.9759101095,-8.962297435,-0.021974,0.41745,0.86063,-9.999999999998899e-05,-0.00014999999999987246,-0.00019999999999997797,-0.0010948680581546744,-0.0003933758901537576,-0.002222202910477533
149550000000.0,2,0.05378947525,-0.0519556317,-0.01923084065,-0.10709,-0.011142,-0.070323,-0.1946031626,-3.9672802575,-8.966220094999999,-0.0217,0.41649,0.85978,-9.999999999998899e-05,-0.00019999999999997797,-9.999999999998899e-05,-0.0006155895758453434,-0.0008717709364225446,-0.0010726899543769819
149550000000.0,2,0.03133224675,-0.0309694007,-0.013533176999999999,-0.11237,0.001679,-0.060749,-0.19159252104999996,-3.9576697404999996,-8.970535021,-0.021354,0.41541,0.85903,-0.00020000000000020002,-0.00019999999999997797,-0.00010000000000021103,-0.00122497908324537,-0.0003180283411341467,-0.0004051744422594039
149550000000.0,2,0.013837183149999998,-0.01517088755,-0.012425025549999998,-0.10486,0.012265,-0.052216,-0.18816019355,-3.9481572899999997,-8.974849947,-0.020963,0.41435,0.8584,-0.00019999999999997797,-0.00010000000000021103,5.0000000000105516e-05,-0.0008286807070735924,0.0010189916845615432,9.95249245014096e-05
149550000000.0,2,0.040687790849999995,0.00973800345,-0.0529951366,-0.086661,0.023832,-0.045801,-0.18374720105,-3.939527438,-8.9786745405,-0.020462,0.41339,0.85782,-0.00039999999999995595,-0.00014999999999987246,5.0000000000105516e-05,0.0020224433157873256,0.0014835173682410385,0.00021734297880512954
149550000000.0,2,0.04118793,0.052946103349999996,-0.06602817445,-0.057881,0.026783,-0.03615,-0.17915768885,-3.9325647164999995,-8.9818126685,-0.019944,0.41262,0.85735,-9.999999999998899e-05,-0.0001500000000000945,-0.000300000000000189,-0.0014231338992631293,-0.000708276887748216,-0.001587445354009287
149550000000.0,2,0.0103165958,0.07577598455,-0.060820843299999997,-0.032229,0.036157,-0.030785,-0.1746172099,-3.9277594579999997,-8.984068198,-0.019434,0.41208,0.85699,-9.999999999998899e-05,-0.00029999999999996696,-9.999999999998899e-05,0.00014694619919597418,-5.093407273593087e-05,-0.0006483320075878762
149550000000.0,2,0.008825985,0.0639981979,-0.052563644,-0.020452,0.045645,-0.024377,-0.16939026545,-3.9245232635,-8.9855391955,-0.018849,0.41172,0.85669,-0.00019999999999997797,-0.00019999999999997797,-9.999999999998899e-05,0.0007437514740449291,-0.00038244566337164443,-0.0009997696427364866
149550000000.0,2,0.025232510450000002,0.020525318449999996,-0.056692243649999995,-0.02047,0.045643,-0.021175,-0.1639475747,-3.9221696675,-8.986617927,-0.018241,0.41146,0.85642,-9.999999999998899e-05,-0.00019999999999997797,-9.999999999998899e-05,0.002978104195473119,6.629926813372933e-05,-0.0006099075926235265
149550000000.0,2,0.019221033999999998,-0.021329463749999996,-0.041119283449999995,-0.02688,0.042503,-0.024383,-0.1588285034,-3.9200122044999994,-8.987696658499999,-0.01767,0.41122,0.85615,-0.00019999999999997797,-9.999999999998899e-05,0.0002666666666666373,0.001028366888549348,0.00047055062450884755,-0.0004104806157345653
149550000000.0,2,0.00865927195,-0.040207265,0.0030302548499999997,-0.038603,0.039411,-0.03187,-0.15380749859999998,-3.9173644089999997,-8.9888734565,-0.01711,0.41093,0.8558,-0.00019999999999997797,-0.00019999999999997797,0.00026666666666685934,0.0001989368589040974,8.066837770326352e-05,-0.00030775429545765176
149550000000.0,2,0.0052857843499999994,-0.0354412331,0.0393835064,-0.039604,0.034113,-0.053211,-0.14863939404999998,-3.9145204805000002,-8.9902463875,-0.016531,0.41061,0.85528,-0.0009000000000001229,0.0004999999999999449,0.0002666666666666373,0.005848322866420674,0.0028505697127232388,0.004109132085302031
149550000000.0,2,0.03309744375,0.0513280061,0.0733733553,-0.01919,0.025466,-0.095857,-0.14202971195,-3.9119707514999997,-8.991521252,-0.015795,0.41033,0.8543,0.000500000000000167,-0.0005999999999999339,-0.000700000000000145,-0.0027738408589845776,-0.0020968773419554054,-0.00277466343910579
149550000000.0,2,0.061575955349999996,0.19920248145,0.1108935982,0.023402,0.018718,-0.090435,-0.1353513833,-3.9112842859999994,-8.991913517999999,-0.015051,0.41025,0.85321,-0.00010000000000021103,-0.00019999999999997797,-9.999999999998899e-05,0.0012278306306191533,-0.001152061065077703,-0.0002225230418821944
149550000000.0,2,-0.06599875449999999,-0.13250745479999998,0.12596641925,0.034902,0.003677,-0.065838,-0.1330174006,-3.9172663425,-8.989265722499999,-0.014796,0.41092,0.85249,0.00010000000000021103,-0.00029999999999996696,-9.999999999998899e-05,0.000234081232100114,-0.001524634432532146,-0.0010039957822441936
149550000000.0,2,-0.02058415835,-0.07305954249999999,0.0647435033,0.030373,-0.02081,-0.051926,-0.1326447479,-3.9217774014999995,-8.987304392499999,-0.014758,0.41142,0.85192,-0.00010000000000021103,-0.00020000000000020002,-9.999999999998899e-05,-0.00011811439595882378,-0.0011622773099642103,-0.00032544904940284836
149550000000.0,2,0.08842656305,-0.039736545799999995,0.046110868299999996,0.018519,-0.027118,-0.038061,-0.13196808905,-3.9247193965,-8.986029528,-0.014685,0.41175,0.85141,-9.999999999998899e-05,-9.999999999998899e-05,6.666666666665932e-05,0.0013804122971862176,0.0004310786355472551,-0.00031437585113591737
149550000000.0,2,0.061370015699999995,-0.12106309424999999,0.05949694555,0.005728,-0.019562,-0.027424,-0.13170330949999998,-3.9276613914999996,-8.984754663499999,-0.014657,0.41208,0.85103,-0.00019999999999997797,-9.999999999998899e-05,6.666666666665932e-05,0.001262614675826279,3.4132756895122185e-05,-0.0003823498791920843
149550000000.0,2,0.005236751099999999,-0.0701763874,0.1047938619,-0.005841,0.002907,-0.024282,-0.13092858415,-3.9292304555,-8.984166264499999,-0.014572,0.41224,0.85077,-0.00039999999999995595,9.999999999998899e-05,6.666666666665932e-05,0.0025029302557555977,0.0009559303573802858,0.0005270066318885658
149550000000.0,2,0.0060408964,-0.059653851949999996,0.1549842966,-0.01735,0.030708,-0.024352,-0.1277021963,-3.9298188544999997,-8.983872065,-0.014213,0.41231,0.8505,-0.00019999999999997797,-0.00019999999999997797,-4.999999999988347e-05,-0.000551268881513356,-0.0005286325119533419,-0.00038660469817830556
149550000000.0,2,0.007207887749999999,-0.08817159015,0.155141203,-0.03741,0.058575,-0.021234,-0.12212221245,-3.9293285219999996,-8.984264330999999,-0.013593,0.41226,0.85025,-9.999999999998899e-05,-9.999999999998899e-05,-5.0000000000105516e-05,-0.000311849710196932,-0.000222478269164883,-0.0003340365503364806
149550000000.0,2,-0.01320955755,-0.11690507464999998,0.16130958584999996,-0.060781,0.075808,-0.012766,-0.11517910425,-3.9270729924999994,-8.985244996,-0.012818,0.41201,0.85008,-9.999999999998899e-05,-0.00019999999999997797,-5.0000000000105516e-05,-0.0016986775693842993,-0.00019838674674921286,-0.00033986864192817046
149550000000.0,2,-0.03552949295,-0.135920169,0.141019627,-0.082065,0.084502,-0.008548,-0.10798102315,-3.9229541995,-8.9871082595,-0.012014,0.41155,0.84999,-9.999999999998899e-05,-9.999999999998899e-05,-4.999999999988347e-05,-0.0008542810896136066,-0.00033977349022773495,-4.4925813236340595e-05
149550000000.0,2,-0.0613504024,-0.1139924996,0.06706767934999999,-0.087262,0.098401,-0.01285,-0.10010628319999999,-3.9170702095,-8.9898541215,-0.011135,0.4109,0.84991,4.999999999988347e-05,-0.00029999999999996696,-4.999999999988347e-05,4.531317253464451e-05,-0.0011733626031853461,-9.62247859804255e-05
149550000000.0,2,-0.09218251,-0.0225160684,0.047385732800000004,-0.066665,0.12702,-0.032077,-0.0897700741,-3.9109900864999996,-8.9925999835,-0.009983,0.41022,0.84967,5.0000000000105516e-05,-0.00039999999999995595,-5.0000000000105516e-05,-0.002372433819735398,-0.0015673265790914215,-0.0013880952045703387
149550000000.0,2,-0.10335228434999999,0.09013292014999999,0.072373077,-0.032189,0.15765,-0.050214,-0.07606037739999999,-3.9064790274999996,-8.99465938,-0.008456,0.40972,0.84924,-0.00029999999999996696,-9.999999999998899e-05,0.00019999999999997797,0.002356025329581346,0.0009737561767830805,0.0011260978997046367
149550000000.0,2,-0.1291928071,0.1241914156,0.07072555979999999,-0.003209,0.17234,-0.061929,-0.06055606374999999,-3.9043215644999996,-8.9957381115,-0.006731,0.40948,0.84869,-9.999999999998899e-05,-9.999999999998899e-05,-0.00014999999999987246,0.0003172884906232354,-0.0001477988131133312,0.00029154906787556834
149550000000.0,2,-0.09371234739999999,0.11909195759999999,0.013954862949999999,0.003069,0.15205,-0.070419,-0.04500271685,-3.9029486335,-8.996424576999999,-0.005002,0.40933,0.848,9.999999999998899e-05,-0.000300000000000189,-0.0001500000000000945,-0.001273035287172819,-0.0009724990967099334,-0.001183841394948426
149550000000.0,2,0.012827098199999998,0.08334671834999999,-0.08344478484999998,0.000621,0.11265,-0.071421,-0.030635974599999997,-3.9013795695,-8.997209109,-0.003405,0.40915,0.8472,-4.999999999988347e-05,-0.00029999999999996696,-4.999999999988347e-05,0.000673334283680993,-0.0010891658671892124,0.0003221328358450348
149550000000.0,2,0.12529956705,0.0319304524,-0.15056149745,0.004393,0.060389,-0.056381,-0.0193583271,-3.9002027715,-8.9976994415,-0.002152,0.40902,0.84643,-5.0000000000105516e-05,-0.00029999999999996696,-5.0000000000105516e-05,0.0006448093019033041,-0.0012485887830904208,-0.00023706851778143578
149550000000.0,2,0.09941001105,-0.0207312581,-0.14657999754999998,0.010394,0.019834,-0.041357,-0.013366463949999999,-3.9003989044999994,-8.997601374999999,-0.001486,0.40904,0.84586,-9.999999999998899e-05,-0.00029999999999996696,-5.0000000000105516e-05,0.00032567958380336215,-0.0013776571515373703,0.0001148537562805918
149550000000.0,2,0.0640374245,0.0311263071,-0.10054758244999999,0.025069,-0.002679,-0.025282,-0.010924608099999998,-3.9011834364999998,-8.9973071755,-0.001214,0.40913,0.8455,-9.999999999998899e-05,-0.00029999999999996696,-4.999999999988347e-05,0.00026721627670778236,-0.0015754817083695194,0.0001480718690392291
149550000000.0,2,0.01422944915,0.06638121385,-0.056584370499999995,0.048567,0.003518,-0.020983,-0.009894909849999998,-3.9037331654999994,-8.996228444,-0.001099,0.40941,0.84525,-9.999999999998899e-05,-0.00019999999999997797,-4.999999999988347e-05,0.000924509629002146,-0.002644953361726543,8.718545008168377e-08
149550000000.0,2,-0.042521634399999994,0.0904957662,0.04639526115,0.073357,0.033152,-0.024193,-0.007453054,-3.9088326235,-8.993972914499999,-0.000829,0.40997,0.84505,-9.999999999998899e-05,-0.00019999999999997797,-5.0000000000105516e-05,0.0021847791063487887,-0.0006350772819934125,0.0007839013294915209
149550000000.0,2,-0.0452478831,0.11772883325,0.1382149251,0.074715,0.065116,-0.031718,-0.0017455836999999998,-3.9148146799999997,-8.991423185499999,-0.000194,0.41064,0.84476,-0.00020000000000020002,-0.00029999999999996696,-5.0000000000105516e-05,-0.0005420515627934663,-0.0014980890470968067,-0.00012460371017017358
149550000000.0,2,-0.011365907350000001,0.07469725305,0.12367166315,0.065317,0.090768,-0.03178,0.007021561399999999,-3.9206986699999997,-8.988775389999999,0.000782,0.4113,0.84441,-9.999999999998899e-05,-0.00020000000000020002,-4.999999999988347e-05,-0.0007896636439358451,-0.0017186159015372127,-0.0005671121858591144
149550000000.0,2,0.03786347565,-0.006992141449999999,0.12213201909999999,0.047231,0.10157,-0.024359,0.01779906975,-3.926190394,-8.9863237275,0.001981,0.41191,0.84409,-9.999999999998899e-05,-0.00019999999999997797,0.00019999999999997797,-0.0026921820731589108,-0.0003554646845704834,-0.00013942569223859835
149550000000.0,2,0.0321265854,-0.06599875449999999,0.1049703816,0.024737,0.09535,-0.015849,0.028027405699999997,-3.9305053199999995,-8.984460464,0.003119,0.41239,0.84387,-4.999999999988347e-05,-0.00019999999999997797,9.999999999998899e-05,-0.0012933224941040766,-0.0009836420182098848,-0.0003048558219796438
149550000000.0,2,0.07752156825,-0.0781982271,0.0922021233,0.009519,0.06244,-0.011549,0.0365003513,-3.933251182,-8.983185599499999,0.004064,0.4127,0.84368,-5.0000000000105516e-05,-9.999999999998899e-05,9.999999999998899e-05,-0.0012193182069703545,-0.0006447985855371208,-5.9333787614329614e-05
149550000000.0,2,0.1287417012,-0.09377118729999999,0.023761512949999997,0.002707,0.01135,-0.010406,0.0414036763,-3.9351144455,-8.9824010675,0.004609,0.4129,0.84345,-0.00019999999999997797,-9.999999999998899e-05,9.999999999998899e-05,-0.0005008361687993124,0.00014447625187696822,-9.714600350124725e-05
149550000000.0,2,0.07002928765,-0.03998171205,-0.02605626905,0.00337,-0.041929,-0.014582,0.040403398,-3.9357028445,-8.982106867999999,0.004498,0.41297,0.84325,-0.00019999999999997797,-0.00019999999999997797,9.999999999998899e-05,-0.0011192520704437214,-0.0003109778086187731,-0.0002281421243409687
149550000000.0,2,0.03965809259999999,0.0181423025,-0.03066539455,0.016006,-0.068662,-0.02412,0.036206151799999996,-3.9363893099999996,-8.981910735,0.004031,0.41305,0.84297,-9.999999999998899e-05,-9.999999999998899e-05,4.999999999988347e-05,-0.0010551679699531413,-0.0006985236978489517,2.8719148012501527e-06
149550000000.0,2,0.0026870221,0.04678752715,0.00257914895,0.028886,-0.060241,-0.026247,0.031430313249999994,-3.9381545069999997,-8.981126202999999,0.0035,0.41324,0.84269,-9.999999999998899e-05,-0.00019999999999997797,5.0000000000105516e-05,-0.0004723473476293538,-0.0008276441125145695,0.00023090282256821304
149550000000.0,2,-0.06298811295,0.0610169763,0.022359162,0.046304,-0.014569,-0.023094,0.028870777599999998,-3.9410965019999997,-8.9798513385,0.003215,0.41357,0.84248,-9.999999999998899e-05,-0.00019999999999997797,0.00014999999999987246,0.0007872348648931271,-0.0002506733439824327,0.0006126927795150894
149550000000.0,2,-0.1021656797,0.056064618049999994,0.08142461494999999,0.049987,0.050392,-0.015729,0.030939980749999995,-3.9453133615,-8.977988074999999,0.003446,0.41404,0.84236,-0.00029999999999996696,-9.999999999998899e-05,0.0001500000000000945,0.0020538382064611005,0.0002851956057039473,0.0011619530760615948
149550000000.0,2,-0.06124252924999999,0.01022833595,0.0748835794,0.046088,0.10369,-0.004087,0.03849110124999999,-3.949922487,-8.9759286785,0.004289,0.41455,0.84232,-9.999999999998899e-05,-9.999999999998899e-05,-0.00019999999999997797,0.000532206578424621,1.2863854267131103e-05,7.702513767809949e-05
149550000000.0,2,-0.0167105316,-0.05298532994999999,0.04746418599999999,0.038746,0.12718,0.008668,0.04918034975,-3.954629679,-8.9737712155,0.00548,0.41507,0.8424,0.00029999999999996696,-0.000400000000000178,-0.00019999999999997797,-0.0027922273935262476,-0.0010576184851676107,-0.0013296616451363708
149550000000.0,2,0.0085513988,-0.07747253500000001,0.01791674955,0.027977,0.11767,0.014002,0.0596832719,-3.9587484719999995,-8.971907952,0.006652,0.41553,0.84253,-9.999999999998899e-05,-0.00019999999999997797,9.999999999998899e-05,-0.0008897003633070999,0.00042699178206762056,-0.00036566058720935435
149550000000.0,2,0.06369419174999999,-0.04694443354999999,-0.04716017985,0.027753,0.088907,0.012984,0.0688819096,-3.9615924005,-8.9706330875,0.007679,0.41585,0.84263,-0.00019999999999997797,-9.999999999998899e-05,9.999999999998899e-05,0.0014533554624304723,0.0013162479820618689,0.0005674999879612674
149550000000.0,2,0.06946050194999999,-0.022486648449999997,-0.07176506469999999,0.033871,0.054757,0.015189,0.0752366188,-3.9643382624999997,-8.969358222999999,0.008388,0.41616,0.84273,-0.00019999999999997797,-9.999999999998899e-05,0.00019999999999997797,-0.00018447208634286838,3.153652970344645e-05,0.0003054120338681354
149550000000.0,2,0.01717144415,0.00304986815,-0.05591751829999999,0.047542,0.033328,0.020587,0.07814919384999999,-3.9679667229999995,-8.967691092499999,0.008714,0.41657,0.84294,-0.00019999999999997797,9.999999999998899e-05,0.00019999999999997797,-0.0028517797890890706,0.000673221418957759,-0.0005293398243783609
149550000000.0,2,-0.06545938875,0.026674088000000002,-0.05415232129999999,0.066813,0.04382,0.023805,0.079826131,-3.9727719815,-8.9655336295,0.008903,0.4171,0.84322,0.00019999999999997797,-0.00039999999999995595,-0.00019999999999997797,0.001070198097197661,-0.0012725870242369375,0.0006643041990446463
149550000000.0,2,-0.18317841535,0.023732092999999996,-0.017191057449999998,0.092668,0.077696,0.028063,0.08171881445,-3.9801269689999996,-8.962297435,0.009118,0.41792,0.84366,9.999999999998899e-05,-0.00019999999999997797,-9.999999999998899e-05,0.0013456688481773837,-0.0008778946873997384,0.000516561946270172
149550000000.0,2,-0.2577579886,0.0073353742,0.060193217699999996,0.10907,0.12551,0.024809,0.08642600645,-3.990129752,-8.957786376,0.009648,0.41903,0.84412,9.999999999998899e-05,-0.00019999999999997797,-0.00014999999999987246,-0.001623819921088454,-0.001294781907028586,0.000593543811925834
149550000000.0,2,-0.2561300847,-0.0046679654,0.0586045404,0.11579,0.16275,0.02049,0.095124505,-4.0008190005,-8.952883050999999,0.010624,0.42023,0.84454,9.999999999998899e-05,-0.0004999999999999449,-0.0001500000000000945,-0.0016159580238661042,-0.003068763252206397,-0.000885768914041074
149550000000.0,2,-0.23478100764999998,-0.06369419174999999,0.030410421649999998,0.1191,0.1755,0.020477,0.10609814635,-4.012783113499999,-8.9474893935,0.011857,0.42156,0.84493,9.999999999998899e-05,-0.00029999999999996696,-9.999999999998899e-05,0.0009689101361358143,-0.0009875169600908063,0.00017228406619945735
149550000000.0,2,-0.1850514855,-0.09644840275,-0.00295180165,0.11253,0.15104,0.016242,0.1166599084,-4.024453027,-8.942095735999999,0.013046,0.42287,0.84524,-3.333333333332966e-05,-0.00010000000000021103,5.0000000000105516e-05,-0.000521319033865042,-7.052330227352854e-06,0.0006435291060335468
149550000000.0,2,-0.131801376,-0.10190090014999999,-0.05767290864999999,0.098348,0.11279,0.017354,0.12491710769999999,-4.034651943,-8.937388544,0.013976,0.42401,0.8455,-3.333333333332966e-05,-0.00019999999999997797,4.999999999988347e-05,-0.00048703736716493307,-0.0010239410234991198,0.0005210661468304512
149550000000.0,2,-0.13783246575,-0.12294597104999999,-0.06502789615,0.083147,0.076685,0.013124,0.12959487974999997,-4.043870194,-8.933073618,0.014507,0.42504,0.84577,-3.333333333332966e-05,-0.00019999999999997797,9.999999999998899e-05,-0.0002604859023291328,-0.0003014224888473471,0.0012393809996586735
149550000000.0,2,-0.17432301039999998,-0.13004598565,-0.04873905049999999,0.059575,0.049193,-0.010349,0.1316836962,-4.0514213145,-8.9296412905,0.014745,0.42589,0.84586,-9.999999999998899e-05,-9.999999999998899e-05,9.999999999998899e-05,-0.0015686746543657204,-0.0014342181965563139,0.0008492710598054509
149550000000.0,2,-0.19856504919999998,-0.0892209017,-0.06857790344999999,0.044747,0.047203,-0.034918,0.1336254129,-4.0565207725,-8.927385761,0.014967,0.42646,0.84568,-0.00019999999999997797,-9.999999999998899e-05,0.00019999999999997797,-9.867380520545144e-05,-0.0012499827803669206,0.001454106856634274
149550000000.0,2,-0.25488464015,-0.06698922615,-0.021839409549999998,0.043944,0.07066,-0.0499,0.13696948055,-4.0612279645,-8.925130231499999,0.015345,0.42699,0.84535,-9.999999999998899e-05,-0.00019999999999997797,0.00019999999999997797,-0.0007368101519502068,-0.001943572806579974,0.000920756061744743
149550000000.0,2,-0.3003384629,-0.0629194664,0.04555188925,0.046385,0.11006,-0.047825,0.1429221171,-4.0665235555,-8.922678569,0.016017,0.42757,0.84503,-9.999999999998899e-05,-0.00019999999999997797,9.999999999998899e-05,-0.000944925051854173,-0.002234839864697191,0.0006639667322810849
149550000000.0,2,-0.2966315492,-0.07493261265,0.08615142024999999,0.040161,0.13566,-0.041472,0.15133622279999998,-4.0720152794999995,-8.920030773499999,0.016964,0.42819,0.84478,-0.00010000000000021103,-0.00029999999999996696,0.0001500000000000945,-0.0006876180774770813,-0.0008874160646155094,0.0005386348444301747
149550000000.0,2,-0.24728448639999998,-0.11641474214999999,0.09523237814999999,0.01671,0.13904,-0.039381,0.16125074595,-4.0763302055,-8.9178733105,0.018079,0.42867,0.84454,-0.00019999999999997797,-0.00019999999999997797,0.0001500000000000945,-0.0039409021710083425,-0.0002395036792268712,0.00023783861076093205
149550000000.0,2,-0.20283094194999998,-0.1273295436,0.09284936220000001,-0.018513,0.13188,-0.046898,0.17170463484999998,-4.077801203,-8.916990711999999,0.019254,0.42884,0.84421,-0.00039999999999995595,-0.00019999999999997797,0.00019999999999997797,0.001510308256474635,0.0013138595423334287,-5.008066355610685e-05
149550000000.0,2,-0.16783100809999998,-0.1434909028,0.13843067139999998,-0.064431,0.11203,-0.069357,0.18189374419999998,-4.075839873,-8.9176771775,0.020395,0.42862,0.84365,-0.00019999999999997797,-0.000400000000000178,5.0000000000105516e-05,-0.0010777178250442887,-0.0020339288959223545,-0.0008424290571739101
149550000000.0,2,-0.12734915689999998,-0.1652224392,0.121798593,-0.09547,0.085658,-0.090712,0.1915434878,-4.070838481499999,-8.919736574,0.021471,0.42807,0.84282,-0.00019999999999997797,-0.00029999999999996696,4.999999999988347e-05,0.0008867359160946164,-0.00016391830172701738,0.00044992137509250463
149550000000.0,2,-0.13944075635,-0.14955141249999998,0.18413946704999998,-0.10945,0.055955,-0.11417,0.19914364154999997,-4.064366092499999,-8.922482436,0.022316,0.42734,0.84176,-0.0004999999999999449,-0.00034999999999985043,0.00039999999999995595,0.0026622872625400307,-9.064485958543145e-05,0.0013259196296187548
149550000000.0,2,-0.1505713041,-0.1150123912,0.24895161689999998,-0.10852,0.026126,-0.13439,0.20489033844999996,-4.0575014375,-8.9255224975,0.022951,0.42657,0.84047,9.999999999998899e-05,-0.0003500000000000725,-0.00029999999999996696,-0.0031556505372699606,-0.005118781983547649,-0.0011946267917040398
149550000000.0,2,-0.10839290245,-0.1620843112,0.29218913674999997,-0.077744,0.002427,-0.13643,0.20940139745,-4.053676844,-8.927189627999999,0.023452,0.42614,0.83907,-0.00029999999999996696,-0.00039999999999995595,9.999999999998899e-05,0.0007489627707782387,-0.0019166302683091274,0.0006080800724663216
149550000000.0,2,-0.13799917879999998,-0.197898197,0.3631010229,-0.044793,-0.015964,-0.13848,0.21162750699999996,-4.053872977,-8.926993495,0.023701,0.42617,0.83768,-0.000400000000000178,-0.00029999999999996696,9.999999999998899e-05,0.0009630973018510125,-0.0007404185225379223,0.0003321749481252356
149550000000.0,2,-0.17078280975,-0.14299076365,0.38595051739999997,-0.016058,-0.034309,-0.1512,0.21208841955,-4.0563246395,-8.9259147635,0.023756,0.42643,0.83621,-0.0004999999999999449,-0.000300000000000189,0.00019999999999997797,0.0004537455372357613,1.796219201777305e-05,-0.00017315767726752695
149550000000.0,2,-0.14302999025,-0.13839144479999999,0.38501888565,-0.007671,-0.067396,-0.17248,0.21126466095,-4.0596589005,-8.9243456995,0.023669,0.42681,0.83449,-0.00039999999999995595,-0.00039999999999995595,-5.0000000000105516e-05,0.0005883586060296819,-0.001381959573380609,-0.00028149022131149226
149550000000.0,2,-0.0865338796,-0.12959487974999997,0.29227739659999996,-0.00569,-0.098301,-0.1895,0.20923468439999998,-4.062306695999999,-8.923266967999998,0.023444,0.42711,0.83251,-0.0004999999999999449,-0.00039999999999995595,-4.999999999988347e-05,0.0014537468090717875,0.0005808893027252626,-0.0008668399116240344
149550000000.0,2,-0.09917465145,-0.1253878269,0.24769636569999998,0.018848,-0.10276,-0.19479,0.2063123027,-4.066425488999999,-8.9214037045,0.023122,0.42757,0.83045,-0.00039999999999995595,-0.0006999999999999229,-9.999999999998899e-05,0.0005755474231806668,0.0003985915288737818,-0.001239315812517905
149550000000.0,2,-0.11682662144999999,-0.14621715149999998,0.31715686765,0.043397,-0.095524,-0.18301,0.20331146779999998,-4.07368241,-8.91816751,0.022794,0.42839,0.82847,-0.000500000000000167,-0.000500000000000167,5.0000000000105516e-05,-5.8341880740664376e-05,-0.002000795781514464,-0.0014599821682993175
149550000000.0,2,-0.14108827355,-0.1796970546,0.28526564185,0.047598,-0.094517,-0.16593,0.19944764769999998,-4.082116129,-8.914440983,0.02237,0.42933,0.8267,-0.0005999999999999339,-0.0004999999999999449,4.999999999988347e-05,-0.0010611282936419664,-0.0010638771766176003,-0.0022374608325807233
149550000000.0,2,-0.16688956969999996,-0.2072537411,0.1623196708,0.042229,-0.093425,-0.15526,0.19457374265,-4.089765316,-8.9110086555,0.021832,0.43018,0.82508,-0.001000000000000112,-0.00019999999999997797,0.00039999999999995595,0.0032392491171502336,0.0018273162175024282,-0.00118128723613653
149550000000.0,2,-0.18712068865,-0.2095288839,0.1461779249,0.031615,-0.081632,-0.14569,0.18996461715,-4.096433837999999,-8.9080666605,0.021322,0.43094,0.82359,-9.999999999998899e-05,-0.0010999999999998789,-0.0004999999999999449,-0.002773897744354936,-0.0011101985667691938,-0.0033425097076533183
149550000000.0,2,-0.2037625737,-0.22156164344999998,0.1801089339,0.011484,-0.063362,-0.14256,0.18625770344999998,-4.1022197615,-8.9055169315,0.020912,0.43158,0.82217,-0.0004999999999999449,-0.000600000000000156,-0.00019999999999997797,0.0006395460407173648,-0.0013732598333737744,-0.0013004606505921945
149550000000.0,2,-0.2066065022,-0.22773983295,0.15754383225,-0.021425,-0.043917,-0.14264,0.18415908035,-4.105161756499999,-8.9041440005,0.02068,0.43191,0.82075,-0.0006999999999999229,-0.0006999999999999229,9.999999999998899e-05,0.0009226737522237682,0.0003204301369561513,-0.001997856101003781
149550000000.0,2,-0.21279449834999997,-0.21720749084999996,0.16264329025,-0.064948,-0.020119,-0.14703,0.18421792024999997,-4.1041810915,-8.904634333,0.020685,0.4318,0.81931,-0.0009000000000001229,-0.00039999999999995595,9.999999999998899e-05,-0.002574796089806597,0.0006238059864529522,-0.0022348451134016623
149550000000.0,2,-0.21846274205,-0.2166485118,0.1491983731,-0.10323,-0.003829,-0.14499,0.18584582414999998,-4.0994738994999995,-8.906693729499999,0.020863,0.43128,0.81789,-0.00039999999999995595,-0.0009000000000001229,-0.00039999999999995595,0.0002006316718617951,0.0020143702494115345,-0.001014933058363976
149550000000.0,2,-0.2193747605,-0.18437482664999996,0.1179543862,-0.12447,0.011251,-0.13864,0.1885426529,-4.0918247125,-8.910224123499999,0.021157,0.43042,0.81654,-0.0005999999999999339,-0.0008999999999999009,-9.999999999998899e-05,-0.001905735690064525,-0.0007009989481656653,-0.0024434117345800144
149550000000.0,2,-0.22602366919999997,-0.11342371389999999,0.1353709966,-0.12979,0.0198,-0.12585,0.19161213435,-4.0824103285,-8.914440983,0.021491,0.42936,0.81532,-0.0005999999999999339,-0.000700000000000145,-0.00019999999999997797,-0.00012332439728562905,-0.0009070655868210764,-0.0015937557917828082
149550000000.0,2,-0.22826939204999996,-0.09174121075,0.11470838505,-0.12777,0.014434,-0.11196,0.19385785719999998,-4.072505612,-8.918952041999999,0.021732,0.42825,0.81425,-0.000600000000000156,-0.0009999999999998899,-0.000300000000000189,0.001467608802004361,-0.0024877170510635427,-0.0030251642406955714
149550000000.0,2,-0.18149167154999998,-0.12446600179999999,0.08428815675,-0.1098,-0.003841,-0.10549,0.19526020815,-4.064366092499999,-8.922678569,0.02188,0.42734,0.81325,-0.0011999999999998678,-0.00039999999999995595,0.000500000000000167,-0.002699073888590975,-0.0006908560369425221,-0.0015723513171669867
149550000000.0,2,-0.15086550359999998,-0.12815330219999999,0.084729456,-0.094068,-0.038075,-0.1054,0.19441683624999997,-4.057795637,-8.925620563999999,0.021778,0.4266,0.81224,-0.000700000000000145,-0.001000000000000112,-0.00019999999999997797,-0.00045284802548689607,0.00027172385383233966,-0.0007954471660095164
149550000000.0,2,-0.11351197375,-0.10830464259999999,0.0704509736,-0.078408,-0.082961,-0.10742,0.1904255297,-4.0522058465,-8.928268359499999,0.021326,0.42598,0.81117,-0.00039999999999995595,-0.0012999999999998568,-0.000600000000000156,0.004868833260273875,0.00025592603066937336,-0.0004281392869381895
149550000000.0,2,-0.09747810099999998,-0.15921096275,0.05204389155,-0.063764,-0.12038,-0.10733,0.1830705422,-4.048577386,-8.9300335565,0.020498,0.42557,0.81009,-0.0009999999999998899,-0.0009000000000001229,-0.00019999999999997797,-0.0025033267113936386,0.0002690686041300072,-0.0017559539052279527
149550000000.0,2,-0.1232107506,-0.13606726875,0.11016790609999999,-0.067095,-0.14273,-0.11583,0.17319524565,-4.045243125,-8.931798753499999,0.019388,0.4252,0.80896,-0.000600000000000156,-0.0009999999999998899,-0.00019999999999997797,0.003818568515076559,0.00033169850572467574,-0.0006442204898851334
149550000000.0,2,-0.13032057184999998,-0.10524496779999999,0.16577161159999998,-0.092643,-0.14145,-0.12442,0.1630845895,-4.0398494675,-8.934348482499999,0.018252,0.4246,0.80773,-0.0012999999999998568,-0.000600000000000156,0.00029999999999996696,0.0035716947290044265,-0.0008802350827739058,-0.0005520866929333568
149550000000.0,2,-0.12183781959999998,-0.29737685459999996,0.2327510311,-0.11711,-0.12741,-0.11381,0.15401343825,-4.0353384085,-8.936604012,0.017232,0.42409,0.80655,-0.000700000000000145,-0.0011999999999998678,-0.0005999999999999339,0.0003474647352567084,0.0007865559931572452,-0.002068907026895661
149550000000.0,2,-0.0860239338,-0.48945970814999995,0.31052757225,-0.13417,-0.11026,-0.085057,0.14632502465,-4.0323964135,-8.938075009499999,0.016369,0.42376,0.80562,-0.0007999999999999119,-0.001100000000000101,-9.999999999998899e-05,-0.0017309201100036975,0.000586861869952715,-0.0007160533791171209
149550000000.0,2,-0.04584608875,-0.52284154475,0.2874329115,-0.14928,-0.11338,-0.049861,0.13787169235,-4.02857182,-8.939938273,0.015421,0.42333,0.80503,-0.0007999999999999119,-0.0011999999999998678,-0.00019999999999997797,0.0013598898860996411,-0.0015439962087426817,-0.002130766218352148
149550000000.0,2,-0.07252017675,-0.39831670305,0.17313640575,-0.15062,-0.12513,-0.012487,0.12653520494999998,-4.021511031999999,-8.943272534,0.014148,0.42254,0.80487,-0.000700000000000145,-0.0014000000000000679,-0.0004999999999999449,0.0031234969846467564,0.0014565755526518842,-0.0012076616033195042
149550000000.0,2,-0.08595528725,-0.3661705043499999,0.08987794724999999,-0.10705,-0.12873,0.019615,0.1128941548,-4.016411573999999,-8.945724196499999,0.012619,0.42197,0.80511,-0.0014999999999998348,-0.0004999999999999449,0.0004999999999999449,-0.00020524036160246562,0.0015075329008991112,-0.0001073706233232774
149550000000.0,2,-0.1391171369,-0.22362103995,0.13908771695,-0.045066,-0.12284,0.011174,0.09886083864999999,-4.0151367095,-8.946410662,0.01105,0.42183,0.80539,-0.001100000000000101,-0.0013000000000000789,-0.00029999999999996696,0.0033993038355228933,0.0023040658891193555,-0.0026160359040465764
149550000000.0,2,-0.15890695659999998,0.01705376435,0.1412549866,0.011505,-0.13075,-0.005786,0.084533323,-4.015627042,-8.946410662,0.009449,0.42189,0.80552,-0.0007999999999999119,-0.0013000000000000789,-0.000400000000000178,-0.004453590206227875,0.0006820666977538359,-0.002674258908908128
149550000000.0,2,-0.17527425545,-0.12479942789999998,0.09170198415,0.045696,-0.1406,-0.030255,0.06993122115,-4.0216090985,-8.943860933,0.007819,0.42256,0.80538,-0.000700000000000145,-0.0015999999999998238,-0.0004999999999999449,0.0017817778151881236,0.001966993135287254,-0.0004467205273554209
149550000000.0,2,-0.097674234,-0.17948130829999998,0.0891424485,0.048851,-0.1566,-0.045164,0.05622152445,-4.0292582855,-8.940526672,0.006288,0.4234,0.80499,-0.0009999999999998899,-0.0014000000000000679,-0.00029999999999996696,0.003093296749270613,-0.0008903526005272777,-0.001299257742173543
149550000000.0,2,-0.09716428819999999,-0.18937621814999997,0.1147770316,0.029478,-0.16925,-0.030231,0.04105063689999999,-4.0359268075,-8.937584676999998,0.004593,0.42416,0.80466,-0.001100000000000101,-0.0012000000000000899,9.999999999998899e-05,0.0008587071801102741,0.002033675295833426,-0.0007725725920230131
149550000000.0,2,-0.0644296905,-0.3651211928,0.10264620555,-0.014414,-0.17744,-0.011082,0.02462449815,-4.041712731,-8.935034948,0.002756,0.4248,0.80455,-0.0009999999999998899,-0.0015999999999998238,-0.00029999999999996696,0.0022957572556035477,0.0025409071541908634,-0.001479788216046607
149550000000.0,2,-0.11350216709999998,-0.3056144406,0.026526988249999998,-0.064477,-0.16106,0.000544,0.00756092715,-4.041320465,-8.935231081,0.000846,0.42476,0.80461,-0.001100000000000101,-0.0013000000000000789,-0.00014999999999987246,-0.0031853007528329647,0.0002626685852635813,-0.0008605059768136136
149550000000.0,2,-0.0339506223,-0.33493632409999996,0.05495646659999999,-0.096341,-0.12248,0.035642,-0.0060016698,-4.03837847,-8.9365059455,-0.000672,0.42443,0.80493,-0.0009999999999998899,-0.0014000000000000679,-0.0001500000000000945,-0.0003968028158700121,0.0018193082807047567,0.0003353924880633852
149550000000.0,2,-0.16862534675,-0.45006639509999996,0.09009369355,-0.12585,-0.064721,0.057904,-0.0181226892,-4.03445581,-8.9382711425,-0.002028,0.42399,0.80565,-0.0012000000000000899,-0.0015000000000000568,0.00019999999999997797,0.00513986110183795,0.0022754833304821087,5.186639433674145e-05
149550000000.0,2,-0.10061622899999999,-0.31133171754999994,0.06628314735,-0.1392,0.005701,0.069498,-0.023428086849999998,-4.026806623,-8.94170347,-0.002621,0.42313,0.80646,-0.0017000000000000348,-0.0010999999999998789,0.00019999999999997797,0.0028890490099471866,0.0037010970498003726,0.0026871330077454514
149550000000.0,2,-0.09119203834999999,-0.27081063974999997,0.1276041298,-0.1442,0.047295,0.070483,-0.02433029865,-4.018569037,-8.945429997,-0.00272,0.42221,0.80732,-0.0007999999999999119,-0.0016000000000000458,-0.0004999999999999449,0.003971840888426115,0.0019828881496459783,4.6893645486073554e-05
149550000000.0,2,-0.0661556609,-0.22060059175,0.1246229082,-0.14824,0.054815,0.039507,-0.022427808549999997,-4.0091546529999995,-8.9496468565,-0.002506,0.42117,0.80789,-0.0012000000000000899,-0.0018000000000000238,-0.00019999999999997797,0.003478239986278664,0.0017313498402711236,-0.0011194028984032323
149550000000.0,2,0.058947773149999994,-0.12036682209999999,0.10351899739999999,-0.11519,0.050282,0.037432,-0.017955976149999997,-4.000230601499999,-8.953667583,-0.002005,0.42016,0.80821,-0.0005999999999999339,-0.0021999999999999797,-0.000700000000000145,-0.007533121972864598,-0.0016892882274368581,-0.004561790313395764
149550000000.0,2,0.18157012474999998,-0.30705601814999994,0.22606289579999997,-0.064578,-0.000263,0.079224,-0.016073099349999998,-3.9992499364999996,-8.9541579155,-0.001795,0.42005,0.80881,-0.0014000000000000679,-0.0016000000000000458,-0.00019999999999997797,0.0020013558734160997,0.003642114638554572,-0.000490482075137938
149550000000.0,2,0.14432446805,-0.29848500604999995,0.28499105565,-0.032148,-0.061307,0.11353,-0.02191786275,-4.001897732,-8.952883050999999,-0.002448,0.42036,0.80986,-0.0010999999999998789,-0.0018000000000000238,-9.999999999998899e-05,-0.0039296095265805575,0.0006367915928791046,0.00024259282350011513
149550000000.0,2,0.32865026145,-0.1480019618,0.27016340085,-0.009318,-0.11801,0.15315,-0.03131263345,-4.004643594,-8.951706253,-0.003498,0.42065,0.81117,-0.0016000000000000458,-0.0014999999999998348,0.00039999999999995595,0.008877039711828405,0.000738113503287785,0.004249691454977
149550000000.0,2,0.3314451567,-0.16931181224999997,0.2670546928,-0.000218,-0.15649,0.19377,-0.04638545449999999,-4.008762386999999,-8.949744922999999,-0.005183,0.42111,0.81293,-0.001100000000000101,-0.0019000000000000128,-0.00039999999999995595,0.005715331481133068,0.0014001546494148975,0.0005578647127879033
149550000000.0,2,0.28861951615,-0.1352729301,0.24517605664999997,0.005974,-0.16297,0.22687,-0.064920023,-4.012586980499999,-8.947979726,-0.007255,0.42154,0.81511,-0.00039999999999995595,-0.0027000000000001467,-0.0010999999999998789,-0.005395160476077798,-0.003760256867462175,-0.0027895405584623945
149550000000.0,2,0.25841503415,-0.0699606411,0.3013779678,0.013625,-0.12682,0.24922,-0.0825916063,-4.0163135075,-8.9461164625,-0.009232,0.42196,0.81759,-0.0011999999999998678,-0.0020999999999999908,-9.999999999998899e-05,-0.0012693437225237414,0.00045518686767898053,9.295136957934713e-05
149550000000.0,2,0.22051233189999997,-0.0424235679,0.373437232,0.018288,-0.073585,0.2566,-0.09691912194999999,-4.0208245665,-8.9439589995,-0.010836,0.42247,0.82021,-0.0009000000000001229,-0.0021999999999999797,-0.000500000000000167,0.0026588515452403705,0.0001818107165689753,2.1436871220470444e-05
149550000000.0,2,0.2405571245,-0.026487761649999997,0.3811256456,0.019632,-0.036304,0.26186,-0.10723571775,-4.025139492499999,-8.941899603,-0.011992,0.42294,0.82288,-0.0014000000000000679,-0.0019000000000000128,0.00045000000000006146,0.0008194291236804929,0.0025505165510906203,0.0012845918302950565
149550000000.0,2,0.3343479251,-0.0223395487,0.36154176554999995,0.029331,-0.016149,0.2757,-0.11408075944999999,-4.0298466845,-8.9396440735,-0.01276,0.42347,0.82559,-0.0019000000000000128,-0.0012999999999998568,0.00045000000000006146,0.004104880278537393,0.0043553424328406365,0.004869652563513155
149550000000.0,2,0.42720709394999995,-0.04362978585,0.39735565134999995,0.045187,-0.02269,0.296,-0.1201510758,-4.0365152065,-8.936604012,-0.013444,0.42422,0.82845,-0.00039999999999995595,-0.0027000000000001467,-0.001000000000000112,-0.0030427598567436265,0.0008260402423452273,-0.002322052660736512
149550000000.0,2,0.5197916766,-0.0925355494,0.41795942299999994,0.058697,-0.053727,0.31849,-0.1368616074,-4.041026265499999,-8.934250416,-0.015318,0.42473,0.8319,-0.0016000000000000458,-0.0015999999999998238,0.000700000000000145,0.0011889574067162068,0.004188200947700338,0.0052749908792312505
149550000000.0,2,0.59089969575,-0.13070303119999999,0.43347354329999993,0.077504,-0.095453,0.33141,-0.15770073865,-4.047008322,-8.9312103545,-0.017655,0.4254,0.83553,-0.0009999999999998899,-0.0023000000000001908,-0.000500000000000167,0.00041839539592858355,0.003258919950374972,0.002211081878567639
149550000000.0,2,0.6301361024,-0.16229025085,0.48290886595,0.10383,-0.14255,0.3262,-0.1827175028,-4.055049775,-8.9270915615,-0.020465,0.4263,0.83916,-0.0008999999999999009,-0.0022999999999999687,-0.00029999999999996696,-0.0002584054444817463,0.00010758140383226866,0.0011270926947942461
149550000000.0,2,0.6671562061499999,-0.23179978604999996,0.5457204592,0.12164,-0.19702,0.30708,-0.20043811934999997,-4.072113346,-8.918952041999999,-0.022469,0.4282,0.8421,-0.000500000000000167,-0.0026999999999999247,-0.0007999999999999119,-0.008295379336369202,-0.0013629865083422121,-0.0008850744380562159
149550000000.0,2,0.7063828061499999,-0.29877920555,0.5577924453499999,0.11385,-0.25659,0.27515,-0.23352575644999998,-4.081821929499999,-8.9137545175,-0.026193,0.4293,0.84525,-0.0005999999999999339,-0.0024999999999999467,-0.0004999999999999449,-0.0005145995565275507,0.0007073083530120261,0.0011463893934474667
149550000000.0,2,0.7665073773,-0.38012536729999996,0.50522880135,0.088047,-0.30217,0.24209,-0.2698593947,-4.0898633825,-8.9090473255,-0.030281,0.4302,0.84803,-0.0016000000000000458,-0.0016000000000000458,0.0004999999999999449,0.007254372454829572,0.005013990180327221,0.008235415768996945
149550000000.0,2,0.77920698905,-0.46504114964999993,0.5052778346,0.053802,-0.33169,0.2154,-0.30799745654999994,-4.0948647739999995,-8.9055169315,-0.034571,0.43076,0.8505,-0.0006999999999999229,-0.0024999999999999467,-0.0004999999999999449,-0.0021338487403091966,0.0028197876902078534,0.0015006395365657343
149550000000.0,2,0.7281829891,-0.5242046691,0.4797020914,0.010222,-0.3313,0.18754,-0.33253369485,-4.1075153525,-8.898750343,-0.037352,0.43218,0.85203,-0.00029999999999996696,-0.0028000000000001357,-0.0009000000000001229,-0.008723588240381053,-0.00024710488762669236,-1.9978985709406816e-05
149550000000.0,2,0.7118254969,-0.5831818622,0.4154881472,-0.041615,-0.29248,0.1607,-0.36646470384999996,-4.1043772245,-8.8988484095,-0.041157,0.43183,0.85386,-0.001000000000000112,-0.0021999999999999797,0.00019999999999997797,0.005898471855422249,0.004101763412560855,0.004946458306177126
149550000000.0,2,0.6706571802,-0.66309625305,0.3856563179,-0.087938,-0.23133,0.13382,-0.39427636324999993,-4.097022237,-8.901103939,-0.044266,0.431,0.85538,-0.0005999999999999339,-0.0024999999999999467,-0.0006999999999999229,-0.0021570032911893966,0.0022329874974917896,0.0021033523549067734
149550000000.0,2,0.60655110915,-0.6995966043499999,0.3975223644,-0.132,-0.15954,0.098394,-0.41456632209999994,-4.085842656,-8.905320798499998,-0.046519,0.42974,0.8565,-0.0005999999999999339,-0.0027999999999999137,-0.00019999999999997797,-0.0016075638585246188,0.0028315016263542603,0.0018929778451461376
149550000000.0,2,0.60655110915,-0.6995966043499999,0.3975223644,-0.132,-0.15954,0.098394,-0.41456632209999994,-4.085842656,-8.905320798499998,-0.046519,0.42974,0.8565,-0.000400000000000178,-0.0029000000000001247,-0.0008000000000001339,-0.0017396952101453311,0.003682043721299655,0.000666572486991146
149550000000.0,2,0.5784060236499999,-0.6729323229999999,0.38516598539999997,-0.16647,-0.092074,0.064029,-0.41559602035,-4.085254257,-8.9055169315,-0.046633,0.42968,0.85668,-0.0013999999999998458,-0.0021999999999999797,0.000400000000000178,-0.007474111444015552,0.003834515666335081,-0.0022370648953662364
149550000000.0,2,0.5936553644,-0.69536013155,0.3934526046499999,-0.18087,-0.036524,0.044693,-0.42187227634999996,-4.0690732845,-8.9125777195,-0.047299,0.42787,0.85712,0.0004999999999999449,-0.0036000000000000476,-0.0015000000000000568,0.0058196293243818475,0.003942605947034217,0.0028961297685549114
149550000000.0,2,0.6128175585,-0.73254694835,0.46559032204999995,-0.18056,-0.002421,0.038229,-0.42442200534999996,-4.052696179,-8.919932707,-0.047545,0.42603,0.85746,0.00019999999999997797,-0.0037000000000000366,-0.0013000000000000789,-0.00529930905167092,0.0015371650556552652,-0.0026572984766463636
149550000000.0,2,0.6339999224999999,-0.7873268952499999,0.49717754169999995,-0.16441,0.015562,0.038225,-0.42496137109999993,-4.0373978049999995,-8.9268954285,-0.047569,0.42432,0.85779,-0.0007999999999999119,-0.0027999999999999137,-0.00019999999999997797,0.005493803323605273,0.0025759503216997715,0.0036407595889932365
149550000000.0,2,0.6492198432999999,-0.8141578896499999,0.5607050203999999,-0.13561,0.011072,0.040384,-0.41175181354999996,-4.042889529,-8.925032165,-0.046102,0.42494,0.85755,-0.001000000000000112,-0.0025999999999999357,-9.999999999998899e-05,-0.003920337702443155,0.0035925941650021276,-0.0014052752778596356
149550000000.0,2,0.6485431844499999,-0.868084658,0.6399231391,-0.10588,-0.007286,0.038333,-0.41345817064999996,-4.032690613,-8.929543224,-0.04627,0.42379,0.85792,-0.0004999999999999449,-0.0035000000000000586,-0.0004999999999999449,0.0001792462014559293,-0.00013145874562425774,-0.0011756623296815816
149550000000.0,2,0.65670231725,-0.9288662746999999,0.6552607397,-0.084611,-0.026625,0.022393,-0.4165276521,-4.0245510934999995,-8.933073618,-0.046594,0.42289,0.85817,-0.00019999999999997797,-0.0035000000000000586,-0.0008000000000001339,0.0011481708266172785,0.0002873931647113803,0.0004023955369386323
149550000000.0,2,0.70071456245,-1.0099868834999999,0.6566925105999999,-0.079287,-0.040501,0.002146,-0.42014630594999997,-4.017392239,-8.9361136795,-0.046982,0.42208,0.8582,-0.00019999999999997797,-0.0035999999999998256,-0.0007999999999999119,0.0006118881189460246,0.001079258888449619,0.00040460527827884674
149550000000.0,2,0.7085206558499999,-1.0456830895,0.6598894785,-0.069626,-0.051202,-0.015999,-0.4088000119,-4.035044209,-8.928758691999999,-0.045753,0.42405,0.85736,9.999999999998899e-05,-0.0039000000000000146,-0.0007999999999999119,0.0020961652129320996,0.00068600973639521,0.0003918078309662343
149550000000.0,2,0.707255598,-1.0461734219999999,0.71354166065,-0.067473,-0.055471,-0.026662,-0.4126246054,-4.0291602189999995,-8.9312103545,-0.046167,0.42339,0.85705,-9.999999999998899e-05,-0.0038000000000000256,-0.000700000000000145,-0.001486028791175209,-0.0006844343626521976,-0.0004943943932464445
149550000000.0,2,0.6861026539499999,-1.041073964,0.70777535045,-0.083548,-0.064928,-0.027741,-0.4170572112,-4.0221974975,-8.934054283,-0.046647,0.42262,0.8567,0.00019999999999997797,-0.0041999999999999815,-0.0008999999999999009,0.0033126183859757408,0.0012400435274340094,0.0014726550964563323
149550000000.0,2,0.65089678045,-1.0092023515,0.6531425032999999,-0.095452,-0.078695,-0.015996,-0.42284313469999996,-4.0139599115,-8.937486610499999,-0.047276,0.4217,0.85643,-9.999999999998899e-05,-0.0040000000000000036,-0.000700000000000145,0.000515559479051686,-0.00013785158550150278,-0.000409803783130519
149550000000.0,2,0.5667164968499999,-0.96017890815,0.6763058106,-0.090272,-0.092595,0.003224,-0.41812613605,-4.0291602189999995,-8.930916154999998,-0.046783,0.4234,0.85581,0.00019999999999997797,-0.0045000000000001705,-0.0006999999999999229,0.0008184717988861667,0.0005327891813018404,0.00023418013141018879
149550000000.0,2,0.48360513809999994,-0.9069582185999999,0.7104329526,-0.072206,-0.1002,0.016057,-0.41686107819999996,-4.044850858999999,-8.923855367,-0.046679,0.42515,0.85546,0.00039999999999995595,-0.0043999999999999595,-0.0010999999999998789,0.002507620722766002,0.0006399597263750945,-0.0007599875752246354
149550000000.0,2,0.4109182483,-0.8524136312999999,0.7404609149,-0.037027,-0.10688,0.021452,-0.41840072224999997,-4.0626008955,-8.9157158475,-0.046893,0.42714,0.85529,0.00019999999999997797,-0.0046999999999999265,-0.000700000000000145,-0.0028262174944631013,0.0001687558376852749,-0.001000868628058399
149550000000.0,2,0.36395420144999996,-0.8373506169,0.7287910013999999,0.018534,-0.11051,0.009802,-0.42111716429999996,-4.0841755255,-8.905713064499999,-0.047251,0.42956,0.85511,0.0004999999999999449,-0.0047999999999999154,-0.0009999999999998899,0.002571891142748084,0.0015228108953784236,-1.7129019312889238e-05
149550000000.0,2,0.34850872769999997,-0.82906399765,0.73068368485,0.087985,-0.11744,-0.011424,-0.42393167284999994,-4.111634145499999,-8.8929644195,-0.047634,0.43265,0.85477,0.00019999999999997797,-0.0049000000000001265,-0.000600000000000156,-0.0005730757940013431,-0.0011211191205318105,-0.0007340067152529217
149550000000.0,2,0.3449587204,-0.8503934613999999,0.7148165251499999,0.14983,-0.14455,-0.037964,-0.4277072331,-4.145074822,-8.8772737795,-0.048143,0.4364,0.85419,0.000700000000000145,-0.005099999999999882,-0.0010999999999998789,-0.0016039995706902954,0.001712961117484646,-0.0009425320373105672
149550000000.0,2,0.38276335615,-0.9044771361499999,0.64750367955,0.18066,-0.1778,-0.058144,-0.43259094479999993,-4.182143959,-8.859621809499998,-0.048789,0.44058,0.85333,0.0004999999999999449,-0.0052000000000000934,-0.0009000000000001229,0.0028042312661077373,0.0006959559237189605,0.0002639719359162074
149550000000.0,2,0.46396241814999994,-0.9763500739999998,0.4813299953,0.18043,-0.21508,-0.0613,-0.43852396805,-4.219213096,-8.8417737065,-0.049557,0.44476,0.85229,0.0006999999999999229,-0.005300000000000082,-0.0010999999999998789,0.0023904903316363524,0.0028178574724935235,0.0004498662268605236
149550000000.0,2,0.45700950329999995,-1.0431333605,0.25525729285,0.1578,-0.23728,-0.044241,-0.44787951215,-4.2528499055,-8.825200468,-0.050707,0.44856,0.8514,0.000700000000000145,-0.005599999999999827,-0.001000000000000112,-0.0016042860532148318,0.00020829273988320907,-0.0007904833897407482
149550000000.0,2,0.38808836709999994,-1.0986389994999999,0.09387906045,0.14069,-0.22332,-0.014408,-0.46709073949999996,-4.265794683499999,-8.817943546999999,-0.052922,0.45002,0.85123,0.0004999999999999449,-0.005600000000000049,-0.0008999999999999009,-0.002307433740297571,0.0007500939907540971,-0.0011252904345885606
149550000000.0,2,0.2727229365,-1.1033461915,-0.00041187929999999997,0.13801,-0.15085,-0.002799,-0.4820753007,-4.2780529959999996,-8.811176958499999,-0.054657,0.45141,0.85128,0.0006999999999999229,-0.005800000000000027,-0.0008999999999999009,-0.0032068072971585537,-0.00040907532365186405,-0.0007260656984258984
149550000000.0,2,0.34506659355,-1.043623693,-0.08419009025,0.14205,-0.056024,-0.017902,-0.48842020325,-4.2905074415,-8.8047045695,-0.055416,0.45283,0.85121,0.0009000000000001229,-0.005900000000000016,-0.001000000000000112,-0.0027863736737709366,0.0018039214421168293,-0.0010558389913431498
149550000000.0,2,0.42689328114999997,-1.0023376965,-0.2263767086,0.14055,0.015398,-0.024458,-0.47777018134999993,-4.3177699285,-8.7919559245,-0.054288,0.45592,0.85057,0.0008999999999999009,-0.006099999999999994,-0.0009999999999998899,-0.0006039721416698507,0.00024224176304210587,-0.001639313038965362
149550000000.0,2,0.40365152065,-1.0313653805,-0.5090435882,0.11613,0.026262,-0.030924,-0.4741319142,-4.328851443,-8.7867584,-0.053907,0.45718,0.85032,0.0008000000000001339,-0.006199999999999983,-0.0008000000000001339,-0.0008373250449053016,0.0007973968001029341,-0.0006578339512843812
149550000000.0,2,0.42402973935,-1.0437217595,-1.0415642964999998,0.054837,-0.031843,-0.028793,-0.47400442775,-4.335323831999999,-8.783522205499999,-0.053913,0.45792,0.85003,0.0008999999999999009,-0.006399999999999961,-0.0006999999999999229,-0.00329974294779134,0.000405726183813071,-0.002567656019310166
149550000000.0,2,0.36733749569999996,-1.0057700239999998,-1.6656595024999998,-0.034525,-0.12809,-0.021307,-0.48210472065,-4.334343166999999,-8.783620272,-0.054833,0.45781,0.84976,0.0009000000000001229,-0.006500000000000172,-0.001000000000000112,-0.001237759223332524,9.282189625214876e-05,0.000668869414711698
149550000000.0,2,0.1820898772,-0.8746551135,-2.2399369265,-0.11399,-0.19988,-0.033059,-0.49722657494999994,-4.3260075145,-8.7868564665,-0.056528,0.45686,0.84938,0.0010999999999998789,-0.006799999999999917,-0.0004999999999999449,-0.0003954828288827428,0.0006371842201824407,0.00039085736360919276
149550000000.0,2,0.0106107953,-0.62698816775,-2.5783644179999996,-0.13321,-0.21781,-0.058678,-0.5139861398,-4.314533734,-8.7915636585,-0.058398,0.45555,0.84871,0.001100000000000101,-0.006699999999999928,-0.0006999999999999229,-0.0013561267053333603,-0.0005658877143821517,-0.0007524790920445945
149550000000.0,2,-0.22542546354999998,-0.23620297189999998,-2.628574466,-0.053936,-0.1918,-0.08207,-0.5281469423999999,-4.307865211999999,-8.7939172545,-0.059986,0.4548,0.84781,0.0010999999999998789,-0.006900000000000128,-0.000400000000000178,-0.0038458883686491863,-0.0014149019300218058,-0.0009132320085713796
149550000000.0,2,-0.47176851154999994,0.20532183105,-2.484220578,0.11529,-0.12178,-0.10111,-0.5363354951499999,-4.3142395344999995,-8.7903868605,-0.060939,0.45552,0.84677,0.001100000000000101,-0.006999999999999895,-0.0004999999999999449,0.0008941312684412894,-0.0001401811922445706,4.2615044792276846e-05
149550000000.0,2,-0.6066197557,0.5977545441,-2.190413344,0.33887,-0.058599,-0.11792,-0.5378162993,-4.3395406915,-8.777736282,-0.061193,0.4584,0.8457,0.0012999999999998568,-0.007100000000000106,0.00019999999999997797,0.0018799069456143513,0.0028992210945757435,-0.0006973716252162421
149550000000.0,2,-0.55930266945,0.8086073257499999,-1.9327926484999998,0.53556,-0.033544,-0.15071,-0.53484488435,-4.3834744835,-8.756161652,-0.061006,0.46339,0.84447,0.0013000000000000789,-0.007099999999999884,0.00020000000000020002,-0.0018970308465144914,0.001558917228794865,-0.0017321893279422518
149550000000.0,2,-0.31773545999999997,0.8174431174,-1.8272730944999998,0.65725,-0.057936,-0.20276,-0.5307162847,-4.439666588,-8.7280165665,-0.060731,0.46982,0.84278,0.001000000000000112,-0.007200000000000095,0.00019999999999997797,-0.002655877368281878,-6.628117991125393e-06,-0.002513612794633774
149550000000.0,2,-0.021623663249999998,0.7752254891499999,-1.793636285,0.6804,-0.13479,-0.26022,-0.52949045345,-4.5002716849999995,-8.696929485999998,-0.060807,0.47676,0.84049,0.0011999999999998678,-0.006899999999999906,0.0005999999999999339,-0.0003104249181570262,0.0013676109043001539,-0.001803091856181216
