Time,placement_label,user_acc_x(m/s^2),user_acc_y(m/s^2),user_acc_z(m/s^2),rotation_rate_x(rad/s),rotation_rate_y(rad/s),rotation_rate_z(rad/s),gravity_x(m/s^2),gravity_y(m/s^2),gravity_z(m/s^2),attitude_roll(rad),attitude_pitch(rad),attitude_yaw(rad),target_delta_x,target_delta_y,target_delta_z,target_delta_roll,target_delta_pitch,target_delta_yaw
150000000000.0,1,-0.0049229383,0.006472388999999999,-0.007119627899999999,0.007644,-0.022231,0.005237,-1.7350905845,-9.524022347,1.5662200714999999,-2.3051,1.3301,1.6856,0.0,0.0,0.0,0.0,0.0,0.0
150000000000.0,1,-0.01624961905,-0.020044792599999996,0.033450483149999995,0.006569,-0.023288,0.005238,-1.735384784,-9.523728147499998,1.5677891355,-2.3055,1.33,1.6858,2.0000000000020002e-05,2.4999999999941735e-05,-2.999999999997449e-05,-0.00031785392255101463,0.0001444791123215161,-0.0005481507203246583
150000000000.0,1,-0.01032640245,-0.04873905049999999,0.0503669544,0.003376,-0.023261,0.004165,-1.7354828504999997,-9.523433948,1.5693581994999999,-2.3059,1.3299,1.686,-2.0000000000020002e-05,2.500000000016378e-05,-9.99999999995449e-06,-0.0007112713416248528,-0.00033292035571319545,0.00014578403754339497
150000000000.0,1,-0.0081591328,-0.06904862265,0.07374600799999999,0.000197,-0.020039,0.00522,-1.7355809169999998,-9.5231397485,1.5707311305,-2.3064,1.3298,1.6863,6.0000000000060005e-05,2.4999999999941735e-05,5.000000000032756e-06,0.0008781924838789923,0.00034591815232243306,-0.0009953545148893017
150000000000.0,1,-0.00048052584999999995,-0.07852184655,0.09799785344999999,-0.005118,-0.017865,0.005207,-1.7354828504999997,-9.5229436155,1.5721040615,-2.3068,1.3297,1.6865,9.99999999995449e-06,2.4999999999941735e-05,4.999999999921734e-06,0.00021554874389217993,-4.038509827042347e-05,-9.220312512447926e-05
150000000000.0,1,0.0167889848,-0.0580161414,0.09628168969999999,-0.001887,-0.015759,0.003073,-1.7350905845,-9.522845549,1.573378926,-2.3074,1.3296,1.6868,-2.0000000000020002e-05,-8.333333333387927e-06,1.0000000000065512e-05,-0.00017822519690557925,-0.0002131112564767168,-9.491433348074452e-05
150000000000.0,1,0.031616639599999996,-0.010002783,0.08934838814999999,0.000258,-0.014713,0.003073,-1.7345021854999998,-9.522649416,1.5750460565,-2.3081,1.3296,1.6874,-2.0000000000020002e-05,-8.333333333387927e-06,9.99999999995449e-06,0.00040887697460245676,-1.1998995318673877e-05,-0.00042994418242692234
150000000000.0,1,0.03543142645,0.00867888525,0.07452073334999999,0.004547,-0.013681,0.000942,-1.73381572,-9.522453282999999,1.57690932,-2.3088,1.3295,1.688,-9.99999999995449e-06,-8.333333333165882e-06,-1.0000000000065512e-05,0.00011105420701840174,0.00018350666089395062,-0.00037613388307766726
150000000000.0,1,0.04270796075,0.0070705946499999995,0.030008348999999997,0.007718,-0.016906,0.002019,-1.7330311879999998,-9.5223552165,1.5784783839999998,-2.3096,1.3294,1.6885,-2.999999999997449e-05,-8.333333333387927e-06,-9.99999999995449e-06,-0.0008482336939130697,-0.0002242898487203604,0.00032620702734265095
150000000000.0,1,0.04412011835,0.003138128,-0.0030204482,0.010958,-0.01267,0.000948,-1.7321485895,-9.5223552165,1.579655182,-2.3102,1.3294,1.689,-1.0000000000065512e-05,-8.333333333387927e-06,1.0000000000065512e-05,0.00059390623631983,-0.00012349896801988614,-1.7067216491417625e-05
150000000000.0,1,0.0616053753,0.016896857949999997,-0.0034519407999999995,0.008839,-0.009458,0.003072,-1.731265991,-9.5223552165,1.5806358469999997,-2.3107,1.3294,1.6895,5.000000000032756e-06,-8.333333333165882e-06,-4.0000000000040004e-05,-0.0006337965481439944,-4.885195196147052e-05,-0.0002566398908574463
150000000000.0,1,0.059036033,0.03090075415,-0.0037657536,0.011002,-0.005215,0.004133,-1.730677592,-9.52225715,1.5817145784999997,-2.3113,1.3294,1.69,5.000000000032756e-06,-8.333333333387927e-06,-2.0000000000020002e-05,0.00020433920333084998,-5.140350520682624e-05,-0.0001227322897667804
150000000000.0,1,0.05924197265,0.021260817199999997,-0.00293218835,0.008911,0.000129,0.004118,-1.7300891929999997,-9.5221590835,1.5826952435,-2.3117,1.3294,1.6904,-1.0000000000065512e-05,-8.333333333387927e-06,-2.0000000000020002e-05,-3.843019753291266e-05,0.0001314159549412608,-0.00022782911377405846
150000000000.0,1,0.054721107,0.0063939358,-0.023810546199999998,0.00888,-0.000941,0.008388,-1.72989306,-9.5221590835,1.583185576,-2.3119,1.3293,1.6906,4.0000000000040004e-05,-8.333333333387927e-06,-9.99999999995449e-06,0.0005021008083674339,-0.0002165545346843878,0.00017664002895667608
150000000000.0,1,0.042394147949999995,-0.01819133575,-0.02352615335,0.005696,0.001216,0.008377,-1.7299911265,-9.522061016999999,1.5833817089999997,-2.312,1.3293,1.6906,4.999999999999449e-05,-8.333333333387927e-06,-2.999999999997449e-05,-0.00045402696816476684,0.00046630989803664313,-0.00013716120975515445
150000000000.0,1,0.031018433949999997,-0.03821651505,-0.031744126049999995,0.003584,0.003366,0.0073,-1.7301872594999999,-9.5221590835,1.5830875094999999,-2.3118,1.3293,1.6905,-9.99999999995449e-06,-8.333333333165882e-06,-3.0000000000085514e-05,-0.0012260126713379282,-0.00010074308091811979,-0.0004933470733623491
150000000000.0,1,0.011836626549999998,-0.06471408334999999,-0.024634304799999996,0.003608,0.006563,0.007294,-1.7305795254999998,-9.5221590835,1.5826952435,-2.3116,1.3293,1.6903,2.999999999997449e-05,-8.333333333387927e-06,-1.999999999990898e-05,0.00031879964351144707,-6.12238224473316e-06,-7.058986731145467e-05
150000000000.0,1,0.0063645158499999995,-0.06755801185,-0.016141745899999997,0.003632,0.007631,0.004089,-1.7307756585,-9.5221590835,1.582401044,-2.3114,1.3293,1.6903,2.999999999997449e-05,9.999999999998899e-05,-9.99999999995449e-06,0.0011868499586780157,0.0005492861468570087,0.0001893869497193723
150000000000.0,1,0.0159063863,-0.07114724574999999,-0.01124822755,0.005787,0.009746,0.003021,-1.7307756585,-9.5221590835,1.582401044,-2.3115,1.3293,1.6904,2.0000000000020002e-05,-9.999999999998899e-05,-1.0000000000065512e-05,-0.0011323432938452616,-0.00034911289610195517,-0.00013654665326456872
150000000000.0,1,0.01787752295,-0.0714512519,-0.0088455983,0.004708,0.007625,0.001954,-1.7305795254999998,-9.5221590835,1.5825971769999998,-2.3115,1.3293,1.6905,2.0000000000020002e-05,9.999999999998899e-05,-1.0000000000065512e-05,-0.0005414565883867795,-0.00023108008638716981,-0.00014574785794341238
150000000000.0,1,0.020505705149999998,-0.06390993805,-0.0235555733,0.006852,0.007609,-0.000178,-1.730285326,-9.5221590835,1.5825971769999998,-2.3117,1.3293,1.6907,5.999999999994898e-05,1.2499999999970868e-05,2.0000000000020002e-05,0.0002662710223444442,0.00010457741783564956,2.6125541945809516e-05
150000000000.0,1,0.023712479699999997,-0.0405014645,-0.027615526399999996,0.004703,0.00656,0.000886,-1.7299911265,-9.52225715,1.5824991105000001,-2.3117,1.3294,1.6908,2.999999999997449e-05,1.2499999999970868e-05,-2.0000000000020002e-05,0.00017605870608616847,1.2171141900996219e-06,9.214070138141572e-05
150000000000.0,1,0.009267284249999999,-0.025556129899999995,-0.02391841935,0.006805,0.003345,0.001962,-1.7299911265,-9.52225715,1.5826952435,-2.3118,1.3294,1.691,7.00000000000145e-05,1.2499999999970868e-05,-9.99999999995449e-06,0.00027518077792620943,-0.00011706863803362388,5.362336809744406e-05
150000000000.0,1,-0.00540346415,-0.02144714355,-0.0206724182,0.008952,0.004394,0.000897,-1.7300891929999997,-9.5221590835,1.5830875094999999,-2.3118,1.3293,1.6911,-9.99999999995449e-06,1.2499999999970868e-05,-4.999999999921734e-06,-0.0005003362305107117,0.00022455508383911749,-0.0007782548841190895
150000000000.0,1,-0.02019189235,-0.028154892149999996,-0.007021561399999999,0.006787,0.001214,0.001967,-1.7303833924999998,-9.522061016999999,1.5834797754999999,-2.3119,1.3293,1.6912,0.00012000000000000899,1.2500000000192912e-05,-5.000000000032756e-06,0.0001429947959161737,-0.0002200875025168969,0.000577137361430502
150000000000.0,1,-0.0206724182,-0.0332053169,-0.0015298374,0.003614,0.003374,-0.000177,-1.730677592,-9.521864884,1.583773975,-2.3119,1.3292,1.6912,-2.0000000000020002e-05,1.2499999999970868e-05,9.99999999995449e-06,0.0004287342768580782,-0.0002673867027558341,-0.0008679770883877058
150000000000.0,1,-0.026468148349999998,-0.024791211199999996,-0.0018632635,0.002527,0.002316,0.001959,-1.7311679244999998,-9.5217668175,1.583970108,-2.3118,1.3292,1.6912,2.999999999997449e-05,1.2499999999970868e-05,-2.0000000000020002e-05,6.988254968809393e-05,0.0002570757293987036,-0.0003349298732227002
150000000000.0,1,-0.03190103245,-0.01921122735,-0.000392266,0.002552,0.003385,-0.001244,-1.7315601905,-9.521668751,1.5841662409999997,-2.3118,1.3291,1.6911,6.0000000000060005e-05,1.2499999999970868e-05,2.0000000000020002e-05,0.00014674696667160703,-0.00017103550711361493,0.00020137352595384073
150000000000.0,1,-0.02313388735,-0.01258193195,0.0014906108,0.004688,0.004432,-0.000174,-1.7319524564999997,-9.521570684499999,1.584362374,-2.3117,1.3291,1.6911,1.999999999990898e-05,5.0000000000105516e-05,-9.99999999995449e-06,-0.000753020821155026,-0.00013802546482533096,-0.0005929443932668477
150000000000.0,1,0.00065704555,-0.00969877685,0.021623663249999998,0.004698,0.005497,-0.000176,-1.7319524564999997,-9.521472617999999,1.5850488395,-2.3119,1.329,1.6914,6.0000000000060005e-05,4.999999999988347e-05,-3.0000000000085514e-05,0.0009606759848772572,0.00012134429895538368,-4.8325519194536426e-05
150000000000.0,1,0.01591619295,-0.015808319799999998,0.0335583563,0.00576,0.005487,0.000893,-1.73185439,-9.5213745515,1.585931438,-2.3123,1.329,1.6918,3.999999999992898e-05,3.333333333332966e-05,-9.99999999995449e-06,-6.0836573017253315e-05,1.0854428065254496e-05,0.00030936392833535997
150000000000.0,1,0.014778621550000001,-0.02427145875,0.03176373935,0.00367,0.010832,0.000879,-1.7317563235,-9.521276485,1.5866179034999999,-2.3125,1.329,1.6921,-3.999999999992898e-05,3.333333333332966e-05,-9.99999999995449e-06,-0.00106720524501136,-0.0004442002192974748,-0.00011971846256275676
150000000000.0,1,0.00967916355,-0.0320285189,0.0442279915,0.000491,0.014053,0.001934,-1.73185439,-9.5211784185,1.587108236,-2.3126,1.3289,1.6924,4.999999999999449e-05,3.333333333332966e-05,9.99999999995449e-06,-0.000431301159640185,8.023076883234559e-05,0.00018450654255453003
150000000000.0,1,0.0190837409,-0.044836003799999996,0.04859195075,0.001584,0.01724,0.00193,-1.73185439,-9.521080351999998,1.5876966349999997,-2.3128,1.3289,1.6927,-1.0000000000065512e-05,3.333333333332966e-05,-2.0000000000020002e-05,0.0006596859394956134,0.00010941542173803498,-0.0014024739126123897
150000000000.0,1,0.023751706299999998,-0.048170264799999994,0.05419154789999999,0.000584,0.024708,0.000846,-1.7317563235,-9.520982285499999,1.5880889009999999,-2.313,1.3288,1.6931,7.00000000000145e-05,3.333333333332966e-05,-2.0000000000020002e-05,-0.0025837975872611274,0.00026515143766392413,0.0013884502591943182
150000000000.0,1,0.0313616667,-0.0243008787,0.0650769294,0.00167,0.026829,0.000843,-1.7315601905,-9.520884219,1.5886772999999998,-2.3132,1.3288,1.6935,4.0000000000040004e-05,3.333333333332966e-05,3.0000000000085514e-05,0.0018153412362560406,-0.00010344517097027328,-0.0012378274843942716
150000000000.0,1,0.03647093135,-0.0028341218499999994,0.04590492865,0.003797,0.025746,0.000847,-1.7314621239999999,-9.520884219,1.5893637655,-2.3134,1.3288,1.694,2.999999999997449e-05,2.4999999999941735e-05,-1.0000000000065512e-05,-0.0013482124141837026,6.009913566584757e-06,0.0006036832481250975
150000000000.0,1,0.0413448364,-0.007423634049999999,0.022368968649999998,0.009151,0.028893,0.001866,-1.7313640575,-9.5207861525,1.5899521644999999,-2.3137,1.3287,1.6945,4.0000000000040004e-05,2.4999999999941735e-05,-9.99999999995449e-06,0.00044542466379371426,-5.849210157560236e-05,0.00023610651451755338
150000000000.0,1,0.03197948565,0.004981778199999999,0.0055701772,0.012338,0.027799,0.00294,-1.7315601905,-9.520590019499998,1.5907366964999998,-2.3138,1.3287,1.695,2.999999999997449e-05,2.500000000016378e-05,-1.0000000000065512e-05,-0.00032717178750907294,-0.00020244355479426268,0.0002826345111608397
150000000000.0,1,0.03764772935,0.0107677017,-0.00534462425,0.014453,0.026714,0.005079,-1.73185439,-9.520393886499999,1.5916192949999999,-2.314,1.3286,1.6955,2.999999999997449e-05,2.4999999999941735e-05,-9.99999999995449e-06,-0.00024489811823236174,6.917794299110547e-05,3.905909395185425e-05
150000000000.0,1,0.0375986961,0.0037069137,-0.012827098199999998,0.013397,0.028852,0.006139,-1.7322466559999998,-9.5201977535,1.5923057604999997,-2.3141,1.3285,1.6958,4.0000000000040004e-05,5.0000000000105516e-05,-1.0000000000065512e-05,0.0002236988989547939,-1.8074038846460638e-05,0.0005000693726930905
150000000000.0,1,0.016180972499999998,-0.0394619596,-0.0027556686499999998,0.012322,0.027795,0.006138,-1.7329331215,-9.5200016205,1.592796093,-2.3141,1.3284,1.6961,4.0000000000040004e-05,4.999999999988347e-05,-9.99999999995449e-06,-0.00019247039980907488,0.00030503271388759856,-8.865246150069339e-06
150000000000.0,1,0.023751706299999998,-0.08723995839999998,0.0023241760499999996,0.005948,0.029981,0.003987,-1.733227321,-9.519903553999999,1.592796093,-2.314,1.3284,1.6963,2.999999999997449e-05,3.333333333332966e-05,-9.99999999995449e-06,0.0003449829051969111,-0.0001519655144481824,6.574295230166172e-05
150000000000.0,1,0.023428086849999998,-0.08346439815,-0.0030204482,0.002735,0.027877,0.002917,-1.7333253874999999,-9.5200016205,1.5925018935,-2.3139,1.3284,1.6965,2.999999999997449e-05,3.333333333355171e-05,9.99999999995449e-06,0.0005014479546083805,0.00024059203445059296,0.0004542084444594252
150000000000.0,1,0.031008627299999997,-0.0656457151,-0.018858187949999997,-0.000461,0.027904,0.001842,-1.7333253874999999,-9.520099687,1.5915212284999998,-2.3136,1.3285,1.6965,2.999999999997449e-05,3.333333333332966e-05,9.99999999995449e-06,0.0006349198795037037,-0.00021268436025301263,0.0002303236472156467
150000000000.0,1,0.048366397799999995,-0.043355199649999995,-0.0162594257,-0.004727,0.026876,-0.0003,-1.7328350549999998,-9.520393886499999,1.5903444305,-2.3133,1.3286,1.6965,0.0001100000000000545,4.999999999988347e-05,8.000000000008001e-05,0.0005324314445744882,-0.0006573389550172948,0.001172105795345324
150000000000.0,1,0.05886931994999999,-0.021349077049999998,-0.02011343915,-0.002592,0.025794,-0.002432,-1.7321485895,-9.5207861525,1.5891676325,-2.3132,1.3287,1.6966,4.999999999999449e-05,5.0000000000105516e-05,-1.0000000000065512e-05,-7.620772949490373e-05,9.113641298763575e-05,0.00028475535792704676
150000000000.0,1,0.06991160785,-0.0042756994,-0.01568083335,-0.000484,0.02258,-0.002425,-1.731069858,-9.521080351999998,1.588481167,-2.3133,1.3289,1.6969,7.999999999996898e-05,5.0000000000105516e-05,1.0000000000065512e-05,0.0008810640556329297,5.516455239185092e-05,0.0001334487361903669
150000000000.0,1,0.058810480049999996,-0.006913688249999999,0.0025105023999999997,0.001641,0.021496,-0.002422,-1.7300891929999997,-9.521276485,1.5882850339999999,-2.3135,1.329,1.6973,4.999999999999449e-05,4.999999999988347e-05,-2.0000000000020002e-05,-0.0003218505220843326,-0.00019441003854070438,0.00044214350120030943
150000000000.0,1,0.055731191949999995,-0.0059036033,0.008835791649999999,0.005886,0.019328,-0.001346,-1.7293046609999998,-9.5213745515,1.5885792335,-2.3138,1.329,1.6979,6.0000000000060005e-05,2.4999999999941735e-05,9.99999999995449e-06,-0.0004892123675839244,-9.130740037832652e-06,0.00011673846473714278
150000000000.0,1,0.05237731765,-0.00901231135,0.01466094175,0.003746,0.020407,0.001849,-1.7288143285,-9.5213745515,1.5888734329999998,-2.314,1.329,1.6983,6.999999999990347e-05,2.4999999999941735e-05,1.0000000000065512e-05,-0.0007093601912340208,-0.00017105305530229487,0.0005406546270243506
150000000000.0,1,0.043894565399999995,-0.013405690549999998,0.034852834099999994,0.002652,0.018282,0.003984,-1.7285201289999998,-9.5213745515,1.589461832,-2.3143,1.329,1.6987,3.0000000000085514e-05,2.500000000016378e-05,-2.999999999997449e-05,0.0002763522378808059,8.932485406720758e-05,-2.6447156243891712e-05
150000000000.0,1,0.029410143349999997,-0.0053348176,0.050808253649999996,0.002631,0.016149,0.005054,-1.7287162619999998,-9.5211784185,1.590246364,-2.3145,1.3289,1.6991,-7.00000000000145e-05,2.4999999999941735e-05,-1.0000000000065512e-05,0.001968095161580141,-0.00014994393961065278,-0.0007305251570235427
150000000000.0,1,0.026487761649999997,-0.00812971285,0.0605266438,0.002606,0.014015,0.007191,-1.729108528,-9.520982285499999,1.5913250954999998,-2.3147,1.3288,1.6994,4.999999999999449e-05,3.333333333332966e-05,-4.999999999921734e-06,-4.988996405796975e-05,-0.00011094348295892509,0.00029598372513750526
150000000000.0,1,0.024467591749999996,-0.020084019199999997,0.06863674335,0.003669,0.014004,0.008259,-1.7295988605,-9.520688086,1.5925018935,-2.3149,1.3287,1.6998,9.999999999998899e-05,3.333333333332966e-05,-5.000000000032756e-06,-0.001458599489580159,0.0001381520293575189,0.0006341395536826333
150000000000.0,1,0.02886097095,-0.02382035285,0.06608701435,0.003626,0.009739,0.0104,-1.7300891929999997,-9.520393886499999,1.5936786914999999,-2.3152,1.3286,1.7001,-2.0000000000020002e-05,3.333333333332966e-05,-3.0000000000085514e-05,0.00033972708573437593,-0.0003239987413821144,2.6202068686087543e-05
150000000000.0,1,0.0472288264,-0.0035892338999999997,0.06567513505,0.003617,0.007608,0.009334,-1.7303833924999998,-9.520099687,1.5950516224999998,-2.3155,1.3285,1.7005,2.0000000000020002e-05,-1.6666666666775853e-05,-1.4999999999987246e-05,-5.810849597276402e-05,8.514732639408606e-05,0.0002043092474512953
150000000000.0,1,0.05930081255,0.01069905515,0.052308671099999995,0.006824,0.007582,0.00827,-1.730285326,-9.519903553999999,1.5964245535,-2.316,1.3284,1.701,2.0000000000020002e-05,-1.666666666655381e-05,-1.4999999999987246e-05,0.0006672445964492901,-8.726594977992441e-05,0.00038557828637308944
150000000000.0,1,0.0697252815,0.010473502199999998,0.05147510585,0.011073,0.00435,0.007213,-1.7299911265,-9.5196093545,1.598091684,-2.3166,1.3283,1.7017,2.999999999997449e-05,-1.666666666655381e-05,-2.0000000000020002e-05,-0.0015108922953250836,0.0002219360929698322,-0.0003246499914133505
150000000000.0,1,0.06624392074999999,0.012905551399999998,0.045483242699999996,0.014278,0.003259,0.005083,-1.7295007939999998,-9.519413221499999,1.6002491469999998,-2.3174,1.3282,1.7025,4.0000000000040004e-05,-1.6666666666775853e-05,-1.999999999990898e-05,0.0005048950074240111,0.00023527017447100285,0.0002024437159575676
150000000000.0,1,0.06002650464999999,-0.013876409749999999,0.0515241391,0.01637,-0.002088,0.005094,-1.7288143285,-9.519119022,1.6027008095,-2.3184,1.328,1.7035,-3.0000000000085514e-05,-1.6666666666775853e-05,-1.0000000000065512e-05,0.00019497653416822303,-0.0003213852480719037,-0.0001184428185423414
150000000000.0,1,0.0419136221,-0.0442868314,0.035137226949999996,0.009976,-0.002035,0.004013,-1.728323996,-9.518922888999999,1.6042698735,-2.319,1.328,1.7041,4.0000000000040004e-05,-1.666666666655381e-05,-3.999999999992898e-05,-0.0012035239072054615,0.00014042317632423362,6.902552241250248e-05
150000000000.0,1,0.026193562150000002,-0.0837291777,0.0245558516,0.003559,-0.001986,0.007203,-1.7281278629999999,-9.5188248225,1.6050544055,-2.3193,1.3279,1.7043,2.0000000000020002e-05,9.999999999998899e-05,3.3333333333551707e-06,0.00015860401026324134,0.00015420293636703164,-9.360922227474866e-05
150000000000.0,1,0.02933169015,-0.08520998185,0.03003776895,-0.002811,0.001264,0.006117,-1.7280297965,-9.5188248225,1.6050544055,-2.3193,1.3279,1.7044,-2.0000000000020002e-05,-4.999999999988347e-05,3.3333333332441484e-06,0.00040032886325103156,-0.00025711009325646295,-0.00013649468931364872
150000000000.0,1,0.049327449499999995,-0.06280178659999999,0.014749201599999998,-0.005997,0.004484,0.008238,-1.7278336635,-9.518922888999999,1.6046621394999998,-2.3192,1.328,1.7043,1.0000000000065512e-05,-5.0000000000105516e-05,3.3333333333551707e-06,-0.00047270783545316775,0.00022367687565094663,-0.00020528754678528216
150000000000.0,1,0.07587405104999999,-0.027488039949999998,0.00044129925,-0.003894,0.001268,0.009312,-1.7274413974999998,-9.519119022,1.604171807,-2.3192,1.328,1.7043,-2.0000000000020002e-05,-1.999999999990898e-05,-4.0000000000040004e-05,-0.00034923690630761506,0.00016664612917649535,2.1428618062868665e-05
150000000000.0,1,0.07839436009999999,0.0013140911,-0.007766866799999999,0.002487,-0.001981,0.008258,-1.726951065,-9.519119022,1.6042698735,-2.3194,1.3281,1.7044,-5.000000000032756e-06,-2.0000000000131024e-05,1.0000000000065512e-05,0.0009600625531793749,-0.00010273567815732854,0.00011339673070209777
150000000000.0,1,0.08568070104999999,0.01368027675,-0.051239746249999996,0.008853,-0.006296,0.008274,-1.726362666,-9.5192170885,1.60436794,-2.3196,1.3281,1.7046,-5.000000000032756e-06,-1.999999999990898e-05,-4.999999999999449e-05,0.0004761358909772806,-0.00034018444105932133,-8.985448273324259e-05
150000000000.0,1,0.07992419749999999,0.01538663385,-0.06314501935,0.013107,-0.008462,0.007215,-1.7256762004999997,-9.519315155,1.604760206,-2.3199,1.3281,1.7048,-3.999999999992898e-05,-2.0000000000131024e-05,-7.00000000000145e-05,-0.001612591208885794,0.000694438472846004,-0.0011659881160952512
150000000000.0,1,0.07924753864999999,0.00705098135,-0.0579376882,0.012064,-0.005257,0.007204,-1.7249897349999999,-9.519413221499999,1.6051524719999999,-2.3202,1.3281,1.7051,3.999999999992898e-05,-1.999999999990898e-05,-4.0000000000040004e-05,-0.00029168848180982643,-4.352683042885275e-05,0.00010490674495433616
150000000000.0,1,0.07012735415,0.021260817199999997,-0.05202427824999999,0.01204,-0.007389,0.008273,-1.7244994025,-9.519315155,1.6057408709999998,-2.3205,1.3281,1.7053,6.0000000000060005e-05,-3.333333333332966e-05,-3.999999999992898e-05,-0.00033885216706530663,2.5712911281727813e-05,2.9068724028968873e-05
150000000000.0,1,0.05447594075,0.02995931575,-0.04296293365,0.010968,-0.005254,0.012535,-1.7246955355,-9.5192170885,1.6062312035,-2.3206,1.3281,1.7053,2.0000000000020002e-05,-3.333333333332966e-05,-6.0000000000060005e-05,-0.0002524471821989671,4.781749975091287e-06,-5.7688075745687684e-05
150000000000.0,1,0.04610106165,0.007178467799999999,-0.014268675749999998,0.005602,-0.008408,0.013597,-1.7251858679999998,-9.5190209555,1.606917669,-2.3207,1.328,1.7053,9.99999999995449e-06,-3.333333333332966e-05,-4.999999999999449e-05,0.0004832081451948689,0.00011340797131320635,-0.00023302153293203176
150000000000.0,1,0.02544825675,-0.028409865049999997,-0.0001176798,0.0056,-0.007345,0.015729,-1.7260684665,-9.518726756,1.607506068,-2.3206,1.3279,1.7052,5.999999999994898e-05,-9.999999999998899e-05,-9.99999999995449e-06,-4.073243773783375e-05,2.6242231798923044e-05,0.0002478499594849026
150000000000.0,1,0.014288289049999998,-0.0677639515,0.012356378999999999,0.004545,-0.005206,0.01679,-1.7272452645,-9.518432556499999,1.6080944669999997,-2.3205,1.3278,1.705,2.0000000000020002e-05,-5.0000000000105516e-05,-2.0000000000020002e-05,-0.0004108800084201558,0.0004250908249079366,-0.0002849762878021078
150000000000.0,1,0.0186522483,-0.10751030395,0.024340105299999998,0.00242,-0.004124,0.016783,-1.7281278629999999,-9.5182364235,1.608486733,-2.3204,1.3277,1.7048,4.999999999999449e-05,-5.0000000000105516e-05,-2.999999999997449e-05,0.0005127686733077397,0.00011170936687765476,0.00013080050072034055
150000000000.0,1,0.01417060925,-0.1025971723,0.034127142,-0.001823,-0.00302,0.01357,-1.728912395,-9.5180402905,1.6087809325,-2.3202,1.3276,1.7046,9.999999999998899e-05,-4.999999999988347e-05,-1.0000000000065512e-05,-0.0011960371907884237,-0.00020128498535831874,0.00044769751564155413
150000000000.0,1,0.03541181315,-0.08956413445,0.0465227476,0.000328,-0.003036,0.010369,-1.7290104615,-9.517942223999999,1.6093693315,-2.3204,1.3275,1.7047,-2.999999999997449e-05,-5.0000000000105516e-05,-9.99999999995449e-06,0.0003818204292131977,0.0005308925846625456,-0.0007466750541318401
150000000000.0,1,0.04919996305,-0.05746696899999999,0.04366901245,0.000354,-0.001968,0.007163,-1.7287162619999998,-9.517844157499999,1.6101538635,-2.3207,1.3275,1.7049,2.999999999997449e-05,-5.0000000000105516e-05,-1.4999999999987246e-05,0.0004239314131579963,-0.0001077601992163224,0.00017595436006456744
150000000000.0,1,0.057192382800000004,-0.035460846399999996,0.027713592899999997,0.003546,-0.005188,0.00397,-1.7280297965,-9.517844157499999,1.6108403289999997,-2.3211,1.3275,1.7053,3.0000000000085514e-05,-4.999999999988347e-05,-1.4999999999987246e-05,-0.0006837345621781843,-4.7215855213833535e-05,8.283891562888002e-05
150000000000.0,1,0.03792231555,-0.00495235825,0.0071392412,0.002482,-0.004116,0.005032,-1.7278336635,-9.517844157499999,1.611232595,-2.3213,1.3275,1.7055,2.999999999997449e-05,-4.999999999988347e-05,-1.333333333330966e-05,-0.00014796214449375178,0.00025223779834759874,0.00019371461512940336
150000000000.0,1,0.03419578855,0.014886494699999999,-0.0030989013999999995,0.006743,-0.00628,0.002907,-1.727539464,-9.517746091,1.611820994,-2.3216,1.3275,1.7057,2.0000000000020002e-05,-5.0000000000105516e-05,-1.3333333333420683e-05,-0.00023027123550423134,-3.615587817096255e-05,-0.00022553003121639215
150000000000.0,1,0.024732371299999997,0.02291814105,0.00644296905,0.009951,-0.004178,0.005043,-1.7274413974999998,-9.517549958,1.6130958585,-2.322,1.3274,1.706,2.999999999997449e-05,-5.0000000000105516e-05,-1.333333333330966e-05,0.0007666564862638392,-0.000395669500937057,0.0003646166119894989
150000000000.0,1,0.02091758445,0.00246146915,0.00828661925,0.013121,-0.007402,0.006121,-1.727539464,-9.517353824999999,1.614566856,-2.3224,1.3273,1.7064,4.0000000000040004e-05,-4.999999999988347e-05,-2.999999999997449e-05,-0.0003858077290588291,0.00038821789460619094,-0.0003730884701766968
150000000000.0,1,0.020025179299999998,-0.016945891199999997,0.00559959715,0.012031,-0.009526,0.007189,-1.727735597,-9.5170596255,1.6158417205,-2.3228,1.3272,1.7067,5.999999999994898e-05,-3.333333333332966e-05,-3.0000000000085514e-05,-0.0002305938579016953,-5.680858012846457e-05,-0.00022585993659696157
150000000000.0,1,0.018642441649999997,-0.0248108245,-0.0063939358,0.009878,-0.010576,0.009321,-1.7279317299999999,-9.5168634925,1.6169204519999998,-2.323,1.3271,1.7068,2.0000000000020002e-05,-3.333333333332966e-05,-1.999999999990898e-05,0.0005690424877258238,-0.0003746436665652553,-0.00024408194180258747
150000000000.0,1,0.016239812399999998,-0.030841914249999994,-0.0067763951499999996,0.00455,-0.008403,0.011442,-1.7285201289999998,-9.5166673595,1.617508851,-2.323,1.327,1.7067,9.00000000000345e-05,-3.333333333332966e-05,-2.0000000000020002e-05,-0.0007279509363657954,0.00015889589304607377,0.0001304450856258743
150000000000.0,1,0.0083552658,-0.026556408199999996,-0.00065704555,0.001344,-0.008378,0.012503,-1.7293046609999998,-9.5164712265,1.6178030505,-2.3229,1.3269,1.7065,2.999999999997449e-05,-9.999999999998899e-05,-4.0000000000040004e-05,0.0004111397350810009,-0.0002646187644068654,-8.450405721038834e-05
150000000000.0,1,0.01464132845,-0.020466478549999997,0.01275845165,0.000294,-0.006238,0.012497,-1.7300891929999997,-9.5162750935,1.61809725,-2.3228,1.3268,1.7063,2.0000000000020002e-05,-2.4999999999941735e-05,3.3333333333551707e-06,0.0008432150197779098,-2.6482478219014283e-05,-0.0003058310770585049
150000000000.0,1,0.02413416565,-0.0131605243,0.013327237349999998,0.001362,-0.006248,0.012498,-1.7307756585,-9.5160789605,1.618489516,-2.3227,1.3268,1.7061,4.999999999999449e-05,-2.4999999999941735e-05,3.3333333333551707e-06,1.994666827620506e-05,0.0009543743330360233,-0.0001482405431363354
150000000000.0,1,0.02737036015,-0.03284247085,0.0180834626,0.005621,-0.007349,0.012506,-1.731265991,-9.5158828275,1.6192740479999999,-2.3228,1.3267,1.7061,9.99999999995449e-06,-2.500000000016378e-05,3.3333333333551707e-06,0.0011317523805958185,-0.00013882750454041748,0.0002110994374489028
150000000000.0,1,0.015474893699999999,-0.039697319200000004,0.010944221399999999,0.005602,-0.008417,0.014642,-1.7321485895,-9.515588628,1.6199605135,-2.3227,1.3265,1.706,5.999999999994898e-05,-2.4999999999941735e-05,-3.0000000000085514e-05,-0.0005977784396027364,3.7435275350938824e-05,-0.0002708698412534627
150000000000.0,1,0.0174362237,-0.04278641395,0.008973084749999999,0.005623,-0.008413,0.010371,-1.7327369885000001,-9.515294428499999,1.6207450454999999,-2.3228,1.3264,1.706,6.0000000000060005e-05,-5.0000000000105516e-05,-2.999999999997449e-05,0.0002192233920141895,-7.742360447693386e-05,0.00025510045638688084
150000000000.0,1,0.01872089485,-0.0373241099,0.0183972754,0.004583,-0.005208,0.010363,-1.733227321,-9.5150982955,1.6214315109999997,-2.3229,1.3263,1.706,9.99999999995449e-06,-4.999999999988347e-05,-2.0000000000020002e-05,-0.00029613090607583104,0.0003378882690121543,-0.0007324792367930932
150000000000.0,1,0.01621039245,-0.01179739995,0.014092156049999999,0.001374,-0.006247,0.010358,-1.7339137864999998,-9.514902162499999,1.62201991,-2.3229,1.3263,1.7059,4.999999999999449e-05,-3.333333333332966e-05,2.0000000000020002e-05,0.0010928197578299326,-0.0001609705644705084,-6.092059584927867e-05
150000000000.0,1,0.01256231865,-0.01083634825,0.020750871399999996,0.003513,-0.006264,0.009294,-1.7344041189999997,-9.514607963,1.6229025085,-2.323,1.3262,1.7059,7.00000000000145e-05,-3.333333333332966e-05,-2.999999999997449e-05,-0.0013799590574326004,8.080338768601258e-05,5.70189752293615e-05
150000000000.0,1,0.013435110499999998,-0.02737036015,0.026203368799999998,0.003514,-0.006264,0.009293,-1.7348944515,-9.514411829999998,1.6236870405,-2.3231,1.3261,1.706,-9.99999999995449e-06,-3.333333333332966e-05,-2.0000000000020002e-05,0.0015549398774989953,7.995943883365442e-05,-0.0005806725261665591
150000000000.0,1,0.004167826249999999,-0.024153778949999996,0.023163307299999998,0.002456,-0.00519,0.009289,-1.7354828504999997,-9.514215697,1.624373506,-2.3231,1.326,1.706,0.00012999999999996348,9.999999999998899e-05,-2.0000000000020002e-05,-0.0008329994016569309,-0.0004081914931788333,-8.485330055663098e-05
150000000000.0,1,0.004393379199999999,-0.0079826131,0.02199631595,0.005649,-0.006282,0.009296,-1.736169316,-9.513921497499998,1.625354171,-2.3232,1.3258,1.706,5.000000000032756e-06,-9.999999999998899e-05,-2.999999999997449e-05,-0.00045765614437720537,0.0004976172099802056,-0.00029971515505233803
150000000000.0,1,0.01075789505,0.005021004799999999,0.00967916355,0.006697,-0.007359,0.011435,-1.736953848,-9.513627298,1.6263348359999998,-2.3233,1.3257,1.706,5.000000000032756e-06,-1.999999999990898e-05,-2.0000000000020002e-05,0.0003356986296001452,0.00012308521456683152,-0.0008097568931417776
150000000000.0,1,0.01797558945,-0.008757338449999999,-0.0028047019,0.007756,-0.006306,0.014636,-1.7379345129999997,-9.513235032,1.627119368,-2.3233,1.3256,1.7059,7.999999999996898e-05,-2.0000000000131024e-05,1.0000000000065512e-05,-0.00023308270972033363,1.6905187062432603e-05,0.0005645447255051561
150000000000.0,1,0.0187503148,-0.024016485849999998,-0.0024810824500000003,0.007756,-0.006306,0.014635,-1.7388171115,-9.513038899,1.6278058334999999,-2.3232,1.3255,1.7058,4.999999999999449e-05,-1.999999999990898e-05,-4.0000000000040004e-05,0.0014014830520037158,-0.0005510671331820927,-0.0009553647133029308
150000000000.0,1,0.018103075899999998,-0.0349705139,0.00803164635,0.006676,-0.007364,0.015702,-1.7397977765000001,-9.512646633,1.628688432,-2.3232,1.3253,1.7057,4.0000000000040004e-05,-2.0000000000131024e-05,-6.0000000000060005e-05,0.00011178081560214714,0.0001304770859644755,-0.00023363171265944338
150000000000.0,1,0.0030989013999999995,-0.0547603336,0.0053348176,0.00562,-0.005225,0.016763,-1.7411707075,-9.5123524335,1.629276831,-2.323,1.3252,1.7054,-3.0000000000085514e-05,-1.999999999990898e-05,-6.999999999990347e-05,-0.0010425701562997158,0.0003423242005191618,-0.0003801728059984466
150000000000.0,1,0.0031087080499999998,-0.06700883945,0.015053207749999999,0.00137,-0.003059,0.016751,-1.7423475055,-9.512058234,1.6295710305,-2.3228,1.3251,1.7051,0.00012000000000000899,-4.999999999988347e-05,2.999999999997449e-05,0.0009799563059635918,-0.00024342249201980692,-0.0002801477707075062
150000000000.0,1,0.013454723799999999,-0.060183411049999996,0.012425025549999998,0.002453,-0.003065,0.01355,-1.743230104,-9.511862101,1.6298652299999998,-2.3226,1.325,1.7049,-9.999999999998899e-05,-5.0000000000105516e-05,-4.999999999999449e-05,-0.0010234531871706753,0.0005862209305322885,0.0004327681269262751
150000000000.0,1,0.0436395925,-0.058506473899999994,0.004707192,0.003542,-0.000942,0.012479,-1.74362237,-9.511764034499999,1.630061363,-2.3225,1.3249,1.7048,0.0001100000000000545,-6.666666666665932e-05,2.999999999997449e-05,0.001126159818082062,-0.000383063385783311,-0.00044917693971679995
150000000000.0,1,0.058692800249999996,-0.0464050678,-0.006717555249999999,0.003581,0.00332,0.011401,-1.7437204364999999,-9.511665967999999,1.6301594294999997,-2.3225,1.3249,1.7048,9.99999999995449e-06,-6.666666666665932e-05,-9.99999999995449e-06,-0.00030513260536624287,0.00022376098798226884,3.9592571024815726e-05
150000000000.0,1,0.059781338399999995,-0.05069057385,-0.0282235387,0.002513,0.003329,0.011397,-1.743818503,-9.511764034499999,1.6297671635,-2.3224,1.3249,1.7047,6.0000000000060005e-05,-6.666666666665932e-05,-3.0000000000085514e-05,-0.0020154889002168552,0.0006055973883285493,0.00045150917207026353
150000000000.0,1,0.0538777351,-0.03735352985,-0.02678196115,0.003598,0.004387,0.00926,-1.7439165694999998,-9.511764034499999,1.6295710305,-2.3223,1.3249,1.7046,7.999999999996898e-05,-9.999999999998899e-05,1.0000000000065512e-05,-0.0005598019550587807,7.338601586748261e-05,0.0009428334598773347
150000000000.0,1,0.06132098245,-0.02011343915,-0.03262672455,0.004673,0.005444,0.009257,-1.743818503,-9.511764034499999,1.6293748974999998,-2.3223,1.325,1.7046,3.999999999992898e-05,-3.333333333332966e-05,9.99999999995449e-06,0.0007743103025437126,-0.0004468674447497545,1.7150209298266716e-05
150000000000.0,1,0.07255940335,-0.026281822,-0.03080268765,0.003615,0.005454,0.007118,-1.7434262369999998,-9.511862101,1.629276831,-2.3224,1.325,1.7048,1.0000000000065512e-05,-3.333333333332966e-05,-3.999999999992898e-05,-0.00046425190666643523,0.0004344811997500919,-0.0003570431061199475
150000000000.0,1,0.0719023578,-0.03590214565,-0.025144250599999998,0.004721,0.009708,0.006042,-1.7429359045,-9.512058234,1.6290806979999999,-2.3225,1.3251,1.7049,7.00000000000145e-05,-3.333333333332966e-05,1.999999999990898e-05,0.001051537162862548,-0.0004634577729776268,0.000576740079382354
150000000000.0,1,0.07455995995,-0.04033475145,-0.036323831599999995,0.00256,0.006528,0.006041,-1.742249439,-9.512254366999999,1.6285903654999998,-2.3225,1.3251,1.705,8.999999999992347e-05,-9.999999999998899e-05,-1.999999999990898e-05,-0.0007253308174566264,3.912442579045994e-05,0.0005189730756751665
150000000000.0,1,0.05619210449999999,-0.04812123155,-0.030361388399999995,0.001504,0.008667,0.0071,-1.7419552395,-9.5123524335,1.628100033,-2.3224,1.3252,1.705,0.0001100000000000545,-4.999999999988347e-05,9.99999999995449e-06,0.00058372591149225,-0.00013437033897312212,0.0006769786561131586
150000000000.0,1,0.04749360595,-0.03272479105,-0.020790097999999996,-0.002747,0.010832,0.007087,-1.7419552395,-9.5125485665,1.627315501,-2.3222,1.3253,1.7049,4.0000000000040004e-05,-5.0000000000105516e-05,-2.999999999997449e-05,-0.0009163729072572124,9.788175063207838e-05,-0.0003035723152455816
150000000000.0,1,0.03629441165,-0.011866046499999998,-0.01740680375,-0.001703,0.008691,0.008158,-1.7423475055,-9.5125485665,1.6266290354999997,-2.3219,1.3253,1.7047,3.999999999992898e-05,-5.0000000000105516e-05,-2.999999999997449e-05,0.00010503420687690834,0.00035694727204926835,4.5985162542727664e-05
150000000000.0,1,0.0178088764,-0.0038834333999999996,0.005060231399999999,-0.000676,0.004419,0.009234,-1.7429359045,-9.5124505,1.6264329025,-2.3216,1.3252,1.7045,7.00000000000145e-05,-4.999999999988347e-05,9.99999999995449e-06,-0.00040007495819516237,-8.104479230630623e-05,0.00021213872354097774
150000000000.0,1,-0.0007747253499999999,-0.01413138265,0.0194760069,0.003569,0.000124,0.007114,-1.7437204364999999,-9.512254366999999,1.6270213015,-2.3216,1.3251,1.7044,9.99999999995449e-06,-9.999999999998899e-05,-4.999999999999449e-05,-0.0002597966484370051,0.0005572797435691168,-0.0018645770430862907
150000000000.0,1,-0.024565658249999997,-0.0351862602,0.03284247085,0.00251,-0.00093,0.003913,-1.744406902,-9.5119601675,1.6277077669999998,-2.3216,1.325,1.7044,3.0000000000085514e-05,-5.0000000000105516e-05,4.999999999921734e-06,0.0006819954500882908,-0.00035464188489764403,0.0004310290794196092
150000000000.0,1,-0.028125472199999998,-0.06142885559999999,0.0487978904,-0.002801,0.001246,0.002833,-1.7450933674999998,-9.511764034499999,1.6281980995,-2.3216,1.325,1.7044,7.00000000000145e-05,-5.0000000000105516e-05,5.000000000032756e-06,-0.00014487383119599073,0.00022019312056831275,0.0003553584149793565
150000000000.0,1,-0.0224964551,-0.07547197839999999,0.06208590115,-0.007067,0.001281,0.002826,-1.7454856335,-9.511665967999999,1.6284922990000001,-2.3215,1.3249,1.7044,4.999999999999449e-05,-5.0000000000105516e-05,1.0000000000065512e-05,-3.663028430000992e-05,2.7339341684085028e-05,7.867038223929868e-05
150000000000.0,1,-0.0131997509,-0.07422653385,0.07259862995,-0.008128,0.002354,0.003889,-1.745779833,-9.5115679015,1.6287864984999998,-2.3215,1.3249,1.7043,1.999999999990898e-05,-4.999999999988347e-05,3.999999999992898e-05,8.20607588989386e-05,-0.00010891388794731505,0.000309807636611259
150000000000.0,1,0.0014219642499999998,-0.04104083025,0.0796103847,-0.007053,0.004473,0.006022,-1.7461720989999998,-9.5113717685,1.6293748974999998,-2.3216,1.3248,1.7044,5.0000000000105516e-05,-4.999999999988347e-05,1.0000000000065512e-05,-0.00029602370485859453,0.00019372801207473422,5.036714535355813e-05
150000000000.0,1,0.0164359454,0.02309466075,0.06797969779999999,-0.001759,-0.000899,0.00604,-1.746564365,-9.511175635499999,1.6302574959999998,-2.3218,1.3247,1.7045,2.999999999997449e-05,-5.0000000000105516e-05,-2.0000000000020002e-05,-0.00028498153185396724,0.0002528129322580952,-0.00033228718069833185
150000000000.0,1,0.04053088445,0.058173047799999995,0.04297274029999999,0.006744,-0.005232,0.006061,-1.746564365,-9.510881436,1.631630427,-2.3222,1.3246,1.7049,7.999999999996898e-05,-9.999999999998899e-05,4.0000000000040004e-05,0.0010871306025881378,-0.0006875493577374048,0.0009314242409759199
150000000000.0,1,0.029576856399999997,0.0644689171,0.025722842949999998,0.008872,-0.007379,0.003933,-1.7466624315,-9.510685302999999,1.6331994909999998,-2.3226,1.3245,1.7053,7.999999999996898e-05,9.999999999998899e-05,-5.000000000032756e-06,0.001311051118273232,-0.0004954789689188832,-3.562356558783897e-05
150000000000.0,1,0.0173381572,0.0334995164,0.0097085835,0.010987,-0.008465,0.006073,-1.7468585645,-9.5103911035,1.6346704884999999,-2.323,1.3244,1.7056,6.0000000000060005e-05,-5.0000000000105516e-05,-5.000000000032756e-06,-0.0005207798022490717,6.023058190152142e-05,-0.0004724152933277548
150000000000.0,1,0.00946341725,0.0030400615,0.00526617105,0.009878,-0.013784,0.00608,-1.7470546974999999,-9.510096904,1.6358472865,-2.3233,1.3243,1.7058,9.99999999995449e-06,-4.999999999988347e-05,-3.999999999992898e-05,-0.0005076672614698907,-0.00011570107990510614,-0.0005706025970506623
150000000000.0,1,-0.0030792880999999995,-0.0083552658,0.027546879849999997,0.004568,-0.00948,0.008198,-1.7476430965,-9.509802704499998,1.6370240845,-2.3235,1.3241,1.7059,4.999999999999449e-05,-9.999999999998899e-05,-4.0000000000040004e-05,-0.0006033129634184231,0.00022303951805047184,-0.00017978052381573129
150000000000.0,1,0.00171616375,-0.01928968055,0.03839303475,0.003511,-0.008406,0.008194,-1.7482314955,-9.509508505,1.6382008824999998,-2.3237,1.324,1.7059,-9.99999999995449e-06,-9.999999999998899e-05,-4.999999999999449e-05,0.00015967151262730184,-0.00042053763940907984,-0.0003192708263974886
150000000000.0,1,0.0056094038,-0.0194563936,0.04285506049999999,0.003502,-0.008409,0.010329,-1.7490160275,-9.5092143055,1.6392796139999999,-2.3238,1.3239,1.706,9.00000000000345e-05,-4.999999999988347e-05,-2.0000000000020002e-05,-0.0009682757573183931,0.00012496359367775156,0.00012941580044434353
150000000000.0,1,0.01750487025,-0.0025301156999999997,0.02789991925,0.00243,-0.008401,0.011393,-1.7497024929999998,-9.508920106,1.6401622125,-2.3239,1.3237,1.7059,5.499999999991623e-05,-5.0000000000105516e-05,-9.99999999995449e-06,0.0009749426291081331,-4.898610078241106e-06,-0.0003126292254991281
150000000000.0,1,0.03631402495,-0.015406247149999998,0.0092770909,0.00457,-0.008418,0.010328,-1.7499966925,-9.508723973,1.6407506114999997,-2.324,1.3237,1.706,5.500000000002725e-05,-3.333333333332966e-05,-1.0000000000065512e-05,-0.0007571222274400657,0.00021588948152317933,0.0004086228481130494
150000000000.0,1,0.03649054465,-0.0403053315,-0.009002504699999999,0.002452,-0.00627,0.010319,-1.750094759,-9.508625906499999,1.6409467444999999,-2.324,1.3236,1.7059,-4.999999999999449e-05,-3.333333333332966e-05,-9.99999999995449e-06,-0.00024219534287195366,0.00033599993126376404,-0.0007670890927464757
150000000000.0,1,0.021407916949999998,-0.04925880294999999,-0.0045306723,0.004569,-0.008419,0.010325,-1.7504870249999998,-9.50852784,1.641240944,-2.324,1.3236,1.7058,5.999999999994898e-05,-3.333333333332966e-05,-2.999999999997449e-05,0.0005731368046493213,-8.637079653794899e-05,-0.00011885598476024661
150000000000.0,1,0.00661948875,-0.04734650619999999,0.02005459925,0.001391,-0.006261,0.009248,-1.7509773574999998,-9.508331707,1.641829343,-2.324,1.3235,1.7058,-9.99999999995449e-06,-9.999999999998899e-05,-1.0000000000065512e-05,-0.0002621090819185934,-0.00022304762132319134,-0.0005487873539042898
150000000000.0,1,-0.0059036033,-0.0352254868,0.02484024445,0.003522,-0.005218,0.011336,-1.7518599559999999,-9.5080375075,1.6426138750000001,-2.324,1.3234,1.7057,4.999999999921734e-06,-3.333333333332966e-05,-4.999999999999449e-05,-0.0011505228501860199,0.000798840409709678,-0.0009504428609352633
150000000000.0,1,-0.012846711499999998,-0.0193191005,0.0218688295,-0.000714,-0.001985,0.010256,-1.7530367539999998,-9.5078413745,1.6428100079999999,-2.3238,1.3233,1.7054,5.000000000032756e-06,-3.333333333332966e-05,-9.99999999995449e-06,0.00015459791234206932,4.125957629774746e-05,3.232709556399982e-05
150000000000.0,1,-0.010404855650000001,0.00210842975,0.006237029399999999,0.00247,-0.004143,0.010266,-1.7541154854999998,-9.507547175,1.6432022739999999,-2.3236,1.3232,1.7052,1.0000000000065512e-05,-3.333333333332966e-05,-4.0000000000040004e-05,-0.00038132569147864004,-4.3250864422139657e-05,-0.0005304256260960649
150000000000.0,1,-0.0034911673999999996,0.0014121576,0.0031185146999999996,0.00569,-0.003101,0.008135,-1.7549000174999998,-9.5072529755,1.6437906729999998,-2.3235,1.3231,1.7051,3.999999999992898e-05,-4.999999999988347e-05,-9.99999999995449e-06,-0.0005699414213446996,0.0002877268032941416,-0.00021347069826327392
150000000000.0,1,-0.0021182363999999996,-0.014043122799999998,-0.0069627215,0.007848,-0.00205,0.004935,-1.7553903499999999,-9.507056842499999,1.6444771384999999,-2.3236,1.323,1.7051,4.0000000000040004e-05,-5.0000000000105516e-05,-2.0000000000020002e-05,0.0003470244629524277,1.6402935436143906e-05,-0.00018106833815845214
150000000000.0,1,0.00542307745,-0.026193562150000002,-0.012993811249999999,0.011053,-0.002075,0.003872,-1.755586483,-9.506958776,1.6452616704999998,-2.3238,1.3229,1.7053,-2.0000000000020002e-05,-3.333333333332966e-05,4.999999999921734e-06,-3.8858815294862126e-05,-0.0003332083420664045,9.6646811535539e-05
150000000000.0,1,0.014288289049999998,-0.05650591729999999,-0.01913277415,0.010016,0.001131,0.002797,-1.7554884165,-9.5068607095,1.6458500695,-2.324,1.3229,1.7055,4.999999999999449e-05,-3.333333333332966e-05,5.000000000032756e-06,0.0002512273572023993,-0.00010505394680992985,-0.00012851542064717947
150000000000.0,1,0.0174362237,-0.04802316505,-0.02297698095,0.008943,0.001139,0.003861,-1.7552922835,-9.506762642999998,1.6462423354999998,-2.3241,1.3229,1.7057,4.0000000000040004e-05,-3.333333333332966e-05,-2.999999999997449e-05,6.740659271797789e-05,9.082917635527821e-05,-0.0002732101093203543
150000000000.0,1,0.025173670549999996,-0.02352615335,-0.01913277415,0.004681,0.003303,0.005984,-1.7553903499999999,-9.506762642999998,1.6464384685,-2.3242,1.3228,1.7057,2.999999999997449e-05,-3.333333333332966e-05,-9.99999999995449e-06,-0.0002355061356604793,-7.40168396173857e-05,6.696951670548401e-06
150000000000.0,1,0.034323275,-0.0017848103,-0.0163771055,0.005732,0.003291,0.009186,-1.7557826159999999,-9.506664576499999,1.6466346015,-2.3241,1.3228,1.7057,7.00000000000145e-05,-3.333333333332966e-05,-1.0000000000065512e-05,0.000182566822514163,0.00015364273327089784,-0.0002633851905871065
150000000000.0,1,0.0136704701,0.0170047311,-0.00975761675,0.005721,0.003289,0.011321,-1.7566652145,-9.5064684435,1.646928801,-2.324,1.3227,1.7056,6.0000000000060005e-05,-3.333333333332966e-05,-2.0000000000020002e-05,-8.121226052271169e-05,1.181429011110069e-05,0.00028856472532368116
150000000000.0,1,0.0048444850999999995,0.015180694199999997,-0.0091790244,0.007852,0.004334,0.013458,-1.7580381455,-9.5060761775,1.6474191335,-2.3237,1.3226,1.7054,3.999999999992898e-05,-2.4999999999941735e-05,-2.999999999997449e-05,-0.00033883850268923155,0.0001677194024671813,-0.000280484735477593
150000000000.0,1,-0.00065704555,0.00856120545,-0.008433719,0.007866,0.005401,0.012388,-1.7594110764999997,-9.505781978,1.6478113995,-2.3235,1.3224,1.7052,9.00000000000345e-05,-2.500000000016378e-05,-2.4999999999941735e-05,0.0003970094900993537,-6.717717470006157e-05,-4.238984179227856e-06
150000000000.0,1,-0.009983169699999999,-0.00665871535,-0.005187717849999999,0.009982,0.003253,0.012396,-1.7607840074999999,-9.505389712,1.6486939979999997,-2.3233,1.3223,1.705,2.999999999997449e-05,-2.4999999999941735e-05,-2.5000000000052758e-05,-0.0003811511043689819,0.00028233977989589043,-0.0002574675603792542
150000000000.0,1,0.0042560861,-0.0158475464,-0.00342252085,0.010002,0.006448,0.013458,-1.7620588719999999,-9.504997445999999,1.6494785299999999,-2.3232,1.3221,1.705,6.499999999998174e-05,-2.4999999999941735e-05,-7.999999999996898e-05,-0.0004252530144734923,-8.605681249340691e-05,9.28566639315509e-05
150000000000.0,1,0.02185902285,-0.0176127434,-0.0048052584999999995,0.008949,0.007523,0.012386,-1.7629414705,-9.5047032465,1.6500669289999998,-2.3232,1.322,1.705,6.499999999998174e-05,-1.0000000000065512e-05,-2.999999999997449e-05,-0.001412790462341551,3.563605581780038e-05,0.0003566234287171177
150000000000.0,1,0.035460846399999996,-0.026654474699999996,0.00430511935,0.007901,0.008599,0.010246,-1.7633337365,-9.504507113499999,1.6508514609999998,-2.3233,1.3219,1.7052,-9.99999999995449e-06,-9.999999999843467e-06,-3.0000000000085514e-05,-0.0003171889826432128,-0.00010076778018097698,-0.0004711708186402319
150000000000.0,1,0.029880862549999995,-0.04896460345,0.01069905515,0.006848,0.009674,0.009173,-1.7637260025,-9.5043109805,1.6513417935,-2.3233,1.3219,1.7053,9.00000000000345e-05,-1.0000000000065512e-05,3.0000000000085514e-05,0.0004359135176319473,0.00018665331230183213,0.0005398026318041982
150000000000.0,1,0.02968472955,-0.05282842355,0.01081673495,0.005813,0.01288,0.008097,-1.7641182684999999,-9.504212914,1.6516359929999997,-2.3233,1.3218,1.7054,3.999999999992898e-05,-1.0000000000065512e-05,-4.0000000000040004e-05,7.26735426306302e-05,0.0008475849599252072,-0.00037329899646931786
150000000000.0,1,0.045797055499999996,-0.03949137955,0.017249897349999998,0.006886,0.015,0.010228,-1.764412468,-9.504114847499999,1.6521263255,-2.3233,1.3218,1.7056,8.000000000008001e-05,-9.999999999843467e-06,-4.999999999999449e-05,0.00014976102246588852,-8.371990108568816e-05,0.0004710231641209539
150000000000.0,1,0.049425515999999996,-0.0376967626,0.01419022255,0.006881,0.014998,0.011293,-1.7647066674999998,-9.5039187145,1.652616658,-2.3234,1.3217,1.7058,6.999999999990347e-05,-1.0000000000065512e-05,-9.99999999995449e-06,-0.00021517087786127043,-5.0163498843236454e-05,0.0002766309286934554
150000000000.0,1,0.05591751829999999,-0.01974078645,-0.0079629998,0.009006,0.013914,0.011296,-1.7650989335,-9.503820648,1.6531069905,-2.3234,1.3216,1.7059,0.00012000000000000899,-1.0000000000065512e-05,-1.0000000000065512e-05,0.0005163600519593192,9.195043555898508e-05,-5.925523980443437e-05
150000000000.0,1,0.05427000109999999,-0.0185541818,-0.019505426849999997,0.011119,0.010701,0.010236,-1.7653931330000001,-9.503624514999998,1.6536953895,-2.3235,1.3216,1.7062,3.0000000000085514e-05,-1.0000000000065512e-05,-9.99999999995449e-06,-0.0004966638439976023,-9.314775153423938e-06,-0.0004151815652511104
150000000000.0,1,0.0589575798,-0.04331597305,-0.0125328987,0.010079,0.012842,0.008093,-1.7652950665,-9.503526448499999,1.6541857219999998,-2.3237,1.3215,1.7065,9.999999999998899e-05,-9.999999999843467e-06,-2.0000000000020002e-05,-0.00033384810595027403,-0.0001475601674139071,0.0005392139278850294
150000000000.0,1,0.047287666299999996,-0.0749031927,-0.01101286795,0.009038,0.012856,0.002752,-1.765000867,-9.503526448499999,1.6546760544999999,-2.3239,1.3215,1.7068,0.00020999999999993246,-1.0000000000065512e-05,-1.0000000000065512e-05,-0.0021616437649230047,0.00032733241369586885,0.0011912838032575035
150000000000.0,1,0.0517398854,-0.1114427706,-0.011434553899999998,0.004784,0.013957,0.001672,-1.7643144014999999,-9.503624514999998,1.654577988,-2.3241,1.3216,1.7071,4.999999999999449e-05,-3.333333333332966e-05,-1.999999999990898e-05,-1.5489865082818355e-05,-0.00018458985294933505,-9.014549951458228e-05
150000000000.0,1,0.04957261574999999,-0.1164833887,-0.01309187775,0.003738,0.016098,0.000597,-1.7635298695,-9.5039187145,1.6542837885,-2.3243,1.3217,1.7074,6.0000000000060005e-05,-3.333333333332966e-05,9.99999999995449e-06,-0.0001542920372126222,-0.0002195400332793973,-0.0003249732310084408
150000000000.0,1,0.06853867685,-0.1064217658,-0.0072765343,0.000565,0.018256,-0.001551,-1.7622550049999999,-9.504212914,1.6536953895,-2.3244,1.3218,1.7078,0.00010999999999994348,-3.333333333332966e-05,2.0000000000020002e-05,-0.00025238054724341374,-0.0005473042697412556,0.00047414900828335327
150000000000.0,1,0.08373898434999999,-0.0697841214,-0.01726951065,0.000563,0.016128,-0.004753,-1.7605878744999999,-9.504605179999999,1.6531069905,-2.3247,1.322,1.7082,0.0001100000000000545,-2.4999999999941735e-05,3.999999999992898e-05,0.0011227753906419835,-0.00023301738804093475,-0.0002554858100292101
150000000000.0,1,0.08882863569999999,-0.032381558299999995,-0.023987065899999997,0.001634,0.016119,-0.005822,-1.7588226775,-9.505095512499999,1.6525185914999998,-2.325,1.3222,1.7087,7.999999999996898e-05,-2.4999999999941735e-05,-1.999999999990898e-05,-0.0007921527018315278,-0.00011777522737355106,0.0003144177665388437
150000000000.0,1,0.10020434969999999,-0.0112776475,-0.0346567011,0.002695,0.016108,-0.004757,-1.756959414,-9.5054877785,1.651832126,-2.3253,1.3223,1.7091,6.0000000000060005e-05,-2.500000000016378e-05,-2.0000000000020002e-05,0.0013410672626910092,-0.0008260060971418959,-0.0007087066552573518
150000000000.0,1,0.10092023515,-0.011689526799999999,-0.0268898343,0.007989,0.0118,-0.003677,-1.755194217,-9.5058800445,1.651832126,-2.3259,1.3225,1.7098,7.999999999996898e-05,-2.4999999999941735e-05,9.99999999995449e-06,-0.0005227424866720565,-0.00017531266715997695,2.933190453413559e-06
150000000000.0,1,0.07332432205,0.00363826715,-0.0290669106,0.005801,0.006488,-0.001539,-1.7539193525,-9.5060761775,1.6519301924999998,-2.3262,1.3226,1.7103,4.0000000000040004e-05,-3.333333333332966e-05,-9.99999999995449e-06,0.0015999807234072794,-0.0006166312331885582,8.989601569653338e-05
150000000000.0,1,0.0400699719,0.01207198615,-0.023428086849999998,0.006853,0.005412,-0.00047,-1.7532328869999998,-9.506174243999999,1.6522243919999997,-2.3265,1.3226,1.7106,0.00012999999999996348,-3.333333333332966e-05,-1.0000000000065512e-05,-0.0007379949149990406,8.053405782515455e-05,0.000345778151318088
150000000000.0,1,0.0312439869,0.0051582979,0.0033146476999999994,0.004709,0.005427,0.00166,-1.7529386875,-9.5060761775,1.6527147245,-2.3268,1.3226,1.7109,9.99999999995449e-06,-3.333333333332966e-05,-9.999999999998899e-05,-0.00047401514081668594,-7.119995622884012e-05,-0.0005823014995556264
150000000000.0,1,0.0294591766,-0.0095712904,0.027586106449999998,0.00147,0.00119,0.002728,-1.7526444879999998,-9.5060761775,1.6534011899999999,-2.3271,1.3226,1.7112,5.500000000002725e-05,-9.999999999998899e-05,-5.999999999994898e-05,-0.0003944422614701182,0.00046359516860139394,-0.0007801389840338402
150000000000.0,1,0.0316754795,-0.00055897905,0.0409721837,0.001454,-0.000942,0.002731,-1.7525464215,-9.5058800445,1.6542837885,-2.3274,1.3225,1.7115,5.500000000002725e-05,-3.333333333332966e-05,-2.999999999997449e-05,-0.0006949373105284984,-0.0005555836662818336,0.0005026698921297701
150000000000.0,1,0.023006400899999998,-0.008384685749999999,0.06111504279999999,-0.000728,-0.005191,0.005935,-1.7525464215,-9.5056839115,1.65536252,-2.3277,1.3224,1.7118,7.00000000000145e-05,-3.333333333332966e-05,-1.0000000000065512e-05,0.0011732045820909143,3.125113971447213e-05,0.0001929612219120358
150000000000.0,1,0.011159967699999999,-0.0213392704,0.06276256,-0.000757,-0.008389,0.007008,-1.752840621,-9.5054877785,1.6564412515,-2.3279,1.3223,1.7119,9.999999999998899e-05,-3.333333333332966e-05,-2.0000000000020002e-05,9.507481931558814e-05,-3.2684780424618864e-05,0.0005875523143306083
150000000000.0,1,0.023888999399999996,-0.029880862549999995,0.0714120253,-0.003924,-0.005166,0.005928,-1.752840621,-9.5052916455,1.65732385,-2.3282,1.3223,1.7121,0.00012000000000000899,-0.00010000000000021103,-9.99999999995449e-06,-0.0004874389015319114,0.00026782510548617466,-0.00010967485681523392
150000000000.0,1,0.022359162,-0.0404230113,0.07508951905,-0.000778,-0.011587,0.007011,-1.7527425545,-9.505095512499999,1.6585987144999998,-2.3286,1.3222,1.7124,7.00000000000145e-05,-4.999999999988347e-05,-9.99999999995449e-06,-0.00016994103113687764,-8.517723161327595e-05,0.00023111060722702526
150000000000.0,1,0.012160246,-0.05491724,0.0912606849,0.000258,-0.015859,0.007019,-1.7527425545,-9.504801313,1.6602658449999999,-2.3291,1.3221,1.7127,0.00013999999999991797,-5.0000000000105516e-05,1.4999999999987246e-05,-0.0007713385849956733,6.775737786957059e-05,0.0002546450199598649
150000000000.0,1,0.020495898499999998,-0.04353171935,0.0883579165,0.001307,-0.019064,0.005958,-1.7525464215,-9.504507113499999,1.6621291084999998,-2.3297,1.3219,1.7131,6.0000000000060005e-05,-9.999999999998899e-05,1.4999999999987246e-05,0.0008555648813308725,0.0007137371572476514,0.00016717166632473912
150000000000.0,1,0.0166516917,-0.04257066765,0.06745994535,0.001272,-0.024392,0.004899,-1.7523502884999997,-9.5043109805,1.6636981725,-2.3303,1.3218,1.7134,7.00000000000145e-05,-4.999999999988347e-05,9.99999999995449e-06,3.003043274274475e-05,3.5106707196419507e-05,-0.00040222382535715084
150000000000.0,1,-0.00685484835,-0.06196822135,0.06396877795,0.000201,-0.024385,0.005964,-1.7522522219999999,-9.504114847499999,1.6650711034999999,-2.3307,1.3217,1.7136,0.00010999999999994348,-5.0000000000105516e-05,2.999999999997449e-05,5.329181273894257e-05,0.00011785940905384429,-0.00015543194923428594
150000000000.0,1,0.0043737659,-0.041315416449999996,0.06832293055,-0.00621,-0.026462,0.004889,-1.7521541554999998,-9.5039187145,1.666149835,-2.331,1.3217,1.7136,2.0000000000020002e-05,-9.999999999998899e-05,1.0000000000065512e-05,-0.00024633536027951486,-0.0007772569211352831,-0.000528830377206857
150000000000.0,1,0.004344345949999999,-0.00169655045,0.0693526288,-0.005149,-0.027537,0.004892,-1.7519580225,-9.5037225815,1.6673266329999998,-2.3315,1.3216,1.7137,4.0000000000040004e-05,-9.999999999998899e-05,2.0000000000020002e-05,-0.00011465028160162483,-0.0002485283390321058,-0.0006125010831843358
150000000000.0,1,0.010591182,0.0348920607,0.0578200084,0.000128,-0.035041,0.004914,-1.7517618895,-9.503526448499999,1.6687976304999999,-2.332,1.3215,1.7139,3.999999999992898e-05,-9.999999999998899e-05,-1.0000000000065512e-05,0.0003392587085391252,-0.00015780365422557452,-7.19760184340057e-05
150000000000.0,1,0.01460210185,0.06543977545,0.06812679754999999,0.004337,-0.039344,0.010266,-1.7518599559999999,-9.503134182499998,1.6711512265,-2.3326,1.3213,1.7141,4.999999999999449e-05,-4.999999999988347e-05,-9.99999999995449e-06,-0.00043457496460841405,8.495719762091625e-05,-0.0009509768504252225
150000000000.0,1,0.04610106165,0.08263083289999999,0.02762533305,0.0075,-0.043634,0.011345,-1.751663823,-9.5027419165,1.6731125565,-2.3333,1.3212,1.7144,4.999999999999449e-05,-5.0000000000105516e-05,-6.0000000000060005e-05,-0.0008028994197080142,-0.00012840166375660544,-0.00037793670197783236
150000000000.0,1,0.0447575506,0.05042579429999999,0.020623384949999997,0.008548,-0.044711,0.013482,-1.7515657564999998,-9.502447716999999,1.6752700195,-2.3339,1.3211,1.7146,4.999999999999449e-05,-9.999999999998899e-05,-4.999999999999449e-05,0.00012071355144449569,0.00014411930093660708,-0.0006574068914151354
150000000000.0,1,0.017681389949999998,0.00028439285,0.02478140455,0.009609,-0.043658,0.016684,-1.7519580225,-9.501957384499999,1.6773294159999999,-2.3344,1.3209,1.7146,7.00000000000145e-05,-9.999999999998899e-05,1.0000000000065512e-05,-2.3815840393792698e-05,0.0002619102221124159,-0.0006981492423923097
150000000000.0,1,0.0059918631499999995,-0.041756715699999995,0.03913834014999999,0.013824,-0.049024,0.018835,-1.7527425545,-9.5013689855,1.679879145,-2.335,1.3206,1.7147,4.0000000000040004e-05,-9.999999999998899e-05,-4.999999999999449e-05,-0.0007849409733606816,-0.00014342420275226253,-0.0007685727688999666
150000000000.0,1,0.017259704,-0.036971070499999995,0.04011900515,0.012742,-0.049019,0.022034,-1.7535270864999999,-9.5007805865,1.6825269404999998,-2.3355,1.3204,1.7148,5.999999999994898e-05,-4.999999999988347e-05,-4.999999999999449e-05,0.0007486705195498544,0.000305293377733884,-0.00045631925523270667
150000000000.0,1,0.027811659399999997,-0.03158721965,0.029674922899999998,0.010585,-0.05007,0.025233,-1.7545077515,-9.5001921875,1.6848805365,-2.336,1.3201,1.7147,1.4999999999987246e-05,-5.0000000000105516e-05,-4.999999999999449e-05,-6.3020870813002006e-06,0.00015975759253050725,-0.0008824815531476293
150000000000.0,1,0.04749360595,-0.0280077924,0.01448442205,0.008455,-0.048989,0.026293,-1.755194217,-9.499701855,1.6867437999999997,-2.3363,1.3199,1.7145,1.5000000000098268e-05,-0.00019999999999997797,-3.0000000000085514e-05,-8.044654627314962e-05,0.000345946945126796,-0.000703513003084355
150000000000.0,1,0.048180071449999994,-0.0403053315,-0.0118072066,0.003148,-0.046812,0.024143,-1.7558806824999997,-9.499407655499999,1.6879205979999998,-2.3365,1.3198,1.7142,4.999999999999449e-05,-9.999999999998899e-05,-1.999999999990898e-05,0.0005875174737606237,0.00027829312935856443,-0.00041980605261482395
150000000000.0,1,0.03245020485,-0.08295445234999999,-0.013052651149999999,0.004183,-0.050019,0.025216,-1.7567632809999998,-9.499113455999998,1.6887051299999998,-2.3365,1.3197,1.7136,-1.0000000000065512e-05,-9.999999999998899e-05,1.999999999990898e-05,0.0003782536066820885,-0.0007900005043737224,0.0004849769791512859
150000000000.0,1,0.043884758749999996,-0.1209944477,-0.0160632927,-6.6e-05,-0.046789,0.026268,-1.75735168,-9.498917323,1.6889993294999999,-2.3364,1.3196,1.713,1.0000000000065512e-05,-5.0000000000105516e-05,-9.99999999995449e-06,0.0004730848787131148,0.00039746876528190533,-0.000759613339657017
150000000000.0,1,0.04268834745,-0.13457665795,-0.013660663449999999,-0.003253,-0.045696,0.02519,-1.7580381455,-9.4988192565,1.6889993294999999,-2.3362,1.3196,1.7124,2.999999999997449e-05,-4.999999999988347e-05,4.999999999921734e-06,0.00029468839353175014,8.31819075397533e-06,-0.0009157667976382733
150000000000.0,1,0.05116129305,-0.13086974424999998,-0.0016475171999999999,-0.003227,-0.043564,0.023049,-1.7582342785,-9.49872119,1.6889993294999999,-2.3361,1.3196,1.7118,2.999999999997449e-05,-9.999999999998899e-05,5.000000000032756e-06,0.00037712772414355555,0.0007585814328736618,-0.000350638904362377
150000000000.0,1,0.05814362785,-0.08713208525,-0.007766866799999999,-0.004254,-0.042484,0.016638,-1.7580381455,-9.4988192565,1.688901263,-2.3362,1.3196,1.7114,0.00012000000000000899,-0.00019999999999997797,4.0000000000040004e-05,3.88838298042149e-05,0.0003489877165105959,-0.0010512443807153549
150000000000.0,1,0.0702352273,-0.039393313049999996,-0.031508766449999996,-0.001053,-0.045702,0.011309,-1.7572536134999999,-9.498917323,1.688901263,-2.3364,1.3196,1.7111,-4.0000000000040004e-05,-0.00010000000000021103,-9.99999999995449e-06,-0.0010312335070195022,0.00040699478081629437,-0.0003540833273036892
150000000000.0,1,0.06769530495,-0.029733762799999997,-0.038765687449999996,4.4e-05,-0.045705,0.004904,-1.7558806824999997,-9.4992115225,1.6889993294999999,-2.3368,1.3197,1.7111,-7.00000000000145e-05,-9.999999999998899e-05,-3.0000000000085514e-05,-0.00011319082831073857,0.0004702048027620531,-0.0013554210289128399
150000000000.0,1,0.07137279869999999,-0.024604884849999998,-0.057329675899999995,0.003287,-0.043595,-0.000434,-1.7540174189999997,-9.499505721999999,1.6889993294999999,-2.3373,1.3199,1.7112,2.0000000000020002e-05,-9.999999999998899e-05,-9.99999999995449e-06,0.001368818841545938,-0.00014188616434163137,-0.00027124540035261546
150000000000.0,1,0.0635274787,-0.04802316505,-0.045934348599999994,0.000124,-0.039306,-0.001518,-1.752056089,-9.499897987999999,1.688901263,-2.3379,1.32,1.7113,2.0000000000020002e-05,-9.999999999998899e-05,-9.99999999995449e-06,-0.0001281855776869012,-0.0008369236481455822,-0.000912665614482
150000000000.0,1,0.046120674949999996,-0.07291244274999999,-0.0403837847,-0.000934,-0.039296,-0.003657,-1.7499966925,-9.500290254,1.6888031964999999,-2.3384,1.3202,1.7114,6.0000000000060005e-05,-9.999999999998899e-05,9.99999999995449e-06,0.0007564076244905849,-6.127452100401776e-05,-0.00042531985144034223
150000000000.0,1,0.03054771475,-0.0820424339,-0.01856398845,-0.001964,-0.033961,-0.002602,-1.7484276285,-9.5005844535,1.6888031964999999,-2.3389,1.3203,1.7116,9.99999999995449e-06,-9.999999999998899e-05,4.0000000000040004e-05,0.0004418481459977919,-0.0004098667998548855,-0.00019570170001736997
150000000000.0,1,0.009688970199999999,-0.055819451799999996,0.00705098135,-0.004081,-0.031812,-0.00261,-1.7472508304999999,-9.5007805865,1.688901263,-2.3392,1.3204,1.7116,5.999999999994898e-05,-9.999999999998899e-05,4.999999999999449e-05,0.00021625187709495286,9.919912283229415e-05,-0.0006712964526902621
150000000000.0,1,0.0086102387,-0.034391921549999996,0.01307226445,-0.006177,-0.026468,-0.001557,-1.7463682319999998,-9.500976719499999,1.688901263,-2.3395,1.3205,1.7116,6.0000000000060005e-05,-9.999999999998899e-05,3.999999999992898e-05,0.0010142829579617985,-0.00019962244715632238,6.141980284346538e-05
150000000000.0,1,0.0015494506999999998,-0.0105127288,0.0128074849,-0.007238,-0.024331,0.000572,-1.7458778995,-9.501074786,1.688901263,-2.3396,1.3205,1.7114,4.0000000000040004e-05,-9.999999999998899e-05,2.0000000000020002e-05,-1.8320485204670334e-05,-8.507560679693604e-05,-0.0004585399317733607
150000000000.0,1,-0.00257914895,-0.005579983849999999,0.006766588499999999,-0.011476,-0.020034,0.001625,-1.7456817665,-9.5011728525,1.688312864,-2.3395,1.3206,1.7111,0.00015999999999993797,-9.999999999998899e-05,2.999999999997449e-05,0.0004625599046645945,0.0005509811585018287,0.000307193760912039
150000000000.0,1,-0.0065312289,0.00891424485,-0.0022555294999999998,-0.010378,-0.016845,0.000554,-1.7455836999999998,-9.5013689855,1.6876263984999997,-2.3393,1.3206,1.7108,2.0000000000020002e-05,-0.00019999999999997797,2.0000000000020002e-05,-0.0002462027742169415,0.0003472667367785398,-0.00016589169103986556
150000000000.0,1,-0.0072569209999999995,0.027909725899999998,-0.00685484835,-0.010375,-0.015781,0.00162,-1.7455836999999998,-9.501467051999999,1.6868418664999998,-2.3391,1.3207,1.7103,9.99999999995449e-06,-9.999999999998899e-05,1.0000000000065512e-05,-0.0010041597179706319,-0.0006259110626871678,-0.0008015548564326291
150000000000.0,1,-0.00189268345,0.014847268099999998,0.0058251501,-0.011405,-0.010445,0.002676,-1.745779833,-9.5015651185,1.686155401,-2.3388,1.3207,1.71,7.00000000000145e-05,-9.999999999998899e-05,1.999999999990898e-05,0.0001607063252178076,-0.00010881755962843798,0.00012933606893184013
150000000000.0,1,-0.00563882375,-0.0164947853,0.026791767799999998,-0.01354,-0.009364,0.004806,-1.7460740325,-9.501663185,1.685370869,-2.3385,1.3207,1.7095,7.00000000000145e-05,-9.999999999998899e-05,-9.99999999995449e-06,0.0007443751898366102,-0.0009066708390337297,-0.0007913049366390368
150000000000.0,1,0.00803164635,-0.0176127434,0.04274718735,-0.014566,-0.005093,0.003729,-1.7460740325,-9.5017612515,1.68478247,-2.3383,1.3208,1.7093,0.0001100000000000545,-5.0000000000105516e-05,4.0000000000040004e-05,0.0003116779133673919,0.0008461968979214252,4.4825918061208725e-05
150000000000.0,1,0.012650578499999999,-0.0162005858,0.05981075835,-0.015619,-0.002955,0.00479,-1.7461720989999998,-9.5017612515,1.6843902039999998,-2.3382,1.3208,1.7091,2.0000000000020002e-05,-4.999999999988347e-05,-1.0000000000065512e-05,-8.962275475465908e-05,-0.00023850660891988618,0.0004817316473355593
150000000000.0,1,-0.0017063571,-0.03947176625,0.06443949715,-0.017751,-0.002938,0.004786,-1.7464662985,-9.501859318,1.6836056719999999,-2.3379,1.3208,1.7087,1.999999999990898e-05,-9.999999999998899e-05,4.0000000000040004e-05,-0.0008050165535364862,0.00018791008120411234,-0.00039489970245876194
150000000000.0,1,0.00013729309999999998,-0.03156760635,0.0620564812,-0.017702,0.00239,0.003709,-1.746760498,-9.501957384499999,1.6827230734999998,-2.3375,1.3209,1.7084,9.999999999998899e-05,-9.999999999998899e-05,-2.999999999997449e-05,0.000427749426097801,0.0001635684759258016,0.0005256678753382538
150000000000.0,1,0.00885540495,-0.02954743645,0.06912707585,-0.016644,0.000251,0.002646,-1.746760498,-9.502055451,1.682232741,-2.3374,1.3209,1.7082,4.999999999999449e-05,-9.999999999998899e-05,2.999999999997449e-05,2.7218789929506215e-05,-0.0002582289502972568,7.489421946438313e-05
150000000000.0,1,-0.00157887065,-0.01654381855,0.0829838723,-0.012403,-0.004046,0.001594,-1.746760498,-9.502055451,1.6823308075,-2.3374,1.3209,1.7081,4.0000000000040004e-05,-0.00020000000000020002,3.999999999992898e-05,0.00032596476538815367,0.00025139034710841557,6.813804628968967e-06
150000000000.0,1,0.005021004799999999,0.010247949249999999,0.06343921884999999,-0.011334,-0.004055,0.001595,-1.746760498,-9.502055451,1.682232741,-2.3374,1.3209,1.7081,4.999999999921734e-06,-9.999999999998899e-05,4.0000000000040004e-05,-0.0007449282733065221,0.00014605708592796418,-0.0003519410690360214
150000000000.0,1,0.0067469752,0.0040795664,0.05629997764999999,-0.007082,-0.006222,0.001606,-1.746760498,-9.502055451,1.6825269404999998,-2.3375,1.3209,1.7081,5.000000000032756e-06,-9.999999999998899e-05,2.0000000000020002e-05,-0.00016988386317762227,-0.00021761039228063161,-0.0002870208740997082
150000000000.0,1,0.017681389949999998,0.0177696498,0.06377264495,-0.003896,-0.00838,0.001615,-1.7464662985,-9.501957384499999,1.6832134059999997,-2.3378,1.3209,1.7083,-9.99999999995449e-06,-9.999999999998899e-05,-2.0000000000020002e-05,0.00022406542864228385,-7.517280149182959e-05,0.000314134988290693
150000000000.0,1,0.0037363336499999997,0.01670072495,0.05470149369999999,-0.001791,-0.011596,0.002691,-1.7463682319999998,-9.5017612515,1.6841940709999998,-2.3381,1.3208,1.7085,-2.0000000000020002e-05,-9.999999999998899e-05,-4.999999999999449e-05,-0.0024652750809766033,0.0004726562842811699,-0.001384832431022165
150000000000.0,1,-0.00314793465,-0.0061879961500000006,0.047601479099999996,-0.000743,-0.014801,0.001631,-1.7463682319999998,-9.501663185,1.6850766695,-2.3383,1.3207,1.7086,1.0000000000065512e-05,-9.999999999998899e-05,2.0000000000020002e-05,8.456895374853168e-05,-5.045828294414356e-05,-0.00043686836930700856
150000000000.0,1,5.88399e-05,-0.0290080707,0.05600577815,0.002443,-0.014831,0.004839,-1.7464662985,-9.5013689855,1.6862534674999998,-2.3386,1.3206,1.7088,1.999999999990898e-05,-9.999999999998899e-05,-1.0000000000065512e-05,-0.0005225061565330424,4.741148224041147e-05,-7.799192789925691e-05
150000000000.0,1,-0.00067665885,-0.015288567349999999,0.057986721449999994,0.003496,-0.014843,0.008043,-1.7469566309999998,-9.501074786,1.6877244649999998,-2.3389,1.3205,1.7089,7.00000000000145e-05,-9.999999999998899e-05,4.0000000000040004e-05,0.0005878815371833657,-0.0007910766706216155,0.0006521807407480207
150000000000.0,1,0.00514849125,-0.01207198615,0.0584084074,0.003459,-0.016979,0.012316,-1.74754503,-9.50068252,1.6891954624999999,-2.3392,1.3203,1.709,-4.999999999999449e-05,-9.999999999998899e-05,-2.999999999997449e-05,-0.002089407681203692,0.00028364098852273756,-0.000912214125596833
150000000000.0,1,0.024124358999999998,-0.0037167203499999996,0.0368141641,0.003458,-0.015916,0.014448,-1.748133429,-9.500388320499999,1.6904703269999999,-2.3394,1.3202,1.709,-9.99999999995449e-06,-9.999999999998899e-05,-2.999999999997449e-05,-0.0007389453789936606,-1.4360390584444716e-05,-0.00042082671998566745
150000000000.0,1,0.02201592925,-0.01175817335,0.02990047585,0.004474,-0.019127,0.019791,-1.7491140939999998,-9.499996054499999,1.6916471249999998,-2.3395,1.32,1.7089,-1.0000000000065512e-05,-0.00019999999999997797,-4.999999999999449e-05,-0.0006821689704956668,0.00012753852677516164,4.050242534026083e-05
150000000000.0,1,0.029047297299999997,-0.0170243444,0.01972117315,0.001277,-0.018037,0.02085,-1.7501928254999999,-9.4996037885,1.692431657,-2.3394,1.3199,1.7086,2.0000000000020002e-05,-5.0000000000105516e-05,1.999999999990898e-05,0.0008742659617226867,1.7717386648685718e-05,-4.4780541703648424e-06
150000000000.0,1,0.01589657965,-0.03319551025,0.009208444349999999,0.000188,-0.020161,0.021918,-1.7515657564999998,-9.499309589,1.6927258565,-2.3391,1.3198,1.7081,1.0000000000065512e-05,-4.999999999988347e-05,-9.99999999995449e-06,-0.0011267417540192781,0.0003909690837127222,-0.0004676594574593018
150000000000.0,1,0.017955976149999997,-0.030734041099999998,0.0059624432,-0.005129,-0.017986,0.021904,-1.752840621,-9.499113455999998,1.6927258565,-2.3387,1.3197,1.7075,-6.0000000000060005e-05,-0.00019999999999997797,-2.999999999997449e-05,0.0013886358297749979,-0.00021299955217823907,-0.0001667987598805709
150000000000.0,1,0.0181423025,-0.0304790682,0.0033342610000000003,-0.006188,-0.016912,0.0219,-1.754213552,-9.498917323,1.6923335904999999,-2.3382,1.3196,1.7068,4.0000000000040004e-05,-9.999999999998899e-05,3.999999999992898e-05,0.00029768442707545084,-0.0006203012533509966,0.0010266718406872766
150000000000.0,1,0.011983726299999999,-0.0442868314,0.0030400615,-0.008338,-0.019026,0.021899,-1.7556845494999997,-9.49872119,1.6919413245,-2.3377,1.3195,1.706,-2.0000000000020002e-05,-9.999999999998899e-05,-2.999999999997449e-05,-0.001071684124957839,5.4160058753582874e-05,-4.845515986007243e-06
150000000000.0,1,0.007207887749999999,-0.059889211549999995,-0.0010983447999999999,-0.00515,-0.021182,0.02084,-1.7570574804999999,-9.498525057,1.6915490585,-2.3372,1.3195,1.7053,9.999999999998899e-05,-9.999999999998899e-05,2.999999999997449e-05,0.0007946511848482274,0.0002222693286979549,-0.0010428676423166472
150000000000.0,1,0.009296704199999999,-0.0555644789,-0.0027066354,-0.004064,-0.020123,0.018705,-1.7582342785,-9.498328923999999,1.6912548589999998,-2.3368,1.3194,1.7046,-2.999999999997449e-05,-9.999999999998899e-05,-9.99999999995449e-06,-0.0009616330336643664,-0.0007024789398832887,5.008876855239208e-05
150000000000.0,1,0.00775706015,-0.0487194372,-0.007698220249999999,-0.001965,-0.024403,0.018716,-1.7594110764999997,-9.498132791,1.6911567924999997,-2.3364,1.3193,1.704,-7.00000000000145e-05,-9.999999999998899e-05,2.0000000000020002e-05,9.795783891286547e-05,0.00018008250139556203,-0.0007602845360761279
150000000000.0,1,0.0132389775,-0.04872924385,-0.0093359308,-0.001954,-0.023339,0.017598,-1.7603917414999999,-9.4980347245,1.6909606595,-2.3361,1.3192,1.7034,-9.99999999995449e-06,-9.999999999998899e-05,2.0000000000020002e-05,-0.0003130923787577622,-5.864568749869292e-05,-0.00028723832697963303
150000000000.0,1,0.0334602898,-0.066292954,-0.00495235825,-0.003013,-0.024393,0.014394,-1.7607840074999999,-9.497936658,1.6909606595,-2.336,1.3192,1.7031,-4.0000000000040004e-05,-0.00010000000000021103,-1.0000000000065512e-05,7.786871076698176e-05,-0.00021175252982197357,-0.0001606604471815487
150000000000.0,1,0.0204174453,-0.07707046235,-0.00936535075,-0.000882,-0.026539,0.011198,-1.760882074,-9.497936658,1.6908625929999999,-2.3359,1.3192,1.7027,-4.999999999999449e-05,-9.999999999998899e-05,2.0000000000020002e-05,-0.00020305162825828837,0.0004902231939252211,-0.0008528612642242361
150000000000.0,1,0.015200307499999998,-0.10317576465,-0.0029223816999999997,-0.004053,-0.025443,0.00692,-1.7605878744999999,-9.4980347245,1.6906664599999999,-2.3359,1.3192,1.7025,-4.0000000000040004e-05,-9.999999999998899e-05,2.999999999997449e-05,2.5567837965700946e-05,0.00012014924196401822,-0.0006675111386742483
150000000000.0,1,0.0038442067999999996,-0.1080888963,0.00253992235,-0.008279,-0.022208,0.003704,-1.7600975419999998,-9.4982308575,1.6901761275,-2.3359,1.3193,1.7022,-7.999999999996898e-05,-9.999999999998899e-05,4.0000000000040004e-05,0.0006276575604913237,3.029052470293614e-05,-0.0005655612448400849
150000000000.0,1,0.00328522775,-0.10144979424999999,-0.00224572285,-0.012575,-0.024306,0.005834,-1.759901409,-9.4984269905,1.689293529,-2.3357,1.3194,1.7018,-2.999999999997449e-05,-9.999999999998899e-05,4.0000000000040004e-05,0.0004958360145623786,-0.0001358808180174087,-0.0002886684382454874
150000000000.0,1,0.01424906245,-0.0944576528,0.0023928226,-0.011466,-0.018987,0.005825,-1.7595091429999998,-9.4986231235,1.6882147975,-2.3355,1.3195,1.7013,-2.0000000000020002e-05,-9.999999999998899e-05,8.999999999992347e-05,0.00030771654872419063,6.887262829158303e-06,-0.000100693829406584
150000000000.0,1,0.0161613592,-0.0779824808,0.00102969825,-0.009338,-0.019006,0.006895,-1.7593130099999998,-9.4988192565,1.687528332,-2.3354,1.3196,1.701,-2.999999999997449e-05,-9.999999999998899e-05,4.0000000000040004e-05,-0.00015473229096518715,0.00013699234693276274,-0.00038370915051877397
150000000000.0,1,0.026428921749999997,-0.04168806914999999,-0.00573689025,-0.001901,-0.022266,0.00798,-1.759116877,-9.498917323,1.6872341325,-2.3353,1.3196,1.7007,2.0000000000020002e-05,-9.999999999998899e-05,9.00000000000345e-05,0.0009268245408959874,-0.0002056751853600769,-0.00020199805216480904
150000000000.0,1,0.0389520138,-0.020947004399999997,-0.0368926173,0.001272,-0.025489,0.007989,-1.7587246109999999,-9.4990153895,1.6871360659999999,-2.3354,1.3197,1.7005,1.999999999990898e-05,-9.999999999998899e-05,4.999999999999449e-05,-0.0011241220996414114,-8.580437852101497e-05,0.00017187041783905954
150000000000.0,1,0.0314597332,-0.0507592204,-0.05106322654999999,0.003418,-0.02444,0.006922,-1.7583323449999997,-9.499113455999998,1.686939933,-2.3355,1.3197,1.7003,2.0000000000020002e-05,-9.999999999998899e-05,1.999999999990898e-05,-0.00043118852199564017,-0.0004210962624382475,-0.0005824972688937002
150000000000.0,1,0.017906942899999997,-0.09262380925,-0.04912150985,0.000248,-0.022279,0.003709,-1.757743946,-9.499309589,1.6864496005,-2.3355,1.3198,1.7001,-2.999999999997449e-05,-9.999999999998899e-05,0.0001100000000000545,0.00033403061856773775,-0.00032896172756213815,-0.0006645745262594538
150000000000.0,1,0.029978929049999995,-0.13849931795,-0.0434042329,-0.001835,-0.01906,-0.001639,-1.7564690815,-9.499701855,1.6856650684999999,-2.3356,1.3199,1.7,-2.0000000000020002e-05,-9.999999999998899e-05,9.00000000000345e-05,0.0015067113789859476,-0.0004565797639675129,-0.0005127864572544993
150000000000.0,1,0.036225765099999994,-0.15283664025,-0.04160961595,-0.001798,-0.014797,-0.002716,-1.754998084,-9.500094121,1.6845863369999998,-2.3358,1.3201,1.7,-2.999999999997449e-05,-9.999999999998899e-05,9.999999999998899e-05,-0.0004597099751115774,0.0006842726314451042,-0.0011141473294291604
150000000000.0,1,0.02389880605,-0.15603360815,-0.0154356671,0.002514,-0.013759,-0.010185,-1.7531348205,-9.500486386999999,1.6842921375,-2.3362,1.3203,1.7003,4.0000000000040004e-05,-9.999999999998899e-05,7.999999999996898e-05,0.0001454761622272649,0.0003307642341354722,-0.0010776921668838035
150000000000.0,1,0.03296015065,-0.10568626704999999,-0.052014471599999994,0.005733,-0.013781,-0.014451,-1.750683158,-9.501074786,1.683997938,-2.3368,1.3205,1.7008,6.999999999990347e-05,-9.999999999998899e-05,9.999999999998899e-05,0.00209898017940624,0.0003065755313393925,0.00019827037379904766
150000000000.0,1,0.0401091985,-0.038559747799999995,-0.09597768355,0.004709,-0.012699,-0.021928,-1.7477411629999997,-9.5017612515,1.683017273,-2.3373,1.3208,1.7012,7.00000000000145e-05,-3.333333333332966e-05,0.00012999999999996348,0.0005495359614506867,0.0004247430022694676,-0.00046732102735891345
150000000000.0,1,0.0414232896,0.0023339827,-0.12083754129999999,0.003621,-0.014821,-0.021928,-1.7447011015,-9.5025457835,1.6817424085,-2.3378,1.3211,1.7016,0.00012000000000000899,-3.333333333332966e-05,0.00012000000000000899,0.0008431145772329618,-0.0003713090856103385,-5.5821587434445874e-05
150000000000.0,1,0.05554486559999999,0.0087279185,-0.12926145365,0.002542,-0.015877,-0.02193,-1.7414649069999997,-9.503428382,1.6802714109999999,-2.3383,1.3215,1.702,0.000140000000000029,-3.333333333332966e-05,0.000140000000000029,0.001004935416673458,0.00017210231292574818,-0.00023899059949039625
150000000000.0,1,0.060546257099999994,-0.0041972462,-0.11211942945,0.001483,-0.013738,-0.02087,-1.7383267789999999,-9.504212914,1.6788004135,-2.3388,1.3218,1.7023,4.999999999999449e-05,-9.999999999998899e-05,9.00000000000345e-05,6.311167158679076e-05,-0.0005354969706534707,-7.000746131691216e-07
150000000000.0,1,0.061066009549999994,-0.01397447625,-0.04180574895,-0.00173,-0.013714,-0.018744,-1.7350905845,-9.5048993795,1.6782120145,-2.3395,1.3221,1.703,0.00017000000000000348,-9.999999999998899e-05,0.00012000000000000899,8.083012855464311e-05,5.258557859311175e-05,-6.016112324469525e-05
150000000000.0,1,0.06873480985,-0.02564438975,-0.0149649479,-0.001741,-0.013717,-0.016612,-1.7319524564999997,-9.5054877785,1.6780158815,-2.3404,1.3223,1.7037,0.000140000000000029,-5.0000000000105516e-05,0.00014999999999998348,0.000630113861999515,-0.00020474501770517683,-0.0003609323642166373
150000000000.0,1,0.05310300974999999,-0.045257689749999996,0.0182207557,-0.00389,-0.013703,-0.013416,-1.7293046609999998,-9.505978111,1.6782120145,-2.3412,1.3225,1.7043,4.999999999999449e-05,-4.999999999988347e-05,9.999999999998899e-05,-0.0012417798472359465,-0.0008041296617127269,-0.0012406270589009338
150000000000.0,1,0.0392462133,-0.022741621349999998,0.03168528615,-0.009217,-0.011531,-0.011296,-1.7273433309999997,-9.506370377,1.6782120145,-2.3418,1.3227,1.7048,0.00012999999999996348,-0.00020000000000020002,9.999999999998899e-05,-0.0013144133669285019,0.00014830285409672683,-0.0002376769735312756
150000000000.0,1,0.0505630874,0.01623000575,0.03245020485,-0.010328,-0.015787,-0.009158,-1.7252839345,-9.506664576499999,1.6782120145,-2.3424,1.3228,1.7052,9.999999999998899e-05,-9.999999999998899e-05,7.999999999996898e-05,-0.0008683202404393686,-0.000396078552579171,0.0008486180249598352
150000000000.0,1,0.0577023286,0.04286486715,0.031950065699999995,-0.008212,-0.016873,-0.00702,-1.7235187374999998,-9.506958776,1.6784081475,-2.343,1.323,1.7056,2.0000000000020002e-05,-0.00019999999999997797,2.0000000000020002e-05,-0.0009031874523470762,-0.0006386782362823862,7.763385124759381e-05
150000000000.0,1,0.049621649,0.0286942579,0.04843504435,-0.007188,-0.021147,-0.004877,-1.721851607,-9.507154908999999,1.6789965464999999,-2.3436,1.323,1.706,0.000160000000000049,-9.999999999998899e-05,7.999999999996898e-05,-0.0018355625268946518,-6.219963873688172e-05,0.00014006776906505536
150000000000.0,1,0.045797055499999996,0.00330484105,0.06406684445,-0.010417,-0.02432,-0.003812,-1.7202825429999997,-9.507351042,1.679486879,-2.3442,1.3231,1.7064,5.999999999994898e-05,-9.999999999998899e-05,4.0000000000040004e-05,-6.354743633174564e-05,-0.000584984697391544,0.00023119034200913546
150000000000.0,1,0.0336171962,-0.01064021525,0.07303012254999999,-0.009373,-0.027526,-0.003806,-1.7188115455,-9.507547175,1.6802714109999999,-2.3449,1.3232,1.7067,0.000160000000000049,-9.999999999998899e-05,4.0000000000040004e-05,-0.0007536412116966318,-3.787997629678408e-05,-0.0003211531430085124
150000000000.0,1,0.05022966129999999,-0.0475818658,0.08356246465,-0.00941,-0.031791,-0.002734,-1.7170463484999998,-9.507645241499999,1.6810559429999998,-2.3456,1.3232,1.7071,1.999999999990898e-05,-0.00019999999999997797,3.999999999992898e-05,-0.00024019815189757487,-6.0281783452076354e-05,-0.0005657256446107706
150000000000.0,1,0.0430904201,-0.05110245315,0.0825523797,-0.013706,-0.034954,-0.00167,-1.7152811515,-9.507939441,1.6816443419999998,-2.3463,1.3233,1.7075,0.0001100000000000545,-9.999999999998899e-05,9.00000000000345e-05,0.00042811264256625847,-0.00028708796108389834,0.00017309176895441425
150000000000.0,1,0.0491705431,-0.029557243100000002,0.08277793265,-0.019067,-0.039173,-0.002742,-1.7134178879999997,-9.5082336405,1.6819385414999999,-2.3469,1.3235,1.7076,0.00017000000000000348,-0.00019999999999997797,0.00012000000000000899,0.00016643759614365372,-1.9645767427745042e-05,0.0004532506143697379
150000000000.0,1,0.03488225405,-0.0320089056,0.07352045505,-0.025452,-0.038054,-0.003824,-1.7117507575,-9.508625906499999,1.6814482089999998,-2.3473,1.3236,1.7076,9.00000000000345e-05,-9.999999999998899e-05,7.999999999996898e-05,-0.0001208342285736741,0.00029839914988305516,-0.00033594734134512194
150000000000.0,1,0.00771783355,-0.041639035899999996,0.09227076985,-0.030793,-0.041205,-0.007031,-1.7101816934999998,-9.5090181725,1.6807617434999997,-2.3475,1.3238,1.7074,-2.0000000000020002e-05,-0.00019999999999997797,8.000000000008001e-05,0.0006720121127934409,-0.0002633583990481192,-0.0004427429679794148
150000000000.0,1,-0.007247114349999999,-0.043345393,0.10160670064999999,-0.029684,-0.036951,-0.008104,-1.7086126295,-9.5094104385,1.6801733445,-2.3478,1.3239,1.7072,-4.999999999999449e-05,-9.999999999998899e-05,7.999999999996898e-05,-0.0007161839488101229,-0.0008931471587736439,-0.0006641195995311655
150000000000.0,1,-0.008865211599999999,-0.042413761249999994,0.1201314625,-0.027544,-0.038033,-0.010233,-1.7070435655,-9.509704638,1.679879145,-2.3482,1.3241,1.7072,9.99999999995449e-06,-9.999999999998899e-05,7.00000000000145e-05,0.00011306550563250362,-0.00018310621040229513,-0.0006286019448962232
150000000000.0,1,0.00420705285,-0.00734518085,0.10313653804999999,-0.025455,-0.04338,-0.009153,-1.7052783684999997,-9.510096904,1.6796830119999997,-2.3486,1.3242,1.7072,2.999999999997449e-05,-9.999999999998899e-05,0.00010999999999994348,0.0006929042431775834,-0.0005617032394882315,-4.977824126495278e-05
150000000000.0,1,0.0168282114,0.04398282525,0.06318424595,-0.027572,-0.042297,-0.010227,-1.703415105,-9.51048917,1.679094613,-2.349,1.3244,1.7072,-0.00010999999999994348,-0.00019999999999997797,4.0000000000040004e-05,-0.0011356457401305864,-7.900450155151617e-05,-0.001011498144843026
150000000000.0,1,0.022584714949999998,0.07761963475,0.0302829352,-0.029696,-0.041214,-0.010233,-1.7015518415,-9.511077569,1.677721682,-2.3491,1.3247,1.7069,2.0000000000020002e-05,-0.00010000000000021103,5.999999999994898e-05,0.0021922602308341865,-7.704213390491432e-05,0.00032732377430333415
150000000000.0,1,0.017426417049999997,0.0957521306,0.02011343915,-0.030736,-0.038009,-0.01024,-1.6997866445,-9.511665967999999,1.6758584184999998,-2.3491,1.3249,1.7064,-3.0000000000085514e-05,-0.00019999999999997797,9.00000000000345e-05,0.0003784631663172888,-9.733070179285264e-05,-0.00064642141453497
150000000000.0,1,0.0137685366,0.09586981039999999,0.05571157865,-0.034988,-0.036908,-0.011317,-1.698119514,-9.512254366999999,1.6743874209999998,-2.3492,1.3252,1.7061,-5.999999999994898e-05,-9.999999999998899e-05,2.999999999997449e-05,0.0012882327392664816,-5.822700988034057e-07,-0.0012882327392660375
150000000000.0,1,-0.011885659799999998,0.07120608565,0.08032627015,-0.034971,-0.035842,-0.012385,-1.6966485164999998,-9.512744699499999,1.6731125565,-2.3492,1.3254,1.7057,-9.00000000000345e-05,-9.999999999998899e-05,4.0000000000040004e-05,0.0006180570990306222,1.8134076215536865e-05,-0.0008865718267005995
150000000000.0,1,-0.0310870805,0.052867650149999994,0.10401913654999999,-0.034945,-0.03371,-0.013455,-1.6955697849999998,-9.5131369655,1.6721318914999999,-2.3492,1.3255,1.7054,-7.00000000000145e-05,-9.999999999998899e-05,4.0000000000040004e-05,0.0008475661073965579,5.081591283317977e-06,-0.0005584983131454724
150000000000.0,1,-0.0338525558,0.041384063,0.11197232969999998,-0.031723,-0.031606,-0.013452,-1.6942949205,-9.513431164999998,1.6715434925,-2.3494,1.3256,1.7052,-1.999999999990898e-05,-9.999999999998899e-05,3.999999999992898e-05,0.0006103319169126209,4.979981466424199e-05,-0.0008789464379432843
150000000000.0,1,-0.0233986669,0.04810161824999999,0.09560503085,-0.026405,-0.032718,-0.011305,-1.6931181224999998,-9.513725364499999,1.6711512265,-2.3497,1.3258,1.7051,-0.00010000000000010001,-9.999999999998899e-05,1.0000000000065512e-05,0.0003485250583334931,-0.0005324751714002041,-0.0002426893288314247
150000000000.0,1,-0.021770763000000002,0.05374044199999999,0.0651357693,-0.020027,-0.035967,-0.011287,-1.691843258,-9.514019564,1.6709550935,-2.35,1.3259,1.7051,-4.999999999999449e-05,-9.999999999998899e-05,1.999999999990898e-05,-5.8639630662327136e-06,0.00019152300594171834,-0.0005318533652305391
150000000000.0,1,-0.01791674955,0.053367789299999996,0.0599970847,-0.009367,-0.036058,-0.009132,-1.6907645265,-9.514019564,1.671641559,-2.3505,1.3259,1.7052,-1.999999999990898e-05,-0.00019999999999997797,7.00000000000145e-05,0.0007542506841322627,-0.0016621591502832267,0.001110843792758498
150000000000.0,1,-0.0233202137,0.04509097669999999,0.041138896749999994,-0.000853,-0.03826,-0.008045,-1.689881928,-9.514019564,1.672818357,-2.3511,1.3259,1.7055,-9.00000000000345e-05,-4.999999999988347e-05,-2.0000000000020002e-05,0.000279907058702511,0.00019563481672268956,-1.25605812326679e-05
150000000000.0,1,-0.0400699719,0.022751427999999997,0.0430119669,0.004464,-0.039371,-0.005897,-1.689293529,-9.513823430999999,1.6744854875,-2.3518,1.3258,1.7058,-0.0001100000000000545,-5.0000000000105516e-05,-1.999999999990898e-05,-0.0006396902709298047,0.00020802122277330248,-0.0006402913363383611
150000000000.0,1,-0.05488782005,0.0026870221,0.03586291905,0.007655,-0.0394,-0.003755,-1.689097396,-9.5135292315,1.6764468174999998,-2.3524,1.3257,1.706,-5.999999999994898e-05,-9.999999999998899e-05,-1.0000000000065512e-05,-0.0009421291705102863,-0.0002577577039635237,-0.0006243809738386563
150000000000.0,1,-0.04659139415,0.0063645158499999995,0.014268675749999998,0.010813,-0.041562,0.001593,-1.6891954624999999,-9.5131369655,1.6784081475,-2.353,1.3255,1.7062,-0.0001100000000000545,-4.999999999988347e-05,-9.99999999995449e-06,0.0008927731414070106,-0.00016207009970536923,-0.00047927541058156997
150000000000.0,1,-0.04117812334999999,0.026036655749999995,0.00152003075,0.008672,-0.040481,0.004792,-1.689685795,-9.512744699499999,1.680075278,-2.3534,1.3254,1.7061,-9.99999999995449e-06,-5.0000000000105516e-05,-9.99999999995449e-06,-0.0013002654350542375,0.00024167742983149942,0.00010244625087874049
150000000000.0,1,-0.04714056654999999,0.03727507665,-0.01315071765,0.007569,-0.041543,0.010131,-1.6907645265,-9.5123524335,1.6814482089999998,-2.3534,1.3252,1.7058,-9.00000000000345e-05,-9.999999999998899e-05,-1.0000000000065512e-05,0.0007014820884749806,-0.00011683049117361399,-0.0009276795769184165
150000000000.0,1,-0.03925601994999999,0.025350190249999998,-0.0101008495,0.00437,-0.039388,0.013326,-1.6920393909999998,-9.5119601675,1.6824288739999997,-2.3533,1.325,1.7053,-0.00010999999999994348,-9.999999999998899e-05,9.99999999995449e-06,-0.0010211917220619426,-0.00010453127607146229,-0.0008140677522692208
150000000000.0,1,-0.029537629799999996,0.00958109705,-0.014356935599999999,0.001153,-0.039364,0.016523,-1.693412322,-9.5115679015,1.6831153395,-2.3531,1.3249,1.7047,-7.999999999996898e-05,-5.0000000000105516e-05,-3.999999999992898e-05,-0.0011738184133993634,0.00036262636371087176,-0.000994961409627848
150000000000.0,1,-0.030792880999999998,-0.014121576,-0.013003617899999998,9.1e-05,-0.037226,0.018654,-1.6949813859999998,-9.511175635499999,1.6835076054999998,-2.3528,1.3247,1.704,-5.0000000000105516e-05,-4.999999999988347e-05,-2.0000000000020002e-05,-0.00036474904349947934,0.00013942497585350822,-0.0003380074036263281
150000000000.0,1,-0.0370299104,-0.05290687674999999,-0.0251638639,-0.006278,-0.035038,0.015438,-1.696354317,-9.511077569,1.6831153395,-2.3523,1.3246,1.7031,-0.00011999999999989797,-9.999999999998899e-05,-4.999999999921734e-06,-0.0005719175125071807,0.0004083268182848432,-0.0010618356550105013
150000000000.0,1,-0.028566771449999997,-0.037265269999999996,-0.02933169015,-0.008379,-0.030757,0.015428,-1.6976291815,-9.5109795025,1.682232741,-2.3516,1.3246,1.7021,-1.0000000000065512e-05,-9.999999999998899e-05,-5.000000000032756e-06,-0.0008187438106548317,0.00018265021731411757,0.0002184021597064767
150000000000.0,1,0.00640374245,-0.0093751574,-0.03384274915,-0.009436,-0.030746,0.013291,-1.6983156469999998,-9.5109795025,1.681252076,-2.3511,1.3246,1.7013,-9.00000000000345e-05,-3.333333333332966e-05,-2.0000000000020002e-05,-0.00018687242855541797,0.0004003132274168486,-0.0008698827818909294
150000000000.0,1,0.01018910935,0.0038245934999999996,-0.0397953857,-0.006232,-0.030771,0.012229,-1.6990021124999999,-9.511077569,1.680467544,-2.3507,1.3246,1.7005,-4.999999999921734e-06,-3.333333333332966e-05,-9.99999999995449e-06,-0.0003614122784321161,-0.000206224467871996,0.00030171519234878375
150000000000.0,1,0.0246539181,0.0137096967,-0.040658370900000004,-0.000893,-0.030814,0.01117,-1.6992963119999998,-9.511077569,1.680075278,-2.3505,1.3246,1.7,-5.000000000032756e-06,-3.333333333332966e-05,-1.0000000000065512e-05,6.830392661139051e-05,0.0005459787225254864,0.0001324776085549484
150000000000.0,1,0.024663724749999998,0.00930651085,-0.04262950755,0.004465,-0.027661,0.011173,-1.6993943784999999,-9.5109795025,1.6802714109999999,-2.3505,1.3246,1.6998,9.99999999995449e-06,-3.333333333332966e-05,-2.0000000000020002e-05,-0.00026490914577048663,-5.15098222522159e-05,-0.0007669410253601239
150000000000.0,1,0.023732092999999996,-0.0327738243,-0.04406127844999999,0.005524,-0.029799,0.009042,-1.6993943784999999,-9.5109795025,1.680467544,-2.3506,1.3246,1.6995,-4.999999999999449e-05,-3.333333333355171e-05,-2.999999999997449e-05,-0.00016805255571838984,-8.926498016714746e-05,-0.0004710665774534384
150000000000.0,1,0.0062566426999999996,-0.0528186169,-0.0411094768,0.010823,-0.034105,0.009058,-1.6995905114999998,-9.510783369499999,1.6811540095,-2.3507,1.3245,1.6993,-0.00011999999999989797,-3.333333333332966e-05,-6.0000000000060005e-05,-0.001308438235954501,0.0005537706959952704,-0.0006802689469136425
150000000000.0,1,-0.0150826277,-0.0555840922,-0.028243152,0.010835,-0.033037,0.007989,-1.699884711,-9.5105872365,1.682036608,-2.3509,1.3245,1.6992,-4.0000000000040004e-05,-5.0000000000105516e-05,-9.99999999995449e-06,-0.0006491361522071859,7.90030635340333e-05,-0.0007149926874070456
150000000000.0,1,-0.03339164325,-0.07465802645,-0.028762904449999998,0.008677,-0.037279,0.005859,-1.700276977,-9.5103911035,1.68282114,-2.351,1.3244,1.699,-6.0000000000060005e-05,-4.999999999988347e-05,-4.999999999999449e-05,-0.0004888796838773413,-0.0007319616403533846,-0.0005545426061195347
150000000000.0,1,-0.049847201949999996,-0.07705084905,-0.014317708999999998,0.002299,-0.036157,0.002645,-1.7006692429999999,-9.510194970499999,1.683409539,-2.3511,1.3243,1.6987,-3.999999999992898e-05,3.333333333332966e-05,3.3333333333551707e-06,-0.0005905235701979539,6.396735634361939e-05,-0.00040139084056955987
150000000000.0,1,-0.05714334954999999,-0.0574865823,-0.018828768,-0.006188,-0.028629,0.004754,-1.7012576419999998,-9.510194970499999,1.6829192065,-2.3508,1.3243,1.6981,-4.0000000000040004e-05,3.333333333332966e-05,3.3333333332441484e-06,2.8306754614959573e-05,-0.0004814665066610324,-0.00033158803771682344
150000000000.0,1,-0.045787248850000004,-0.0346959277,-0.0202605389,-0.010442,-0.027527,0.003679,-1.7018460409999998,-9.510194970499999,1.6821346744999999,-2.3504,1.3243,1.6974,-4.0000000000040004e-05,3.333333333332966e-05,3.3333333333551707e-06,0.00037916407736182656,-6.1072231694048185e-06,-0.00013096182176774995
150000000000.0,1,-0.014945334599999999,-0.03309744375,-0.0111403544,-0.006131,-0.023297,0.001545,-1.7018460409999998,-9.510293036999999,1.6815462755,-2.3502,1.3243,1.697,-1.999999999990898e-05,-5.0000000000105516e-05,-9.99999999995449e-06,-9.401027760702618e-07,3.5380599937573365e-05,-8.215928807109307e-05
150000000000.0,1,0.0150826277,-0.01248386545,-0.016082905999999998,0.000287,-0.021219,0.001551,-1.7013557085,-9.51048917,1.6814482089999998,-2.3503,1.3244,1.6968,-0.00012000000000000899,-4.999999999988347e-05,-9.99999999995449e-06,0.0011213154707221396,-0.0005719317438654947,-0.0006591807123024207
150000000000.0,1,0.025310963649999997,-0.04062895095,-0.0408741172,0.007755,-0.022344,-0.00057,-1.70047311,-9.5105872365,1.6815462755,-2.3506,1.3244,1.6969,2.0000000000020002e-05,9.999999999998899e-05,1.999999999990898e-05,0.00022598897555115016,5.953615654541444e-05,-0.0003694602810253578
150000000000.0,1,0.02391841935,-0.07786480099999998,-0.05905564629999999,0.009918,-0.019163,-0.001641,-1.6993943784999999,-9.510783369499999,1.6815462755,-2.3509,1.3245,1.6971,9.99999999995449e-06,5.0000000000105516e-05,-9.99999999995449e-06,0.00045147458728833634,0.00015112914046966353,-0.00047604420431546224
150000000000.0,1,0.022967174299999997,-0.08953471449999999,-0.053809088549999995,0.011035,-0.013842,-0.003784,-1.6983156469999998,-9.510881436,1.681840475,-2.3513,1.3246,1.6973,4.999999999921734e-06,5.0000000000105516e-05,2.999999999997449e-05,-9.276164045690649e-05,-0.00025921377282678293,-4.8124881722788615e-05
150000000000.0,1,0.019113160849999998,-0.07767847464999998,-0.04943532265,0.008953,-0.008495,-0.005933,-1.697138849,-9.511077569,1.682036608,-2.3517,1.3247,1.6976,5.000000000032756e-06,5.0000000000105516e-05,-9.99999999995449e-06,-3.197903582097261e-05,-0.0002417844052631235,-4.725837727170834e-05
150000000000.0,1,0.0251246373,-0.023231953849999997,-0.0325384647,0.007922,-0.003159,-0.004878,-1.696158184,-9.511273701999999,1.6823308075,-2.3521,1.3247,1.698,-9.99999999995449e-06,4.999999999988347e-05,-1.0000000000065512e-05,-0.00022174879033221018,-9.628718757270782e-05,-0.00027193951423809537
150000000000.0,1,0.0203782187,0.0214373369,-0.0404230113,0.007936,3.5e-05,-0.00275,-1.6955697849999998,-9.511273701999999,1.6824288739999997,-2.3523,1.3248,1.6982,-2.0000000000020002e-05,2.4999999999941735e-05,-2.999999999997449e-05,-0.0003374626828716032,0.00012194630300088605,-0.0004071239907834645
150000000000.0,1,0.03166567285,0.0262229821,-0.06961740834999999,0.010091,0.004278,-0.00062,-1.6950794525,-9.511469835,1.6821346744999999,-2.3524,1.3248,1.6983,7.00000000000145e-05,2.4999999999941735e-05,1.0000000000065512e-05,-0.001077542446340951,-0.00017720051609004805,9.004751960817181e-05
150000000000.0,1,0.0407564374,0.0354804597,-0.095124505,0.013295,0.006381,0.001515,-1.6946871864999997,-9.5115679015,1.6817424085,-2.3524,1.3249,1.6983,4.0000000000040004e-05,2.500000000016378e-05,-2.0000000000020002e-05,0.00017159501527008736,-0.000493939460999071,8.327692765752737e-05
150000000000.0,1,0.044100505049999995,0.01521011415,-0.0987921921,0.017576,0.008478,0.001518,-1.6942949205,-9.511665967999999,1.6816443419999998,-2.3524,1.3249,1.6986,4.999999999999449e-05,2.4999999999941735e-05,-2.0000000000020002e-05,-0.0002194187050115204,-0.0001296640844188346,-0.00014967591056835872
150000000000.0,1,0.0452478831,-0.04545382275,-0.1021460664,0.014461,0.017033,-0.002775,-1.6935103885,-9.511862101,1.6811540095,-2.3525,1.325,1.6988,0.00010999999999994348,9.999999999998899e-05,-2.0000000000020002e-05,0.0005145740827798839,-0.00018903904978984087,0.000416195623881066
150000000000.0,1,0.039814999,-0.10513709464999998,-0.08269947944999999,0.011316,0.022391,-0.005994,-1.692431657,-9.512254366999999,1.6803694775,-2.3526,1.3251,1.6991,6.0000000000060005e-05,4.999999999988347e-05,-9.99999999995449e-06,0.0009394059176244252,-0.0006077884328259398,0.0004507601687049334
150000000000.0,1,0.0423843413,-0.1247602013,-0.06559668184999999,0.007116,0.029887,-0.008152,-1.691058726,-9.512646633,1.679290746,-2.3527,1.3253,1.6995,7.00000000000145e-05,5.0000000000105516e-05,-4.0000000000040004e-05,-0.0013154452473806977,0.0004032769287281024,-0.00029860959511340823
150000000000.0,1,0.048454657649999996,-0.11748366699999999,-0.05067096054999999,0.001838,0.035261,-0.011375,-1.6894896619999997,-9.513235032,1.6778197485,-2.3527,1.3255,1.6999,9.99999999995449e-06,5.0000000000105516e-05,9.99999999995449e-06,0.0009832333719603792,-0.0004104353878675582,0.0006104842262086851
150000000000.0,1,0.03947176625,-0.08368995109999999,-0.04443393115,-0.004522,0.040642,-0.011398,-1.6882147975,-9.513725364499999,1.675956485,-2.3526,1.3258,1.7001,0.00010999999999994348,4.999999999988347e-05,1.0000000000065512e-05,0.00040899515611281245,4.659026306486069e-05,0.0006004275085502719
150000000000.0,1,0.0215354034,-0.0420705285,-0.034401728199999995,-0.007704,0.043864,-0.010343,-1.6874302655,-9.514215697,1.6739951549999998,-2.3522,1.326,1.7002,0.00010000000000010001,9.999999999998899e-05,9.99999999995449e-06,-0.0003299257127318267,0.00042154402265026647,-0.00025313477310962007
150000000000.0,1,0.0019024901,-0.0180834626,-0.0200644059,-0.005571,0.043846,-0.010339,-1.6871360659999999,-9.514607963,1.6723280244999998,-2.3518,1.3261,1.7002,8.999999999992347e-05,5.0000000000105516e-05,1.0000000000065512e-05,0.0016813765254739543,-0.0001855161268919936,0.0008983779359552635
150000000000.0,1,0.0020986231,0.012366185649999998,-0.01248386545,-0.001313,0.042746,-0.01033,-1.6868418664999998,-9.514804095999999,1.6713473595,-2.3516,1.3262,1.7004,0.00012000000000000899,4.999999999988347e-05,1.4999999999987246e-05,0.0011757092788622359,-0.0004693506845077078,0.00045851827465082096
150000000000.0,1,0.00577611685,0.02788030595,0.0027360553499999997,0.003999,0.04057,-0.00925,-1.6866457335,-9.514902162499999,1.6709550935,-2.3515,1.3263,1.7008,7.999999999996898e-05,9.999999999998899e-05,1.4999999999987246e-05,-0.0005172737524150595,-0.00023708750628981257,0.00016966706877474813
150000000000.0,1,-0.0040403398,0.0022555294999999998,0.01273883835,0.007181,0.039476,-0.007107,-1.6867437999999997,-9.514902162499999,1.6711512265,-2.3516,1.3262,1.7012,8.000000000008001e-05,5.0000000000105516e-05,-2.999999999997449e-05,-0.0005829737000184743,-0.0004471894698847567,0.00029982685633900275
150000000000.0,1,-0.013788149899999998,-0.011454167199999999,0.015347407249999999,0.007176,0.039475,-0.006039,-1.6870379994999998,-9.514804095999999,1.6713473595,-2.3515,1.3262,1.7016,4.999999999999449e-05,4.999999999988347e-05,-5.000000000032756e-06,-0.00018133889888316546,-1.9292072314991415e-05,0.0003875908674113582
150000000000.0,1,-0.0029812216,0.0016180972499999998,0.0164947853,0.007163,0.038408,-0.00497,-1.6871360659999999,-9.5147060295,1.6717396255,-2.3516,1.3262,1.7021,0.00012000000000000899,9.999999999998899e-05,-5.000000000032756e-06,0.0006251168305209109,-0.0003138465925656142,0.0006353090961128682
150000000000.0,1,-0.00061781895,0.013739116649999997,0.034284048399999996,0.008234,0.039463,-0.003903,-1.6874302655,-9.5145098965,1.6723280244999998,-2.3517,1.3261,1.7026,7.00000000000145e-05,5.0000000000105516e-05,-2.999999999997449e-05,-0.0005321091704413305,0.0002253637840139433,-6.130032113915718e-06
150000000000.0,1,-0.00210842975,-0.0012650578499999998,0.05418174125,0.003974,0.039499,-0.004977,-1.6877244649999998,-9.514313763499999,1.6731125565,-2.3518,1.326,1.7031,8.999999999992347e-05,4.999999999988347e-05,9.99999999995449e-06,-0.0003295956557858304,4.5823823037194344e-05,-7.000823734060191e-07
150000000000.0,1,0.00101008495,-0.02013305245,0.0716473849,0.003962,0.038432,-0.003908,-1.6879205979999998,-9.514215697,1.6738970885,-2.352,1.326,1.7037,0.0001100000000000545,9.999999999998899e-05,2.0000000000020002e-05,0.0009674302345394903,-0.00018774865710891042,0.0008478155692588363
150000000000.0,1,0.00791396655,-0.04137425634999999,0.0786101064,0.001851,0.041644,-0.002851,-1.6880186645,-9.514019564,1.6745835539999998,-2.3522,1.3259,1.7043,5.999999999994898e-05,9.999999999998899e-05,-2.0000000000020002e-05,-0.0005633832624842849,0.00042264007256731517,-0.0001830496083983224
150000000000.0,1,0.0023339827,-0.049454935949999994,0.08658291285,0.001828,0.038447,-0.002846,-1.6881167309999998,-9.513921497499998,1.6752700195,-2.3524,1.3258,1.7048,7.00000000000145e-05,9.999999999998899e-05,2.0000000000020002e-05,0.0006607082335865488,-0.0001909443457182025,0.0004540722750239201
150000000000.0,1,0.024712757999999998,-0.021329463749999996,0.09219231665,0.00291,0.040567,-0.001782,-1.6881167309999998,-9.513725364499999,1.6762506844999998,-2.3527,1.3258,1.7056,0.0001100000000000545,9.999999999998899e-05,2.0000000000020002e-05,0.00010599994213755792,0.00032013702779698505,0.00042648563285929697
150000000000.0,1,0.050278694549999996,0.0007060788,0.0892209017,0.012492,0.038354,-0.000696,-1.6877244649999998,-9.513431164999998,1.6780158815,-2.3533,1.3257,1.7066,6.999999999990347e-05,9.999999999998899e-05,-9.99999999995449e-06,0.00030900944637934913,-3.7181894069870935e-05,0.0007439564242406327
150000000000.0,1,0.07198081099999999,-0.0086690786,0.0683327372,0.01887,0.035103,-0.000682,-1.6870379994999998,-9.513235032,1.6801733445,-2.3542,1.3256,1.7078,7.00000000000145e-05,9.999999999998899e-05,9.99999999995449e-06,-0.00016940092582529154,-0.00024178564071886122,0.00045859146650228944
150000000000.0,1,0.09243748289999999,-0.02560516315,0.0316754795,0.02312,0.032933,-0.000721,-1.6859592679999997,-9.513038899,1.682232741,-2.3551,1.3255,1.7091,9.00000000000345e-05,9.999999999998899e-05,-2.0000000000020002e-05,0.0002555381750948271,0.0005473112899905264,-0.000384363120265796
150000000000.0,1,0.10147921419999999,-0.028439284999999995,0.022270902149999997,0.023093,0.030799,0.001413,-1.68478247,-9.5129408325,1.6841940709999998,-2.356,1.3254,1.7103,9.00000000000345e-05,9.999999999998899e-05,-9.99999999995449e-06,-0.0013108543660094174,-0.0005204429906240371,0.0006563871196634263
150000000000.0,1,0.10245007255,-0.04251182775,0.0146707484,0.017767,0.029779,-0.001801,-1.683409539,-9.5129408325,1.6856650684999999,-2.3569,1.3254,1.7115,9.999999999998899e-05,5.0000000000105516e-05,-1.0000000000065512e-05,-0.001491934932454697,0.0002341673272907574,0.0012217479845224588
150000000000.0,1,0.09645820939999998,-0.0419920753,0.0150630144,0.012448,0.033016,0.000314,-1.6821346744999999,-9.5129408325,1.6864496005,-2.3575,1.3254,1.7124,-4.0000000000040004e-05,5.0000000000105516e-05,-2.999999999997449e-05,0.0006977521444759827,-0.0001803408311293886,-0.00026312188325383623
150000000000.0,1,0.08546495475,-0.037265269999999996,0.03672590425,0.004983,0.032013,-0.001835,-1.6810559429999998,-9.513038899,1.6871360659999999,-2.358,1.3255,1.7133,7.00000000000145e-05,4.999999999988347e-05,-9.99999999995449e-06,-0.0010683071580430692,0.00028926979762888827,0.00044723886036424076
150000000000.0,1,0.08638677985,-0.0629390797,0.045600922499999995,-0.000362,0.029925,-0.002912,-1.6796830119999997,-9.513235032,1.6872341325,-2.3584,1.3256,1.714,9.99999999995449e-06,5.0000000000105516e-05,2.0000000000020002e-05,0.001262676409987007,-0.0004810855779564527,4.015351926844879e-05
150000000000.0,1,0.0791396655,-0.0695291485,0.03284247085,-0.003587,0.026754,-0.002916,-1.678506214,-9.5135292315,1.6867437999999997,-2.3587,1.3257,1.7145,8.000000000008001e-05,5.0000000000105516e-05,9.99999999995449e-06,-0.0012259628622188767,0.00021969802943000438,0.00031717493897676086
150000000000.0,1,0.07255940335,-0.0572512227,0.0205155118,-0.002579,0.019285,-0.002904,-1.6771332829999999,-9.513921497499998,1.6864496005,-2.359,1.3258,1.715,-1.0000000000065512e-05,4.999999999988347e-05,-4.999999999921734e-06,0.0014693739274951323,-0.0006713816558314711,0.00022632392186960892
150000000000.0,1,0.07000967435,-0.04573821559999999,0.0076295737,-0.001566,0.013946,-0.000762,-1.675956485,-9.5141176305,1.6859592679999997,-2.3592,1.3259,1.7153,1.0000000000065512e-05,4.999999999988347e-05,-5.000000000032756e-06,-2.336008520709143e-05,0.0004338954720874977,-0.00014532191507532488
150000000000.0,1,0.0759230843,-0.02211399575,-0.0047660318999999994,-0.001614,0.008616,0.000312,-1.6747796869999998,-9.514411829999998,1.6854689354999999,-2.3594,1.3261,1.7156,0.00015999999999993797,5.0000000000105516e-05,1.999999999990898e-05,0.001632660361859939,0.0004923250923192235,0.00019691914185560044
150000000000.0,1,0.08777932415,0.013386077249999998,0.0027654753,0.000467,0.003268,0.002456,-1.6736028889999999,-9.514607963,1.685567002,-2.3598,1.3261,1.716,-3.999999999992898e-05,5.0000000000105516e-05,-3.999999999992898e-05,-0.0004896469219808353,-4.7018232852691355e-05,0.0005107298966149365
150000000000.0,1,0.08391550404999999,0.0315577997,0.007649186999999999,0.003623,-0.001024,0.004601,-1.672818357,-9.5147060295,1.6860573344999998,-2.3602,1.3262,1.7164,0.00013999999999991797,4.999999999988347e-05,-2.0000000000020002e-05,-7.451191112339828e-06,-0.0001595092801927045,8.719949806446081e-06
150000000000.0,1,0.07754118155,0.02311427405,0.0205155118,0.006726,-0.012773,0.005691,-1.6719357584999999,-9.514607963,1.6873321989999999,-2.3608,1.3261,1.7169,2.0000000000020002e-05,-2.4999999999941735e-05,-2.0000000000020002e-05,-0.00021805130619156898,0.0001500296649383781,-0.0005456557120844252
150000000000.0,1,0.07328509544999999,0.00473661195,0.02846870495,0.007763,-0.015981,0.006763,-1.6711512265,-9.5145098965,1.6888031964999999,-2.3615,1.3261,1.7174,6.0000000000060005e-05,-2.4999999999941735e-05,-2.0000000000020002e-05,-0.0003736018917361861,-0.00022527795113291837,-5.72513416012832e-05
150000000000.0,1,0.0676266584,-0.00365788045,0.02740958675,0.008791,-0.020254,0.007837,-1.6703666945,-9.514313763499999,1.6904703269999999,-2.3622,1.326,1.7179,4.999999999999449e-05,-2.500000000016378e-05,-2.999999999997449e-05,1.4459497889474093e-05,-0.00015715141495853402,6.931656205888537e-05
150000000000.0,1,0.05867318694999999,0.0008139519499999999,0.028184312099999997,0.006616,-0.025565,0.00784,-1.669680229,-9.514215697,1.6920393909999998,-2.3629,1.326,1.7184,-4.999999999999449e-05,-2.4999999999941735e-05,-4.0000000000040004e-05,-0.00036754181034681643,-0.0006835994623128894,-0.0013770601948881467
150000000000.0,1,0.04396321195,-0.02982202265,0.05584887175,0.004436,-0.030877,0.008911,-1.6691898964999998,-9.513921497499998,1.6940007209999999,-2.3636,1.3258,1.7188,9.99999999995449e-06,9.999999999998899e-05,-2.999999999997449e-05,0.00023111319479252046,0.00025413741916313626,-0.00043952916954603793
150000000000.0,1,0.03552949295,-0.049445129299999994,0.07314780235,0.003352,-0.031937,0.011044,-1.6687976304999999,-9.513627298,1.696158184,-2.3643,1.3257,1.7192,2.999999999997449e-05,-9.999999999998899e-05,-2.0000000000020002e-05,-0.00038240007080592164,-0.00047447610084283554,-0.00037494696125150995
150000000000.0,1,0.04043281795,-0.0482683313,0.0791200522,0.004401,-0.035142,0.009982,-1.6683072979999998,-9.513235032,1.6984137135,-2.3651,1.3256,1.7196,-1.999999999990898e-05,-1.666666666655381e-05,-2.999999999997449e-05,0.00014590957212945455,-6.077909049206909e-05,-6.295050134452751e-05
150000000000.0,1,0.0550545331,-0.06685193304999999,0.0828073526,0.006518,-0.036229,0.01212,-1.6677188989999998,-9.5129408325,1.700865376,-2.366,1.3254,1.7201,1.999999999990898e-05,-1.6666666666775853e-05,-3.999999999992898e-05,-0.0003626984009736933,0.0003876282663897168,-0.00036208699218609475
150000000000.0,1,0.06374322499999999,-0.06428259075,0.06648908699999999,0.007545,-0.041567,0.012128,-1.6669343669999999,-9.512646633,1.7031209054999998,-2.3669,1.3253,1.7206,4.0000000000040004e-05,-1.6666666666775853e-05,9.99999999995449e-06,-0.0002456765051526144,-0.00018561969621577745,-0.0006380040937947751
150000000000.0,1,0.08300348559999998,-0.05579003184999999,0.042080335149999995,0.01076,-0.040528,0.01106,-1.665757569,-9.5124505,1.7053764349999998,-2.368,1.3252,1.7212,2.999999999997449e-05,-1.666666666655381e-05,-2.0000000000020002e-05,-0.00030278612424861073,0.0002224630267371186,-4.99074162683133e-05
150000000000.0,1,0.09356524764999999,-0.03358777625,0.0233006004,0.010754,-0.044786,0.005727,-1.6639923719999998,-9.5124505,1.7075338979999999,-2.3691,1.3252,1.7219,-2.999999999997449e-05,-1.666666666655381e-05,-2.0000000000020002e-05,-5.50201577182996e-05,-0.0002582888916660142,-0.0005187621868123493
150000000000.0,1,0.0931043351,-0.026791767799999998,0.0039128533499999995,0.007555,-0.045825,0.003584,-1.6620310419999997,-9.5124505,1.7091029619999998,-2.3702,1.3252,1.7225,4.0000000000040004e-05,-1.6666666666775853e-05,-2.999999999997449e-05,8.454293789172951e-05,-9.20921793221563e-05,-0.0004746735186094142
150000000000.0,1,0.06696961285,-0.026360275199999998,0.012905551399999998,0.007556,-0.045826,0.003581,-1.6604619779999998,-9.5124505,1.7107700924999998,-2.3711,1.3252,1.723,-1.0000000000065512e-05,-4.999999999988347e-05,-6.666666666710341e-06,-0.0005591585215110051,-0.00022190553635503818,-0.000653356508195202
150000000000.0,1,0.058369180799999996,-0.025232510450000002,0.01362143685,0.001162,-0.046836,0.000367,-1.658696781,-9.5125485665,1.712044957,-2.372,1.3253,1.7234,2.999999999997449e-05,-5.0000000000105516e-05,-6.666666666599319e-06,-0.00019724051492131522,-0.00021000265269299767,-0.0003148010422884262
150000000000.0,1,0.051053419899999994,-0.02079990465,0.0222807088,-0.000971,-0.046819,0.000361,-1.6571277169999998,-9.512646633,1.713025622,-2.3728,1.3253,1.7237,3.0000000000085514e-05,-2.4999999999941735e-05,-6.666666666710341e-06,-0.001497703463840594,-6.019916197441688e-05,-4.612578972995607e-06
150000000000.0,1,0.03209716545,-0.03702010375,0.045463629400000004,-0.00412,-0.042528,-0.002856,-1.6554605864999998,-9.512744699499999,1.7141043535,-2.3736,1.3253,1.724,-4.0000000000040004e-05,-2.500000000016378e-05,-2.999999999997449e-05,4.0416920367603026e-05,-6.224201254090289e-05,-0.000677785684853438
150000000000.0,1,0.028674644599999997,-0.07591327764999999,0.0448163905,-0.003047,-0.042537,-0.003923,-1.6536953895,-9.512842766,1.7148888855,-2.3744,1.3254,1.7244,-9.99999999995449e-06,-2.4999999999941735e-05,6.666666666710341e-06,0.00039580594818611203,-1.0990274064814898e-05,-0.00021027238873516652
150000000000.0,1,0.0269879008,-0.07420692055,0.03776540915,-0.004119,-0.044658,-0.006058,-1.6517340594999999,-9.513038899,1.7156734175,-2.3752,1.3255,1.7247,-1.0000000000065512e-05,-2.4999999999941735e-05,6.666666666599319e-06,-0.0005426267679418117,-0.00025656303107135514,-0.0003598274825793446
150000000000.0,1,0.0223787753,-0.07089227285,0.028086245599999997,-0.000911,-0.042556,-0.003922,-1.6499688625,-9.513235032,1.716359883,-2.3759,1.3256,1.725,-5.999999999994898e-05,-3.333333333332966e-05,6.666666666710341e-06,0.00066279820682702,-0.00016178538598277115,-0.000516267323082964
150000000000.0,1,0.009414384,-0.0678816313,0.0094732239,-0.00307,-0.043607,-0.000723,-1.6486939979999997,-9.513431164999998,1.7167521489999997,-2.3764,1.3256,1.7251,2.0000000000020002e-05,-3.333333333355171e-05,9.99999999995449e-06,0.0002874871955071967,0.00010174622813319267,-0.0002685411063598764
150000000000.0,1,-2.941995e-05,-0.06192899475,-0.00287334845,-0.006267,-0.040388,0.003535,-1.6481055989999998,-9.5135292315,1.7166540825,-2.3766,1.3257,1.7248,-4.999999999999449e-05,-3.333333333332966e-05,-5.000000000032756e-06,-0.00019458129620852915,-0.0002539532019778523,-0.0005427212123150227
150000000000.0,1,-0.012346572349999998,-0.05439748755,0.0060703163499999995,-0.008422,-0.040375,0.007801,-1.6480075324999999,-9.513627298,1.716359883,-2.3765,1.3257,1.7243,-1.0000000000065512e-05,0.00010000000000021103,-4.999999999921734e-06,-0.0011466112166067521,0.00041683016984239707,-0.0004444653021866696
150000000000.0,1,-0.0019122967499999998,-0.005462304049999999,0.0103362091,-0.010546,-0.037164,0.010994,-1.648301732,-9.5135292315,1.7161637499999998,-2.3764,1.3257,1.7238,-7.00000000000145e-05,-0.00010000000000021103,2.0000000000020002e-05,5.2912793856219054e-05,-0.00029091115373858223,-0.0009748629371317818
150000000000.0,1,-0.0035500073,0.038677427599999994,0.0064920023,-0.007372,-0.039324,0.013138,-1.649086264,-9.513431164999998,1.7162618164999999,-2.3762,1.3256,1.7232,2.999999999997449e-05,-4.999999999988347e-05,-1.0000000000065512e-05,-0.00031367416199312714,0.0003351652825493989,0.0001640822864903413
150000000000.0,1,-0.0127682583,0.039510992849999996,0.0014219642499999998,-0.004192,-0.042545,0.012083,-1.6498707959999999,-9.513235032,1.7167521489999997,-2.3761,1.3256,1.7226,-6.999999999990347e-05,-5.0000000000105516e-05,-2.0000000000020002e-05,0.0006454407102560733,-3.8082428959640424e-05,-0.0009947391154188079
150000000000.0,1,-0.02185902285,0.00573689025,-0.016867438,0.002204,-0.042599,0.013163,-1.6507533945,-9.5129408325,1.7172424814999998,-2.3759,1.3254,1.7221,2.999999999997449e-05,-1.999999999990898e-05,-1.999999999990898e-05,-0.001546854123657626,-0.0004917643897830448,-0.00048287264540092245
150000000000.0,1,-0.0303025485,-0.0194563936,-0.02185902285,0.001177,-0.039389,0.009954,-1.6516359929999997,-9.512744699499999,1.717536681,-2.3758,1.3254,1.7215,-2.0000000000020002e-05,-2.0000000000131024e-05,-3.0000000000085514e-05,-0.00040862166559696433,6.701428565891732e-05,-0.0005615823037934398
150000000000.0,1,-0.023006400899999998,-0.013807763199999998,-0.008433719,0.001213,-0.03619,0.007815,-1.6522243919999997,-9.5125485665,1.7180270135,-2.3757,1.3253,1.7211,9.99999999995449e-06,-1.999999999990898e-05,2.0000000000020002e-05,1.1322557797122101e-05,0.00025724701533857974,-0.00017904592361439597
150000000000.0,1,0.00102969825,-0.01273883835,0.006501808949999999,0.003406,-0.030877,0.004607,-1.6521263255,-9.5124505,1.7188115455,-2.376,1.3252,1.7211,2.0000000000020002e-05,-2.0000000000131024e-05,4.999999999999449e-05,0.0009983355057177068,-0.0007348939807001464,0.00018770480925467403
150000000000.0,1,0.0269290609,0.0010787315,0.01723028405,0.003454,-0.025549,0.003529,-1.6515379264999999,-9.5123524335,1.719890277,-2.3765,1.3252,1.7213,-3.999999999992898e-05,-1.999999999990898e-05,-3.999999999992898e-05,-0.0005716544540295132,-0.0002490228924607596,-0.00039117080687622874
150000000000.0,1,0.03890298055,-0.02454604495,0.00463854545,0.005614,-0.02237,0.003525,-1.6508514609999998,-9.512254366999999,1.720870942,-2.377,1.3252,1.7215,-4.0000000000040004e-05,9.999999999998899e-05,9.99999999995449e-06,0.0007834788523493064,1.2292491202492428e-05,-0.0003926466228125758
150000000000.0,1,0.0419920753,-0.0415409694,-0.009532063799999999,0.003519,-0.01809,0.002445,-1.6498707959999999,-9.5123524335,1.7213612744999998,-2.3774,1.3252,1.7218,2.0000000000020002e-05,-0.00019999999999997797,-2.999999999997449e-05,-0.00026809153393858587,-0.00010504419912882312,-0.0008008523167288839
150000000000.0,1,0.038157675149999994,-0.0580161414,-0.0111207411,0.002488,-0.014883,0.0003,-1.648890131,-9.5125485665,1.7216554739999999,-2.3778,1.3253,1.722,2.0000000000020002e-05,9.999999999998899e-05,2.0000000000020002e-05,-0.0014309345276610763,3.2260250870663754e-05,0.0003613358209895168
150000000000.0,1,0.033538742999999996,-0.06310579275,-0.0028831550999999997,0.000427,-0.006341,-0.000787,-1.6480075324999999,-9.512646633,1.7216554739999999,-2.378,1.3253,1.7222,-7.00000000000145e-05,1.0000000000065512e-05,9.99999999995449e-06,0.0015948653277089164,-0.0002243164159347888,-0.0004182555721312653
150000000000.0,1,0.021349077049999998,-0.06806795765,0.008257199299999999,0.000446,-0.005273,-0.002925,-1.6471249339999998,-9.512744699499999,1.7217535405,-2.3783,1.3254,1.7224,-1.0000000000065512e-05,9.999999999843467e-06,9.99999999995449e-06,-0.00013824979241428004,0.0003277601202413827,0.0001911169742216945
150000000000.0,1,0.00246146915,-0.04637564784999999,0.00932612415,-0.002724,-0.002049,-0.004004,-1.6466346015,-9.5129408325,1.7213612744999998,-2.3784,1.3254,1.7224,4.0000000000040004e-05,1.0000000000065512e-05,1.4999999999987246e-05,-0.0012231630291970053,0.0001296466623263992,-0.00040184499111606264
150000000000.0,1,-0.016514398599999997,-0.028243152,0.0023928226,-0.009091,0.002266,-0.004023,-1.6465365349999999,-9.5131369655,1.720478676,-2.3782,1.3255,1.7222,-4.999999999999449e-05,1.0000000000065512e-05,1.5000000000098268e-05,0.0015697080548466857,-0.0006041529301459292,-7.705254049872323e-05
150000000000.0,1,-0.02672312125,-0.0073157609,0.00250069575,-0.010138,0.00547,-0.002962,-1.6468307345,-9.513235032,1.7194980109999998,-2.3778,1.3256,1.7219,1.4999999999987246e-05,9.999999999843467e-06,9.99999999995449e-06,3.850671854421783e-05,-0.00011513998095469269,1.4295042596534913e-05
150000000000.0,1,-0.035882532349999996,-0.020368412049999996,0.008472945599999998,-0.010117,0.008666,-0.001899,-1.6472230005,-9.513333098499999,1.718517346,-2.3774,1.3256,1.7215,1.4999999999987246e-05,1.0000000000065512e-05,2.999999999997449e-05,-0.0003768439180580341,-2.9028549211052024e-05,0.0003470398916365358
150000000000.0,1,-0.02974356945,-0.0322246519,0.01056176205,-0.009039,0.010788,-0.000832,-1.647713333,-9.513431164999998,1.7174386145,-2.3769,1.3257,1.7212,-2.0000000000020002e-05,1.0000000000065512e-05,1.4999999999987246e-05,2.4260353208571672e-06,0.0001150730517671672,-8.677087915676118e-05
150000000000.0,1,-0.021564823349999998,-0.018583601749999998,0.014219642499999997,-0.004759,0.012883,0.00024,-1.6482036654999999,-9.5135292315,1.7167521489999997,-2.3766,1.3257,1.721,-2.0000000000020002e-05,1.0000000000065512e-05,1.5000000000098268e-05,0.0002649511010317518,-0.0003946862275445717,-3.147092803557072e-05
150000000000.0,1,-0.0031185146999999996,-0.0015494506999999998,0.0151414676,-0.000497,0.012847,0.001315,-1.6485959315,-9.513431164999998,1.7166540825,-2.3764,1.3257,1.7209,-9.99999999995449e-06,9.999999999843467e-06,-5.000000000032756e-06,-6.565631900778968e-05,0.0004014871970301481,-4.443408888921141e-05
150000000000.0,1,0.005727083599999999,0.02068222485,0.0017848103,0.00269,0.011754,0.00239,-1.648890131,-9.513431164999998,1.7166540825,-2.3763,1.3256,1.721,-2.4999999999941735e-05,1.0000000000065512e-05,-5.000000000032756e-06,-0.00028495231098091267,-0.00010676174619050904,1.9357314290591177e-05
150000000000.0,1,0.004344345949999999,0.0175931301,0.0016377105499999999,0.003788,0.014942,0.001318,-1.649282397,-9.513333098499999,1.7168502154999998,-2.3762,1.3256,1.721,-2.5000000000052758e-05,1.999999999990898e-05,1.4999999999987246e-05,0.0015750511137309076,-3.364792832138974e-05,7.107679524231969e-05
150000000000.0,1,3.9226599999999995e-05,0.012375992300000001,0.0120229529,0.003792,0.016007,0.002384,-1.6497727294999998,-9.5131369655,1.7170463484999998,-2.3762,1.3255,1.7211,2.999999999997449e-05,2.0000000000131024e-05,1.4999999999987246e-05,-0.0003608199048592553,5.143977290966717e-05,-7.202953260554423e-05
150000000000.0,1,-0.0044129925,0.0148276548,0.007060788,0.001678,0.017092,0.000244,-1.650263062,-9.513038899,1.7170463484999998,-2.376,1.3255,1.7212,1.0000000000065512e-05,1.999999999990898e-05,5.000000000032756e-06,0.0001418055723934053,-6.215819142374457e-05,0.0006185820629154293
150000000000.0,1,0.0036480737999999998,0.01205237285,0.01928968055,0.002776,0.020281,-0.000827,-1.6505572614999997,-9.513038899,1.7172424814999998,-2.376,1.3255,1.7213,-1.0000000000065512e-05,2.0000000000131024e-05,5.000000000032756e-06,-0.0002036395249969125,0.00044570844368596596,-0.00011065537415211324
150000000000.0,1,0.00289296175,0.00328522775,0.02489908435,0.002777,0.020281,-0.000827,-1.6508514609999998,-9.5129408325,1.7174386145,-2.376,1.3254,1.7215,9.99999999995449e-06,1.999999999990898e-05,-2.0000000000020002e-05,0.0005415680117282218,-0.0005587312893278185,0.00010551515629564356
150000000000.0,1,-0.0156318001,-0.029047297299999997,0.0337741026,0.001694,0.018158,-0.000825,-1.6513417935,-9.512744699499999,1.7179289469999999,-2.3759,1.3254,1.7217,1.0000000000065512e-05,0.00010000000000021103,4.0000000000040004e-05,0.00026764330075290665,0.0005179951629028512,0.0006494429642767141
