Time,placement_label,user_acc_x(m/s^2),user_acc_y(m/s^2),user_acc_z(m/s^2),rotation_rate_x(rad/s),rotation_rate_y(rad/s),rotation_rate_z(rad/s),gravity_x(m/s^2),gravity_y(m/s^2),gravity_z(m/s^2),attitude_roll(rad),attitude_pitch(rad),attitude_yaw(rad),target_delta_x,target_delta_y,target_delta_z,target_delta_roll,target_delta_pitch,target_delta_yaw
149580000000.0,2,0.079629998,0.12748644999999997,-0.14095098044999999,0.2088,-0.056107,-0.098358,0.07046078025,-4.6202070145,-8.649857566,0.008146,0.49057,-0.89889,0.0,0.0,0.0,0.0,0.0,0.0
149580000000.0,2,0.10207741984999999,0.1156400168,-0.1359986222,0.23196,-0.10849,-0.12064,0.06926436894999999,-4.6372705855,-8.6407373815,0.008016,0.49254,-0.90033,-0.00029999999999996696,-0.00014999999999987246,0.000400000000000178,-0.0031920272041494613,0.0006517226070406057,-0.0019281121854800298
149580000000.0,2,0.10658847885,0.06920552904999999,-0.1134629405,0.23395,-0.12874,-0.12487,0.06624392074999999,-4.6557070875,-8.6307345985,0.007675,0.49468,-0.90188,0.00029999999999996696,-0.0001500000000000945,0.00029999999999996696,-0.000268585691797385,-0.011525229042332663,-0.0026717956698734946
149580000000.0,2,0.1069120983,0.0222807088,-0.007600153749999999,0.20934,-0.12961,-0.11317,0.06232126075,-4.6742416559999995,-8.620829881999999,0.007229,0.49683,-0.90334,-9.999999999998899e-05,-9.999999999998899e-05,0.00019999999999997797,-0.0027803328922011428,-9.16336114364924e-05,-0.0009535987062346818
149580000000.0,2,0.09885103199999999,-0.0093751574,0.062036867899999994,0.15939,-0.097245,-0.09944,0.05976172509999999,-4.6898342295,-8.6122980965,0.006939,0.49864,-0.90462,-0.0001500000000000945,-9.999999999998899e-05,0.00019999999999997797,-0.004781622070036795,-0.0020740472318632186,0.0006192126523468233
149580000000.0,2,0.1151496843,-0.0158279331,0.0843175767,0.1171,-0.038303,-0.08254,0.06142885559999999,-4.7016022095,-8.605923773999999,0.007138,0.50001,-0.90575,-0.00014999999999987246,0.00024999999999986144,0.00039999999999995595,-0.0009718231867910654,-0.0010940663492609026,-8.04612956419315e-05
149580000000.0,2,0.09283955555,-0.0018828768,0.09317298165,0.091957,0.032216,-0.062427,0.06772472489999999,-4.7108204605,-8.600824316,0.007874,0.50108,-0.90663,-0.001000000000000112,0.0002500000000000835,0.00039999999999995595,0.002225752005891646,0.013286962235773636,0.0010443415976243708
149580000000.0,2,0.069823348,0.04264912084999999,0.1295066199,0.076252,0.083473,-0.04013,0.07742350174999998,-4.7180773815,-8.596705522999999,0.009006,0.50192,-0.90723,-0.00019999999999997797,-9.999999999998899e-05,0.00029999999999996696,-0.00011886235906727327,-0.0014547625209502257,-2.5901412751855313e-05
149580000000.0,2,0.09336911464999999,0.0759426976,0.10243045925,0.065745,0.11445,-0.023125,0.08977988075,-4.723863305,-8.5934693285,0.010448,0.50259,-0.90765,-0.00019999999999997797,9.999999999998899e-05,0.000300000000000189,0.0009876054832755332,-0.0010541538057224908,0.0006673980339695074
149580000000.0,2,0.10983448,0.0720592642,0.08866192265,0.052841,0.10922,-0.011397,0.10219509965,-4.728472430499999,-8.590723466499998,0.011896,0.50313,-0.90793,-9.999999999998899e-05,-9.999999999998899e-05,0.00029999999999996696,-0.0007894743158189943,-0.0013585706464416258,9.577598050924951e-05
149580000000.0,2,0.14495209365,0.04523807645,0.05031792115,0.028111,0.082789,-0.015664,0.11332564739999999,-4.731316359,-8.589056335999999,0.013193,0.50346,-0.90825,-0.00019999999999997797,1.999999999990898e-05,0.00029999999999996696,-0.0002882243038724308,-0.0004538089583219218,-0.00035361169875902654
149580000000.0,2,0.16647769040000002,0.030635974599999997,0.03348970975,0.012888,0.037115,-0.031622,0.12187704619999999,-4.7325912235,-8.588271804,0.01419,0.5036,-0.90875,-0.00019999999999997797,2.0000000000131024e-05,0.00019999999999997797,-0.00034201133903466463,-0.0002860375762383516,-0.000625064972360978
149580000000.0,2,0.1627707767,0.0518575652,0.019122967499999997,0.008426,0.000946,-0.05078,0.12782968274999998,-4.73268929,-8.5881737375,0.014883,0.50362,-0.90944,-0.00019999999999997797,1.999999999990898e-05,0.00019999999999997797,0.0005154806412686064,-2.1599912535474886e-05,5.730913041801511e-05
149580000000.0,2,0.1343903316,0.07471686635,-0.0012944778,0.02012,-0.008729,-0.058216,0.13241919494999999,-4.7329834895,-8.587879538,0.015418,0.50365,-0.91025,-9.999999999998899e-05,2.0000000000131024e-05,0.00029999999999996696,-0.0003136993953286593,-0.0005697109728366456,-0.00039475643855357845
149580000000.0,2,0.06793066454999999,0.12941836005,0.01887780125,0.049952,-0.008981,-0.050692,0.13542983649999998,-4.734846753,-8.5868008065,0.01577,0.50387,-0.91094,-0.00019999999999997797,1.999999999990898e-05,0.00019999999999997797,-0.0006756088715540454,-0.00046544276287319164,-0.00017088760374084355
149580000000.0,2,0.0316558662,0.14435388799999999,0.027291906949999997,0.085118,-0.003958,-0.03463,0.13744019975,-4.739553945,-8.584153011,0.016009,0.50442,-0.91142,-9.999999999998899e-05,5.0000000000105516e-05,0.000300000000000189,-0.001986574070385938,-3.576370841917864e-05,0.0004298831741325615
149580000000.0,2,0.0490724766,0.15474893699999998,0.0018240368999999999,0.12561,-0.002173,-0.021755,0.13932307654999998,-4.747399264999999,-8.579838085,0.016237,0.50534,-0.91177,-9.999999999998899e-05,4.999999999988347e-05,0.00019999999999997797,-0.0015997791136977413,0.0001904586144960696,-0.0003242952935293697
149580000000.0,2,0.03949137955,0.18206045725,-0.0029027683999999997,0.15642,-0.012026,-0.012078,0.1400781886,-4.757794314,-8.5740521615,0.016336,0.50655,-0.912,-9.999999999998899e-05,9.999999999998899e-05,0.00019999999999997797,-0.0026782384737019105,-0.00023229245032574397,-1.9269829846763065e-05
149580000000.0,2,0.059791145049999994,0.16840960045,0.0097478101,0.17015,-0.027058,-0.009893,0.13967611594999998,-4.7700526265,-8.5671875065,0.016302,0.50798,-0.91221,-9.999999999998899e-05,9.999999999998899e-05,0.00029999999999996696,-0.0007394998677671127,0.0005973470310403073,-0.0002013519893729332
149580000000.0,2,0.09613458994999999,0.11977842309999999,0.03050848815,0.15731,-0.034405,-0.013106,0.13924462334999999,-4.782507072,-8.560322851499999,0.016265,0.50943,-0.91248,-0.00010000000000021103,4.999999999988347e-05,0.00019999999999997797,-0.002677343431134349,0.0002335220361349144,-0.0009808836048262604
149580000000.0,2,0.1057941402,0.08163055459999999,0.056662823699999997,0.14446,-0.040688,-0.015252,0.13841105809999998,-4.7945692515,-8.553556262999999,0.016181,0.51084,-0.91278,-0.00019999999999997797,5.0000000000105516e-05,0.00029999999999996696,-0.0006697342370937109,0.0005727048716115402,-0.0006597436465243522
149580000000.0,2,0.116895268,0.058692800249999996,0.0712158923,0.12418,-0.044774,-0.020618,0.13764613939999998,-4.805454633,-8.54747614,0.016102,0.51212,-0.91314,-9.999999999998899e-05,5.0000000000105516e-05,9.999999999998899e-05,-0.002328633857157092,0.0005055262500310853,-0.0011256271016464592
149580000000.0,2,0.1071278446,0.0585653138,0.04055049775,0.11141,-0.046789,-0.029176,0.13693025395,-4.8147709505,-8.542180549,0.016028,0.51321,-0.91358,-0.00019999999999997797,4.999999999988347e-05,0.00019999999999997797,-0.001538917887383695,0.00014231693167277015,-0.0007877630126913449
149580000000.0,2,0.07983593765000001,0.07216713735,0.00754131385,0.11362,-0.046788,-0.045184,0.1363908882,-4.823498869,-8.537375290499998,0.015974,0.51422,-0.91415,-9.999999999998899e-05,9.999999999998899e-05,0.00019999999999997797,-0.0011695734653800471,-0.000142027723800231,-0.00034487664987478683
149580000000.0,2,0.06922514234999999,0.08996620709999999,0.026193562150000002,0.11477,-0.04465,-0.059063,0.1365281813,-4.8323248539999994,-8.532373899,0.016,0.51525,-0.91489,-9.999999999998899e-05,9.999999999998899e-05,0.00019999999999997797,-0.0018494459338466163,0.0001765085008182954,-0.0009342528407002837
149580000000.0,2,0.06314501935,0.12104348094999999,0.0097085835,0.11898,-0.056396,-0.067575,0.13632224164999998,-4.840758573,-8.527568640499998,0.015984,0.51625,-0.91572,-9.999999999998899e-05,9.999999999998899e-05,0.00020000000000020002,-0.001747129179435758,0.00044079274848440875,-0.0008979960174878843
149580000000.0,2,0.0395992527,0.13889158394999998,-0.03570601265,0.13899,-0.084273,-0.06002,0.13353715305,-4.849976824,-8.522371116,0.015668,0.51732,-0.91651,-9.999999999998899e-05,0.00019999999999997797,0.00019999999999997797,-0.001738108224760393,0.0003362923075591606,-0.00030204827158583636
149580000000.0,2,0.0689211362,0.09884122534999999,-0.026360275199999998,0.1579,-0.11002,-0.042864,0.12815330219999999,-4.8614506045,-8.515898727,0.015047,0.51868,-0.91715,-9.999999999998899e-05,0.00010000000000021103,0.00029999999999996696,-0.005093644118221996,-0.0008037721697706779,-0.0003371026092722218
149580000000.0,2,0.0673520722,0.037706569249999995,-0.0046287388,0.17275,-0.11229,-0.027891,0.12119058069999998,-4.875474113999999,-8.507955340499999,0.014244,0.52032,-0.9176,-9.999999999998899e-05,0.00019999999999997797,0.00019999999999997797,-0.0011369982470665896,-0.0001437839864191215,-6.453689806124041e-05
149580000000.0,2,0.02656621485,0.02505599075,0.006629295399999999,0.16866,-0.086682,-0.023674,0.11468877175,-4.8898898895,-8.499717754499999,0.013493,0.52202,-0.91793,-9.999999999998899e-05,9.999999999998899e-05,0.00019999999999997797,0.0002742328142238959,4.350725169910419e-06,-8.82499385194413e-05
149580000000.0,2,0.023869386099999997,0.017632356699999997,0.07367736144999999,0.13595,-0.042721,-0.024875,0.1116977435,-4.902736601,-8.4924608335,0.013152,0.52353,-0.91827,-9.999999999998899e-05,9.999999999998899e-05,9.999999999998899e-05,8.635648880805924e-05,-0.0007494925050723911,-0.0002844151883329149
149580000000.0,2,0.0182992089,-0.0083552658,0.10758875714999999,0.076578,-0.000664,-0.033591,0.11278628165,-4.911562586,-8.487263309,0.013288,0.52457,-0.91866,-0.00019999999999997797,9.999999999998899e-05,0.00019999999999997797,-0.0002305492636084372,-0.0005869127483013603,-0.0002936892346567799
149580000000.0,2,0.023124080699999997,-0.03301899055,0.1272118638,0.0064,0.024431,-0.041229,0.1169344946,-4.9149949135,-8.4852039125,0.01378,0.52498,-0.91916,-9.999999999998899e-05,1.999999999990898e-05,9.999999999998899e-05,0.001147784779636174,-0.0003467560351373411,-0.0006707968642818973
149580000000.0,2,0.07604076409999999,-0.036412091449999996,0.140235095,-0.059766,0.020719,-0.043472,0.12237718535,-4.9128374505,-8.486380710499999,0.014419,0.52472,-0.91974,-9.999999999998899e-05,2.0000000000131024e-05,9.999999999998899e-05,0.0010361175549963297,6.671311283312775e-05,-0.0008739340916688876
149580000000.0,2,0.12085715459999999,-0.04594415524999999,0.1448638338,-0.11107,0.011551,-0.040343,0.12769238965,-4.905972795499999,-8.4903033705,0.015039,0.52392,-0.92033,-5.0000000000105516e-05,1.999999999990898e-05,-9.999999999998899e-05,0.0010613104858815392,-0.0007793474586585969,0.000631289552119968
149580000000.0,2,0.1314679499,-0.036549384549999994,0.1382149251,-0.13768,0.022423,-0.034005,0.13339005329999998,-4.896068079,-8.495893161,0.015699,0.52275,-0.92087,-4.999999999988347e-05,2.0000000000131024e-05,9.999999999998899e-05,0.0013368493739913667,-0.0007613254630702837,-0.00042547549852756106
149580000000.0,2,0.09978266375,0.00928689755,0.1650655328,-0.13636,0.062893,-0.01913,0.14083330065,-4.8853788305,-8.501973283999998,0.016564,0.52149,-0.92122,-9.999999999998899e-05,1.999999999990898e-05,9.999999999998899e-05,0.0012487775339665719,-0.001110456385646108,0.0008525262558916891
149580000000.0,2,0.039403119699999996,0.0893778081,0.16407506114999998,-0.10633,0.094595,7.9e-05,0.1494337327,-4.8753760475,-8.5075630745,0.017563,0.52031,-0.92131,-0.00010000000000021103,9.999999999998899e-05,9.999999999998899e-05,-0.002567848806033113,-0.0013002416014666895,-0.0007395689100509473
149580000000.0,2,0.032705177749999995,0.13725387339999998,0.11753270025,-0.04658,0.10581,0.01724,0.15853430389999998,-4.8690997915,-8.510995401999999,0.018625,0.51957,-0.92119,3.333333333332966e-05,9.999999999998899e-05,9.999999999998899e-05,0.0006166826021208882,-0.00034043926268889635,0.0008134679264960865
149580000000.0,2,0.06547900205,0.1706553233,0.0914175913,0.022464,0.076455,0.031287,0.16585987145,-4.8679229935,-8.511485734499999,0.019484,0.51944,-0.92094,3.333333333355171e-05,0.00019999999999997797,-5.0000000000105516e-05,-0.0005747970366447586,0.0012454608007472778,0.0003227667294374015
149580000000.0,2,0.1216809132,0.16631097734999997,0.07104917925,0.077296,0.00566,0.047516,0.1681644342,-4.871845653499999,-8.509230205,0.01976,0.51989,-0.92058,3.333333333332966e-05,9.999999999998899e-05,-4.999999999988347e-05,0.0007620578061320327,0.0016265978808571724,0.0007039602892339181
149580000000.0,2,0.18401198059999999,0.1137179134,0.05526047275,0.11063,-0.090522,0.055214,0.16329052914999997,-4.8796909735,-8.504817212499999,0.019198,0.52082,-0.92017,9.999999999998899e-05,9.999999999998899e-05,-1.999999999990898e-05,-0.0016360907857242424,0.001989002876651602,-0.0003507385541675623
149580000000.0,2,0.22301302765,0.05008256155,0.037853669,0.12374,-0.18759,0.051136,0.15048304424999998,-4.8897918229999995,-8.499227421999999,0.017704,0.52201,-0.9198,9.999999999998899e-05,0.00019999999999997797,-2.0000000000131024e-05,-0.0015805838619491475,0.0023661133348398256,-0.0010450981017368632
149580000000.0,2,0.24623517485,0.011532620399999999,0.0748835794,0.1137,-0.25249,0.036288,0.1323505484,-4.900383004999999,-8.493539564999999,0.015581,0.52325,-0.91959,9.999999999998899e-05,9.999999999998899e-05,-1.999999999990898e-05,-3.9122216827669476e-05,0.0032838189565416176,-0.0003965929940690227
149580000000.0,2,0.23468294115,-0.03378390925,0.097085835,0.093251,-0.28001,0.027761,0.11143296394999999,-4.910091588499999,-8.4881459075,0.013127,0.5244,-0.9195,9.999999999998899e-05,-3.333333333332966e-05,-2.0000000000131024e-05,-0.0010888122690725366,0.0016962326433347386,-0.0011783835373967155
149580000000.0,2,0.1696942716,-0.0570550897,0.1287809278,0.065567,-0.27338,0.027701,0.08932877485,-4.9181330415,-8.4838309815,0.010529,0.52534,-0.91936,9.999999999998899e-05,-3.333333333332966e-05,-1.999999999990898e-05,-0.0009781250898848182,0.001351180036337496,-0.0006424664385349665
149580000000.0,2,0.11410037274999998,-0.07565830474999999,0.13715580689999998,0.029551,-0.23473,0.038244,0.06846022365,-4.9236247655,-8.48079092,0.008072,0.52599,-0.91907,0.00019999999999997797,-3.333333333332966e-05,-0.00019999999999997797,-0.0031886481347346285,0.0004969948019530879,-0.0016148905207400976
149580000000.0,2,0.047621092399999995,-0.08754396454999999,0.13635166159999998,-0.00306,-0.17054,0.048749,0.0508376736,-4.9261744945000006,-8.479417989,0.005996,0.5263,-0.91857,-9.999999999998899e-05,9.999999999998899e-05,0.00019999999999997797,0.0035062421568295976,0.0010011004838736959,0.0013500814171668596
149580000000.0,2,-0.03190103245,-0.09852741255,0.08762241775,-0.019463,-0.084095,0.053906,0.03849110124999999,-4.926762893499999,-8.4791237895,0.004539,0.52636,-0.91792,9.999999999998899e-05,9.999999999998899e-05,-9.999999999998899e-05,0.00010573298663907327,-0.0006535852535591857,0.0007799535235441524
149580000000.0,2,-0.1128941548,-0.057545422199999995,0.07597211755,-0.026113,0.019318,0.055849,0.033440676499999995,-4.9259783615,-8.479614122,0.003943,0.52627,-0.91717,9.999999999998899e-05,-9.999999999998899e-05,-9.999999999998899e-05,-0.0026576364758547077,-0.001271250993325257,0.00017976487048579348
149580000000.0,2,-0.16134881245,-0.00246146915,0.08026743025,-0.024458,0.096018,0.061055,0.0344605681,-4.924507364,-8.4804967205,0.004063,0.52609,-0.91632,9.999999999998899e-05,9.999999999998899e-05,-9.999999999998899e-05,0.0024274562423143298,-0.0009247408647554689,0.002226991845031834
149580000000.0,2,-0.15970129524999999,0.011081514499999999,0.02089797115,-0.026266,0.14078,0.067379,0.03968751255,-4.9223499010000005,-8.4816735185,0.004679,0.52584,-0.9154,9.999999999998899e-05,5.0000000000105516e-05,-9.999999999998899e-05,0.0005108370284415686,-0.000574650482207284,0.0010774469089300243
149580000000.0,2,-0.07739408179999999,0.00573689025,-0.026105302299999997,-0.025222,0.13864,0.068452,0.04702288674999999,-4.919996305,-8.4830464495,0.005543,0.52556,-0.91453,5.0000000000105516e-05,4.999999999988347e-05,9.999999999998899e-05,0.00039117967514623597,-0.00031251283298217025,0.0007712702613914268
149580000000.0,2,0.017632356699999997,-0.012170052649999999,-0.036529771249999995,-0.027536,0.10883,0.056759,0.054338647649999995,-4.917544642499999,-8.4844193805,0.006404,0.52527,-0.91385,4.999999999988347e-05,4.999999999988347e-05,-9.999999999998899e-05,0.00047629145220118296,-6.9241595470614925e-06,0.0005655164982037719
149580000000.0,2,0.07958096475,-0.0156121868,-0.06049722385,-0.018066,0.073621,0.02695,0.061075816199999994,-4.915387179499999,-8.4855961785,0.007198,0.52502,-0.91353,2.4999999999941735e-05,5.0000000000105516e-05,5.0000000000105516e-05,3.2289438404276005e-05,-0.00017775349436388588,-0.0003058170141241878
149580000000.0,2,0.1097756401,0.006197802799999999,-0.032254071849999996,-0.001159,0.031961,-0.007106,0.06664599339999999,-4.9146026475,-8.4859884445,0.007854,0.52493,-0.91364,2.4999999999941735e-05,2.4999999999941735e-05,4.999999999988347e-05,-0.00025552386599880794,-0.0001408691401587614,-0.0006356261232876581
149580000000.0,2,0.11153103044999998,0.012464252149999999,0.012876131449999998,0.009294,-0.009656,-0.030498,0.069823348,-4.9151910465,-8.485694245,0.008229,0.525,-0.91405,2.500000000016378e-05,2.500000000016378e-05,1.4285714285744433e-05,-0.0005882705110181741,-0.00026974140180069384,-0.0008629463182951436
149580000000.0,2,0.11333545404999999,-0.0255365166,-0.006766588499999999,0.013346,-0.04271,-0.04004,0.07071575315,-4.916563977499999,-8.484909712999999,0.008334,0.52516,-0.91461,2.4999999999941735e-05,2.4999999999941735e-05,1.4285714285744433e-05,0.0003534271192385807,0.0003755031961982791,-0.00023624603996932891
149580000000.0,2,0.11357081364999999,-0.05984998495,0.011611073599999999,0.006866,-0.053309,-0.041101,0.0703332938,-4.9181330415,-8.483929048,0.00829,0.52534,-0.91521,5.0000000000105516e-05,2.4999999999941735e-05,1.4285714285744433e-05,0.0003407097212019261,0.000537951886278254,-0.00042926786974914477
149580000000.0,2,0.08005168395,-0.08235624669999998,0.014808041499999999,-0.010093,-0.038251,-0.039023,0.0700390943,-4.918819507,-8.483536782,0.008255,0.52543,-0.91575,4.999999999988347e-05,3.333333333332966e-05,1.4285714285522388e-05,-0.00013338353804870362,-0.00021871684311669526,-0.00039924880063157975
149580000000.0,2,0.01122861425,-0.070215614,0.0063350959,-0.024797,-0.004039,-0.030569,0.07077459305,-4.9179369085,-8.4840271145,0.008342,0.52532,-0.91614,3.333333333332966e-05,3.333333333355171e-05,1.4285714285744433e-05,0.0007415979376865778,0.00011458209750481174,0.00024545121248925605
149580000000.0,2,-0.07744311505,-0.04605202839999999,-0.041335029749999995,-0.032013,0.035433,-0.017842,0.07265746984999999,-4.915485246,-8.485498112,0.008562,0.52503,-0.9163,3.333333333332966e-05,3.333333333332966e-05,1.4285714285744433e-05,-1.3522810563659782e-05,-0.00015069836952652516,0.0003705235410543517
149580000000.0,2,-0.1580047448,0.0168282114,-0.10099868835,-0.017935,0.073655,0.00133,0.07569753135,-4.912543251,-8.4871652425,0.008919,0.52468,-0.91618,3.333333333332966e-05,9.999999999998899e-05,1.4285714285744433e-05,0.0009987741793443528,-0.0007313409536220394,0.0011432471372009034
149580000000.0,2,-0.1782064438,0.092967042,-0.10012589649999999,0.00764,0.078753,0.015243,0.078845466,-4.9106799875,-8.4881459075,0.009289,0.52447,-0.91586,-9.999999999998899e-05,9.999999999998899e-05,0.00019999999999997797,-0.0004078096944447607,0.00022685166891345254,0.00017763234184645094
149580000000.0,2,-0.14698207019999998,0.13004598565,-0.13292914074999998,0.02983,0.060438,0.028123,0.0808460226,-4.910189655,-8.488440106999999,0.009524,0.52441,-0.91541,9.999999999998899e-05,0.00019999999999997797,5.0000000000105516e-05,-0.0003081192262055499,0.00021680947189950395,0.0011223579116688143
149580000000.0,2,-0.09288858879999999,0.12769238965,-0.1688116731,0.041133,0.010253,0.033569,0.0795711581,-4.9106799875,-8.4881459075,0.009374,0.52447,-0.91494,5.0000000000105516e-05,9.999999999998899e-05,4.999999999988347e-05,0.0008746660181417898,0.0006729048622513556,0.000491241777540008
149580000000.0,2,-0.03658861115,0.11453186535,-0.1903274632,0.044942,-0.045193,0.035808,0.07444228015,-4.911758719,-8.487655575,0.00877,0.52459,-0.91449,4.999999999988347e-05,0.00019999999999997797,4.999999999988347e-05,-0.00012151507029578568,0.0005519698518556826,-0.0001862672449769731
149580000000.0,2,0.00814932615,0.08852462955,-0.18088365925,0.04248,-0.085665,0.035874,0.06621450079999999,-4.9131316499999995,-8.486871042999999,0.007802,0.52475,-0.91409,9.999999999998899e-05,9.999999999998899e-05,5.0000000000105516e-05,-0.0010868256424507727,0.00052246269800027,-0.0004660811212227334
149580000000.0,2,-0.0019024901,0.07063729995,-0.13126201024999998,0.032721,-0.10689,0.032692,0.055613512149999995,-4.9144065144999995,-8.4861845775,0.006554,0.5249,-0.9137,-9.999999999998899e-05,0.00019999999999997797,0.00020000000000020002,-0.0006042153526620853,0.0010445963276584092,-0.00035305402204580116
149580000000.0,2,-0.030430034949999997,0.0631744393,-0.11812109925,0.01574,-0.097161,0.029443,0.0447967772,-4.9146026475,-8.4861845775,0.005279,0.52492,-0.91331,9.999999999998899e-05,9.999999999998899e-05,0.0001500000000000945,-0.0007486860242933435,-0.000691058292473512,-0.00041102474265408695
149580000000.0,2,-0.0681169909,0.0215942433,-0.07563869145,7.7e-05,-0.05441,0.029341,0.03639247815,-4.914112315,-8.486478777,0.004288,0.52487,-0.9129,-9.999999999998899e-05,9.999999999998899e-05,0.00014999999999987246,0.00015498394162771767,0.0002222716019935067,-0.0002596388068146771
149580000000.0,2,-0.1275649032,-0.008276812599999999,-0.00354020065,-0.012261,0.001104,0.024953,0.0317931593,-4.913425849499999,-8.486871042999999,0.003746,0.52479,-0.91246,9.999999999998899e-05,9.999999999998899e-05,0.00029999999999996696,0.0004927398107967829,-0.0006402193578856075,0.0004341742175016927
149580000000.0,2,-0.1504732376,-0.0003530394,0.02058415835,-0.019204,0.060841,0.015231,0.032254071849999996,-4.912052918499999,-8.487655575,0.003801,0.52463,-0.9121,9.999999999998899e-05,-0.00019999999999997797,0.00029999999999996696,-0.0027476513969048044,-0.01521237740137904,-0.002727351196421479
149580000000.0,2,-0.17246955355,0.0020397832,0.01173856005,-0.010282,0.10446,0.007699,0.03690242395,-4.9110722534999995,-8.488243974,0.004347,0.52451,-0.91183,-9.999999999998899e-05,0.00019999999999997797,5.0000000000105516e-05,-0.00011732761084959353,-0.000750597646320017,0.0008326870052057789
149580000000.0,2,-0.1412745999,0.006080123,-0.0031577413,0.014403,0.12662,0.014109,0.04446335109999999,-4.9116606525,-8.487851707999999,0.005238,0.52458,-0.91155,-9.999999999998899e-05,0.00019999999999997797,4.999999999988347e-05,-0.00011505487806084957,-0.00010664121079573263,0.0012383206608991837
149580000000.0,2,-0.10608833969999999,-0.0030008349,-0.00220649625,0.044237,0.12424,0.018435,0.05251461075,-4.9147987805,-8.4859884445,0.006188,0.52495,-0.91125,-9.999999999998899e-05,0.00029999999999996696,0.00029999999999996696,-0.0005317625334068099,0.0003963156424811043,0.0009060102224780209
149580000000.0,2,-0.03680435745,-0.007286340949999999,-0.01360182355,0.077137,0.10372,0.020663,0.060301090849999996,-4.9206827705,-8.482556117,0.007108,0.52565,-0.911,-0.00019999999999997797,0.00020000000000020002,0.00019999999999997797,-0.0012701738779455907,-0.00038619662654082454,0.0002688356139808057
149580000000.0,2,0.01779906975,-0.00730595425,-0.0060997363,0.1067,0.065116,0.020782,0.06599875449999999,-4.929410689,-8.477456659,0.007785,0.52667,-0.91077,0.00019999999999997797,9.999999999998899e-05,9.999999999998899e-05,-0.0012882638092996945,-0.0007777363471355159,0.0006726394405435765
149580000000.0,2,0.026752541199999997,-0.0171027976,0.0257718762,0.11588,0.008569,0.016628,0.06767569165,-4.939609605,-8.471474602499999,0.007988,0.52788,-0.91061,-9.999999999998899e-05,0.00019999999999997797,9.999999999998899e-05,-0.0011923358292142971,0.0005636025819575341,-0.000499855957014933
149580000000.0,2,0.040815277299999994,-0.04723863305,0.040923150449999994,0.1026,-0.060568,0.000716,0.06452775699999999,-4.949612387999999,-8.465688679,0.007622,0.52906,-0.9106,-9.999999999998899e-05,0.00019999999999997797,9.999999999998899e-05,-0.00026511338470947,0.0014000748061384627,-0.0009478185817715923
149580000000.0,2,0.0310478539,-0.08511191534999998,-0.0054721106999999995,0.071356,-0.11463,-0.024861,0.05724141605,-4.9573596415,-8.461177619999999,0.006765,0.52997,-0.91084,-9.999999999998899e-05,9.999999999998899e-05,9.999999999998899e-05,-0.0006415568411582973,0.000452077803609674,-0.001059860878436819
149580000000.0,2,0.013503757049999999,-0.10470560205,-0.0107088618,0.034104,-0.1175,-0.047336,0.049347062799999994,-4.962361033,-8.4583336915,0.005834,0.53056,-0.91134,-9.999999999998899e-05,9.999999999998899e-05,9.999999999998899e-05,0.0004011926889682105,-0.00036545137262100624,-0.0006531366670938232
149580000000.0,2,-0.047846645349999994,-0.10158708735,0.001569064,0.000456,-0.066053,-0.063495,0.04455161095,-4.9644204295,-8.457156893499999,0.005268,0.5308,-0.91199,-0.00019999999999997797,9.999999999998899e-05,0.00010000000000021103,0.0008205288601589311,-0.0011469200780487299,-0.00028685691435928473
149580000000.0,2,-0.14746259604999998,-0.06882306969999999,0.0359707922,-0.029744,0.023707,-0.067974,0.04541459614999999,-4.9636358975,-8.4575491595,0.005369,0.53072,-0.91261,-0.0004999999999999449,0.00019999999999997797,0.00039999999999995595,0.0010956252247351639,0.00044951482830546396,9.152461415859459e-05
149580000000.0,2,-0.1874639214,-0.05610384465,0.06195841469999999,-0.058996,0.10918,-0.055364,0.05278919694999999,-4.9603016365,-8.4595104895,0.00624,0.53033,-0.9131,-9.999999999998899e-05,9.999999999998899e-05,4.999999999988347e-05,0.0003174062348342277,-0.0008052411870160814,0.0005980897672050178
149580000000.0,2,-0.15858333715,-0.05746696899999999,0.040570111049999996,-0.064093,0.15395,-0.0309,0.06445911045,-4.955888644,-8.4620602185,0.007618,0.52979,-0.91338,-9.999999999998899e-05,9.999999999998899e-05,5.0000000000105516e-05,0.0006302866626270998,0.0003736489338452831,0.0009763401925892701
149580000000.0,2,-0.09492837199999998,-0.045493049349999995,0.04751321925,-0.047264,0.13886,-0.006293,0.0759230843,-4.9522601835,-8.4640215485,0.00897,0.52937,-0.91344,-9.999999999998899e-05,9.999999999998899e-05,9.999999999998899e-05,-0.0010143841726937275,-0.0004526530747752666,0.00034584106575827334
149580000000.0,2,0.045306723,0.0017259703999999998,0.046110868299999996,0.00024,0.085175,0.009894,0.0850236555,-4.951475651499999,-8.464413814499999,0.010044,0.52927,-0.91342,0.00039999999999995595,-0.00019999999999997797,-0.0013000000000000789,0.002341219917226134,-0.011301755523422274,0.0017096270223494747
149580000000.0,2,0.13681257414999998,0.051014193299999996,0.04859195075,0.057276,0.017568,0.017583,0.0895935544,-4.954809912499999,-8.4624524845,0.010587,0.52967,-0.91338,0.0006999999999999229,-0.00019999999999997797,-0.0004999999999999449,-0.008308936138734957,-0.0016472935606461903,-0.001171503693336129
149580000000.0,2,0.178284897,0.10842232239999999,0.053573728949999996,0.1026,-0.053129,0.015649,0.08881882905,-4.961576500999999,-8.458431758,0.010501,0.53048,-0.91339,-0.0012000000000000899,0.0007999999999999119,0.0020999999999999908,0.0015807888427266104,0.013726919691893658,-0.0011286210262870522
149580000000.0,2,0.20976424349999997,0.10529400104999999,0.043443459499999997,0.12776,-0.10981,0.013655,0.08352323805,-4.9710889515,-8.452940034,0.009881,0.53159,-0.91346,-5.0000000000105516e-05,9.999999999998899e-05,9.999999999998899e-05,-0.0003672098594125206,0.0009880717035242181,-0.0006529933367010465
149580000000.0,2,0.22267960155,0.08635735989999999,0.06271352675,0.12214,-0.15024,0.005175,0.0750993257,-4.981189800999999,-8.447056044,0.00889,0.53279,-0.91361,-4.999999999988347e-05,9.999999999998899e-05,0.00019999999999997797,-0.0013782366380836741,0.0012345311357202515,-0.0010147067662110154
149580000000.0,2,0.23805642875,0.046660040699999995,0.0661556609,0.095263,-0.17665,0.004105,0.06436104395,-4.9899177195,-8.441956586,0.007624,0.53383,-0.91382,9.999999999998899e-05,9.999999999998899e-05,9.999999999998899e-05,-0.0005175957635941142,0.0003506553476839702,-0.0005243806391728723
149580000000.0,2,0.2449505037,-0.0216138566,0.0449340703,0.057951,-0.17101,0.00723,0.05342662919999999,-4.996292042,-8.438230059,0.006332,0.53458,-0.91401,-9.999999999998899e-05,0.00010000000000021103,9.999999999998899e-05,8.103396852554567e-05,0.000481862405846023,-0.000604543717168754
149580000000.0,2,0.17559787489999998,-0.047817225399999996,0.06110523615,0.027228,-0.14199,0.010326,0.04317867994999999,-5.000214702,-8.4359745295,0.005118,0.53504,-0.91407,9.999999999998899e-05,9.999999999998899e-05,9.999999999998899e-05,0.0001538558216682695,0.00046382208295692173,-0.0003843919643970184
149580000000.0,2,0.09649743599999999,-0.02101565095,0.10738281749999999,-0.001252,-0.098066,0.015536,0.03488225405,-5.001685699499999,-8.435189997499998,0.004135,0.53522,-0.91401,-9.999999999998899e-05,9.999999999998899e-05,5.0000000000105516e-05,0.00019570959230552631,0.0008639939954504516,9.347549747615314e-05
149580000000.0,2,0.04680714045,0.0016082905999999998,0.1217789797,-0.018036,-0.056378,0.025039,0.0289100042,-5.001489566499999,-8.4353861305,0.003427,0.53519,-0.91379,4.999999999988347e-05,9.999999999998899e-05,4.999999999988347e-05,0.00011410955181223592,0.0004908631349449522,0.0003324844811509742
149580000000.0,2,-0.0146315218,0.05590771165,0.1134433272,-0.023088,-0.013725,0.036697,0.024948117599999996,-4.999626303,-8.436464862,0.002958,0.53498,-0.9134,5.0000000000105516e-05,9.999999999998899e-05,1.0000000000065512e-05,0.0003156671282915635,-0.000429983109122567,0.0004767667667814057
149580000000.0,2,-0.07024503395,0.10610795299999999,0.0906722859,-0.019628,0.028852,0.05264,0.022810267899999997,-4.997174640499999,-8.4379358595,0.002704,0.53468,-0.91276,3.333333333332966e-05,0.00019999999999997797,9.999999999843467e-06,-0.00015498045662409865,-0.00050186349297765,0.0007793476642768971
149580000000.0,2,-0.0850040422,0.13220344865,0.0703332938,-0.005631,0.054294,0.067564,0.022310128749999998,-4.995115244,-8.439112657499999,0.002643,0.53444,-0.91193,3.333333333355171e-05,9.999999999998899e-05,1.0000000000065512e-05,-0.0003822092204066596,-0.0006839244568901393,0.00030180902656698483
149580000000.0,2,-0.10164592724999999,0.14379490895,0.07591327764999999,0.007102,0.048853,0.069728,0.02144714355,-4.994330711999999,-8.43960299,0.002541,0.53434,-0.91101,3.333333333332966e-05,9.999999999998899e-05,1.0000000000065512e-05,-0.0008458624153753203,-0.0004944350532971598,0.00037235032217997066
149580000000.0,2,-0.05514279295,0.12688824435,0.05675108354999999,0.014472,0.022175,0.046305,0.02042725195,-4.994330711999999,-8.43960299,0.00242,0.53434,-0.91033,-5.0000000000105516e-05,0.00019999999999997797,9.999999999843467e-06,3.323909045471751e-05,2.700200082772497e-05,-0.00017402411111760996
149580000000.0,2,0.0071000146,0.09669356900000001,0.038157675149999994,0.015373,-0.012973,0.022886,0.0187895414,-4.9946249115,-8.439406857,0.002226,0.53438,-0.91001,-5.0000000000105516e-05,9.999999999998899e-05,1.0000000000065512e-05,1.4672426174033859e-05,-0.0006864444533922764,-0.0005408614102762055
149580000000.0,2,0.028174505449999998,0.08287599914999999,0.054662267099999995,0.016282,-0.043863,0.004796,0.0156710267,-4.995311377,-8.439014591,0.001857,0.53447,-0.90993,-5.0000000000105516e-05,9.999999999998899e-05,1.0000000000065512e-05,0.0002486584669375569,0.00037304421747119676,-0.0002819487722757752
149580000000.0,2,0.039324666499999994,0.019309293849999996,0.08074795609999999,0.00246,-0.045866,-0.008034,0.012601545249999999,-4.996292042,-8.438426192,0.001493,0.53458,-0.91004,-4.999999999988347e-05,9.999999999998899e-05,1.0000000000065512e-05,0.0006083869184962953,0.00024552780582842715,-0.00011031258645716191
149580000000.0,2,0.03211677875,-0.04327674645,0.06461601685,-0.00588,-0.022352,-0.009158,0.011130547749999999,-4.996978507499999,-8.438033926,0.001319,0.53466,-0.91019,-6.666666666665932e-05,9.999999999998899e-05,9.999999999843467e-06,0.0001075401774818241,-0.0005324628586211855,3.062464205738635e-05
149580000000.0,2,0.04266873415,-0.05757484215,0.0934377612,-0.015194,0.016083,-0.004972,0.012846711499999998,-4.997370773499999,-8.437837793,0.001522,0.5347,-0.91031,-6.666666666665932e-05,9.999999999998899e-05,1.0000000000065512e-05,0.00027557635673236547,0.0003594504289408107,0.00010919333622944061
149580000000.0,2,0.07659974315,-0.10399952324999999,0.12981062605,-0.032231,0.025806,0.004587,0.016033872749999997,-4.997272707,-8.437837793,0.0019,0.5347,-0.91037,-6.666666666665932e-05,9.999999999998899e-05,0.000300000000000189,0.00037129268201296917,-0.0018083202726764114,-0.0007156975500763607
149580000000.0,2,0.1645948136,-0.15577863525,0.06557706854999999,-0.045253,0.007785,0.020606,0.0191621941,-4.996095909,-8.4385242585,0.002271,0.53456,-0.91035,-9.999999999998899e-05,9.999999999998899e-05,0.00039999999999995595,0.0006969648891240743,-0.0011616372687395238,-0.0003362314146089507
149580000000.0,2,0.21792337629999997,-0.19574073399999997,0.02295736765,-0.041243,-0.015701,0.035596,0.020299765499999997,-4.995017177499999,-8.439210723999999,0.002405,0.53443,-0.91018,0.00014999999999987246,9.999999999998899e-05,9.999999999998899e-05,0.0002469740629660322,-0.0002527086789751998,-2.2431259131455716e-05
149580000000.0,2,0.2068222485,-0.18743450145,0.033891782399999994,-0.021106,-0.029721,0.04099,0.01942697365,-4.995311377,-8.439014591,0.002302,0.53446,-0.90992,0.0001500000000000945,-9.999999999998899e-05,-0.00029999999999996696,-0.0008308391761547851,0.0009132072913204947,0.000330841585068381
149580000000.0,2,0.14799215515,-0.1201314625,0.0223787753,0.007735,-0.02782,0.037833,0.01765197,-4.996978507499999,-8.438033926,0.002092,0.53467,-0.90961,0.00020000000000020002,9.999999999998899e-05,-9.999999999998899e-05,-0.001176146225930319,0.000472679649526464,0.0003943760769132276
149580000000.0,2,0.069627215,-0.05755522885,0.02580129615,0.032373,-0.018427,0.033589,0.015367020549999999,-5.000312768499999,-8.436072595999999,0.001822,0.53506,-0.90928,0.00019999999999997797,-9.999999999998899e-05,-9.999999999998899e-05,-0.0012767007042666645,0.0007573278405312855,0.0005359353924227483
149580000000.0,2,0.0303025485,-0.02676234785,0.0037657536,0.043045,-0.017449,0.034673,0.012650578499999999,-5.0042354284999995,-8.433719,0.0015,0.53552,-0.9089,0.00019999999999997797,9.999999999998899e-05,-0.00010000000000021103,-0.0008322943894579771,0.0012532447185598095,0.0002644152996150173
149580000000.0,2,0.0118072066,-0.02768417295,-0.03902066035,0.035512,-0.024847,0.03574,0.00899269805,-5.007471622999999,-8.4318557365,0.001066,0.53591,-0.90849,-0.00014999999999987246,9.999999999998899e-05,0.00010000000000021103,0.00024564072084165556,0.0014186694911602071,0.00032835058895636093
149580000000.0,2,0.02150598345,-0.029253236949999997,-0.0635863186,0.025839,-0.034357,0.034672,0.0048248718,-5.009825219,-8.4304828055,0.000572,0.53618,-0.9081,-0.0001500000000000945,0.00010000000000021103,0.0005999999999999339,0.0012930701039807202,-0.0010322625947882802,-0.0004696941282854583
149580000000.0,2,0.01697531115,-0.03231291175,-0.047523025899999995,0.015199,-0.035326,0.027184,0.00053936575,-5.01119815,-8.429600207,6.3e-05,0.53635,-0.90777,4.999999999988347e-05,9.999999999998899e-05,0.00019999999999997797,0.0007305335726918161,-0.00037949432024353413,-0.0003764726099871607
149580000000.0,2,0.0067862018,0.0020593965,-0.0284981249,0.012234,-0.011849,0.01753,-0.0018436501999999997,-5.0118846155,-8.429207941,-0.000219,0.53644,-0.90755,5.0000000000105516e-05,-3.333333333332966e-05,-5.0000000000105516e-05,8.96275621542486e-06,-0.0007832254067492439,0.00046963464926153
149580000000.0,2,-0.0162594257,0.052200797949999996,0.0447967772,0.01681,0.025412,0.015338,-0.0015494506999999998,-5.0129633469999995,-8.428521475499998,-0.000184,0.53656,-0.90736,0.00019999999999997797,-3.333333333332966e-05,-4.999999999988347e-05,-0.0007678794834851121,-0.0007949012566095259,0.0005972153608363451
149580000000.0,2,-0.037490822949999995,0.052102731449999995,0.11250188879999999,0.011694,0.052094,0.014215,0.0009708583499999999,-5.014434344499999,-8.4277369435,0.000116,0.53673,-0.90715,9.999999999998899e-05,-3.333333333332966e-05,-4.999999999988347e-05,0.000347146995203218,-0.0012829795074824624,0.0005210661650687787
149580000000.0,2,-0.01258193195,0.02283968785,0.11072688515,0.001181,0.073489,0.017362,0.00585457005,-5.015316942999999,-8.4271485445,0.000694,0.53684,-0.90696,0.00019999999999997797,-5.0000000000105516e-05,-5.0000000000105516e-05,-0.0003293720459142113,-0.0014864738882240935,0.0004667051945833889
149580000000.0,2,0.019789819699999996,0.0089436648,0.12100425434999998,-0.0084,0.079956,0.023738,0.01177778665,-5.015709209,-8.4269524115,0.001398,0.53688,-0.90672,0.00039999999999995595,-5.0000000000105516e-05,-0.00019999999999997797,-0.0003148918599001904,-0.002424026228946996,0.0002637624597669197
149580000000.0,2,0.04955300245,-7.845319999999999e-05,0.11350216709999998,-0.01909,0.077913,0.02479,0.01793636285,-5.0152188765,-8.427246611,0.002128,0.53682,-0.90648,0.0016000000000000458,-0.0008999999999999009,-0.0017000000000000348,-0.002344809976972284,-0.004799729759043858,0.0009255470913544506
149580000000.0,2,0.07928676525,0.0146903617,0.1124038223,-0.032007,0.064167,0.025858,0.02382035285,-5.0134536794999995,-8.428227276,0.002826,0.53662,-0.90628,-0.001000000000000112,0.0006999999999999229,0.0010999999999998789,0.00087564043948829,0.006583442902066139,0.00022205356281795874
149580000000.0,2,0.09833127954999998,0.02358499325,0.06388051809999999,-0.042917,0.038677,0.033354,0.027811659399999997,-5.010217485,-8.4300905395,0.0033,0.53624,-0.90601,-0.00039999999999995595,9.999999999998899e-05,0.000500000000000167,0.015547257514831436,-0.0021879318609820952,0.0004096521034760714
149580000000.0,2,0.06398839125,0.03525490675,-0.0008825985,-0.047374,0.013144,0.030189,0.02893942415,-5.005902559,-8.432738335,0.003432,0.53572,-0.90571,0.00019999999999997797,9.999999999998899e-05,0.00039999999999995595,-0.011066581839190182,-0.0028627954346416296,-0.00047045288986025113
149580000000.0,2,0.04923918965,0.04681694709999999,-0.045287109699999994,-0.042175,-0.002883,0.031292,0.02827257195,-5.0012934335,-8.4353861305,0.003352,0.53518,-0.90541,0.0001500000000000945,0.00020000000000020002,9.999999999998899e-05,0.00198758463510329,0.0003738185468904476,0.000907914811984295
149580000000.0,2,0.00403053315,0.06625372739999999,-0.07723717539999998,-0.02409,-0.00517,0.037732,0.026203368799999998,-4.997370773499999,-8.4377397265,0.003105,0.53471,-0.905,0.00014999999999987246,0.00029999999999996696,-0.0014000000000000679,0.0018141235596674798,0.02377330553706991,0.0026797716938191385
149580000000.0,2,-0.057015863099999994,0.08739686479999999,-0.08148345485,-0.008041,0.007473,0.048412,0.0232025339,-4.9947229779999995,-8.439308790499998,0.002749,0.5344,-0.9044,5.0000000000105516e-05,9.999999999998899e-05,9.999999999998899e-05,0.0008628731329547445,0.0004954148084359566,0.0011253068139163713
149580000000.0,2,-0.1089518815,0.10210683979999999,-0.1004985492,0.007,0.027582,0.059078,0.020368412049999996,-4.992957781,-8.440387522,0.002413,0.53419,-0.90364,4.999999999988347e-05,9.999999999998899e-05,-3.333333333332966e-05,-0.0008370780951223455,0.0008062458596755917,0.0007038830260972517
149580000000.0,2,-0.13294875404999998,0.11694430125,-0.11942538369999998,0.020966,0.048761,0.072942,0.01832862885,-4.9921732489999995,-8.4408778545,0.002172,0.53409,-0.9027,0.00020000000000020002,0.00019999999999997797,-3.333333333332966e-05,-0.0001233666935651634,0.000611731164811502,0.0015666714583454366
149580000000.0,2,-0.13820511845,0.13396864565,-0.11857220514999998,0.029569,0.060404,0.077207,0.016994924449999997,-4.991977116,-8.440975921,0.002014,0.53407,-0.90166,0.00039999999999995595,9.999999999998899e-05,-3.333333333332966e-05,-0.005109059704516805,-0.0014472308178987703,0.003131652645212285
149580000000.0,2,-0.12467194144999999,0.1288397677,-0.13400787225,0.039192,0.063519,0.07722,0.016337878899999998,-4.9924674485,-8.440681721499999,0.001936,0.53413,-0.90063,0.00039999999999995595,5.0000000000105516e-05,-9.999999999998899e-05,0.0027161876549617325,-0.0005988256406557202,0.002599179017931025
149580000000.0,2,-0.10714745789999999,0.1227008048,-0.11600286284999999,0.055094,0.050599,0.076204,0.0154160538,-4.9944287785,-8.4395049235,0.001827,0.53436,-0.89963,9.999999999998899e-05,4.999999999988347e-05,9.999999999998899e-05,-0.0016971399990732827,-0.00013702913351432144,0.0005093135968937401
149580000000.0,2,-0.09939039775,0.07282418289999999,-0.08793623055,0.060314,0.031382,0.067708,0.013356657299999998,-4.997861105999999,-8.4375435935,0.001583,0.53477,-0.89871,-0.00029999999999996696,0.00029999999999996696,0.00039999999999995595,-0.003287454847073157,0.0011332741511171918,-0.0011964316230514693
149580000000.0,2,-0.0723534637,0.02846870495,-0.07496203259999999,0.058028,0.005835,0.057076,0.0101008495,-5.001979898999999,-8.435091931,0.001198,0.53525,-0.89794,-9.999999999998899e-05,0.00019999999999997797,0.00020000000000020002,2.2668769057099247e-05,0.000754027497514187,0.0002689103893605549
149580000000.0,2,-0.08381743755,-0.0016867438,-0.059261585949999994,0.059049,-0.009078,0.042162,0.00585457005,-5.0065890245,-8.432346069,0.000695,0.5358,-0.89731,-4.999999999988347e-05,0.00019999999999997797,9.999999999998899e-05,-0.0011633137448678887,-5.9772133403690475e-05,-8.611484450193885e-06
149580000000.0,2,-0.11168793684999999,-0.008708305199999999,-0.014317708999999998,0.058133,-0.001595,0.024002,0.0020103632499999997,-5.011492349499999,-8.429404073999999,0.000238,0.53638,-0.89686,-5.0000000000105516e-05,0.00019999999999997797,0.00019999999999997797,-0.0007480671901730629,0.0004198393550318702,-0.0001117293599721958
149580000000.0,2,-0.1681252076,0.0195740734,0.005491723999999999,0.060537,0.022906,0.009022,-6.864654999999999e-05,-5.0163956745,-8.426462079,-8e-06,0.53697,-0.89655,-0.00019999999999997797,0.00020000000000020002,0.00029999999999996696,-0.0008588880191732207,-0.00028077551968719305,4.7803238254873204e-05
149580000000.0,2,-0.19192594715,0.0409721837,0.02278084795,0.058692,0.059147,0.008957,0.00053936575,-5.0211028665,-8.423716216999999,6.4e-05,0.53752,-0.89625,-5.0000000000105516e-05,0.00019999999999997797,9.999999999998899e-05,9.549689893872948e-05,-0.0009481636630139789,0.0009818596473776253
149580000000.0,2,-0.1910923819,0.05194582504999999,0.04955300245,0.055722,0.095385,0.020632,0.0037461403,-5.025613925499999,-8.4210684215,0.000445,0.53806,-0.89586,-4.999999999988347e-05,9.999999999998899e-05,0.00019999999999997797,-0.0027348326643623633,-0.0009585801799232296,-0.0004657234373458552
149580000000.0,2,-0.14313786339999998,0.030910560799999997,0.08266025285,0.050357,0.10074,0.035558,0.008306232549999999,-5.0303211175,-8.418224492999999,0.000987,0.53861,-0.89535,-9.999999999998899e-05,5.0000000000105516e-05,-6.666666666665932e-05,-0.0009495619611070705,-0.00047486720105771596,-0.00021260630410055437
149580000000.0,2,-0.06153672875,0.0063350959,0.18237427004999998,0.040378,0.050741,0.03136,0.011110934449999998,-5.035910907999999,-8.4147921655,0.00132,0.53929,-0.89486,-9.999999999998899e-05,4.999999999988347e-05,-6.666666666665932e-05,-0.00012115090713693544,0.0010578637932707746,-0.0006936468847336397
149580000000.0,2,0.0026674088,-0.10154786075,0.49897215865,-0.016754,-0.036147,0.011133,0.009002504699999999,-5.040716166499999,-8.411948236999999,0.00107,0.53986,-0.89467,9.999999999998899e-05,-3.333333333332966e-05,-6.666666666665932e-05,0.001854712391185953,0.0006437345066183653,0.0004238437928525962
149580000000.0,2,0.10150863415,-0.0632725058,0.30962536044999994,-0.040639,-0.097737,-0.003744,0.0036873003999999994,-5.040814233,-8.4118501705,0.000439,0.53987,-0.89479,9.999999999998899e-05,-3.333333333332966e-05,-0.00029999999999996696,-7.425512344783058e-05,0.0005941690489221774,-0.0006688361144799315
149580000000.0,2,0.13584171579999998,-0.049229383,0.4622070278,-0.055782,-0.12638,-0.006924,-0.0038638200999999996,-5.040716166499999,-8.4120463035,-0.000459,0.53985,-0.895,4.999999999988347e-05,-3.333333333332966e-05,-0.00019999999999997797,0.00692115147215111,0.0013861478942616134,-0.0008922938003307068
149580000000.0,2,0.15062033735,0.060830649949999996,0.38780397424999996,-0.068466,-0.10816,-0.001641,-0.013552790299999999,-5.0352244425,-8.415282498,-0.00161,0.5392,-0.89503,5.0000000000105516e-05,-0.00039999999999995595,0.00039999999999995595,0.009033183398914901,-0.016988768722621117,-0.003108193302742257
149580000000.0,2,0.12984985264999999,0.0934573745,0.28559906794999995,-0.076504,-0.042036,0.004633,-0.018818961349999996,-5.028948186499999,-8.419009025,-0.002235,0.53846,-0.895,9.999999999998899e-05,9.999999999998899e-05,-9.999999999998899e-05,0.0007689447409668926,-0.001570526547907125,0.0006605928018709462
149580000000.0,2,0.04108005685,0.08248373315,0.10278349865,-0.086479,0.050744,0.014058,-0.017142024199999998,-5.0218873985000005,-8.423225884499999,-0.002035,0.53761,-0.89487,-0.00019999999999997797,9.999999999998899e-05,0.00039999999999995595,-0.010378265536361675,-0.0032843005876290743,0.000852239202403432
149580000000.0,2,-0.09176082405,0.0954187045,-0.07667819634999999,-0.097615,0.13287,0.024569,-0.0098458766,-5.0118846155,-8.429207941,-0.001168,0.53643,-0.89452,-4.999999999988347e-05,9.999999999998899e-05,-9.999999999998899e-05,0.0017441621202730628,-0.0009075730780094826,0.0009150536166142864
149580000000.0,2,-0.18208007055,0.07995361745,-0.1964860394,-0.096399,0.15949,0.037333,0.0016180972499999998,-5.003745096,-8.434013199499999,0.000191,0.53547,-0.89413,-5.0000000000105516e-05,9.999999999998899e-05,-9.999999999998899e-05,8.706315709305912e-05,-0.0005790634948830142,0.0008129941691151221
149580000000.0,2,-0.13604765545,0.05555467224999999,-0.25825812775,-0.083607,0.15619,0.034159,0.013337044000000001,-4.996095909,-8.4385242585,0.001581,0.53456,-0.89373,0.00039999999999995595,-0.00019999999999997797,-0.00029999999999996696,0.0003151075074285803,-0.0073384086515120295,-0.00027730901784772666
149580000000.0,2,-0.11084456495,0.0508769002,-0.31390105985,-0.049611,0.12929,0.020389,0.023761512949999997,-4.990996450999999,-8.44156432,0.002814,0.53395,-0.89344,0.0005999999999999339,-9.999999999998899e-05,-0.000700000000000145,-0.0013326593732462255,-0.004095089624407633,0.0008921862348922893
149580000000.0,2,-0.08919148175,0.0536031489,-0.24401887194999997,-0.013647,0.078925,0.001328,0.0299298958,-4.986387325499999,-8.4442121155,0.003545,0.53341,-0.89329,-0.0006999999999999229,0.00039999999999995595,0.000700000000000145,0.0027162154791658955,0.002493230202327057,-0.00013880316585815344
149580000000.0,2,-0.06585165474999999,0.0537600553,-0.19041572304999999,0.022156,0.012575,-0.010234,0.0327738243,-4.98766219,-8.44352565,0.003882,0.53355,-0.89337,-0.000500000000000167,0.0007999999999999119,-0.0012000000000000899,0.0034692206497280997,0.02958650915937233,0.003956122828766867
149580000000.0,2,-0.0357746592,0.000980665,-0.19770206399999998,0.059061,-0.044203,-0.013272,0.030841914249999994,-4.9918790495,-8.440975921,0.003653,0.53405,-0.89353,-4.999999999988347e-05,9.999999999998899e-05,4.999999999988347e-05,-0.0007151601641373073,-0.0001789525950168791,9.759692560340483e-05
149580000000.0,2,-0.018475728599999998,-0.0407172108,-0.17527425545,0.085582,-0.067857,-0.020656,0.02625240205,-4.998449505,-8.437151327499999,0.003112,0.53484,-0.89374,-5.0000000000105516e-05,0.00019999999999997797,5.0000000000105516e-05,-0.0010593241942287168,0.0004520400510845679,-0.0007523460930146941
149580000000.0,2,-0.061585761999999995,-0.07143163859999999,-0.1240933491,0.10269,-0.066928,-0.025964,0.02042725195,-5.0067851574999995,-8.432149936,0.002423,0.53583,-0.89395,-9.999999999998899e-05,9.999999999998899e-05,0.00019999999999997797,-0.002000723505592328,-0.0005995903945714698,-0.0005804028063337852
149580000000.0,2,-0.08580818750000001,-0.07253979005,-0.0755504316,0.10939,-0.029686,-0.027086,0.018475728599999998,-5.0160034085,-8.426658212,0.002192,0.53692,-0.89427,-9.999999999998899e-05,9.999999999998899e-05,9.999999999998899e-05,-4.723199096046127e-05,-0.0010652846741117106,0.00025012547522337836
149580000000.0,2,-0.14202971195,-0.058290727599999995,-0.021103910799999997,0.097993,0.009839,-0.031445,0.02007421255,-5.0246332605,-8.421656820499999,0.002383,0.53794,-0.89463,-9.999999999998899e-05,9.999999999998899e-05,9.999999999998899e-05,0.0001573455621851627,-0.001258596255413691,7.911547390163087e-05
149580000000.0,2,-0.15387614515,-0.0810617689,0.050504247499999995,0.065246,0.049539,-0.033706,0.025193283849999998,-5.030713383499999,-8.4179302935,0.002993,0.53866,-0.89502,-9.999999999998899e-05,3.333333333332966e-05,9.999999999998899e-05,0.00025220135897308094,-0.0009116138641247495,8.204125579833188e-05
149580000000.0,2,-0.11653242194999999,-0.11931751055,0.0625272004,0.020611,0.072279,-0.031687,0.0303417751,-5.0358128415,-8.414890232,0.003606,0.53927,-0.89527,-5.0000000000105516e-05,3.333333333355171e-05,9.999999999998899e-05,-0.002320812565601571,-0.0024784135167597032,0.0012245321563311151
149580000000.0,2,-0.0656849417,-0.17429359045,0.09129010484999998,-0.024286,0.066247,-0.024283,0.03754966285,-5.03473411,-8.415478631,0.004462,0.53914,-0.89556,-4.999999999988347e-05,3.333333333332966e-05,0.00010000000000021103,0.00159807293017733,3.461933379522719e-06,0.00030506029226581854
149580000000.0,2,0.0074138274,-0.21404974954999997,0.0951833449,-0.047916,0.04726,-0.023223,0.0430119669,-5.031203716,-8.4175380275,0.00511,0.53872,-0.89583,-9.999999999998899e-05,-0.00010000000000021103,9.999999999998899e-05,-9.566832889351673e-05,-0.00010682751795565437,-0.0004920519597244322
149580000000.0,2,0.0444241245,-0.22683762114999997,0.05571157865,-0.04701,0.023815,-0.028517,0.046856173699999996,-5.027084922999999,-8.41998969,0.005565,0.53823,-0.89613,9.999999999998899e-05,-0.00039999999999995595,9.999999999998899e-05,-0.003356806981761995,-0.011947227538425365,-0.003479498299721495
149580000000.0,2,0.0669205796,-0.15300335329999998,0.06730303894999999,-0.024778,-0.007254,-0.042301,0.0502492746,-5.027477189,-8.419793557,0.005968,0.53828,-0.89666,-0.00039999999999995595,2.4999999999941735e-05,0.00039999999999995595,-0.0005187512922014692,-0.001595253963008858,-0.0017002942670025778
149580000000.0,2,0.07981632435,-0.0561528779,0.07334393535,0.007125,-0.026685,-0.051819,0.052612677249999996,-5.02885012,-8.4189109585,0.006249,0.53844,-0.89735,-4.999999999988347e-05,2.4999999999941735e-05,-9.999999999998899e-05,-0.0012176560156248462,0.001093892970724486,-0.000473845442475862
149580000000.0,2,0.07094130609999999,0.0146119085,0.0441495383,0.045403,-0.041919,-0.049593,0.0534070159,-5.0320863145,-8.4169496285,0.006345,0.53883,-0.89803,-5.0000000000105516e-05,2.500000000016378e-05,-9.999999999998899e-05,-0.0006702742683013518,5.1344725985336126e-05,-0.00017037971525704632
149580000000.0,2,0.05216157135,0.0751973922,0.044649677449999994,0.071999,-0.045344,-0.039935,0.0528774568,-5.0369896395,-8.414007633499999,0.006285,0.53941,-0.8986,9.999999999998899e-05,2.4999999999941735e-05,-9.999999999998899e-05,0.0004039701596098011,0.002329505026597678,0.001212091273272653
149580000000.0,2,0.029694536199999996,0.0863769732,0.0204174453,0.088988,-0.0455,-0.023894,0.05111225979999999,-5.043265895499999,-8.4102811065,0.006077,0.54016,-0.89897,-4.999999999988347e-05,-2.4999999999941735e-05,-9.999999999998899e-05,-0.001111769140655694,0.0012964242855948438,-0.0003849513395700055
149580000000.0,2,0.037912508899999996,0.09632091629999999,0.02144714355,0.081433,-0.048645,-0.012161,0.04842523769999999,-5.0493460185,-8.406652646,0.00576,0.54088,-0.8992,-5.0000000000105516e-05,-2.500000000016378e-05,9.999999999998899e-05,-0.00048273079790817075,0.00011593427220857322,-0.0002461073365079558
149580000000.0,2,0.04974913545,0.08428815675,0.02529135035,0.0612,-0.041023,-0.007941,0.0461697082,-5.053955144,-8.403906784,0.005493,0.54142,-0.89936,-9.999999999998899e-05,-2.4999999999941735e-05,9.999999999998899e-05,-0.0005175233233074561,-0.0006895080839004475,-0.0005553746790876724
149580000000.0,2,0.05488782005,0.0526813238,0.0054721106999999995,0.037853,-0.029101,-0.014408,0.0450713634,-5.056995205499999,-8.4020435205,0.005364,0.54179,-0.89956,0.00019999999999997797,-2.4999999999941735e-05,-0.00019999999999997797,0.002006244432859905,-0.000587214366865263,0.00039926211658347643
149580000000.0,2,0.04884692365,0.054858400099999996,0.05875164014999999,0.00694,-0.028839,-0.019799,0.0446790974,-5.057975870499999,-8.4014551215,0.005318,0.54191,-0.89983,-0.0008999999999999009,0.00019999999999997797,0.0013999999999998458,9.652391827297269e-05,-0.008918274041035401,-0.0031816619440789284
149580000000.0,2,0.056888376649999996,0.05718257615,0.05727083599999999,-0.015538,-0.037178,-0.018757,0.04382591885,-5.056701006,-8.4022396535,0.005215,0.54176,-0.90012,5.0000000000105516e-05,0.000300000000000189,-0.0013999999999998458,0.002298232570979608,0.024238826264031843,0.002481753910382939
149580000000.0,2,0.06516518924999999,0.04198226865,0.0055897905,-0.027246,-0.032819,-0.017719,0.04302177355,-5.054053210499999,-8.403808717499999,0.005119,0.54144,-0.9004,4.999999999988347e-05,-0.00010000000000021103,-3.333333333332966e-05,-0.0020994526191595586,-0.0014016860058021496,0.0013430071379790243
149580000000.0,2,0.047719158899999996,0.046542360899999996,0.00967916355,-0.028264,-0.023224,-0.012401,0.04251182775,-5.051013148999999,-8.405671981,0.005057,0.54108,-0.90062,-2.4999999999941735e-05,0.00010000000000021103,-3.333333333332966e-05,-0.00023100088638361438,3.260291510387425e-05,-0.00025400447844281526
149580000000.0,2,0.027262487,0.08520998185,0.037657536,-0.0271,-0.006191,-0.004958,0.04247260115,-5.0477769545,-8.407633311,0.005052,0.54069,-0.90073,-2.4999999999941735e-05,4.999999999988347e-05,-3.333333333332966e-05,0.001611446343713463,-0.0006472556444265809,0.0007500645685969698
149580000000.0,2,-0.00150041745,0.11239401565,0.032685564449999996,-0.031256,0.00876,-0.003924,0.04310022674999999,-5.043854294499999,-8.409986907,0.005125,0.54023,-0.90077,-2.500000000016378e-05,5.0000000000105516e-05,-4.999999999988347e-05,0.00012562172041685749,1.8336355445125463e-06,4.311467640838451e-05
149580000000.0,2,-0.025595356499999996,0.10736320419999999,0.01732835055,-0.028018,0.012996,-0.004993,0.044002438549999995,-5.040029700999999,-8.4122424365,0.00523,0.53977,-0.90079,-2.4999999999941735e-05,9.999999999998899e-05,-5.0000000000105516e-05,0.0001131606018972553,-0.00011187229962805745,0.0003241659449899348
149580000000.0,2,-0.0006668522,0.1186212384,0.0167497582,-0.020575,0.012931,-0.00071,0.04510078334999999,-5.036499307,-8.4143998995,0.00536,0.53935,-0.90081,-5.0000000000105516e-05,9.999999999998899e-05,9.999999999998899e-05,0.0007683411522723116,-0.00041175483613731245,0.0005709712491016594
149580000000.0,2,0.017151830849999997,0.1404900679,0.01493552795,0.000734,0.014878,0.007862,0.04629719465,-5.0342437774999995,-8.4157728305,0.005501,0.53908,-0.90077,-5.0000000000105516e-05,9.999999999998899e-05,7.500000000004725e-05,-0.0006887845811819338,-0.0003050556167782936,-0.00012896052843686112
149580000000.0,2,0.019377940399999998,0.13998992875,0.0140038962,0.024131,0.012543,0.01858,0.0469150136,-5.034047644499999,-8.415870897,0.005574,0.53906,-0.9006,-9.999999999998899e-05,0.00019999999999997797,7.500000000004725e-05,-0.0007417670617545502,0.0006480350227093812,0.00011278036726550256
149580000000.0,2,0.0160632927,0.15349368579999997,0.02015266575,0.028338,0.006114,0.019666,0.0469346269,-5.034537976999999,-8.415576697499999,0.005577,0.53912,-0.9004,0.00010000000000021103,9.999999999998899e-05,7.49999999998252e-05,-0.0012762003814539291,-0.0005944165064259987,-0.0002792259553067167
149580000000.0,2,0.009669356899999999,0.14353012939999998,0.0161025193,0.016539,-0.003375,0.01646,0.046002995149999996,-5.034341844,-8.415674764,0.005466,0.53909,-0.9002,9.999999999998899e-05,-0.00019999999999997797,7.500000000004725e-05,-0.0017744210114750691,-0.013071766578575783,-0.0022466745809210653
149580000000.0,2,0.0106892485,0.0842195102,-0.02970434285,0.000608,0.002091,0.010018,0.04557150255,-5.033361179,-8.416263163,0.005415,0.53897,-0.90007,-0.00010000000000021103,0.00019999999999997797,-0.00019999999999997797,0.0005339754346951331,-0.00021222289016376017,-6.572391968856506e-06
149580000000.0,2,-0.029880862549999995,0.046561974199999995,-0.0175931301,-0.014264,0.006482,0.003581,0.045296916349999994,-5.031595982,-8.4173418945,0.005381,0.53877,-0.89998,0.000300000000000189,-9.999999999998899e-05,-0.00019999999999997797,0.0019481426116103595,-0.0003957509331691256,0.0008677062571030292
149580000000.0,2,-0.048140844849999996,0.034078108749999995,0.022574908299999998,-0.031391,0.000227,0.00463,0.044404511199999996,-5.028948186499999,-8.4189109585,0.005274,0.53846,-0.89987,-0.001000000000000112,0.0004999999999999449,0.0013999999999998458,0.000231348800143083,-0.00546090620732631,-0.0029716651944499684
149580000000.0,2,-0.0196133,0.018426695349999998,0.02762533305,-0.04537,-0.011384,0.007829,0.04296293365,-5.025319726,-8.4210684215,0.005101,0.53802,-0.89975,9.999999999998899e-05,0.00029999999999996696,-0.0015000000000000568,0.0027938946392196407,0.02182744681375337,0.0024480277116547544
149580000000.0,2,0.00559959715,0.0014709974999999999,0.016936084549999997,-0.042235,-0.015678,0.014246,0.0410898635,-5.0216912655,-8.423323951,0.004878,0.53759,-0.8996,-9.999999999998899e-05,0.00019999999999997797,-9.999999999998899e-05,0.0008825496686942769,0.0009576429438009626,0.0003654551428835806
149580000000.0,2,-0.00889463155,0.021201977299999997,0.039295246549999996,-0.029374,-0.010453,0.011057,0.03927563325,-5.0188473369999995,-8.4249910815,0.004662,0.53725,-0.89945,-2.4999999999941735e-05,9.999999999998899e-05,-9.999999999998899e-05,0.00047772443678106846,-0.0007098843997590532,0.0008112167392665404
149580000000.0,2,-0.009296704199999999,0.03639247815,0.0678031781,-0.008932,0.007499,0.005724,0.03892259385,-5.017670539,-8.425677547,0.00462,0.53712,-0.89935,-2.4999999999941735e-05,9.999999999998899e-05,-9.999999999998899e-05,-0.0006805511208011206,-9.024961830217393e-05,3.3767314559424166e-05
149580000000.0,2,-0.03788308895,0.05375024864999999,0.056456884049999996,0.000828,0.0266,0.00464,0.03998171205,-5.0173763395,-8.425873679999999,0.004745,0.53708,-0.89926,-2.500000000016378e-05,0.000300000000000189,-9.999999999998899e-05,0.0012922622772011394,-0.00017144928734702525,0.0009366463313794648
149580000000.0,2,-0.0393835064,0.06136020905,0.059624432,-0.0023,0.04047,0.012083,0.04192342875,-5.01708214,-8.4259717465,0.004976,0.53704,-0.89911,-2.4999999999941735e-05,9.999999999998899e-05,-5.0000000000105516e-05,-0.00012623155489577265,9.436400875051376e-05,-4.7249764841411634e-05
149580000000.0,2,-0.015004174499999998,-0.00252030905,0.016239812399999998,-0.018328,0.042724,0.02059,0.044326057999999995,-5.0160034085,-8.426658212,0.00526,0.53692,-0.89888,-9.999999999998899e-05,9.999999999998899e-05,-4.999999999988347e-05,-0.00021382189015128894,9.905774151963698e-05,0.0002062000978714229
149580000000.0,2,-0.0026576021499999996,-0.05751600225,-0.006325289249999999,-0.030166,0.033225,0.025924,0.0462089348,-5.014434344499999,-8.4275408105,0.005483,0.53673,-0.8986,-9.999999999998899e-05,9.999999999998899e-05,-4.999999999988347e-05,0.00017818996291096845,0.0004951721503367867,-0.00026348810990181604
149580000000.0,2,0.024516625,-0.0666263801,-0.012817291549999998,-0.032398,0.014075,0.015279,0.04731708625,-5.012571081,-8.4287176085,0.005613,0.53651,-0.8984,-9.999999999998899e-05,9.999999999998899e-05,-5.0000000000105516e-05,0.00023247846112184334,-1.9375931807896762e-05,-0.0007299918191914778
149580000000.0,2,0.00954187045,-0.046875787,0.008237586,-0.030292,-0.000842,-0.002837,0.047611285749999996,-5.010609751,-8.42979634,0.005648,0.53627,-0.89839,-9.999999999998899e-05,9.999999999998899e-05,-5.0000000000105516e-05,6.700469827880529e-05,-0.0008093851669057628,-0.00042545589042555787
149580000000.0,2,0.0013729309999999998,0.0177696498,0.03264633785,-0.030303,-0.011482,-0.017762,0.04755244585,-5.008060022,-8.431365404,0.00564,0.53597,-0.89855,-9.999999999998899e-05,9.999999999998899e-05,-4.999999999988347e-05,0.00020824789871631832,0.0003175268853836677,-0.0002591632987283543
149580000000.0,2,-0.05808478795,0.051690852149999994,0.050053141599999997,-0.024959,-0.016845,-0.028416,0.04641487445,-5.0054122265,-8.432934468,0.005504,0.53566,-0.89878,-9.999999999998899e-05,9.999999999998899e-05,-4.999999999988347e-05,-0.0026004647531145952,0.0007865068901649064,-0.0015193311792452424
149580000000.0,2,-0.1015380541,0.016073099349999998,0.038775494099999995,-0.018573,-0.019031,-0.031605,0.044522190999999996,-5.003745096,-8.433915133,0.005279,0.53547,-0.89903,-9.999999999998899e-05,9.999999999998899e-05,-5.0000000000105516e-05,0.0015548884709919442,8.089484481277331e-05,0.00034908849396758646
149580000000.0,2,-0.10870671524999999,0.013611630199999999,0.057104122949999996,-0.00464,-0.010625,-0.030527,0.0430119669,-5.0034508965,-8.434111266,0.0051,0.53543,-0.89927,-0.00019999999999997797,9.999999999998899e-05,9.999999999998899e-05,-0.002100151943968731,-0.0006139092884158703,-0.000603530510908501
149580000000.0,2,-0.10956970045,0.00314793465,0.11162909695,0.001839,-0.00109,-0.030531,0.04223724155,-5.004333494999999,-8.4336209335,0.005008,0.53553,-0.8995,-9.999999999998899e-05,9.999999999998899e-05,-4.999999999988347e-05,-0.003996265740664695,-0.0017394114152031737,0.0006381663007193339
149580000000.0,2,-0.08235624669999998,-0.0333622233,0.16658556354999998,0.002028,0.018094,-0.036968,0.0436003659,-5.0062948249999994,-8.432444135499999,0.005171,0.53576,-0.89982,-9.999999999998899e-05,9.999999999998899e-05,-5.0000000000105516e-05,0.00019817705000768626,-0.0012701890239008584,0.00012608766550301076
149580000000.0,2,-0.06455717695,-0.054250387799999994,0.19445606284999997,-0.015862,0.040631,-0.049847,0.0477976121,-5.007667755999999,-8.431561536999999,0.005669,0.53593,-0.9003,-0.00010000000000021103,5.0000000000105516e-05,-0.00029999999999996696,0.0006742491836100317,-0.0009142871426970345,0.00030735197782322254
149580000000.0,2,-0.03721623675,-0.05779058844999999,0.2652502692,-0.053096,0.051596,-0.053133,0.05427000109999999,-5.006883224,-8.432051869499999,0.006436,0.53583,-0.90089,-9.999999999998899e-05,4.999999999988347e-05,-9.999999999998899e-05,0.0020866916929728196,-0.0001337069258062762,0.000152827614333384
149580000000.0,2,0.012395605599999998,-0.07481493285,0.2474021662,-0.093719,0.047658,-0.042523,0.061075816199999994,-5.002568298,-8.434503531999999,0.007241,0.53532,-0.90143,-9.999999999998899e-05,4.999999999988347e-05,-0.00019999999999997797,0.002193638838971168,0.0008618577515180359,-5.415725726237719e-05
149580000000.0,2,0.08456274295,-0.1083634825,0.19240647299999997,-0.11851,0.029725,-0.02012,0.0670186461,-4.9958017095,-8.4385242585,0.007942,0.53452,-0.90183,-4.999999999988347e-05,5.0000000000105516e-05,-0.00019999999999997797,0.002622703899863632,0.0003260103259667968,-0.0001405169573904519
149580000000.0,2,0.1413334398,-0.10485270179999999,0.1819525841,-0.1306,-0.002162,0.001261,0.0702548406,-4.98766219,-8.443329516999999,0.008321,0.53355,-0.90202,-5.0000000000105516e-05,-9.999999999998899e-05,-0.000500000000000167,0.008022242452902062,0.002694764964273899,-0.0007432662063727447
149580000000.0,2,0.1664973037,-0.07975748444999999,0.15767131869999998,-0.1363,-0.038357,0.016256,0.07007832089999999,-4.9783458725,-8.448821241,0.008294,0.53245,-0.90203,9.999999999998899e-05,-9.999999999998899e-05,-0.00029999999999996696,0.0004064739843574472,0.0004851282543212321,-0.0002541636819844706
149580000000.0,2,0.19194556045,-0.0488567303,0.10187148019999999,-0.12696,-0.065081,0.028058,0.06722458575,-4.968637289,-8.454509097999999,0.007951,0.53131,-0.90192,-1.999999999990898e-05,2.4999999999941735e-05,-0.00029999999999996696,0.0010226453619806009,0.0010101572838911999,-0.0007017743847053948
149580000000.0,2,0.16229025085,0.00128467115,0.0592910059,-0.1165,-0.090738,0.028119,0.0614092423,-4.958928705499999,-8.460295021499999,0.007259,0.53016,-0.90174,-2.0000000000131024e-05,2.500000000016378e-05,-0.00019999999999997797,0.00014151124746730748,0.0006032624553602428,-0.0006943178759406254
149580000000.0,2,0.09804688669999999,0.036519964599999996,0.014592295199999999,-0.10799,-0.10358,0.012144,0.053681602099999996,-4.9489259225,-8.466080945,0.006341,0.52898,-0.90164,-1.999999999990898e-05,2.4999999999941735e-05,-0.00019999999999997797,0.0002515506790699007,0.0025181141019543496,-0.0007775782935431907
149580000000.0,2,0.03809883525,0.07059807335,-0.0944968794,-0.089801,-0.10372,0.001501,0.04510078334999999,-4.939021206,-8.471964934999999,0.005324,0.52781,-0.90161,-2.0000000000131024e-05,2.4999999999941735e-05,-0.00019999999999997797,-0.0020687014639841905,0.0015990246261514685,-0.0005539014386953811
149580000000.0,2,-0.0207704847,0.11151141714999999,-0.20388025349999997,-0.047987,-0.079548,-0.001671,0.037382949799999995,-4.930881686499999,-8.4767701935,0.00441,0.52685,-0.90159,-1.999999999990898e-05,9.999999999998899e-05,-5.0000000000105516e-05,-0.000941221846082807,0.00046060878393272553,-0.00018054271529777122
149580000000.0,2,-0.09929233124999999,0.15426841114999998,-0.2524035577,-0.006111,-0.041541,0.00474,0.031057660549999998,-4.9255860955,-8.479810255,0.003662,0.52623,-0.90144,-9.999999999998899e-05,0.00019999999999997797,-4.999999999988347e-05,-0.0006849411503562219,0.0006903425623763226,-0.00010042514619951204
149580000000.0,2,-0.12675095125,0.16864496005,-0.2533449961,0.029316,-0.006682,0.015416,0.026948674199999998,-4.923330566,-8.481183186,0.003177,0.52596,-0.90116,-4.0000000000040004e-05,0.00019999999999997797,-9.999999999998899e-05,-7.935749644494283e-05,-0.0010199345052461783,0.0009946037139257624
149580000000.0,2,-0.13625359509999999,0.1515519691,-0.26614267435,0.051892,0.0187,0.021815,0.0270271274,-4.927351292499999,-8.47882959,0.003187,0.52643,-0.90094,-4.0000000000040004e-05,0.00020000000000020002,-5.0000000000105516e-05,-0.000910398409913804,-8.86462936542376e-05,0.0004693341691008879
149580000000.0,2,-0.10356803064999999,0.11329622745,-0.27063412005,0.061598,0.030344,0.019676,0.0283019919,-4.932548817,-8.475887595,0.003339,0.52704,-0.9007,-3.999999999981796e-05,0.00019999999999997797,-4.999999999988347e-05,0.0003022429547485661,-0.00017906387644450739,0.0004054552617900331
149580000000.0,2,-0.054024834849999995,0.08373898434999999,-0.2286322381,0.065987,0.038844,0.008995,0.0308321076,-4.9379424745,-8.4726514005,0.003639,0.52768,-0.90055,-4.0000000000040004e-05,0.00019999999999997797,4.999999999988347e-05,-0.0005293362373725019,-0.0008127130561419449,0.0008416758468529073
149580000000.0,2,-0.00495235825,0.031547993049999994,-0.17933420855,0.071434,0.047334,-0.000618,0.0345782479,-4.942159333999999,-8.470199738,0.004083,0.52818,-0.90053,-4.0000000000040004e-05,0.00019999999999997797,5.0000000000105516e-05,-0.0004929266845519198,-8.056198879913268e-05,-0.0001844036140438432
149580000000.0,2,0.028047019,0.00516810455,-0.09540889785,0.065088,0.049525,-0.008104,0.0391481468,-4.947847190999999,-8.466865477,0.004623,0.52885,-0.90061,9.999999999998899e-05,0.00019999999999997797,-9.999999999998899e-05,-0.0001353750649247809,-0.0007099273870891931,0.0006590783313222826
149580000000.0,2,0.06934282215,-0.03478418755,-0.028154892149999996,0.061775,0.038891,-0.002754,0.04288448045,-4.9530447155,-8.463727349,0.005066,0.52947,-0.90066,5.0000000000105516e-05,9.999999999998899e-05,9.999999999998899e-05,-0.0018565562546717373,-0.0007274525643370389,-0.0005374182543349815
149580000000.0,2,0.13069322455,-0.0952617981,0.01748525695,0.046639,0.021952,0.010058,0.044826197150000004,-4.957457708,-8.461275686499999,0.005298,0.52998,-0.90059,4.999999999988347e-05,9.999999999998899e-05,5.0000000000105516e-05,0.0009616331622572805,-0.0008377689931449162,0.0009493965088628042
149580000000.0,2,0.18064829964999998,-0.132193642,0.0991060049,0.017646,0.004071,0.019644,0.048140844849999996,-4.962361033,-8.4583336915,0.005692,0.53056,-0.9006,-9.999999999998899e-05,9.999999999998899e-05,4.999999999988347e-05,-0.00010885296848461845,0.00046501092433692826,-0.0004959513046551289
149580000000.0,2,0.21057819544999998,-0.1442165949,0.1346256912,-0.011184,0.00324,0.022797,0.047101339949999994,-4.9620668335,-8.4585298245,0.005568,0.53052,-0.90034,9.999999999998899e-05,9.999999999998899e-05,-9.999999999998899e-05,0.0013352111714121095,-0.0004316195802400724,0.0006124559621340508
149580000000.0,2,0.2187275216,-0.13822473175,0.11559098355,-0.032356,0.024725,0.02379,0.0473268929,-4.959811304,-8.459804688999998,0.005595,0.53026,-0.90006,9.999999999998899e-05,9.999999999998899e-05,-9.999999999998899e-05,0.0007321815705645385,-0.00043488382386547286,0.0009155408150615385
149580000000.0,2,0.16702686279999998,-0.08589644734999999,0.146315218,-0.05247,0.045136,0.024787,0.04949416255,-4.955888644,-8.462158285,0.005849,0.52979,-0.89977,9.999999999998899e-05,9.999999999998899e-05,-9.999999999998899e-05,0.0006141899626275205,9.604429906073797e-05,0.00012079076302909386
149580000000.0,2,0.13163466294999998,-0.05098477334999999,0.16205489125,-0.070538,0.058068,0.032202,0.055407572499999995,-4.952162116999999,-8.4642176815,0.006546,0.52936,-0.89958,9.999999999998899e-05,9.999999999998899e-05,-9.999999999998899e-05,0.002092900113831786,-0.0002738258362668944,0.0009086545290459824
149580000000.0,2,0.1199941694,-0.00679600845,0.07930637855,-0.068384,0.064441,0.038597,0.06136020905,-4.9469645925,-8.467257743,0.007247,0.52874,-0.89929,9.999999999998899e-05,9.999999999998899e-05,-4.999999999988347e-05,0.0012584657439292934,7.885282271202776e-05,0.0006290578452090023
149580000000.0,2,0.09356524764999999,-0.02023111895,0.017455837,-0.054491,0.068589,0.040747,0.06713632589999999,-4.942355467,-8.469905538499999,0.007927,0.5282,-0.89892,0.00020000000000020002,9.999999999998899e-05,-5.0000000000105516e-05,0.0011230373676882621,-0.0008463912836036425,0.0010601119059451547
149580000000.0,2,0.07414808064999999,0.023330020349999998,0.0166909183,-0.038598,0.056735,0.043996,0.0717454514,-4.938432807,-8.472063001499999,0.008468,0.52774,-0.89851,9.999999999998899e-05,0.00019999999999997797,-1.999999999990898e-05,0.0010176216932182847,2.151159270913361e-05,0.0004146650516759498
149580000000.0,2,0.08404299049999998,0.06781298475,-0.0179265562,-0.024957,0.031046,0.048334,0.07442266685,-4.934902413,-8.474122397999999,0.008782,0.52732,-0.89806,0.00019999999999997797,9.999999999998899e-05,-2.0000000000131024e-05,-3.652747305715742e-05,0.0003324279812655373,4.055090337903855e-05
149580000000.0,2,0.10484289515,0.03307783045,-0.06015399109999999,-0.011313,0.004294,0.050537,0.07487377275,-4.9326468835,-8.475495329,0.008834,0.52706,-0.8976,0.00019999999999997797,0.00010000000000021103,-1.999999999990898e-05,0.00044487525301628583,0.00043834407711873524,0.0009492328930986171
149580000000.0,2,0.11270782844999999,0.004501252349999999,-0.07286340949999999,-0.001826,-0.013889,0.04418,0.07374600799999999,-4.931666218499999,-8.476083727999999,0.0087,0.52693,-0.89719,0.00019999999999997797,9.999999999998899e-05,-2.0000000000131024e-05,-0.001211775792930525,-0.00016030136044320464,9.219293382004001e-05
149580000000.0,2,0.09843915269999999,0.021809989599999996,-0.0605854837,0.004603,-0.014998,0.036719,0.0722946238,-4.931175885999999,-8.4763779275,0.008529,0.52687,-0.89686,0.00019999999999997797,0.00019999999999997797,-1.999999999990898e-05,0.00046199416276193617,-0.00045730178195579896,0.0007697120267479984
149580000000.0,2,0.08032627015,0.042296081449999995,-0.060095151199999995,0.009019,0.003084,0.035626,0.07185332455,-4.93078362,-8.476574060499999,0.008476,0.52684,-0.89654,0.00029999999999996696,9.999999999998899e-05,9.999999999998899e-05,-0.00025381090529286165,-0.0003952790031624964,0.0011614217895785095
149580000000.0,2,0.045149816599999996,0.04459083755,-0.049866815249999995,0.011291,0.028628,0.048393,0.07246133684999999,-4.930685553499999,-8.476672127,0.008548,0.52683,-0.89608,9.999999999998899e-05,0.00019999999999997797,9.999999999998899e-05,-0.0007176040998064792,-0.00010039770393421854,-3.1552209498492134e-05
149580000000.0,2,0.040050358599999995,0.028282378599999998,-0.07090207949999999,0.00718,0.058483,0.064344,0.07456976659999999,-4.9305874869999995,-8.476672127,0.008797,0.52681,-0.89541,0.00029999999999996696,9.999999999998899e-05,9.999999999998899e-05,0.00018857234600744288,-0.0008356722840243691,0.0012306639016074206
149580000000.0,2,0.032930730699999994,-0.01538663385,-0.0768252961,-0.004378,0.084148,0.069615,0.07840416675,-4.930097154499999,-8.47686826,0.009249,0.52676,-0.89464,0.000300000000000189,9.999999999998899e-05,9.999999999998899e-05,-0.0074523057160527095,-0.0034935390071151318,0.000564876893461963
149580000000.0,2,0.026173948849999996,-0.0275370732,-0.09888045194999999,-0.014932,0.095962,0.065306,0.08351343139999999,-4.928626157,-8.477750858499999,0.009851,0.52658,-0.89391,0.0007999999999999119,-0.00019999999999997797,9.999999999998899e-05,0.0014579286366350752,-0.013137772221282429,-0.0001575920029982525
149580000000.0,2,0.013582210249999999,-0.04802316505,-0.14614850494999998,-0.015905,0.1045,0.059952,0.0895151012,-4.926664827,-8.47882959,0.010557,0.52635,-0.89321,-0.00039999999999995595,0.0004999999999999449,9.999999999998899e-05,-0.0027567257707138415,0.01288977409874037,0.001226397028409154
149580000000.0,2,-0.016514398599999997,-0.05671185694999999,-0.15682794679999998,-0.004128,0.10441,0.051433,0.095516771,-4.9255860955,-8.4793199225,0.011265,0.52623,-0.89257,0.00019999999999997797,0.00019999999999997797,-9.999999999998899e-05,0.007420985627130228,0.0020056515916275774,0.0017228150616551974
149580000000.0,2,-0.0228887211,-0.042394147949999995,-0.1599464615,0.014006,0.10213,0.048267,0.1014399876,-4.925684162,-8.479221855999999,0.011963,0.52624,-0.89198,9.999999999998899e-05,0.00019999999999997797,9.999999999998899e-05,0.0005454405527068884,0.00026535199004684706,0.0007244365772226535
149580000000.0,2,-0.01595541955,-0.0528382302,-0.14722723645,0.027839,0.09563,0.0451,0.10723571775,-4.927351292499999,-8.478143124499999,0.012648,0.52644,-0.89144,0.00029999999999996696,9.999999999998899e-05,0.00019999999999997797,-0.0010911470332179984,-0.001399754870538894,-6.465351941695174e-05
149580000000.0,2,-0.0162201991,-0.07992419749999999,-0.10670615865,0.035184,0.077458,0.040875,0.11183503659999998,-4.930685553499999,-8.4761817945,0.013194,0.52682,-0.89094,0.00029999999999996696,0.00019999999999997797,9.999999999998899e-05,-9.284747131133031e-07,-0.001285238501004926,0.0005271739967889766
149580000000.0,2,-0.0026477955,-0.08001245735,-0.07756079484999999,0.026626,0.071141,0.035535,0.11607150939999998,-4.933725614999999,-8.4744165975,0.013696,0.52719,-0.89052,0.00019999999999997797,0.00020000000000020002,0.00019999999999997797,0.0011088454440310036,0.00010184308144167709,0.0011721792057697578
149580000000.0,2,-0.025850329399999997,-0.11178600334999998,-0.0935946676,0.017132,0.081879,0.03123,0.1207198615,-4.936275344,-8.4728475335,0.014246,0.52748,-0.89013,0.00029999999999996696,9.999999999998899e-05,9.999999999998899e-05,-0.00040643179740496027,-0.0006713335556205458,0.001319168947887056
149580000000.0,2,-0.06206628785,-0.11984706964999998,-0.10444082249999999,0.021515,0.096759,0.03228,0.1259566126,-4.938825072999999,-8.4712784695,0.014868,0.52778,-0.8897,0.00020000000000020002,9.999999999998899e-05,0.00019999999999997797,-0.001973140730362366,-0.001750448045342301,0.000897954716320426
149580000000.0,2,-0.1064021525,-0.09543831779999999,-0.0644100772,0.032291,0.11052,0.033343,0.13153659645,-4.942159333999999,-8.469219073,0.01553,0.52817,-0.88921,9.999999999998899e-05,9.999999999998899e-05,0.00039999999999995595,-0.0019430644582346668,-0.0009067757237131158,-0.0007036072865133636
149580000000.0,2,-0.13504737714999998,-0.07794325419999999,-0.059663658599999995,0.053725,0.121,0.031229,0.1375872995,-4.946866526,-8.4663751445,0.01625,0.52874,-0.88869,5.0000000000105516e-05,0.00029999999999996696,0.000300000000000189,-0.0010473126615122563,0.0006595745192548019,2.0267422357417297e-05
149580000000.0,2,-0.16335917569999997,-0.01711260425,-0.05855550714999999,0.07189,0.11979,0.023793,0.1436085826,-4.952456316499999,-8.4630408835,0.016967,0.5294,-0.88824,4.999999999988347e-05,0.00019999999999997797,9.999999999998899e-05,0.00010915189751548038,0.0006230955084243206,0.0005979883989542523
149580000000.0,2,-0.16156455875,0.024251845449999997,-0.01032640245,0.083523,0.10158,0.015308,0.1490022401,-4.959124838499999,-8.459020157,0.017612,0.53019,-0.8879,0.00019999999999997797,0.00019999999999997797,0.00019999999999997797,-0.0013804282657421396,-0.0007686590958464468,0.0006171643409545735
149580000000.0,2,-0.13965650265,0.0246539181,0.0161221326,0.078009,0.077117,0.012142,0.15297393334999998,-4.9659894934999995,-8.454901364,0.018091,0.53099,-0.88762,0.00029999999999996696,9.999999999998899e-05,9.999999999998899e-05,0.0021659228014712095,-0.0008697391021033063,0.002082936280353248
149580000000.0,2,-0.11743463374999999,0.02138830365,0.035794272499999995,0.05647,0.052782,0.013216,0.15528830274999997,-4.9713831509999995,-8.451763236,0.018372,0.53163,-0.88736,0.00019999999999997797,0.00019999999999997797,9.999999999998899e-05,-0.0008305285990738431,-0.0004961719680030008,0.00029866614895565635
149580000000.0,2,-0.09317298165,0.00018632635,0.033931009,0.033943,0.040174,0.01747,0.15646510075,-4.9750116115,-8.449507706499999,0.018515,0.53206,-0.88709,0.00019999999999997797,9.999999999998899e-05,0.00029999999999996696,-0.00026678610696195815,-0.0010843213420077547,0.0008256949932884117
149580000000.0,2,-0.07530526535,-0.0177500365,0.02187863615,0.031759,0.039115,0.026009,0.15730847264999998,-4.9781497395,-8.447644443,0.018619,0.53244,-0.88675,9.999999999998899e-05,0.00019999999999997797,0.00019999999999997797,0.0011725513941356347,-5.7645492125057984e-05,0.0018545970229122133
149580000000.0,2,-0.07038232705,0.00102969825,0.0738440745,0.042427,0.045409,0.036691,0.15807339135,-4.982170466,-8.445290846999999,0.018715,0.53291,-0.88629,9.999999999998899e-05,0.00019999999999997797,9.999999999998899e-05,-0.00015758180624525497,-1.515202320767628e-05,0.0007566122781313689
149580000000.0,2,-0.07381465455,0.01987807955,0.0930258819,0.063666,0.038828,0.046347,0.15806358469999998,-4.98766219,-8.4420546525,0.018721,0.53356,-0.88572,0.00019999999999997797,9.999999999998899e-05,0.00019999999999997797,-0.0012690969807944708,-0.0002816539331702561,6.364629795083121e-05
149580000000.0,2,-0.0752562321,0.053573728949999996,0.11183503659999998,0.076307,0.018476,0.046406,0.15635722759999998,-4.994134579,-8.438230059,0.018528,0.53433,-0.8851,5.0000000000105516e-05,0.00010000000000021103,0.00019999999999997797,-0.0003950088542122865,0.0005967511750926136,-0.000440244596824485
149580000000.0,2,-0.04463006415,0.051131873099999996,0.1030482782,0.090056,0.001315,0.043259,0.15371923875000001,-5.001783766,-8.4338170665,0.018224,0.53523,-0.88456,4.999999999988347e-05,9.999999999998899e-05,0.00019999999999997797,-0.0011598710390878786,0.00036718075289177143,-5.158262801888136e-05
149580000000.0,2,-0.0112776475,0.05692760325,0.060193217699999996,0.092126,-0.009354,0.039012,0.1508851169,-5.009432953,-8.4293060075,0.017899,0.53614,-0.88409,0.00019999999999997797,0.00029999999999996696,9.999999999998899e-05,0.0009270560813513518,-0.0001057814656035827,0.0011946949033629084
149580000000.0,2,-0.03288169745,0.0578200084,0.1033424777,0.081377,-0.022049,0.034746,0.146903617,-5.0167879404999995,-8.4249910815,0.017435,0.53701,-0.88366,9.999999999998899e-05,9.999999999998899e-05,0.00020000000000020002,-0.0011833258602829133,6.408581096928323e-05,-0.00025792775007468793
149580000000.0,2,-0.027213453749999998,0.0135724036,0.050916126799999996,0.06967,-0.019819,0.032588,0.14302999025,-5.023260329499999,-8.421166487999999,0.016983,0.53778,-0.88325,0.00020000000000020002,5.0000000000105516e-05,0.00019999999999997797,-0.0007925295493461659,3.983270811147577e-05,0.00038250420568944343
149580000000.0,2,-0.0282627653,-0.010002783,0.04502233014999999,0.0537,-0.019682,0.026156,0.139450563,-5.028752053499999,-8.41802836,0.016564,0.53843,-0.88292,9.999999999998899e-05,4.999999999988347e-05,5.0000000000105516e-05,-0.0008338719610673229,-0.00043786869531325934,0.00026228940155925695
149580000000.0,2,-0.0186130217,-0.02505599075,0.09607575004999999,0.036643,-0.01954,0.023992,0.13622417515,-5.033263112499999,-8.4153805645,0.016186,0.53897,-0.88262,9.999999999998899e-05,9.999999999998899e-05,4.999999999988347e-05,-0.0009818566913945004,0.0005233787058962491,0.00012846008913519613
149580000000.0,2,-0.022418001899999998,-0.040158231749999995,0.06134059575,0.0282,-0.008813,0.022891,0.13359599295,-5.036891572999999,-8.4132231015,0.015878,0.5394,-0.88233,0.00019999999999997797,5.0000000000105516e-05,9.999999999998899e-05,-0.0013283667871676341,-0.0005199596143454777,0.00040184190868805536
149580000000.0,2,-0.03413694865,-0.03070462115,0.0412859965,0.029294,-0.005626,0.022888,0.13124239695,-5.040225833999999,-8.4112617715,0.015602,0.53979,-0.88203,9.999999999998899e-05,4.999999999988347e-05,9.999999999998899e-05,-0.0008693736042820754,-0.00048775256300848113,-2.7960938792370715e-06
149580000000.0,2,-0.0418743955,-0.01218966595,0.07114724574999999,0.031549,0.003953,0.014336,0.12956545979999998,-5.0436581615,-8.409202375,0.015406,0.5402,-0.88179,9.999999999998899e-05,3.333333333332966e-05,9.999999999998899e-05,-0.0021154919980610476,-0.0004926766923933901,-0.00034943134202902737
149580000000.0,2,-0.05618229784999999,-0.0053348176,0.043865145450000004,0.039216,0.022015,0.003644,0.12965371965,-5.047188555499999,-8.4071429785,0.015421,0.54062,-0.88166,9.999999999998899e-05,3.333333333332966e-05,9.999999999998899e-05,7.281059772334952e-05,-0.00026510328522899584,0.00016924265133297367
149580000000.0,2,-0.0998709236,0.01748525695,0.0310478539,0.048961,0.032601,-0.008097,0.13085013095,-5.0513073485,-8.4045932495,0.015567,0.54111,-0.88163,-0.00019999999999997797,3.333333333332966e-05,0.0006999999999999229,-0.010854131708535109,-0.0009534081684687834,-0.0021224230410784584
149580000000.0,2,-0.1028325319,0.028390251749999998,0.0542307745,0.052131,0.024055,-0.015547,0.1321544154,-5.055720341,-8.401945454,0.015728,0.54164,-0.8817,5.0000000000105516e-05,9.999999999998899e-05,9.999999999998899e-05,0.0009336694647329447,-5.772365283829295e-05,0.00031890802205294944
149580000000.0,2,-0.08659271949999998,-0.0030008349,0.03205793885,0.038067,-0.00034,-0.015527,0.13208576884999998,-5.0595449345,-8.3996899245,0.015724,0.54209,-0.8818,4.999999999988347e-05,9.999999999998899e-05,9.999999999998899e-05,-0.0003958573086988437,0.000648971488644623,-0.0005088462490795143
149580000000.0,2,-0.056054811399999994,-0.03884414065,0.010395048999999998,0.028309,-0.022634,-0.019774,0.13057554475,-5.062781129,-8.3977285945,0.015548,0.54248,-0.88196,0.00029999999999996696,0.0040000000000000036,-0.0033999999999998476,0.028698663934918045,-0.013414954372771515,-0.005195740162093482
149580000000.0,2,-0.027615526399999996,-0.0382067084,0.0038049802,0.019773,-0.02682,-0.026185,0.12892802755,-5.0650366584999995,-8.3963556635,0.015354,0.54275,-0.88222,9.999999999998899e-05,9.999999999998899e-05,9.999999999998899e-05,0.0018170150351608516,-0.00012428075629955515,-0.0002276092469159774
149580000000.0,2,-0.031400893299999996,0.00342252085,0.03180296595,0.009275,-0.010741,-0.03477,0.12866324799999998,-5.0662134565,-8.395669198,0.015324,0.54289,-0.88258,-0.00019999999999997797,-0.0040999999999999925,0.0030999999999998806,-0.021304512224812777,0.014346596351863417,0.005691678672997136
149580000000.0,2,-0.06902900935,0.036843584049999996,0.055623318799999995,-0.001147,0.020246,-0.034842,0.13037941174999998,-5.066115389999999,-8.395669198,0.015528,0.54288,-0.88292,-4.999999999988347e-05,9.999999999998899e-05,9.999999999998899e-05,0.0012669853807667497,-0.00047201698877463727,0.0002879061625406798
149580000000.0,2,-0.10309731144999999,0.04327674645,0.06604778774999999,-0.009476,0.053334,-0.023172,0.13392941905,-5.0654289245,-8.396061464,0.01595,0.54279,-0.88313,-5.0000000000105516e-05,4.999999999988347e-05,9.999999999998899e-05,-8.502966745072005e-05,0.00011443274157585392,-0.00014839869601557254
149580000000.0,2,-0.11085437159999999,0.016514398599999997,0.08495500895,-0.021226,0.060872,-0.00826,0.13779323915,-5.0642521265000005,-8.3967479295,0.016409,0.54265,-0.88316,9.999999999998899e-05,5.0000000000105516e-05,9.999999999998899e-05,0.0009585862725852712,-0.0007772400019223635,0.0008394939385016065
149580000000.0,2,-0.0830819388,-0.02013305245,0.0928101356,-0.018122,0.054441,0.001364,0.14128440655,-5.0634675945,-8.397140195499999,0.016824,0.54256,-0.88307,-9.999999999998899e-05,5.0000000000105516e-05,9.999999999998899e-05,0.0007598335577726489,0.00015702429311015287,0.00044072922238305723
149580000000.0,2,-0.035568719549999996,-0.0268898343,0.08721053845,0.006261,0.033994,0.000375,0.14405968849999998,-5.064546325999999,-8.39645373,0.017156,0.54269,-0.88302,9.999999999998899e-05,4.999999999988347e-05,3.333333333332966e-05,2.6346120618025992e-05,0.000811209313743122,-0.00020000042215537195
149580000000.0,2,0.010375435699999998,-0.02442836515,0.11727772734999999,0.028408,-0.00454,-0.009125,0.1450991934,-5.067782520499999,-8.394492399999999,0.017283,0.54307,-0.88311,2.4999999999941735e-05,1.6666666666775853e-05,3.333333333332966e-05,0.0001420557385977128,8.541488275515263e-05,-2.6515295820789264e-05
149580000000.0,2,0.07722736875,0.013984282899999999,0.10289137179999999,0.035523,-0.053607,-0.0165,0.1437851023,-5.071312914499999,-8.392334937,0.017131,0.54349,-0.88337,2.4999999999941735e-05,1.666666666655381e-05,3.333333333332966e-05,-0.00026426181007443983,0.001035996319111998,-0.0012279884599355195
149580000000.0,2,0.11702275444999999,0.00854159215,0.06351767205,0.03109,-0.077006,-0.020737,0.14065678094999998,-5.074352976,-8.39056974,0.016762,0.54386,-0.88373,2.500000000016378e-05,1.666666666655381e-05,6.666666666665932e-05,-0.0006044871732778789,0.0005414128293366183,-0.0005455737928951876
149580000000.0,2,0.13458646459999998,0.0076295737,-0.012248505849999999,0.027967,-0.065259,-0.017563,0.1379011123,-5.076706572,-8.389196809,0.016437,0.54414,-0.88409,2.4999999999941735e-05,1.6666666666775853e-05,6.666666666688137e-05,-0.0002798827317110897,0.00022119898602768195,5.757028877645398e-05
149580000000.0,2,0.100223963,0.020201699,-0.007168661149999999,0.009974,-0.041674,-0.009098,0.13605746209999997,-5.0777853035,-8.3885103435,0.016218,0.54427,-0.88433,5.0000000000105516e-05,1.6666666666775853e-05,6.666666666665932e-05,0.0006726522243869493,0.0003334315236576124,1.9854801641683295e-05
149580000000.0,2,0.048062391649999994,0.017779456449999998,-0.0005295590999999999,-0.003677,-0.0096,-0.001708,0.1356848094,-5.077491104,-8.388804543,0.016174,0.54423,-0.88444,4.999999999988347e-05,1.666666666655381e-05,5.0000000000105516e-05,0.0001720504375026799,0.00022540815055727137,0.000269234781409583
149580000000.0,2,-0.014327515649999999,0.025026570799999998,-0.07474628629999999,-0.003405,0.026624,0.001431,0.13702832045,-5.0762162395,-8.389491008499999,0.016332,0.54408,-0.88442,9.999999999998899e-05,5.0000000000105516e-05,4.999999999988347e-05,-0.0008052994342793163,-0.0010199599052675978,0.0003569536227210346
149580000000.0,2,-0.043365006299999995,0.042904093750000004,-0.08224837355,0.010592,0.046748,0.007825,0.13973495584999998,-5.075627840499999,-8.389785208,0.016653,0.54401,-0.8843,-9.999999999998899e-05,4.999999999988347e-05,0.00019999999999997797,0.00044968023347891073,0.00014625568725668003,0.0002142946497089293
149580000000.0,2,-0.0538581218,0.0750600991,-0.0497197155,0.02445,0.045567,0.007852,0.14244159125,-5.0762162395,-8.389392941999999,0.016977,0.54408,-0.88415,0.00019999999999997797,2.4999999999941735e-05,9.999999999998899e-05,-0.0002732565263982023,-0.0010638754908058878,0.0007540325891572386
149580000000.0,2,-0.030047575599999998,0.0687053899,-0.0365591912,0.031736,0.021001,0.004707,0.1442165949,-5.077687237,-8.3885103435,0.017191,0.54425,-0.88407,4.999999999988347e-05,2.4999999999941735e-05,9.999999999998899e-05,-8.334118593422701e-05,-0.0007464524029545672,-0.0004311173145142011
149580000000.0,2,-0.0024320492,0.0638412915,-0.01475900825,0.037928,-0.011008,-0.004833,0.14399104194999998,-5.080040833,-8.3871374125,0.017166,0.54453,-0.8841,5.0000000000105516e-05,2.500000000016378e-05,9.999999999998899e-05,-0.0009404265131877088,0.0001120253212263389,-0.00015310665710993598
149580000000.0,2,0.01513166095,0.0687250032,0.0026085689,0.040999,-0.032336,-0.013329,0.142588691,-5.0824924954999995,-8.3855683485,0.017003,0.54483,-0.88426,6.666666666665932e-05,2.4999999999941735e-05,5.0000000000105516e-05,-0.0011422009819593848,0.00010313455192512144,-0.000676576526739775
149580000000.0,2,0.022898527749999998,0.0731968356,0.03003776895,0.037844,-0.029109,-0.01761,0.14140208634999998,-5.085140291,-8.3839992845,0.016864,0.54514,-0.8845,6.666666666665932e-05,6.666666666665932e-05,4.999999999988347e-05,0.0005745736215778674,0.00018553826232747817,0.00019002044223837
149580000000.0,2,0.0108657682,0.08506288209999999,0.06686173969999999,0.038893,-0.025929,-0.009075,0.13997031545,-5.0878861529999995,-8.382332153999998,0.016696,0.54547,-0.88465,6.666666666665932e-05,6.666666666665932e-05,-2.4999999999941735e-05,-0.0012367347481559987,-0.00025070684990002867,2.3213700669544313e-05
149580000000.0,2,0.00140235095,0.09397712694999999,0.09555599759999998,0.04095,-0.028089,0.002674,0.1377638192,-5.091024281,-8.380566957,0.016437,0.54584,-0.88466,0.00014999999999987246,6.666666666665932e-05,-2.4999999999941735e-05,-0.00022331093555771897,0.00031964979501974966,0.00032699572091174356
149580000000.0,2,0.0086102387,0.09297684865,0.12598603255,0.038646,-0.044063,0.011237,0.13414516534999998,-5.094162409,-8.378605627,0.016009,0.54622,-0.88456,0.0001500000000000945,2.500000000016378e-05,-2.500000000016378e-05,-0.004011277701085669,-0.0006984983778250964,0.0010591273985505745
149580000000.0,2,0.02682118775,0.08929935489999999,0.11658145519999999,0.03951,-0.070707,0.009151,0.1288005411,-5.097202470499999,-8.37684043,0.015375,0.54658,-0.88448,0.00010000000000021103,2.4999999999941735e-05,-2.4999999999941735e-05,-0.000781021897733658,0.0008301638664105493,-0.0006630376576300945
149580000000.0,2,0.038226321699999996,0.0752562321,0.08880902239999999,0.050017,-0.09955,-0.004657,0.12158284669999998,-5.101027063999999,-8.374682966999998,0.014517,0.54703,-0.88454,4.999999999988347e-05,2.4999999999941735e-05,9.999999999998899e-05,-0.00039176476249802583,0.0009011041816293641,-0.0006621018180077154
149580000000.0,2,0.018524761849999998,0.1087165219,0.056888376649999996,0.067155,-0.105,-0.027033,0.11420824589999999,-5.1054400565,-8.372133238,0.013641,0.54756,-0.88483,5.0000000000105516e-05,2.500000000016378e-05,-9.999999999998899e-05,-0.0013231008029062075,9.87158104237551e-06,-0.0008818493099880531
149580000000.0,2,-0.02789991925,0.13221325529999997,0.0378928956,0.085406,-0.093421,-0.034496,0.10721610444999999,-5.1109317805,-8.368798976999999,0.01281,0.54822,-0.88521,5.0000000000105516e-05,9.999999999998899e-05,9.999999999998899e-05,-0.0003128950118231888,0.0005114120324227756,-0.0002474308612968601
149580000000.0,2,-0.0420509152,0.12728051035,0.022751427999999997,0.079155,-0.065679,-0.020679,0.10144979424999999,-5.116521571,-8.365464716,0.012127,0.54889,-0.88547,4.999999999988347e-05,3.333333333332966e-05,-9.999999999998899e-05,-0.000629297036291443,0.00021170851699481297,-0.0001676192478412275
149580000000.0,2,-0.0822189536,0.08626910004999999,0.0194956202,0.052704,-0.024991,-0.000515,0.09733100125,-5.120640363999999,-8.3630130535,0.011638,0.54939,-0.88546,1.6666666666775853e-05,3.333333333332966e-05,-2.4999999999941735e-05,-0.0008222150813356199,-0.00023348300506387254,-8.728865042473277e-05
149580000000.0,2,-0.10365629049999998,0.0009610516999999999,0.00791396655,0.014611,0.023258,0.013212,0.09587961704999999,-5.122797826999999,-8.361738188999999,0.011466,0.54963,-0.88523,1.666666666655381e-05,3.333333333332966e-05,-2.500000000016378e-05,0.000983177934305246,-0.00033581429027296217,0.0007420604704050371
149580000000.0,2,-0.10979525339999999,-0.042080335149999995,0.011405133949999998,-0.016161,0.050139,0.022719,0.09662492245,-5.1226997605,-8.3618362555,0.011556,0.54962,-0.88487,1.666666666655381e-05,3.333333333332966e-05,-2.4999999999941735e-05,-0.0006575893662442711,-0.00013716911939498644,0.0001875929449414171
149580000000.0,2,-0.08825984999999999,-0.048994023399999996,0.04757205915,-0.035346,0.057745,0.031213,0.09842934605,-5.121032629999999,-8.3628169205,0.01177,0.54942,-0.88443,1.6666666666775853e-05,3.333333333332966e-05,-2.4999999999941735e-05,0.0005912091204921532,-0.0003563673529816125,0.000705337028690689
149580000000.0,2,-0.04382591885,-0.0719023578,0.06392955134999999,-0.037633,0.039646,0.033376,0.09979247039999999,-5.1191693664999995,-8.363895652,0.01193,0.54921,-0.88398,1.6666666666775853e-05,3.333333333332966e-05,-4.999999999988347e-05,-0.0003010908345334462,0.0007144675871735284,0.00011255915401500727
149580000000.0,2,-0.0049229383,-0.061889768149999996,0.06218396765,-0.023966,0.008639,0.024915,0.09979247039999999,-5.118090635,-8.364484051,0.01193,0.54908,-0.88366,1.666666666655381e-05,-9.999999999998899e-05,-5.0000000000105516e-05,-0.0003467453226352335,0.0003900478782303818,-0.00040711880595975525
149580000000.0,2,0.028184312099999997,-0.0311263071,0.045895122,0.000352,-0.029904,0.007946,0.0979684335,-5.1183848345,-8.364385984499998,0.011712,0.54911,-0.88355,-5.0000000000105516e-05,9.999999999998899e-05,-3.333333333332966e-05,0.00012694195320395174,0.00035174919774561,-0.00021607807902923604
149580000000.0,2,0.027556686499999997,-0.007590347099999999,0.0430315802,0.023525,-0.078029,-0.009008,0.09305530184999998,-5.120248098,-8.363307253,0.011126,0.54933,-0.88363,-4.999999999988347e-05,-1.999999999990898e-05,-3.333333333332966e-05,-0.0009858248992894447,0.001247402001353315,-0.0010595962304346396
149580000000.0,2,0.0105323421,0.016896857949999997,0.05225963785,0.040394,-0.11332,-0.024927,0.08538650155,-5.123582359,-8.361345923,0.010211,0.54973,-0.88389,-4.999999999988347e-05,-2.0000000000131024e-05,-3.333333333332966e-05,-0.0005946391823532515,0.0009502139218078298,-0.0011796528599836709
149580000000.0,2,0.00401091985,0.01546508705,0.04903325,0.044628,-0.12825,-0.041972,0.0766487764,-5.127505019,-8.358992327,0.009169,0.55021,-0.88433,-5.0000000000105516e-05,-1.999999999990898e-05,-4.999999999988347e-05,-0.0002051404554614944,0.00046094956091757844,-0.0009641299811914694
149580000000.0,2,-0.029625889649999997,0.011846433200000001,0.0761388306,0.036356,-0.10473,-0.056971,0.069431082,-5.131231546,-8.356834864,0.008308,0.55065,-0.88493,-9.999999999998899e-05,-2.0000000000131024e-05,-5.0000000000105516e-05,0.00016677619049376702,7.979618324016613e-05,-0.0005473536847186988
149580000000.0,2,-0.0586045404,-0.00314793465,0.0975173276,0.014368,-0.058715,-0.066696,0.0657830082,-5.133781275,-8.3552658,0.007874,0.55095,-0.88563,-0.00010000000000021103,-1.999999999990898e-05,-5.0000000000105516e-05,0.00042052316160023917,0.0004698660805411148,-0.0011986134650225078
149580000000.0,2,-0.09003485365,-0.03256788465,0.15111066985,-0.025719,-0.004038,-0.070063,0.0663910205,-5.133977408,-8.3551677335,0.007946,0.55098,-0.88636,-0.00029999999999996696,-5.0000000000105516e-05,-4.999999999988347e-05,0.003957893890363495,0.0013280136160036538,-0.001854139126891391
149580000000.0,2,-0.08711247194999999,-0.06640082715,0.15387614515,-0.067078,0.033586,-0.059526,0.0703529071,-5.1311334795,-8.356834864,0.008419,0.55063,-0.88699,-0.00019999999999997797,-4.999999999988347e-05,-9.999999999998899e-05,0.0009488619297249867,0.00021735227269559232,-0.0004361051195309884
149580000000.0,2,-0.0738048479,-0.09671318229999999,0.15593554164999998,-0.10331,0.044529,-0.05,0.0754523651,-5.125445622499999,-8.3602671915,0.009024,0.54996,-0.88751,-5.0000000000105516e-05,-9.999999999998899e-05,-0.000300000000000189,0.001304033762271395,-0.0011414831966429784,0.00017337376982420882
149580000000.0,2,-0.042560861,-0.08464119614999999,0.15125776959999998,-0.11941,0.037194,-0.042543,0.08042433665,-5.117698368999999,-8.3649743835,0.009614,0.54903,-0.88798,-4.999999999988347e-05,-0.00010000000000021103,-9.999999999998899e-05,0.0006648015702414023,-0.0004502732990918634,-0.0004460069328212357
149580000000.0,2,0.0121014061,-0.049229383,0.09267284249999999,-0.10777,0.028567,-0.036104,0.08530804835,-5.1093627165,-8.369975775,0.010192,0.54804,-0.88843,2.4999999999941735e-05,-9.999999999998899e-05,-0.00019999999999997797,0.0012393768010298123,0.00018757927705759236,-0.00028220894921021644
149580000000.0,2,0.020721451449999997,0.02974356945,0.10517632125,-0.081285,0.008097,-0.030685,0.08851482289999998,-5.1023019285,-8.374290701,0.010569,0.54719,-0.88882,2.4999999999941735e-05,-9.999999999998899e-05,-9.999999999998899e-05,5.320193637470272e-05,-0.000753784448524808,-0.000213458361564417
149580000000.0,2,0.020986230999999998,0.1021656797,0.13044805829999997,-0.052648,-0.012385,-0.029532,0.0897504608,-5.096908270999999,-8.377624962,0.010713,0.54655,-0.88918,2.500000000016378e-05,-9.999999999998899e-05,-0.00019999999999997797,-0.0007013043515433637,-0.0007799467018760886,-7.321286288819451e-05
149580000000.0,2,0.0342644351,0.14108827355,0.0522890578,-0.022775,-0.016885,-0.036945,0.09068209255,-5.093083677499999,-8.3798804915,0.010821,0.54609,-0.88963,2.4999999999941735e-05,-9.999999999998899e-05,-9.999999999998899e-05,-0.0035366041361879486,-0.0011869026217179446,0.00027576051565997295
149580000000.0,2,-0.0037069137,0.15598457489999998,0.019544653449999998,-0.00892,-0.022321,-0.043316,0.09093706545,-5.0903378155,-8.381645688499999,0.01085,0.54576,-0.89011,-9.999999999998899e-05,-5.0000000000105516e-05,-9.999999999998899e-05,0.0007800044452003219,-0.00021386118007105104,-6.230211114371942e-06
149580000000.0,2,0.00197113665,0.16183914494999999,0.0370887503,-0.008978,-0.024459,-0.03584,0.09079977234999999,-5.0877880865,-8.383116686,0.010831,0.54546,-0.89055,1.0000000000065512e-05,-4.999999999988347e-05,-9.999999999998899e-05,0.00013852165255423543,0.00036773386194344226,-0.0007330018778731462
149580000000.0,2,0.0261249156,0.12329901045,-0.0338525558,-0.016486,-0.024404,-0.028381,0.09074093245,-5.0848460915,-8.384881883,0.010821,0.54511,-0.89092,9.999999999843467e-06,1.4285714285744433e-05,-0.00019999999999997797,0.0002574761659936975,8.822793889540215e-05,-0.00015900702618346085
149580000000.0,2,0.0359315656,0.07566811139999999,-0.03327396345,-0.026086,-0.021132,-0.024135,0.09080957899999999,-5.081609897,-8.386843212999999,0.010827,0.54473,-0.89125,1.0000000000065512e-05,1.4285714285744433e-05,-0.00019999999999997797,0.0008004402419465872,-0.00015739412298709787,4.739320325308771e-05
149580000000.0,2,0.06904862265,0.0704509736,-0.03447037475,-0.0303,-0.014701,-0.025222,0.0918098573,-5.07788337,-8.3890987425,0.010944,0.54428,-0.89161,1.0000000000065512e-05,1.4285714285744433e-05,-0.00019999999999997797,0.0007107759789948265,-0.00010516528645165835,-9.068973892856214e-06
149580000000.0,2,0.08913264185,0.07946328495,-0.051759498699999996,-0.039898,-0.012491,-0.023109,0.0934181479,-5.073274244499999,-8.3918446045,0.011132,0.54373,-0.89198,9.999999999843467e-06,1.4285714285522388e-05,-9.999999999998899e-05,0.00034125419920183475,-0.00010759927711490036,-0.00022165908990101624
149580000000.0,2,0.0842195102,0.06690096629999999,-0.04118793,-0.042051,-0.009283,-0.01458,0.0947518523,-5.068665118999999,-8.3945904665,0.011286,0.54318,-0.89226,1.0000000000065512e-05,1.4285714285744433e-05,-0.00019999999999997797,0.0008680330977421935,1.5044684360310256e-05,4.358193456632797e-05
149580000000.0,2,0.07244172355,0.035039160449999995,-0.07932599185,-0.045241,0.000322,-0.001795,0.0960463301,-5.063957926999999,-8.397532461499999,0.011437,0.54261,-0.89238,1.0000000000065512e-05,1.4285714285744433e-05,-0.00010000000000021103,0.00046389663324142294,-0.00015354395641775653,7.641451189591142e-05
149580000000.0,2,0.04251182775,0.011159967699999999,-0.08154229475,-0.051618,0.008892,0.006718,0.09725254805,-5.058858469,-8.4004744565,0.011577,0.54201,-0.89236,1.0000000000065512e-05,1.4285714285744433e-05,-9.999999999998899e-05,0.0022817819089860913,-0.00033183092291966254,0.0008189296192372408
149580000000.0,2,0.017298930599999998,-0.0417174891,-0.0889463155,-0.058918,0.026009,0.00027,0.0992629113,-5.0537590109999995,-8.4036125845,0.011812,0.5414,-0.89234,9.999999999843467e-06,-5.0000000000105516e-05,-9.999999999998899e-05,0.0007145385517792757,-0.00014306949911802036,-8.420382675813909e-05
149580000000.0,2,0.0041972462,-0.056270557699999994,-0.10264620555,-0.062986,0.043105,-0.012576,0.1030875048,-5.0483653534999995,-8.4067507125,0.012262,0.54076,-0.89244,1.0000000000065512e-05,-4.999999999988347e-05,-9.999999999998899e-05,0.0008116255770337366,-0.0005345619297778548,0.00024928014044231506
149580000000.0,2,-0.01958388005,-0.04294332035,-0.08454312964999999,-0.068243,0.04742,-0.021131,0.10786334334999999,-5.0424813635,-8.41018304,0.012825,0.54007,-0.89264,-9.999999999998899e-05,9.999999999998899e-05,-9.999999999998899e-05,0.0010883778204812122,0.0002850287408537877,-0.00027004033193911425
149580000000.0,2,-0.0125328987,-0.039736545799999995,-0.09116261839999999,-0.062972,0.04098,-0.018976,0.11233517574999999,-5.036695439999999,-8.4136153675,0.013351,0.53938,-0.89286,-9.999999999998899e-05,3.333333333332966e-05,3.333333333332966e-05,0.0003002769639681713,-0.00014819376589936262,-1.1322566919547139e-05
149580000000.0,2,-0.0008825985,-0.04893518349999999,-0.11509084439999999,-0.036456,0.027964,-0.008233,0.11564982345,-5.032576646999999,-8.416067029999999,0.013741,0.53889,-0.89299,9.999999999998899e-05,3.333333333332966e-05,3.333333333332966e-05,-0.00016462924719817806,-0.00045038520105533664,0.00023790574192575353
149580000000.0,2,0.00324600115,-0.03388197575,-0.10699055149999999,0.005999,0.011611,0.010015,0.11675797489999999,-5.031792115,-8.416557362499999,0.013872,0.53879,-0.89292,-9.999999999998899e-05,3.333333333332966e-05,3.333333333332966e-05,-0.0013934720179686888,-3.083331590536531e-05,-5.039606405354835e-06
149580000000.0,2,0.006864655,-0.014778621550000001,-0.07467763975,0.044238,-0.003632,0.019715,0.11583614979999998,-5.0346360435,-8.414890232,0.013765,0.53912,-0.89273,-1.999999999990898e-05,-1.4285714285744433e-05,3.333333333332966e-05,-0.0011377659810866136,-2.506892412967865e-05,-0.0001359754570218752
149580000000.0,2,-0.00899269805,-0.0075315072,-0.06628314735,0.066645,-0.008072,0.01229,0.11433573234999998,-5.0396374349999995,-8.4118501705,0.013592,0.53972,-0.89256,-2.0000000000131024e-05,-1.4285714285744433e-05,3.333333333332966e-05,-0.0008283199036710487,-0.00010940732815867271,-9.164977449732659e-05
149580000000.0,2,-0.0332053169,-0.023869386099999997,-0.0657633949,0.067767,-0.009134,-0.000515,0.11296280134999999,-5.0452272255,-8.4085159095,0.013433,0.54039,-0.89251,-1.999999999990898e-05,-1.4285714285744433e-05,3.333333333332966e-05,-0.00016541152125615355,4.972629265909134e-06,-1.9927302613298448e-06
149580000000.0,2,-0.0655868752,-0.06408645774999999,-0.06586146139999999,0.056086,-0.009028,-0.011208,0.1115212238,-5.050620883,-8.405279714999999,0.013268,0.54104,-0.89255,-2.0000000000131024e-05,-1.4285714285522388e-05,5.0000000000105516e-05,4.4796578444694646e-05,-0.00022581030659907242,-6.529126975096666e-05
149580000000.0,2,-0.053583535599999996,-0.10355822399999999,-0.04855272415,0.029496,-0.003475,-0.018735,0.11104069794999999,-5.054739676,-8.4028280525,0.013214,0.54152,-0.8927,-1.999999999990898e-05,-1.4285714285744433e-05,4.999999999988347e-05,-0.00015587992575227805,-7.185895994910041e-06,-0.00027358453874093414
149580000000.0,2,-0.03282285755,-0.138077632,-0.0396777059,0.002953,0.008472,-0.025206,0.11212923609999999,-5.056897139,-8.401553188,0.013346,0.54178,-0.89295,-9.999999999998899e-05,-1.4285714285744433e-05,3.333333333332966e-05,0.0008313758186414555,1.3854126668766398e-05,-4.0928681004803735e-05
149580000000.0,2,-0.03861858769999999,-0.1565925872,-0.011101127799999999,-0.02562,0.03003,-0.037035,0.11523794414999998,-5.057093272,-8.401357055,0.013715,0.5418,-0.8933,-5.0000000000105516e-05,-1.4285714285744433e-05,3.333333333332966e-05,0.0002900381173303046,-0.00034738206434581365,-0.00014819748335792582
149580000000.0,2,-0.042717767399999995,-0.13165427624999998,0.00797280645,-0.037105,0.055707,-0.045639,0.1209748344,-5.0558184074999994,-8.4020435205,0.014398,0.54165,-0.89377,-4.999999999988347e-05,-2.4999999999941735e-05,3.333333333332966e-05,0.00027815033050337945,-0.0009609057362491846,-3.726141812773753e-05
149580000000.0,2,-0.041570389349999994,-0.077080269,-0.0220845758,-0.04112,0.089835,-0.041436,0.1294085534,-5.0530725455,-8.4036125845,0.015398,0.54133,-0.89424,-4.999999999988347e-05,-2.500000000016378e-05,5.0000000000105516e-05,0.0005086079722826931,-0.0011215498281620384,0.00047968146097970843
149580000000.0,2,-0.0648219565,-0.028243152,-0.0100812362,-0.044236,0.10903,-0.027598,0.1390386837,-5.0495421515,-8.4055739145,0.01654,0.5409,-0.89454,-5.0000000000105516e-05,-2.4999999999941735e-05,5.0000000000105516e-05,0.0015986306831108354,-0.0013559561261000663,0.0005427436575958233
149580000000.0,2,-0.04843504435,-0.0361473119,-0.03168528615,-0.038993,0.10684,-0.012641,0.1483942278,-5.046109824,-8.407437177999999,0.017648,0.5405,-0.89468,-5.0000000000105516e-05,-2.4999999999941735e-05,9.999999999998899e-05,6.401918332332723e-05,-0.0009232440926281171,-0.00014791741121847335
149580000000.0,2,-0.00885540495,-0.030008348999999997,-0.07595250425,-0.024186,0.09392,-0.007255,0.1568475601,-5.043560094999999,-8.408810109,0.01865,0.5402,-0.89476,-4.999999999988347e-05,1.4285714285744433e-05,9.999999999998899e-05,0.0004155902725629934,-0.000452450922903358,0.00034122869326266847
149580000000.0,2,0.029596469699999996,0.0016279038999999999,-0.08550418134999999,-0.01264,0.070382,-0.007194,0.16433003405,-5.041598765,-8.4098888405,0.019538,0.53995,-0.89487,-4.999999999988347e-05,1.4285714285744433e-05,9.999999999998899e-05,-0.0002216412929463285,-0.00010947887406320689,-0.00023628518133747556
149580000000.0,2,0.06081103665,0.00285373515,-0.0695291485,0.000979,0.029795,-0.022044,0.1696354317,-5.040716166499999,-8.4102811065,0.020167,0.53985,-0.89515,-5.0000000000105516e-05,1.4285714285744433e-05,0.00019999999999997797,-0.0004958537652235417,4.1145383101515165e-05,-0.0004965125157035677
149580000000.0,2,0.07264766319999999,0.0400699719,-0.10529400104999999,0.027443,-0.003443,-0.033681,0.1727539464,-5.0411084325,-8.409986907,0.020539,0.5399,-0.89558,-9.999999999998899e-05,1.4285714285522388e-05,0.00019999999999997797,-0.00035787659465014166,-0.00018383645444064456,-0.000448751188396046
149580000000.0,2,0.09532063799999999,0.0708432396,-0.08936800144999998,0.052847,-0.030287,-0.036794,0.17417591065,-5.0434620285,-8.4085159095,0.020712,0.54018,-0.89611,-2.4999999999941735e-05,1.4285714285744433e-05,9.999999999998899e-05,-0.0002861694752197552,0.000411293015161851,-0.00037256841030133825
149580000000.0,2,0.07408924075,0.08459216289999999,-0.036225765099999994,0.072967,-0.044311,-0.029263,0.17341099195,-5.0479730875,-8.405868114,0.020627,0.54071,-0.89657,-2.4999999999941735e-05,1.4285714285744433e-05,9.999999999998899e-05,-0.001864116133546312,-0.0006025819706949598,-0.00013651130992151095
149580000000.0,2,0.05025908125,0.07701162245,-0.04174690905,0.084744,-0.031632,-0.017524,0.17225380725,-5.053660944499999,-8.4024357865,0.020497,0.54139,-0.89687,-2.500000000016378e-05,1.4285714285744433e-05,0.00019999999999997797,0.0017138840958876855,-0.000735777810251026,0.0009857500066579872
149580000000.0,2,0.01318994425,0.06720497245,-0.01315071765,0.082778,-0.001793,-0.003704,0.1719105745,-5.059839134,-8.3987092595,0.020466,0.54213,-0.89698,-2.4999999999941735e-05,-9.999999999998899e-05,0.00029999999999996696,-0.0025242455983376377,-0.0005329989647688826,-0.000722128386344334
149580000000.0,2,-0.006864655,0.04062895095,0.02234935535,0.074388,0.02171,0.004779,0.17311679244999997,-5.0662134565,-8.394884666,0.020618,0.54289,-0.89697,9.999999999998899e-05,-3.333333333332966e-05,5.0000000000105516e-05,0.0007804728254063864,-0.00041481796998321663,0.000817623730381245
149580000000.0,2,-0.010973641349999999,0.00069627215,0.07497183924999999,0.053118,0.031473,0.00686,0.17527425545,-5.0719013135,-8.391354272,0.020884,0.54357,-0.89689,4.999999999988347e-05,-3.333333333332966e-05,4.999999999988347e-05,-1.6715361178087917e-05,-0.0005864453773629652,-0.00015062006490831892
149580000000.0,2,0.026742734549999998,-0.01925045395,0.10617659954999999,0.02961,0.022085,-0.000637,0.17780437115,-5.075922039999999,-8.3889026095,0.021192,0.54404,-0.89691,5.0000000000105516e-05,-3.333333333332966e-05,9.999999999998899e-05,-4.538402946940856e-05,-0.00020794112528488284,-0.00026859054275804595
149580000000.0,2,0.0750797124,-0.0322442652,0.09012311349999999,0.016661,-0.002305,-0.010224,0.17990299425,-5.078667901999999,-8.387235479,0.021447,0.54437,-0.8971,3.333333333332966e-05,-5.0000000000105516e-05,5.0000000000105516e-05,-0.0005221927202818666,0.0005904827555220926,-0.00045021556640950644
149580000000.0,2,0.08307213214999999,-0.0102381426,0.08787739065,0.01949,-0.047085,-0.006939,0.17894194254999998,-5.0809234315,-8.385862547999999,0.021335,0.54463,-0.8973,3.333333333332966e-05,-4.999999999988347e-05,4.999999999988347e-05,-0.00027505213788547866,0.0006821631940674422,-0.0006340124847354078
149580000000.0,2,0.11462993184999999,0.006246836049999999,0.08344478484999998,0.037106,-0.10372,0.007066,0.17312659909999997,-5.084159626,-8.3839992845,0.020646,0.54503,-0.89739,3.333333333332966e-05,-9.999999999998899e-05,9.999999999998899e-05,-0.001112067805105088,0.0011897784388334998,-0.0005983436539358788
149580000000.0,2,0.14739394949999998,0.0037951735499999993,0.04980797535,0.069695,-0.15196,0.027486,0.16250599714999997,-5.08965135,-8.3808611565,0.019388,0.54568,-0.89729,0.00029999999999996696,-9.999999999998899e-05,-9.999999999998899e-05,0.000582437188519358,0.00034983007483835316,1.6505218625922913e-05
149580000000.0,2,0.12912416054999998,0.029792602699999997,0.028762904449999998,0.10588,-0.15865,0.035031,0.1493552795,-5.0978889359999995,-8.376153964499998,0.017829,0.54666,-0.89703,0.00039999999999995595,-0.00039999999999995595,0.000300000000000189,-0.0052000405939433,-0.011499480677680696,-0.0036325352456169357
149580000000.0,2,0.06621450079999999,0.0895151012,0.048690017249999995,0.11678,-0.13316,0.029667,0.13684199409999998,-5.107009120499999,-8.370760307,0.016346,0.54775,-0.89673,-0.0007999999999999119,0.00029999999999996696,0.0013999999999998458,7.786532228737375e-05,-0.007391480934908712,-0.0024604780494143774
149580000000.0,2,0.0008433719,0.1432947698,0.08756357784999999,0.10438,-0.089359,0.018894,0.12710399065,-5.115148639999999,-8.3659550485,0.015191,0.54873,-0.89648,1.4285714285744433e-05,0.00019999999999997797,-0.0012999999999998568,0.0022907906897641217,0.022779723608571167,0.0028305597372222935
149580000000.0,2,-0.05359334225,0.13286049419999998,0.055280086049999996,0.068819,-0.013387,-0.003716,0.12317152399999999,-5.1205422975,-8.362718853999999,0.014728,0.54937,-0.89641,1.4285714285744433e-05,-3.333333333332966e-05,-1.999999999990898e-05,-0.0006309417611208845,-0.0002998008849819378,7.21864176916609e-05
149580000000.0,2,-0.10902052805,0.09291800875,0.05515259959999999,0.020351,0.055222,-0.016728,0.125328987,-5.1226997605,-8.361345923,0.014988,0.54963,-0.89646,1.4285714285744433e-05,-3.333333333332966e-05,-2.0000000000131024e-05,0.0004871805092874215,-0.0014150851838075074,0.00036483198768585967
149580000000.0,2,-0.1330174006,0.05376986195,0.10427410945,-0.030581,0.09293,-0.012612,0.1310756839,-5.1212287629999995,-8.362228521499999,0.015673,0.54945,-0.8965,1.4285714285522388e-05,-3.333333333332966e-05,-1.999999999990898e-05,0.001655752349351558,-0.00035145691705462667,0.000771390884496459
149580000000.0,2,-0.10877536179999998,-0.00383440015,0.0750797124,-0.063553,0.11237,-0.002028,0.13885235734999998,-5.116913837,-8.364680184,0.016598,0.54894,-0.89643,1.4285714285744433e-05,-4.999999999988347e-05,-2.0000000000131024e-05,0.0005071508409925096,0.00013360143008700476,0.000436857226023879
149580000000.0,2,-0.05503491979999999,-0.04264912084999999,0.0606443236,-0.072228,0.10071,0.007585,0.14661922415,-5.1119124455,-8.367622179,0.01752,0.54834,-0.89631,1.4285714285744433e-05,-5.0000000000105516e-05,-1.999999999990898e-05,0.00030750131188661545,-0.0007007716506670647,0.0002231908517229264
149580000000.0,2,0.00475622525,-0.02107449085,0.0753542986,-0.064,0.063342,0.0098,0.15251302079999998,-5.107009120499999,-8.3704661075,0.018218,0.54775,-0.89619,1.4285714285744433e-05,-9.999999999998899e-05,4.999999999988347e-05,0.0013642612536698406,-0.000871121644616224,0.0009381860329666092
149580000000.0,2,0.04253144104999999,0.013023231199999999,0.04822910469999999,-0.047149,0.031244,0.002413,0.1563376143,-5.102792261,-8.373015836499999,0.018669,0.54725,-0.89617,-1.2499999999970868e-05,-4.999999999988347e-05,5.0000000000105516e-05,-6.987531294644356e-05,-0.0001446891886511814,-0.00038545280541787963
149580000000.0,2,0.0410898635,0.0313616667,0.011856239849999999,-0.021675,0.005476,-0.012441,0.15852449724999998,-5.100046398999999,-8.374682966999998,0.018927,0.54692,-0.89631,-1.2499999999970868e-05,-5.0000000000105516e-05,1.4285714285744433e-05,-0.0001012676912596211,0.0003397923504879774,-0.0004588646135625929
149580000000.0,2,0.005491723999999999,0.056662823699999997,0.009992976349999998,0.003827,-0.01284,-0.020904,0.15896579649999998,-5.0991638005,-8.375173299499998,0.018978,0.54681,-0.89655,-1.2499999999970868e-05,-2.4999999999941735e-05,1.4285714285744433e-05,-0.001540779772014833,-0.00013677930527000726,-0.0006915316428688922
149580000000.0,2,-0.00281450855,0.059428299,-0.0050013915,0.023962,-0.028991,-0.019773,0.15783803175,-5.0999483324999995,-8.374682966999998,0.018845,0.54691,-0.8968,-1.2499999999970868e-05,-2.500000000016378e-05,1.4285714285744433e-05,0.000336260408899558,0.0007246910135170204,5.428885084449164e-05
149580000000.0,2,-0.02028995885,0.041648842549999995,-0.02397725925,0.03768,-0.041902,-0.01012,0.15481758354999997,-5.102203862,-8.3734081025,0.018487,0.54718,-0.89693,-1.2500000000192912e-05,-2.4999999999941735e-05,1.4285714285522388e-05,-0.0005368353130676962,0.0006771711914850265,-0.00014017210507677458
149580000000.0,2,-0.021103910799999997,0.0342252085,-0.0366964843,0.046183,-0.039851,-0.000502,0.1509831834,-5.105341989999999,-8.3716429055,0.018034,0.54755,-0.89694,-1.2499999999970868e-05,-2.4999999999941735e-05,1.4285714285744433e-05,-0.0005847216504795139,8.667963759556585e-05,-0.00015801768504611347
149580000000.0,2,-0.01797558945,0.0383243882,-0.04359055925,0.04414,-0.024922,0.004806,0.14801176845,-5.1083820515,-8.369779642,0.017682,0.54791,-0.89688,-1.2499999999970868e-05,-3.333333333332966e-05,1.4285714285744433e-05,9.729525359536417e-05,0.000137310115001954,-0.0001384504471508563
149580000000.0,2,-0.04872924385,0.0505238608,-0.0185149552,0.025158,-0.000252,-0.000607,0.14644270445,-5.110245314999999,-8.3687009105,0.017497,0.54814,-0.89681,-1.2499999999970868e-05,-3.333333333332966e-05,1.4285714285744433e-05,-0.000649928030678093,-0.00018330938079524906,-0.00022615814574675208
149580000000.0,2,-0.07436382695,0.06532209565,-0.0318912258,0.005108,0.024426,-0.006021,0.14693303694999998,-5.110049181999999,-8.368798976999999,0.017556,0.54812,-0.89679,9.999999999998899e-05,-3.333333333332966e-05,-9.999999999998899e-05,-0.00011214003033999109,-0.001204854889076179,0.00047647151898969065
149580000000.0,2,-0.0806695029,0.07310857574999999,-0.045483242699999996,-0.01497,0.04697,-0.009297,0.14964947899999997,-5.1079897855,-8.369975775,0.017878,0.54787,-0.89681,-9.999999999998899e-05,5.0000000000105516e-05,9.999999999998899e-05,0.0009580982667426463,-0.00046447788573300564,0.00029779739691634943
149580000000.0,2,-0.10779469679999999,0.05226944449999999,-0.0036873003999999994,-0.040416,0.063168,-0.015773,0.15373885204999999,-5.104361324999999,-8.372133238,0.018361,0.54743,-0.89686,3.333333333332966e-05,4.999999999988347e-05,-9.999999999998899e-05,0.0007724904969464985,0.0006514008232598734,0.0002838736682765075
149580000000.0,2,-0.08865211599999999,0.0136900834,-0.01748525695,-0.055334,0.064357,-0.017934,0.15868140365,-5.099556066499999,-8.3749771665,0.018945,0.54687,-0.89697,3.333333333332966e-05,-9.999999999998899e-05,-9.999999999998899e-05,0.00032961777567130923,-0.000765641470694689,0.0004651132441162442
149580000000.0,2,-0.07355968165,0.004393379199999999,-0.0332837701,-0.060762,0.054806,-0.014724,0.16319246264999998,-5.094162409,-8.3781152945,0.019476,0.54622,-0.89707,3.333333333332966e-05,3.333333333332966e-05,9.999999999998899e-05,-0.0018400785516363705,-0.001743953527000297,0.001148177142704765
149580000000.0,2,-0.0517202721,-0.005295591,-0.030851720899999997,-0.047066,0.037635,-0.007197,0.1663403973,-5.089553283499999,-8.3808611565,0.019845,0.54567,-0.89712,-9.999999999998899e-05,3.333333333332966e-05,5.0000000000105516e-05,0.0005330104236638267,-0.00029495871521190153,0.00015431555884931614
149580000000.0,2,-0.0310478539,0.009943943099999998,-0.0780805473,-0.016283,0.021391,-0.001778,0.16811540094999997,-5.086709355,-8.3826263535,0.020052,0.54533,-0.8971,-5.0000000000105516e-05,3.333333333332966e-05,4.999999999988347e-05,-0.0005057880495210609,-0.0002960937593636803,9.085728559513062e-05
149580000000.0,2,-0.0151218543,0.059251779299999995,-0.09586981039999999,0.025284,0.015721,-0.002763,0.1694000721,-5.086611288499999,-8.3826263535,0.020205,0.54532,-0.89712,-4.999999999988347e-05,4.999999999988347e-05,9.999999999998899e-05,-0.0006750632995219386,-0.0001954664960193142,2.8120621039906535e-05
149580000000.0,2,0.004128599649999999,0.1040681698,-0.07665858304999999,0.056189,0.012269,-0.001636,0.17079261639999999,-5.088964884499999,-8.381155355999999,0.020375,0.5456,-0.89717,-4.999999999988347e-05,5.0000000000105516e-05,5.0000000000105516e-05,-0.001103340753438986,-0.0003011991005001935,-0.0002978740469719021
149580000000.0,2,-0.00862004535,0.11710120765,-0.0491117032,0.071048,0.003621,-0.000527,0.17127314225,-5.092887544499999,-8.37880176,0.020439,0.54606,-0.89719,-5.0000000000105516e-05,5.0000000000105516e-05,4.999999999988347e-05,-0.000555006504565525,0.0006712606993697356,6.84042313487121e-05
149580000000.0,2,-0.020368412049999996,0.07929657189999999,-0.044012245199999994,0.070919,-0.010235,0.0027,0.1703022839,-5.09749667,-8.3759578315,0.02033,0.54662,-0.89716,-9.999999999998899e-05,4.999999999988347e-05,9.999999999998899e-05,-7.460435369543994e-05,-0.0002156325694027128,-4.0208230876054296e-05
149580000000.0,2,-0.0103362091,0.00818855275,-0.06090910315,0.066569,-0.022982,-0.001555,0.1684978603,-5.1026941945,-8.3728197035,0.020122,0.54724,-0.89717,-0.0001500000000000945,4.999999999988347e-05,5.0000000000105516e-05,-0.0014831376024910803,0.00025153916316500435,-0.0005591870887530492
149580000000.0,2,-0.02678196115,-0.03168528615,-0.03213639205,0.055845,-0.034608,-0.009024,0.16564412515,-5.1078917189999995,-8.3696815755,0.019788,0.54786,-0.89723,-0.00014999999999987246,5.0000000000105516e-05,4.999999999988347e-05,0.0017121952414310693,0.0018947096247943218,-0.0018713257052557775
149580000000.0,2,-0.01925045395,-0.07257901665,-0.0060016698,0.040914,-0.03874,-0.016514,0.16275116339999998,-5.1125008444999995,-8.3669357135,0.019449,0.54841,-0.89738,-0.00010000000000021103,-1.4285714285744433e-05,9.999999999998899e-05,-2.6698667038305146e-05,-0.00026448555276514796,-0.00028290828680957447
