Time,placement_label,user_acc_x(m/s^2),user_acc_y(m/s^2),user_acc_z(m/s^2),rotation_rate_x(rad/s),rotation_rate_y(rad/s),rotation_rate_z(rad/s),gravity_x(m/s^2),gravity_y(m/s^2),gravity_z(m/s^2),attitude_roll(rad),attitude_pitch(rad),attitude_yaw(rad),target_delta_x,target_delta_y,target_delta_z,target_delta_roll,target_delta_pitch,target_delta_yaw
149570000000.0,2,0.15386633849999998,-0.0329895706,-0.05216157135,0.007912,-0.064889,-0.042577,0.40144502439999996,-4.119577532,-8.890316624,0.045124,0.43354,-1.3961,0.0,0.0,0.0,0.0,0.0,0.0
149570000000.0,2,0.0874164781,-0.0385793611,0.0712943455,0.006927,-0.048905,-0.033,0.4002486131,-4.121342729,-8.889532092,0.044994,0.43373,-1.3966,-9.999999999998899e-05,9.999999999998899e-05,9.999999999998899e-05,-7.207657720331717e-06,0.000477326628627317,-0.0005645042558681534
149570000000.0,2,0.017298930599999998,-0.03054771475,0.13024211865,0.006897,-0.046784,-0.023398,0.3976400442,-4.123500192,-8.888649493499999,0.044706,0.43398,-1.3969,-9.999999999998899e-05,9.999999999998899e-05,0.00019999999999997797,8.21418511431915e-07,0.0006882880554373028,-0.00034001436232131144
149570000000.0,2,-0.0035500073,0.00758054045,0.10181264029999999,0.021678,-0.061831,-0.015873,0.3932074384,-4.125951854499999,-8.887766894999999,0.044213,0.43424,-1.3971,-4.999999999988347e-05,0.00019999999999997797,9.999999999998899e-05,-2.847678727246894e-05,0.0002649894464079594,-0.000289365278480308
149570000000.0,2,0.03841264805,0.0775902148,0.08811275025,0.034402,-0.068335,-0.010503,0.38850024639999997,-4.1281093175,-8.886982363,0.043688,0.4345,-1.3973,-5.0000000000105516e-05,9.999999999998899e-05,9.999999999998899e-05,-0.00037697125756575023,0.001145431773542871,-0.00022809296452253047
149570000000.0,2,0.02407532575,0.10596085325,0.09018195339999999,0.026831,-0.073612,0.001234,0.3824985766,-4.1296783815,-8.8864920305,0.043016,0.43467,-1.3973,-9.999999999998899e-05,0.00019999999999997797,9.999999999998899e-05,3.825983844552017e-05,0.0011884212864901045,-0.00032740784174453696
149570000000.0,2,-0.0182207557,0.11064843194999999,0.043551332649999996,0.002204,-0.077683,0.011873,0.37480035635000003,-4.128991916,-8.887178496,0.042149,0.4346,-1.3972,-0.000600000000000156,0.000600000000000156,0.0007999999999999119,0.010099637369980763,0.002012703033295704,0.004428132348335917
149570000000.0,2,-0.0478760653,0.09307491514999999,0.006423355749999999,-0.026668,-0.081715,0.018234,0.36585669155,-4.125657655,-8.8890417595,0.041135,0.43422,-1.397,-9.999999999998899e-05,0.00019999999999997797,6.666666666665932e-05,0.0003898680653006137,0.0013274764086814717,-0.00025479741395828537
149570000000.0,2,0.0090417313,0.05642746409999999,0.014621715149999999,-0.040636,-0.094386,0.017165,0.35711896639999996,-4.121342729,-8.891395355499998,0.040143,0.43373,-1.3968,-4.999999999988347e-05,0.00019999999999997797,6.666666666665932e-05,-0.0011427795120073636,0.0018372835427769019,-0.00043222405908260875
149570000000.0,2,0.10462714884999999,0.0887305692,-0.01258193195,-0.009284,-0.18095,0.0099,0.3439878620499999,-4.1179104015,-8.8935528185,0.038659,0.43334,-1.3966,-5.0000000000105516e-05,0.00019999999999997797,6.666666666665932e-05,-1.881135597142647e-05,0.00242172857949452,-0.0009827691026965402
149570000000.0,2,0.14443234119999998,0.27777336124999996,-0.0752562321,0.00329,-0.24812,-0.052938,0.32752249669999994,-4.112712877,-8.89659288,0.036798,0.43276,-1.3972,-5.0000000000105516e-05,0.00019999999999997797,9.999999999998899e-05,0.0001571741180103059,0.0024577687611275767,-0.0021484479515599397
149570000000.0,2,0.3292092405,0.20157569074999998,-0.19078837575,-0.00134,-0.32474,-0.10405,0.3103412459,-4.1075153525,-8.899534874999999,0.034857,0.43218,-1.3985,-4.999999999988347e-05,0.00019999999999997797,9.999999999998899e-05,-0.0003647358527358868,0.002978431673865023,-0.00279877638806858
149570000000.0,2,0.34879312055,0.27123232569999994,-0.31339111405,-0.021025,-0.41191,-0.14876,0.2873152317,-4.098983567,-8.9043401335,0.032256,0.43122,-1.4003,-9.999999999998899e-05,0.00029999999999996696,0.00020000000000020002,0.0009406243938378522,0.002680896960674417,-0.002993891270932747
149570000000.0,2,0.27371340814999995,0.28344160495,-0.34141851975,-0.054456,-0.47021,-0.1722,0.25780702185,-4.087705919499999,-8.9104202565,0.028925,0.42995,-1.4023,0.0005999999999999339,-0.00019999999999997797,-0.000700000000000145,-0.010290342585145051,0.0005768135118580098,-0.007819878864614882
149570000000.0,2,0.18592427735,0.14406949514999998,-0.30944884074999995,-0.090912,-0.48697,-0.1637,0.22364065325,-4.0761340725,-8.916598446,0.025076,0.42865,-1.4042,-5.0000000000105516e-05,0.00019999999999997797,9.999999999998899e-05,0.0011000231622356194,0.0027653506605924694,-0.0035273704919462356
149570000000.0,2,0.0011277647499999999,0.05131819945,-0.16613445765,-0.12813,-0.45153,-0.1318,0.18741488815,-4.0632873609999995,-8.923266967999998,0.021,0.42721,-1.4057,-4.999999999988347e-05,0.00029999999999996696,-9.999999999998899e-05,0.001183373371342833,0.0032867000835703486,-0.0027986167235911907
149570000000.0,2,-0.18508090545,-0.072961476,0.051563365699999995,-0.14597,-0.39069,-0.093513,0.15111066985,-4.0516174475,-8.929249024499999,0.016922,0.42591,-1.4066,-4.999999999988347e-05,0.00020000000000020002,9.999999999998899e-05,0.00020139723400169895,0.001964478093906985,-0.002805873857625818
149570000000.0,2,-0.26953577525,-0.16325130254999998,0.25925840604999995,-0.14033,-0.32791,-0.055187,0.12304403755,-4.038770736,-8.9355252805,0.013769,0.42447,-1.4073,-5.0000000000105516e-05,9.999999999998899e-05,-3.333333333332966e-05,0.0008643498259037763,0.002157075900387717,-0.0013912754137829775
149570000000.0,2,-0.30065227569999997,-0.18346280819999997,0.37064233675,-0.11646,-0.25674,-0.021115,0.09954730415,-4.027591155,-8.9408208715,0.011133,0.42323,-1.4076,-5.0000000000105516e-05,0.00019999999999997797,-3.333333333332966e-05,0.0006627191924510889,0.0015988103321837865,-0.0011879808675263337
149570000000.0,2,-0.24762771914999998,-0.16711512265,0.48043759015,-0.06817,-0.21027,-0.0019,0.08003207065,-4.020236167499999,-8.9443512655,0.008948,0.4224,-1.4077,-4.999999999988347e-05,0.00019999999999997797,-3.333333333332966e-05,0.0002166000222541542,0.0010983045915486933,-0.0008164389838916652
149570000000.0,2,-0.15979936175,-0.07116685905,0.5673931556999999,-0.009098,-0.16281,-0.002947,0.06088948985,-4.0237665615,-8.942880268,0.006808,0.4228,-1.4075,-9.999999999998899e-05,0.00019999999999997797,-9.999999999998899e-05,0.0010720809981194512,0.00097770138382125,-0.0007937509742765303
149570000000.0,2,-0.09950807754999999,-0.14367722915,0.5373357734499999,0.043671,-0.098249,0.002368,0.05057289405,-4.02661049,-8.94170347,0.005656,0.42311,-1.4075,-9.999999999998899e-05,0.00029999999999996696,-2.4999999999941735e-05,-0.0012531999740196254,0.001234006956345235,-0.0006324448741380495
149570000000.0,2,-0.11413959935,-0.09413403335,0.541130947,0.088955,-0.037885,0.004475,0.045610729149999994,-4.033475145,-8.9386634085,0.005102,0.42388,-1.4075,-9.999999999998899e-05,0.00019999999999997797,-2.500000000016378e-05,-0.0007968282544303928,-1.4043641145766728e-05,-0.00010779402804239613
149570000000.0,2,-0.1348414375,-0.05512317965,0.57718999905,0.12364,0.028963,0.00335,0.0464050678,-4.0437721275,-8.933956216499999,0.005194,0.42503,-1.4074,-0.00019999999999997797,9.999999999998899e-05,-2.4999999999941735e-05,-0.0011889879584893182,-4.374148281138801e-06,0.00036435536966472615
149570000000.0,2,-0.2240623392,-0.06729323229999999,0.5366787278999999,0.14567,0.10764,-0.00849,0.049739328799999996,-4.0624047625,-8.9255224975,0.005572,0.42712,-1.4073,-0.00019999999999997797,0.00019999999999997797,-2.4999999999941735e-05,-0.0012440434098142106,-0.0006608934055902793,0.0005001537626516395
149570000000.0,2,-0.2730563626,-0.09586981039999999,0.5817206713499999,0.16886,0.19166,-0.032081,0.0659595279,-4.076918604499999,-8.918755909,0.007395,0.42875,-1.4075,-0.00019999999999997797,0.00019999999999997797,-9.999999999998899e-05,-0.0018846832235079325,-0.0026162010805768077,0.00046701833515563895
149570000000.0,2,-0.18929776495,-0.010473502199999998,0.6897801477,0.18916,0.29066,-0.091995,0.0927905223,-4.09329571,-8.9110086555,0.010412,0.43059,-1.4084,-0.00019999999999997797,9.999999999998899e-05,-9.999999999998899e-05,-0.0024696549741777263,-0.003691502339222996,0.0003762235812932446
149570000000.0,2,-0.045787248850000004,0.010973641349999999,0.7457074726499999,0.21517,0.42905,-0.16584,0.13377251265,-4.111830278499999,-8.9019865375,0.015026,0.43266,-1.41,-0.00019999999999997797,-1.999999999990898e-05,-9.999999999998899e-05,-0.002088505364468418,-0.006356689620472977,0.00011161219670474676
149570000000.0,2,0.021829602899999998,0.01591619295,0.75667130735,0.25923,0.55982,-0.23325,0.19125909494999999,-4.137817901,-8.8888456265,0.021513,0.43559,-1.4126,-0.000300000000000189,-2.0000000000131024e-05,-9.999999999998899e-05,-0.0037159153731673444,-0.006497638183042165,0.00033943006950792887
149570000000.0,2,-0.029468983249999997,-0.01179739995,0.7987810624499999,0.30496,0.65538,-0.26429,0.25825812775,-4.163511324,-8.875214383,0.029091,0.43848,-1.4155,-0.00019999999999997797,-1.999999999990898e-05,-0.00019999999999997797,-0.0036790140980522135,-0.00720520591807805,0.0001409583956303584
149570000000.0,2,-0.20630249604999998,-0.1109132115,0.8108726619,0.30445,0.73103,-0.25482,0.33245524165,-4.190087345499999,-8.8602102085,0.037504,0.44147,-1.4185,-0.00039999999999995595,-2.0000000000131024e-05,-0.00029999999999996696,-0.0024677567759734953,-0.007069084200694853,0.0007790408439678209
149570000000.0,2,-0.32580633295,-0.10312673139999999,0.6126508454499999,0.2825,0.79727,-0.24003,0.41184988004999995,-4.214505903999999,-8.8453041005,0.046528,0.44423,-1.4213,-0.00019999999999997797,-1.999999999990898e-05,-0.000300000000000189,-0.003233132018603313,-0.007765203058035963,0.0005429064789689853
149570000000.0,2,-0.0574865823,0.06130136914999999,0.25561033225,0.31043,0.81942,-0.24109,0.49443167969999996,-4.2401012604999995,-8.8288289285,0.055944,0.44712,-1.4241,-0.00029999999999996696,8.000000000008001e-05,-9.999999999998899e-05,-0.004099997146957357,-0.008308628651240824,0.001743613468114108
149570000000.0,2,-0.010120462799999999,-0.014307902349999999,0.27702805584999995,0.34438,0.8074,-0.22286,0.5756013217499999,-4.268932811499999,-8.8100001605,0.065243,0.45038,-1.4269,-0.00019999999999997797,8.000000000008001e-05,-0.00039999999999995595,-0.0009670568597465734,-0.007897327659683206,0.0015909014751442074
149570000000.0,2,-0.1391955901,-0.030685007849999998,0.34587073884999997,0.31654,0.82888,-0.16744,0.6560452716999999,-4.2963914315,-8.7909752595,0.074489,0.45349,-1.4292,-0.00019999999999997797,7.999999999985796e-05,-0.00019999999999997797,-0.0043238897518454444,-0.007373648773312258,0.0024514325283242766
149570000000.0,2,-0.1232303639,-0.09607575004999999,0.12324017055,0.27954,0.79074,-0.084181,0.7315074434500001,-4.3211041895,-8.7729310235,0.083191,0.4563,-1.4306,-9.999999999998899e-05,8.000000000008001e-05,-0.00019999999999997797,-0.0020931627453240065,-0.00574613570424698,0.002832764232270024
149570000000.0,2,-0.22837726519999998,-0.26762347849999996,-0.1767354463,0.2346,0.69511,0.003437,0.7953487349499999,-4.3426788195,-8.7566519845,0.09058,0.45876,-1.4311,-0.0008000000000001339,8.000000000008001e-05,0.0004999999999999449,0.010434370169369767,-0.004466115777030932,0.008266376423692101
149570000000.0,2,-0.29754356765,-0.171027976,-0.42969798305,0.16738,0.59332,0.054735,0.8480594787,-4.359448190999999,-8.743413007,0.096692,0.46065,-1.4308,-9.999999999998899e-05,-0.000300000000000189,-0.00019999999999997797,-0.0015333885914095013,-0.004464690557075768,0.0027859885672838758
149570000000.0,2,-0.08459216289999999,-0.12038643539999999,-0.5758857145999999,0.040063,0.30023,0.082784,0.87872487325,-4.3668031785,-8.7366464185,0.10024,0.4615,-1.43,0.0005999999999999339,-0.00029999999999996696,-0.0009999999999998899,-0.011389539181334785,-0.0005664718666396062,-0.003856495148919975
149570000000.0,2,0.18383546089999997,-0.24903987675,-1.3067361125,-0.13716,-0.10007,0.1056,0.8739490347,-4.359644324,-8.7407652115,0.099655,0.46068,-1.4288,3.333333333332966e-05,-5.0000000000105516e-05,-0.00019999999999997797,0.0026280943114879163,0.0025752138226755594,5.963365359246131e-05
149570000000.0,2,0.3465473977,-0.22316993405,-1.9914364155,-0.30836,-0.44069,0.085621,0.83828224865,-4.3371870955,-8.75537712,0.095454,0.45813,-1.4274,3.333333333332966e-05,-4.999999999988347e-05,-0.00020000000000020002,0.0046217473971899015,0.003961818014575291,-0.0014388864016989245
149570000000.0,2,0.30666375214999997,-0.1284475017,-1.7123391564999997,-0.43608,-0.56214,0.042918,0.78793490755,-4.3016870224999995,-8.777540149,0.089527,0.4541,-1.4264,3.333333333332966e-05,-3.333333333332966e-05,-0.00019999999999997797,0.003989680998722878,0.0046663179268298105,-0.002106370263692925
149570000000.0,2,0.5430040171499999,-0.045061556749999995,-0.9742122243,-0.38913,-0.57955,0.01421,0.73670496795,-4.2654024175,-8.799703178,0.083524,0.44998,-1.4258,5.0000000000105516e-05,-3.333333333332966e-05,-9.999999999998899e-05,0.004690373620725108,0.006339993933004218,-0.0024563758502450794
149570000000.0,2,0.6498670821999999,-0.22054175184999997,-0.12080812134999999,-0.26463,-0.61893,0.017697,0.6853475419,-4.240199327,-8.815982217,0.077583,0.44713,-1.4255,5.0000000000105516e-05,-3.333333333332966e-05,-9.999999999998899e-05,0.0021984463823656597,0.005635874106425076,-0.003022291529878929
149570000000.0,2,0.21575610664999997,-0.2901983868,0.28290223919999996,-0.21579,-0.64066,0.029561,0.6283512921000001,-4.2205860269999995,-8.8296134605,0.071044,0.44492,-1.425,9.999999999998899e-05,-3.333333333332966e-05,4.999999999988347e-05,0.002140557682883293,0.006865310735721053,-0.002572712403651256
149570000000.0,2,0.30933116095,-0.19173962079999998,-0.11833684554999999,-0.2099,-0.69613,0.043545,0.5665007505499999,-4.2022475915,-8.842558238499999,0.063978,0.44284,-1.4244,9.999999999998899e-05,-3.333333333332966e-05,5.0000000000105516e-05,0.0006117187969000848,0.006567534206066261,-0.0024334115445276694
149570000000.0,2,0.4222155091,-0.274390067,-0.5242242824,-0.21018,-0.71321,0.073462,0.5004529628,-4.183909156,-8.855208817,0.056455,0.44077,-1.4236,0.00029999999999996696,-3.333333333332966e-05,5.0000000000105516e-05,0.0002937467868187049,0.004418555037408067,-0.002294243299833132
149570000000.0,2,0.34306603695,-0.26392637145,-0.38381266769999994,-0.20337,-0.65148,0.090443,0.43773943605,-4.166061052999999,-8.8668787305,0.049328,0.43877,-1.4225,9.999999999998899e-05,4.999999999988347e-05,4.999999999988347e-05,0.0004968094048095062,0.005809086751330073,-0.0017428148951920963
149570000000.0,2,0.28389271084999995,-0.18792483394999998,0.0135135637,-0.17785,-0.5334,0.082807,0.38394015414999993,-4.1498800805,-8.876979579999999,0.043224,0.43695,-1.4215,9.999999999998899e-05,5.0000000000105516e-05,0.00019999999999997797,0.001657532848026666,0.005191082497439936,-0.0009892780348725871
149570000000.0,2,0.2303974351,-0.07198081099999999,0.30099550845,-0.12954,-0.3782,0.057,0.3440565086,-4.1373275685,-8.8845307005,0.038706,0.43553,-1.4207,0.00019999999999997797,5.0000000000105516e-05,0.00010000000000021103,0.000755144398972174,0.003144952106301835,-0.0009302028409893803
149570000000.0,2,0.07363813485,0.06942127534999999,0.46002014485,-0.056461,-0.19655,0.029054,0.32096184785,-4.13056098,-8.888551427,0.036094,0.43477,-1.4203,5.0000000000105516e-05,4.999999999988347e-05,0.00019999999999997797,-0.00010948963062118455,0.0014546098002965469,-0.00036921311457616124
149570000000.0,2,-0.11997455609999999,0.12229873214999999,0.6135824771999999,0.026338,-0.002199,-0.002099,0.31315575445,-4.1349739725,-8.88678623,0.035224,0.43527,-1.4201,4.999999999988347e-05,4.999999999988347e-05,9.999999999998899e-05,-0.00019424070996942877,-0.0005733512981647149,0.0002791144829332737
149570000000.0,2,-0.29573914404999996,0.17156734175,0.74464835445,0.090784,0.17631,-0.016178,0.32581613959999994,-4.141740561,-8.8831577695,0.036662,0.43603,-1.4202,-0.00029999999999996696,5.0000000000105516e-05,0.0004999999999999449,-0.0020238022856152726,-0.0018981693359207963,0.0006822077142394634
149570000000.0,2,-0.29209107025,0.1758332345,0.73652844825,0.14632,0.31864,-0.013131,0.35180376210000003,-4.153508541,-8.8766853805,0.039611,0.43735,-1.4204,-0.00029999999999996696,0.000700000000000145,0.0004999999999999449,0.011376945471073985,-0.0007133244717862919,0.006468216820252587
149570000000.0,2,-0.33504419725,0.1723224538,0.654103555,0.20366,0.41939,-0.010007,0.38756861465,-4.170375979,-8.867270996499999,0.04368,0.43925,-1.4206,0.0005999999999999339,-0.000500000000000167,-0.0007999999999999119,-0.011856477994967751,-0.005814606589043647,-0.002898449955681809
149570000000.0,2,-0.37692839939999995,0.1591227029,0.58325050875,0.25323,0.4744,-0.019622,0.42226454235,-4.1944022715,-8.854326218499999,0.047654,0.44196,-1.4206,-9.999999999998899e-05,9.999999999998899e-05,3.333333333332966e-05,-0.0027856983611264097,-0.0038185835817301506,0.0013890686668796837
149570000000.0,2,-0.30652645905,0.22362103995,0.41514491445,0.28994,0.51461,-0.042045,0.46844405719999993,-4.219213096,-8.8402046425,0.05294,0.44476,-1.4212,-9.999999999998899e-05,0.00010000000000021103,3.333333333332966e-05,-0.003176863693831078,-0.004839801256133702,0.0013879931409757629
149570000000.0,2,-0.26678991325,0.3093998075,0.34161465274999997,0.31923,0.55703,-0.071956,0.5193797973,-4.246475583,-8.824219802999998,0.05879,0.44784,-1.4221,-9.999999999998899e-05,9.999999999998899e-05,3.333333333332966e-05,-0.0036781671166558616,-0.0049049004456611645,0.0014640153339874895
149570000000.0,2,-0.2711538725,0.36725904249999997,0.40081739879999995,0.33343,0.58251,-0.096527,0.57416955085,-4.2752090675,-8.807058165499999,0.065102,0.45109,-1.4233,-0.00019999999999997797,0.00019999999999997797,-2.4999999999941735e-05,-0.003783305642743817,-0.005663696260284512,0.0020454021123839927
149570000000.0,2,-0.31252812885,0.33131767025000003,0.4447119642,0.32401,0.59326,-0.11578,0.63006745585,-4.30315802,-8.7896023285,0.071561,0.45426,-1.4248,-9.999999999998899e-05,9.999999999998899e-05,-2.4999999999941735e-05,-0.0031182250948941226,-0.005689223523045239,0.0014131151530795139
149570000000.0,2,-0.35858015725,0.21828622235,0.36007076805,0.28643,0.56161,-0.12005,0.68553386825,-4.3283611104999995,-8.77302909,0.077983,0.45713,-1.4263,-0.00019999999999997797,9.999999999998899e-05,-2.500000000016378e-05,-0.0030614453209582004,-0.005027104242461222,0.0012103342258923955
149570000000.0,2,-0.36906346609999996,0.1201510758,0.142784824,0.23563,0.48849,-0.10507,0.7349299642999999,-4.3493473415,-8.7586133145,0.083713,0.45951,-1.4278,-0.000300000000000189,9.999999999998899e-05,-2.4999999999941735e-05,-0.0010514090716212676,-0.003666263437118955,0.0013845740381281113
149570000000.0,2,-0.3587468703,0.0020692031499999998,-0.11776805985,0.18476,0.41641,-0.07621,0.77653958025,-4.365920579999999,-8.746747268,0.088548,0.4614,-1.4289,-0.0007999999999999119,0.0004999999999999449,0.0007999999999999119,0.009503581482506573,-0.0027088177213343556,0.0057529104473508785
149570000000.0,2,-0.31148862395,-0.10669635200000001,-0.19365191755,0.15106,0.36975,-0.026016,0.8046944724,-4.380042155999999,-8.737136751,0.091841,0.46301,-1.4292,0.00039999999999995595,-0.0004999999999999449,-0.0009999999999998899,-0.014099530873148136,-0.003983202540087216,-0.0037468767050217455
149570000000.0,2,-0.2746450399,-0.0699410278,-0.0693722421,0.14457,0.37616,0.001714,0.83728197035,-4.3928888675,-8.7276243005,0.095642,0.46447,-1.4294,-0.00019999999999997797,4.999999999988347e-05,-0.00019999999999997797,-0.0023738630579483444,-0.0038861302985797597,0.0012680052462610558
149570000000.0,2,-0.2522074247,0.0710589859,0.1771473256,0.12895,0.42212,-0.000529,0.8732037292999999,-4.4044607145,-8.718307982999999,0.099824,0.46579,-1.4295,-0.00019999999999997797,5.0000000000105516e-05,-0.00020000000000020002,-0.00011742228695077461,-0.003385970176125408,0.002101866465926694
149570000000.0,2,-0.1532583262,0.09003485365,0.2619356215,0.12042,0.42857,0.007984,0.91057687245,-4.4150518965,-8.709089731999999,0.10418,0.467,-1.4296,-0.00029999999999996696,0.00019999999999997797,-0.00029999999999996696,-7.364572703044692e-05,-0.002604768936409707,0.002212686325812341
149570000000.0,2,-0.25553187904999997,0.19773148394999998,0.25714997629999997,0.11779,0.37742,0.02515,0.9389278976,-4.424662413499999,-8.701244412,0.10749,0.4681,-1.4292,-0.0006999999999999229,0.0005999999999999339,0.000400000000000178,0.010802667965683743,-0.003409074870847073,0.007400872129333408
149570000000.0,2,-0.3369957206,0.19778051719999998,0.09107435855,0.11311,0.32631,0.027367,0.9669749165999999,-4.434763263,-8.693006826,0.11078,0.46925,-1.4291,-0.00020000000000020002,9.999999999998899e-05,-0.00020000000000020002,-0.0015595678982409655,-0.0028825406684285237,0.001641893501306696
149570000000.0,2,-0.17166540824999998,0.14952199254999998,-0.09385944715,0.11615,0.30391,0.022075,0.9927271795,-4.4448641124999995,-8.684965372999999,0.11381,0.47041,-1.4289,-0.00019999999999997797,0.00019999999999997797,-0.00019999999999997797,-0.0007003593859615798,-0.0033083430865761265,0.001522991098057841
149570000000.0,2,0.0205743517,0.12135729375,-0.0318519992,0.12995,0.29102,0.015717,1.0176360705,-4.4560436935,-8.676335520999999,0.11675,0.47169,-1.4289,0.00019999999999997797,-0.00039999999999995595,-0.0009999999999998899,-0.011415819927480031,-0.0031504194825100473,-0.0036998062597064785
149570000000.0,2,-0.05569196535,0.19874156889999997,0.11066804524999999,0.13935,0.27069,0.023241,1.040485565,-4.465163877999999,-8.668882467,0.11945,0.47274,-1.4288,-0.00029999999999996696,0.00029999999999996696,-0.00029999999999996696,-0.0007372959276052415,-0.0015388957947151116,0.001510860863770197
149570000000.0,2,-0.11327661415,0.15558250225,0.06238010065,0.13911,0.2483,0.036089,1.0609814634999999,-4.477716389999999,-8.6599584155,0.1219,0.47417,-1.4287,-0.0006999999999999229,0.000600000000000156,0.00039999999999995595,0.009678523477573087,-0.0008644844243519412,0.005686796719493431
149570000000.0,2,-0.049768748749999994,0.01772061655,-0.02964550295,0.11976,0.23779,0.048883,1.0794179655,-4.4891901705,-8.651720829499999,0.12412,0.47548,-1.4283,0.00039999999999995595,-0.000400000000000178,-0.001000000000000112,-0.012151825816230699,-0.004291075463497052,-0.0023700515021473634
149570000000.0,2,-0.043698432399999994,-0.0177500365,-0.00891424485,0.08986,0.23164,0.043505,1.097560268,-4.4982122884999995,-8.644758108,0.12629,0.47651,-1.4279,-0.00029999999999996696,0.00010000000000021103,-0.00029999999999996696,-0.0031472966918521528,-0.0012373217183008212,0.001260736497304904
149570000000.0,2,-0.10132230779999998,0.01179739995,0.06055606374999999,0.054664,0.22449,0.029581,1.113447041,-4.504782744,-8.639266383999999,0.12818,0.47728,-1.4275,-0.00029999999999996696,0.00019999999999997797,-0.00029999999999996696,1.530275406030901e-05,-0.0007997510196966484,0.0013442566122789379
149570000000.0,2,-0.16315323604999998,0.0336760361,0.044218184849999995,0.011934,0.20994,0.016724,1.1310009445,-4.50713634,-8.6358340565,0.13023,0.47754,-1.4273,-0.00019999999999997797,5.0000000000105516e-05,-0.00029999999999996696,-0.0004408596501637163,-0.002955364992259346,0.0005249109784958572
149570000000.0,2,-0.17173405479999998,-0.00089240515,-0.07875720615,-0.02131,0.17613,-0.003555,1.1468877174999998,-4.5058614755,-8.634363059,0.13206,0.4774,-1.4273,-0.00029999999999996696,4.999999999988347e-05,-0.00039999999999995595,-0.00018330414678746632,-0.001704227556677429,0.00046875364740817105
149570000000.0,2,-0.0251638639,0.03896182045,-0.19916325485,-0.036444,0.12621,-0.044054,1.160322828,-4.502625280999999,-8.634264992499999,0.13359,0.47703,-1.4276,-0.00019999999999997797,0.00019999999999997797,-0.00039999999999995595,0.0003717397068181416,-0.0030434363831597366,0.00022711619838466923
149570000000.0,2,0.1257800929,0.11972938984999999,-0.22925005704999998,-0.050581,0.06245,-0.094136,1.174444404,-4.4915437664999995,-8.638089586,0.13513,0.47575,-1.4286,-0.000400000000000178,9.999999999998899e-05,-0.000400000000000178,0.0029150106893313654,-0.000744038559846727,-0.0013789841645366063
149570000000.0,2,0.16653653029999999,0.16441829389999998,-0.2626024737,-0.073231,-0.003371,-0.15063,1.181505192,-4.484188779,-8.641031581,0.13589,0.47491,-1.43,-0.00029999999999996696,0.00019999999999997797,-0.00029999999999996696,-9.753528424572e-05,-0.0009852385892568094,-0.0012277256384460866
149570000000.0,2,0.1408431073,0.17088087624999998,-0.30907618805000003,-0.093905,-0.075625,-0.18576,1.1845452534999998,-4.4742840625,-8.645738773,0.13616,0.47378,-1.4319,-0.00039999999999995595,0.00019999999999997797,-0.00029999999999996696,0.0034150980249054164,-0.0007160485337536215,-0.0021567227119062837
149570000000.0,2,0.12157304005,0.10180283365,-0.35652076074999994,-0.095434,-0.13741,-0.19206,1.1823877905,-4.4635948139999995,-8.6515246965,0.13583,0.47255,-1.4339,-0.00029999999999996696,9.999999999998899e-05,-0.00029999999999996696,0.0011461021100055424,0.0007564342268284729,-0.0023926317290134114
149570000000.0,2,0.11829761895,-0.04351210605,-0.32205038599999997,-0.08304,-0.17483,-0.17063,1.177974798,-4.4507481024999995,-8.658781617499999,0.13522,0.47108,-1.4358,-0.00029999999999996696,0.00029999999999996696,-0.00039999999999995595,0.0005493235709387312,0.0009111988040138019,-0.001386470729521
149570000000.0,2,0.15007116495,-0.19485813549999997,-0.17445049684999997,-0.074753,-0.18984,-0.14497,1.1686584805,-4.442216317,-8.664371408,0.13408,0.47011,-1.4374,-0.00019999999999997797,0.00019999999999997797,-0.00029999999999996696,-0.00041440745442300475,-0.0003269258513451945,-0.0021116110660402143
149570000000.0,2,0.24068461094999996,-0.2287499179,-0.09215309005,-0.063207,-0.19636,-0.11719,1.157380833,-4.4350574625,-8.669568932499999,0.13271,0.46928,-1.4387,-0.00020000000000020002,9.999999999998899e-05,-0.00020000000000020002,0.00116627875603309,-0.000140156764989241,-0.0022475965656162944
149570000000.0,2,0.22996594249999996,-0.21837448219999997,-0.0712747322,-0.049382,-0.1901,-0.097959,1.1452205869999998,-4.4291734725,-8.674178057999999,0.13127,0.46862,-1.4397,-0.00029999999999996696,0.000300000000000189,-9.999999999998899e-05,0.0005616415607913594,0.0012197737724597424,-0.0017351351685491179
149570000000.0,2,0.0844940964,-0.16597755125,-0.01658304515,-0.032226,-0.18065,-0.099014,1.1355120035,-4.4286831399999995,-8.675747121999999,0.13014,0.46855,-1.4409,-0.00029999999999996696,0.00019999999999997797,-0.00019999999999997797,0.0015649215189466048,0.0009471796105422481,-0.0018845237854999697
149570000000.0,2,-0.01903470765,-0.02089797115,-0.04555188925,-0.016903,-0.15091,-0.12893,1.126980218,-4.4254469455,-8.678492984,0.12913,0.46819,-1.4422,-0.00039999999999995595,0.00039999999999995595,-9.999999999998899e-05,0.0002996968118281762,0.0017337035482367646,-0.0012427168600381566
149570000000.0,2,-0.0763545769,0.15303277325,0.036010018799999995,0.00501,-0.097776,-0.15887,1.1239401565,-4.423583681999999,-8.679865914999999,0.12878,0.46797,-1.4439,-0.00029999999999996696,0.00019999999999997797,-9.999999999998899e-05,-0.0006329091416720778,-0.00021832027063384274,-0.0011948571342695613
149570000000.0,2,-0.07047058689999999,0.2285537849,0.15549424239999998,0.026756,-0.057445,-0.17598,1.1259014864999999,-4.4234856155,-8.6795717155,0.12899,0.46797,-1.4458,-0.0004999999999999449,0.00039999999999995595,-9.999999999998899e-05,0.001054053400008137,0.0007149906360113256,-0.0021860133833481454
149570000000.0,2,-0.1188369847,0.2114509873,0.16901761275,0.039641,-0.055407,-0.18984,1.126980218,-4.421622352,-8.680356247499999,0.12911,0.46775,-1.4478,-0.001000000000000112,0.0008000000000001339,0.0004999999999999449,0.01119564080803137,0.002847173432127814,0.0010256383477521558
149570000000.0,2,-0.06601836779999999,0.2227678614,-0.0042168595,0.052284,-0.076821,-0.19191,1.129529947,-4.4238778815,-8.678983316499998,0.12941,0.46801,-1.45,0.00029999999999996696,-0.00010000000000021103,-0.0009999999999998899,-0.011346746481695091,-0.0033151409397085274,-0.005242783548913832
149570000000.0,2,-0.02003498595,0.15970129524999999,-0.1329389474,0.061669,-0.088646,-0.16733,1.12972608,-4.4270160095,-8.677316185999999,0.12947,0.46837,-1.452,-0.00029999999999996696,0.00020000000000020002,-9.999999999998899e-05,-0.001303932153785381,-0.0010478968447213965,-0.0019480368681244753
149570000000.0,2,-0.048376204449999995,-0.012572125299999999,-0.1207198615,0.063575,-0.10254,-0.14382,1.1276666835,-4.4309386695,-8.675550989,0.12926,0.46881,-1.4538,-0.00029999999999996696,0.00029999999999996696,-0.00019999999999997797,-0.0011358290519608016,-0.0008467621288792415,-0.0014312995952415197
149570000000.0,2,-0.0472288264,-0.13670470099999998,-0.10299924495,0.053867,-0.10142,-0.12035,1.1223710925,-4.4368226595,-8.6732954595,0.12869,0.46949,-1.4552,-0.00029999999999996696,0.00029999999999996696,-0.00019999999999997797,-0.0010649303536580113,-0.0006361865032238345,-0.0011775521618302975
149570000000.0,2,-0.015445473749999999,-0.21755072359999997,-0.08487655574999999,0.043235,-0.087494,-0.10545,1.119331031,-4.4395685215,-8.672216727999999,0.12836,0.46981,-1.4565,-0.00029999999999996696,0.00029999999999996696,-9.999999999998899e-05,0.0007105935641215644,0.00034736374986743535,-0.0019610404738192033
149570000000.0,2,0.04096237705,-0.23852714795,0.0469150136,0.025174,-0.074564,-0.10017,1.1172716345,-4.4411375855,-8.6717263955,0.12813,0.46998,-1.4576,-0.00029999999999996696,0.00029999999999996696,-9.999999999998899e-05,-0.0010049853892563076,-0.0003174753518360163,-0.0015705243370796318
149570000000.0,2,0.1267999845,-0.20790097999999999,0.14473634735,0.011446,-0.052081,-0.092758,1.116585169,-4.4413337185,-8.6717263955,0.12805,0.47001,-1.4587,-0.000300000000000189,0.00029999999999996696,-9.999999999998899e-05,0.00025454021838139385,0.00022651912793025808,-0.000985566095857815
149570000000.0,2,0.18264885625,-0.21710942434999997,0.21870790829999998,-0.007613,-0.043409,-0.074657,1.1221749595,-4.44829644,-8.6674114695,0.12876,0.4708,-1.4599,-0.00039999999999995595,0.000400000000000178,9.999999999998899e-05,0.005123689626688521,0.0014626649269182668,0.00018621914382654925
149570000000.0,2,0.21695251794999998,-0.28399077734999995,0.23821333514999998,-0.022639,-0.032666,-0.039478,1.1213904275,-4.4460409105,-8.668686333999998,0.12865,0.47054,-1.4605,-9.999999999998899e-05,9.999999999998899e-05,-0.000400000000000178,-0.0024076872947778605,0.0008622883388222924,-0.0014673199710088514
149570000000.0,2,0.18317841535,-0.3760065743,0.22925986369999998,-0.033418,-0.023025,-0.002154,1.119723297,-4.443196982,-8.6703534645,0.12843,0.47022,-1.4605,-9.999999999998899e-05,0.00019999999999997797,-9.999999999998899e-05,0.0001418832050141816,-0.0006624653344460274,5.71140431054884e-05
149570000000.0,2,0.13716561354999998,-0.4470459469,0.234575068,-0.039874,-0.016601,0.019171,1.117565834,-4.4401569205,-8.672216727999999,0.12816,0.46986,-1.4603,-0.00019999999999997797,9.999999999998899e-05,-9.999999999998899e-05,0.0009243118648646909,0.0004138346593935971,0.00016221827142631762
149570000000.0,2,0.11543407715,-0.389127872,0.20369392715,-0.043042,-0.018695,0.011697,1.118742632,-4.4489829055,-8.667509535999999,0.12837,0.47088,-1.4603,-9.999999999998899e-05,9.999999999998899e-05,-0.00019999999999997797,1.6094463867799558e-05,-0.00023127161748592862,0.00023342025642111852
149570000000.0,2,0.08731841159999999,-0.24932426959999998,0.16275116339999998,-0.043997,-0.013345,-0.00219,1.1174677675,-4.4450602455,-8.669666998999999,0.12818,0.47044,-1.4602,-9.999999999998899e-05,0.00019999999999997797,-9.999999999998899e-05,0.0009589626061433654,0.0005535859465095605,0.00012467593110515596
149570000000.0,2,0.0531324297,-0.17058667675,0.15709272635,-0.039493,0.00688,-0.017162,1.1180561665,-4.441431785,-8.671432196,0.12823,0.47001,-1.4603,-0.00019999999999997797,9.999999999998899e-05,-9.999999999998899e-05,0.0007932411329609201,-9.821106423779646e-05,0.0001144210037323512
149570000000.0,2,0.0062174160999999995,-0.11172716345,0.19006268364999998,-0.009082,0.062061,-0.036419,1.1233517574999998,-4.4393723885,-8.671824461999998,0.12883,0.46978,-1.4606,-9.999999999998899e-05,9.999999999998899e-05,-0.00019999999999997797,0.00041694547863818654,-0.0008512666991640216,0.0004944675421566236
149570000000.0,2,0.027811659399999997,-0.026595634799999997,0.32661047825,0.005413,0.13016,-0.051459,1.1378655994999998,-4.4442757135,-8.6674114695,0.13054,0.47034,-1.4613,-9.999999999998899e-05,3.333333333332966e-05,-0.00029999999999996696,0.0004681276921912336,-0.001406691978951935,0.00011240780515761606
149570000000.0,2,0.06508673605,-0.04878808375,0.602324443,-0.036303,0.12835,-0.033382,1.15130071,-4.441824051,-8.666921137,0.13207,0.47006,-1.4617,-4.999999999988347e-05,3.333333333332966e-05,-0.00019999999999997797,0.0003062272427362678,-0.0010735277050237801,0.00041322165613624784
149570000000.0,2,0.14383413555,-0.2925715961,0.243597186,-0.091344,0.069099,-0.002418,1.1590479635,-4.434959395999999,-8.6693727995,0.13291,0.46927,-1.4617,-5.0000000000105516e-05,3.333333333332966e-05,-0.00019999999999997797,0.0010427852931678139,-0.0002308148990632919,0.00020317674832978638
149570000000.0,2,0.1431967033,-0.3912657217,-0.09321220824999998,-0.11525,0.024524,0.01363,1.1616957589999999,-4.4254469455,-8.6738838585,0.13313,0.46819,-1.4615,3.333333333332966e-05,3.333333333332966e-05,-0.00019999999999997797,0.001043385263802321,-0.00016121325779794304,0.00030882147243946334
149570000000.0,2,0.18255078975,-0.29683748885,-0.11041307234999999,-0.10264,0.002043,0.016892,1.1663048845,-4.421818485,-8.675158723,0.13364,0.46778,-1.4614,3.333333333332966e-05,3.333333333332966e-05,-0.00010000000000021103,0.001600953609944722,0.00030872378090895936,-0.0001513311511461557
149570000000.0,2,0.21505002785,-0.15683775345,-0.09085861225,-0.07823,-0.014142,0.016963,1.164637754,-4.414757697,-8.678983316499998,0.13339,0.46697,-1.4611,3.333333333332966e-05,3.333333333332966e-05,-0.00019999999999997797,0.0006182887831681638,-7.225589225301476e-05,-5.080956618030985e-05
149570000000.0,2,0.15897560314999998,-0.049778555399999994,-0.10747107735,-0.053855,-0.036717,0.013843,1.161303493,-4.4097563055,-8.6819253115,0.13297,0.46639,-1.4608,4.999999999988347e-05,3.333333333332966e-05,-9.999999999998899e-05,0.0002959991611445889,-0.0003251807776847304,-0.00030811767402805224
149570000000.0,2,0.1301146322,0.038147868499999994,-0.29410143349999995,-0.015566,-0.055142,0.008605,1.1563021015,-4.4075988425,-8.6836905085,0.13238,0.46615,-1.4607,5.0000000000105516e-05,3.333333333332966e-05,3.333333333332966e-05,-0.000610953769856093,0.00017609328930445756,-3.2629971148168124e-05
149570000000.0,2,0.17666679975,0.0211627507,-0.38719596194999994,0.033548,-0.053406,0.003348,1.1552233699999999,-4.403774249,-8.685749905,0.13223,0.46571,-1.4608,5.0000000000105516e-05,3.333333333332966e-05,3.333333333332966e-05,6.076634505558509e-05,0.0005411759854980769,-0.0002543662574732708
149570000000.0,2,0.2197081866,0.037932122199999994,-0.3154407039,0.077581,-0.023921,-0.007302,1.152673641,-4.4095601725,-8.683200176,0.13197,0.46638,-1.461,4.999999999988347e-05,9.999999999998899e-05,3.333333333332966e-05,-0.0003436007934049523,0.000612048429177392,-0.00010753628353032951
149570000000.0,2,0.2638577249,0.0399915187,-0.1465505776,0.095913,0.003628,-0.001982,1.1525755745,-4.4176016255,-8.679081383,0.13203,0.4673,-1.4612,9.999999999998899e-05,0.00019999999999997797,9.999999999998899e-05,-0.001278300961309431,0.00023678281249250865,-8.022347668446006e-05
149570000000.0,2,0.24902026344999997,-0.05043560095,-0.04470851735,0.092605,0.003633,0.019361,1.152673641,-4.425937278,-8.6748645235,0.1321,0.46825,-1.4612,9.999999999998899e-05,5.0000000000105516e-05,9.999999999998899e-05,-0.001434091956340755,-0.0001348440472219714,0.00020519167497445867
149570000000.0,2,0.15291509344999998,-0.19877098884999997,-0.09300626859999998,0.077265,-0.026109,0.053542,1.15326204,-4.4374110584999995,-8.668882467,0.13226,0.46956,-1.461,0.00019999999999997797,4.999999999988347e-05,0.00010000000000021103,-0.0011794193344588089,0.0004947648741253641,0.00044796351527134903
149570000000.0,2,0.1634768555,-0.3139697064,-0.14420678825,0.052167,-0.073891,0.088807,1.1443379885,-4.443589248,-8.666921137,0.13128,0.47026,-1.4602,0.00019999999999997797,9.999999999998899e-05,0.00019999999999997797,-0.001578489177918585,0.0015370987994822727,0.0005748993916449285
149570000000.0,2,0.21348096384999998,-0.3611004663,-0.1322524819,0.023822,-0.1323,0.11661,1.1292357474999999,-4.447511907999999,-8.666921137,0.12956,0.47071,-1.459,0.00019999999999997797,-5.0000000000105516e-05,0.00019999999999997797,-0.0012366642690166407,0.0015572394588456717,2.9649300861078753e-05
149570000000.0,2,0.26292609315,-0.3924817463,-0.13370386609999999,0.001032,-0.16836,0.13585,1.1094263144999998,-4.4494732379999995,-8.6683921345,0.12729,0.47094,-1.4576,0.00039999999999995595,-4.999999999988347e-05,9.999999999998899e-05,-0.0015267399007466431,0.001278986861667164,0.00015695382749167375
149570000000.0,2,0.37072078995,-0.32023615575000003,-0.02295736765,-0.016176,-0.17888,0.14651,1.0874594185,-4.449865504,-8.6709418635,0.12477,0.47098,-1.4559,0.000400000000000178,-1.999999999990898e-05,0.00019999999999997797,-0.00022302228753789954,0.002422122346976696,0.0004934452633045816
149570000000.0,2,0.32806186244999996,-0.21663870514999997,0.1012830812,-0.03543,-0.18192,0.15289,1.0749069064999999,-4.4554552945,-8.669666998999999,0.12336,0.47162,-1.4547,0.00039999999999995595,-2.0000000000131024e-05,9.999999999998899e-05,-0.00028695580697934986,0.0018169827220084755,0.0009218658729372164
149570000000.0,2,0.22551372339999998,-0.13753826624999999,0.19850620929999999,-0.06003,-0.18811,0.15499,1.052057412,-4.452611365999999,-8.673981925,0.1207,0.47129,-1.4529,0.00029999999999996696,-1.999999999990898e-05,9.999999999998899e-05,0.0010678546784600451,0.00364314486160211,0.000616833700538777
149570000000.0,2,0.16307478285000002,-0.09098609869999999,0.1971921182,-0.089112,-0.22516,0.15074,1.0266581885,-4.447119642,-8.679865914999999,0.11774,0.47066,-1.4512,0.00039999999999995595,-2.0000000000131024e-05,5.0000000000105516e-05,0.0013444834768425173,0.003719855433782282,-0.000287670469609147
149570000000.0,2,0.13210538215,-0.12722167045,0.06077181005,-0.10863,-0.26656,0.14757,0.9976305044999999,-4.4395685215,-8.687122835999999,0.11434,0.4698,-1.4494,0.00029999999999996696,-1.999999999990898e-05,4.999999999988347e-05,0.0018326750283421123,0.002883722213092854,1.1484464559757823e-05
149570000000.0,2,0.07977709775,-0.09170198415,0.037794829099999996,-0.11955,-0.29418,0.15401,0.9675437023,-4.4334883985,-8.693595225,0.11084,0.46911,-1.4476,0.00039999999999995595,-9.999999999998899e-05,9.999999999998899e-05,-0.00032765140038731877,0.0025827641938402923,-0.0001003168867574622
149570000000.0,2,-0.040285718199999994,-0.14155899275,0.10984428664999998,-0.13048,-0.31755,0.16791,0.93287719455,-4.4240740144999995,-8.702225077,0.10679,0.46803,-1.4456,0.000400000000000178,-9.999999999998899e-05,9.999999999998899e-05,0.0013881415278015896,0.0036752183872654776,-2.755159162343146e-05
149570000000.0,2,-0.10983448,-0.21960031344999997,0.05276958365,-0.16579,-0.3226,0.18066,0.8969358223,-4.412109901499999,-8.712031727,0.10259,0.46667,-1.4435,0.00039999999999995595,-0.00019999999999997797,1.999999999990898e-05,0.001221858393828601,0.0032336872665335026,0.0009117830638792623
149570000000.0,2,-0.06504750945,-0.21047032229999998,0.0174950636,-0.19451,-0.30958,0.18486,0.86172014215,-4.397497993,-8.723015174999999,0.098468,0.46499,-1.4412,0.0004999999999999449,-9.999999999998899e-05,2.0000000000131024e-05,0.002377488682616613,0.003912673403571487,7.985329429602284e-05
149570000000.0,2,-0.00675678185,-0.1865028697,0.05276958365,-0.21802,-0.31152,0.18909,0.8261710359,-4.380630555,-8.7348812215,0.094303,0.46307,-1.4389,0.00029999999999996696,-9.999999999998899e-05,1.999999999990898e-05,0.0010976122782793696,0.004059975613395661,-0.0002593606828168171
149570000000.0,2,0.089632781,-0.17978531444999998,0.06628314735,-0.23172,-0.29754,0.17837,0.7935345047,-4.3670973779999995,-8.7446878715,0.090497,0.46153,-1.4367,0.00039999999999995595,-9.999999999998899e-05,2.0000000000131024e-05,0.0028725393629259743,0.003976908176932525,-1.2463326840655986e-05
149570000000.0,2,0.0764722567,-0.0887501825,0.08629852,-0.21091,-0.25185,0.14203,0.763741902,-4.349053142,-8.756259718499999,0.087002,0.45948,-1.4348,0.000300000000000189,-0.00019999999999997797,1.999999999990898e-05,0.0011760457227891763,0.002888345709525897,-0.0002330129112612933
149570000000.0,2,-0.033450483149999995,0.16079964004999997,0.22404272590000002,-0.14421,-0.21718,0.088716,0.73974502945,-4.335519965,-8.765085703499999,0.084197,0.45794,-1.4335,0.00019999999999997797,3.333333333332966e-05,9.999999999998899e-05,0.0008483400682171016,0.002333160143220825,-0.0003179300248701278
149570000000.0,2,-0.20887183834999998,0.37848765674999996,0.18933699155,-0.057414,-0.20399,0.034405,0.71958255705,-4.328949509499999,-8.7699890285,0.081867,0.45719,-1.4329,0.00019999999999997797,3.333333333332966e-05,9.999999999998899e-05,0.0011758121137115385,0.002305772468879752,-0.0007673474613910658
149570000000.0,2,-0.24727467975,0.562313311,0.009129991149999999,0.037793,-0.2026,-0.016665,0.6931928619,-4.3144356675,-8.7792072795,0.078795,0.45555,-1.4325,9.999999999998899e-05,3.333333333332966e-05,0.00019999999999997797,-0.0007373915260155961,0.0011390566593676432,-0.001296992555412102
149570000000.0,2,-0.21212764615,0.6980863802499999,-0.15760267214999998,0.13422,-0.17352,-0.050706,0.6789928326999999,-4.3238500515,-8.775774951999999,0.077218,0.45661,-1.4331,9.999999999998899e-05,0.00019999999999997797,0.00019999999999997797,-0.001625560073200083,0.0007954254768278712,-0.0008384376608617516
149570000000.0,2,-0.1347237577,0.69773334085,-0.21024476934999997,0.24567,-0.11157,-0.048488,0.66982361495,-4.3424826864999995,-8.767243166499998,0.076253,0.45873,-1.4338,0.00019999999999997797,0.00029999999999996696,0.000300000000000189,-0.0045045680907866426,-0.000625448565658715,-0.0007308830998601912
149570000000.0,2,-0.1887583992,0.65515286655,-0.0408348906,0.33255,-0.043037,-0.03138,0.6660970879499999,-4.369745173499999,-8.754004189,0.075945,0.46184,-1.4345,-0.0005999999999999339,0.0006999999999999229,0.0009999999999998899,0.008529301004880363,0.003274622870282462,0.003025675391368249
149570000000.0,2,-0.14785486204999998,0.42083277145,0.039206986699999995,0.37898,0.051375,0.006962,0.66395923825,-4.392202402,-8.742922674499999,0.075797,0.4644,-1.4346,0.0007999999999999119,-9.999999999998899e-05,-0.0004999999999999449,-0.013913360263317354,-0.004240498268793802,-0.0030382489840961313
149570000000.0,2,-0.0466012008,0.25405107489999995,-0.0605854837,0.40827,0.1406,0.052754,0.6728342565,-4.4276044085,-8.7242900395,0.076969,0.46843,-1.4345,-0.0005999999999999339,0.0008000000000001339,0.0011999999999998678,0.007832729547025241,0.00282310784873796,0.004306173657489587
149570000000.0,2,0.01972117315,0.17339137864999998,-0.1271137973,0.44455,0.16477,0.0912,0.68327833875,-4.4660464765,-8.7038922075,0.078342,0.47283,-1.434,0.0007999999999999119,0.00019999999999997797,-0.00039999999999995595,-0.016959379705803412,-0.003964597296116867,-0.0018557470226216455
149570000000.0,2,0.0203782187,0.16227063754999999,-0.2009578718,0.48716,0.16228,0.10089,0.69294769565,-4.5082150715,-8.681434979,0.079651,0.47767,-1.4332,0.00019999999999997797,0.00019999999999997797,0.00039999999999995595,-0.004109480332581017,-0.0009057516283819123,0.0017570220880442633
149570000000.0,2,0.03160683295,0.029086523899999998,-0.1164833887,0.52361,0.17052,0.078518,0.7046176091499999,-4.5526391959999994,-8.657212553499999,0.081211,0.48278,-1.4328,0.00019999999999997797,0.00039999999999995595,0.000500000000000167,-0.006630764925406929,-0.002050963122816496,0.0015155821194425545
149570000000.0,2,-0.0223395487,-0.07153951174999999,0.0397561591,0.53886,0.18961,0.046489,0.71815078615,-4.599416916499999,-8.6313229975,0.083012,0.48817,-1.4327,-0.0004999999999999449,0.0009000000000001229,0.0010999999999998789,0.006632686132008736,0.0023858058564514284,0.005094114443542935
149570000000.0,2,-0.08107157555,-0.22793596594999999,0.08909341524999999,0.5209,0.18873,0.010167,0.7337923929,-4.645017839,-8.605531507999999,0.085064,0.49344,-1.433,0.0005999999999999339,-9.999999999998899e-05,-0.00039999999999995595,-0.01657723396692834,-0.0051689187514118995,-0.002671667843309855
149570000000.0,2,-0.10556858725,-0.25461986059999997,0.043061000149999994,0.46314,0.15407,-0.016557,0.7485612077999999,-4.686107702499999,-8.581995548,0.087005,0.49821,-1.4336,9.999999999998899e-05,0.00039999999999995595,0.00039999999999995595,-0.004264920794746885,-0.0017757029781539924,0.00037554264846142993
149570000000.0,2,-0.11826819899999999,-0.08024781695,-0.010169496049999999,0.39419,0.061942,-0.029321,0.7537783456,-4.724451704,-8.560420918,0.087827,0.50266,-1.4341,-0.0004999999999999449,0.0006999999999999229,0.001000000000000112,0.008408540048931934,0.0015845362374951044,0.0033320662650212773
149570000000.0,2,-0.14283385725,-0.0644689171,-0.0913195248,0.30655,-0.083336,-0.017475,0.7511109367999999,-4.7524987229999995,-8.545122544,0.087674,0.50593,-1.4347,9.999999999998899e-05,0.00029999999999996696,0.00039999999999995595,-0.0018473100943352527,0.0011720930340903823,-0.0010237228964166123
149570000000.0,2,-0.10243045925,-0.22350336014999997,-0.22773983295,0.18999,-0.21457,0.038059,0.73435137195,-4.7714255575,-8.536100425999999,0.085818,0.50813,-1.4347,9.999999999998899e-05,0.00019999999999997797,0.00029999999999996696,-0.0014058202424563904,0.0028161787629581436,-0.0007446677748743358
149570000000.0,2,-0.02103526425,-0.35914894295,-0.27200705105,0.075624,-0.31495,0.13197,0.7045881891999999,-4.7812322074999996,-8.533158431,0.082384,0.50928,-1.4336,0.00019999999999997797,0.00019999999999997797,0.00029999999999996696,-0.0008601700524250022,0.003660115495688787,-0.00037496446406806716
149570000000.0,2,-0.0453263363,-0.38949071805,-0.24837302454999996,-0.043038,-0.40361,0.2504,0.66123298955,-4.781526406999999,-8.5363946255,0.077306,0.50932,-1.431,0.000300000000000189,0.00010000000000021103,0.00019999999999997797,-0.0006645736102356414,0.004625444674803081,0.0010253294215732123
149570000000.0,2,-0.1650066929,-0.2783715669,-0.38093931924999996,-0.11735,-0.45209,0.3112,0.6022459898,-4.7759366165,-8.543847679499999,0.070372,0.50866,-1.4271,0.0008999999999999009,-0.000400000000000178,-0.0004999999999999449,-0.011115755709118658,0.001990445371742533,-0.0026176783940889403
149570000000.0,2,0.0371475902,-0.15566095545,-0.020338992099999998,-0.16546,-0.46767,0.30581,0.5477896623499999,-4.7645609024999995,-8.553948529,0.063952,0.50734,-1.4234,0.00029999999999996696,9.999999999998899e-05,9.999999999998899e-05,0.0005932947451302018,0.00676915685789603,3.436844053375521e-05
149570000000.0,2,0.19381863059999999,-0.13571422935,0.3259338194,-0.20378,-0.49074,0.25241,0.49361772774999996,-4.7491644619999995,-8.565716509,0.057563,0.50555,-1.4202,0.00029999999999996696,-3.333333333332966e-05,9.999999999998899e-05,0.0020018792097431515,0.0052092331811288695,-0.00029513357618093927
149570000000.0,2,0.1835216481,-0.15777919184999997,0.31618600929999996,-0.24945,-0.50628,0.18405,0.44076969089999996,-4.7298453615,-8.5793477525,0.051331,0.50329,-1.4178,0.00019999999999997797,-3.333333333332966e-05,-9.999999999998899e-05,0.002787130073454769,0.004852370473452883,-0.0008618576662595412
149570000000.0,2,0.02501676415,-0.0487978904,0.36601359795,-0.30137,-0.48663,0.1455,0.3909715222,-4.7086629975,-8.593371262,0.045466,0.50082,-1.4159,9.999999999998899e-05,-3.333333333332966e-05,-9.999999999998899e-05,0.0022180012584361863,0.005176394395819184,-0.0010931514039809187
149570000000.0,2,-0.26018023115,0.05751600225,0.26507374949999996,-0.34812,-0.48088,0.11445,0.34383095565,-4.680125646,-8.6109251655,0.039908,0.49751,-1.4143,-6.666666666665932e-05,5.0000000000105516e-05,-9.999999999998899e-05,0.0038122041013133323,0.0045158750467806374,-0.0012234424414664657
149570000000.0,2,-0.5964992928999999,0.16997866445,0.07310857574999999,-0.34933,-0.41153,0.03961,0.30350601085,-4.6500192305,-8.6287732685,0.035159,0.49402,-1.4135,-6.666666666665932e-05,4.999999999988347e-05,-4.999999999988347e-05,0.0017221898043197625,0.004023191677623661,-0.001708715222991014
149570000000.0,2,-0.55396785185,0.4369058708,0.06941146869999999,-0.27557,-0.30338,-0.028767,0.27519421229999996,-4.624031607999999,-8.6436793765,0.031827,0.49102,-1.4135,-6.666666666665932e-05,9.999999999998899e-05,-5.0000000000105516e-05,0.0027479540058610863,0.002172460218965444,-0.0015036249954661074
149570000000.0,2,-0.40158231749999995,0.6877403645,0.5951655885,-0.1867,-0.16553,-0.085425,0.25105024,-4.5980439854999995,-8.6581932185,0.028987,0.48801,-1.4137,-0.00019999999999997797,9.999999999998899e-05,-9.999999999998899e-05,0.002501079057727673,-0.0001489312077296301,-0.0009279453596494625
149570000000.0,2,-0.377163759,0.68588690765,0.66813687115,-0.084758,0.002062,-0.14852,0.2540118483,-4.588139269,-8.663390742999999,0.029311,0.48687,-1.4151,-0.00039999999999995595,0.00020000000000020002,0.00019999999999997797,0.001336292960681329,-0.0009678680282143581,-0.0013874024235131788
149570000000.0,2,-0.11821916575,0.31572509675,0.5198112898999999,-0.010606,0.17093,-0.19886,0.27414490075,-4.58558954,-8.664175275,0.031631,0.48658,-1.4173,-0.00029999999999996696,0.00029999999999996696,0.00019999999999997797,0.0008268193116197087,-0.003131382847219033,-0.000396363419004786
149570000000.0,2,-0.11550272369999999,0.2979848669,0.32371751649999997,0.024482,0.26871,-0.23206,0.30583999354999997,-4.586276005499999,-8.6627042775,0.035291,0.48666,-1.4198,-0.001000000000000112,0.0006999999999999229,0.00019999999999997797,0.009144356829640321,-0.0019599229356956904,0.0027239028966217493
149570000000.0,2,-0.2884135765,0.6490531302499999,0.18321764195,0.081712,0.33541,-0.26196,0.3452725332,-4.591081264,-8.658683551,0.039855,0.48721,-1.4227,9.999999999998899e-05,0.00014999999999987246,-0.0006999999999999229,-0.0098226419505969,-0.0058155996815636435,-0.00409940037526782
149570000000.0,2,-0.37676168635,0.6152986409499999,0.41324242435,0.1459,0.34661,-0.28108,0.37855630329999995,-4.5923561285,-8.6566241545,0.043702,0.48735,-1.4254,-0.0005999999999999339,0.0001500000000000945,-9.999999999998899e-05,-0.0009815260782947144,-0.0027938959186881718,-0.0010914813306280857
149570000000.0,2,-0.5261659991,0.24136126979999997,0.56477478015,0.17653,0.29097,-0.30655,0.4190185412,-4.6060854385,-8.6474059035,0.048418,0.48895,-1.4289,-0.00039999999999995595,0.00029999999999996696,-0.00019999999999997797,-0.001386042234406304,-0.0037019023605004975,-0.001151778961615224
149570000000.0,2,-0.45735273604999993,0.0202213123,0.36607243785,0.15871,0.17927,-0.33627,0.45255728419999997,-4.6192263495,-8.638776051499999,0.052339,0.49045,-1.4327,-0.0004999999999999449,0.00019999999999997797,-9.999999999998899e-05,-0.003307132856141093,-0.003516677887952513,-0.002328282328986575
149570000000.0,2,-0.11493393799999999,-0.10652963894999999,0.16340820895,0.10933,0.00811,-0.33605,0.47286685635,-4.628150401,-8.6328920615,0.054721,0.49149,-1.4366,-0.000500000000000167,0.00020000000000020002,-0.00019999999999997797,0.0005077547333491306,-0.00038451829220975675,-0.003937226531298299
149570000000.0,2,0.2541687547,-0.5197916766,-0.16007394795,0.035164,-0.1714,-0.29744,0.48385030435,-4.6425661765,-8.624556409,0.056043,0.49316,-1.4406,-0.0004999999999999449,0.00019999999999997797,-0.00019999999999997797,0.0012652288928521327,0.0003258954607077147,-0.0037821298772618417
149570000000.0,2,0.3682004809,-0.7099033934999999,-0.17786321105,-0.081378,-0.33029,-0.28883,0.4720136778,-4.6367802529999995,-8.628282936,0.054651,0.49249,-1.4438,-0.00029999999999996696,9.999999999998899e-05,-0.000300000000000189,0.0009290373897470339,0.0012941102116994507,-0.0037593706568848084
149570000000.0,2,0.3065362657,-0.37052465695,-0.15921096275,-0.21144,-0.41772,-0.23659,0.44912495669999997,-4.6202070145,-8.6383837855,0.051945,0.49057,-1.4466,-0.00029999999999996696,-5.0000000000105516e-05,-0.00029999999999996696,0.0021559694211524816,0.002434098030150489,-0.0036853445674875918
149570000000.0,2,0.32398229604999995,-0.52596005945,-0.14469712075,-0.33163,-0.44134,-0.13536,0.41867530845,-4.5933367935,-8.654270558499999,0.04834,0.48746,-1.4483,-0.00019999999999997797,-4.999999999988347e-05,-0.00039999999999995595,0.00333912296273281,0.004504250240946472,-0.0030864369968699457
149570000000.0,2,0.140823494,-0.8238370531999999,0.04000132535,-0.43766,-0.4363,-0.043753,0.38530327849999996,-4.5692124345,-8.668588267499999,0.044419,0.48469,-1.4489,-0.00019999999999997797,-9.999999999998899e-05,-0.00029999999999996696,0.004579296377979825,0.003609561973918929,-0.002024829883860463
149570000000.0,2,0.033960428949999996,-0.8146188021999999,0.21748207704999997,-0.51678,-0.42185,0.013725,0.34836162795,-4.525965107999999,-8.692810693,0.040054,0.4797,-1.4486,-9.999999999998899e-05,-0.000300000000000189,-0.00029999999999996696,0.00456866934646577,0.004274345503753274,-0.0016716032807736203
149570000000.0,2,0.2672704391,-0.7352633904,0.29360129435,-0.52451,-0.4261,0.059617,0.30853682229999996,-4.479775786499999,-8.7182099165,0.035375,0.4744,-1.4478,3.333333333332966e-05,-0.00019999999999997797,-0.00029999999999996696,0.004362326886939105,0.004483243219191024,-0.001923160846702715
149570000000.0,2,0.5256266333499999,-0.6690586962499999,0.23760532285,-0.41383,-0.42175,0.12278,0.2668585598,-4.441235652,-8.739294214,0.030526,0.46999,-1.4465,3.333333333332966e-05,-0.00029999999999996696,-0.000300000000000189,0.004597410411417702,0.003954050523267805,-0.0010083518794192226
149570000000.0,2,0.25855232725,-0.62110417775,0.6191036211500001,-0.2661,-0.4667,0.16794,0.22387601284999997,-4.427506342,-8.7474337335,0.025588,0.46842,-1.4448,3.333333333332966e-05,-0.00029999999999996696,-0.00029999999999996696,0.0008002368279412253,0.003409848337102561,-0.00047216415043774274
149570000000.0,2,-0.057731748549999996,-0.51766363355,0.6628314734999999,-0.15452,-0.51345,0.18316,0.17175366809999998,-4.412306034499999,-8.756259718499999,0.019612,0.46669,-1.4427,-9.999999999998899e-05,-0.00029999999999996696,-0.00029999999999996696,-0.0001715453331895822,0.00695343792943115,-0.00017524543151206662
149570000000.0,2,-0.1668699564,-0.2799406309,0.51848739215,-0.11299,-0.53828,0.1598,0.11764057339999999,-4.4021071185,-8.7623398415,0.013424,0.46552,-1.4408,-9.999999999998899e-05,-0.00019999999999997797,-0.00019999999999997797,-0.0008026502601155006,0.006010307480316612,-0.001124804044781269
149570000000.0,2,-0.16247657719999997,0.08830888325,0.3154014773,-0.10323,-0.54365,0.12033,0.06445911045,-4.393085000499999,-8.767341233,0.007352,0.46449,-1.4394,-9.999999999998899e-05,-0.00029999999999996696,-0.00039999999999995595,0.0006873886562956955,0.006748459287563735,-0.0014819548282266615
149570000000.0,2,-0.23381014929999996,0.27826369375,0.19290661215,-0.099086,-0.65032,0.18671,-0.0039618866,-4.3799440895,-8.774205888,-0.000451,0.463,-1.4373,-0.00019999999999997797,-9.999999999998899e-05,-0.00029999999999996696,0.0007598878523419894,0.0060240526035040265,-0.00038966816655747194
149570000000.0,2,-0.9031630450499999,0.9098511803499999,0.30159371409999997,-0.010371,-0.60633,0.22521,-0.06828370395,-4.3778846929999995,-8.77499042,-0.007781,0.46276,-1.4347,-0.00010000000000021103,-9.999999999998899e-05,-0.00019999999999997797,-0.0015722709675566882,0.005230199763011534,-0.0005030612414481384
149570000000.0,2,-0.27292887615,0.2321626321,-0.40712307475000004,0.13559,-0.51586,0.19755,-0.12510343405,-4.385631946499999,-8.770479361,-0.014264,0.46365,-1.4324,-9.999999999998899e-05,-9.999999999998899e-05,-0.00020000000000020002,-0.002816007468119497,0.0047550860584995025,-0.0006287692068863981
149570000000.0,2,0.54004240885,0.2184529354,-0.0188483813,0.20562,-0.45566,0.15914,-0.17252839345,-4.4034800495,-8.760672711,-0.019691,0.46568,-1.4304,-9.999999999998899e-05,9.999999999998899e-05,1.6666666666775853e-05,-0.0030163900944946143,0.006157166424493932,-6.1205011226112e-05
149570000000.0,2,0.9334067536499999,-0.050818060299999995,-0.27604739084999996,0.19611,-0.57066,0.16892,-0.20482169189999996,-4.419268755999999,-8.752042859,-0.023399,0.46749,-1.4297,5.0000000000105516e-05,2.4999999999941735e-05,1.666666666655381e-05,-0.002065344474163011,0.005968290594168035,-0.0008850953947823481
149570000000.0,2,0.7710478562499999,0.005315204299999999,-0.6452383433999999,0.18438,-0.66972,0.22458,-0.27095773949999996,-4.434763263,-8.742432342,-0.030984,0.46925,-1.4273,4.999999999988347e-05,2.500000000016378e-05,1.6666666666775853e-05,-0.00164114168636037,0.00735237582631032,-0.0006837347259048554
149570000000.0,2,0.49692256879999996,-0.17687273939999998,-0.7395979296999999,0.24456,-0.68524,0.32718,-0.34429186819999996,-4.4536900975,-8.730174029499999,-0.039417,0.47141,-1.4239,0.00020000000000020002,2.4999999999941735e-05,1.6666666666775853e-05,-0.0028150493999390402,0.005032450395610066,-7.406139127638656e-05
149570000000.0,2,0.15036536444999998,-0.2191982408,-0.20334088774999998,0.32908,-0.60823,0.40405,-0.41702779125,-4.479089320999999,-8.713993057,-0.04782,0.47433,-1.4194,5.0000000000105516e-05,2.4999999999941735e-05,1.666666666655381e-05,-0.005615553473635626,0.00801319638543263,0.0007615053974996677
149570000000.0,2,-0.20710664134999998,-0.1327232011,0.2617983284,0.34162,-0.51349,0.39536,-0.48332074525,-4.5086073375,-8.695360422,-0.055526,0.47771,-1.4146,4.999999999988347e-05,9.999999999998899e-05,1.6666666666775853e-05,-0.005135888061240879,0.006352957044449825,0.0012604154587427252
149570000000.0,2,-0.21554036034999996,-0.02295736765,0.22520971724999997,0.29985,-0.41402,0.37163,-0.53863025125,-4.533810428,-8.678983316499998,-0.061982,0.48061,-1.4101,4.999999999988347e-05,-1.999999999990898e-05,9.999999999998899e-05,-0.0030153848684958406,0.004267029449459114,0.0018297348311084038
149570000000.0,2,-0.17549980839999998,0.23456526134999997,0.23925284004999997,0.22201,-0.31527,0.30621,-0.5828680494,-4.5529333955,-8.666136605,-0.067157,0.48281,-1.4063,5.0000000000105516e-05,-2.0000000000131024e-05,1.6666666666775853e-05,-0.002989050907644508,0.002655751768206427,0.0013381560560025152
149570000000.0,2,-0.0152395341,0.10662770545,0.0562117178,0.16452,-0.20817,0.23868,-0.6148769550000001,-4.566760771999999,-8.6566241545,-0.070911,0.4844,-1.4033,-1.666666666655381e-05,-1.999999999990898e-05,1.666666666655381e-05,-0.0016559005292606788,0.0016837657163510933,0.0010161136159034245
149570000000.0,2,0.2293775435,-0.07707046235,-0.005687856999999999,0.13225,-0.14284,0.183,-0.62920447065,-4.5805881484999995,-8.648288502,-0.072627,0.48599,-1.4014,-1.6666666666775853e-05,-2.0000000000131024e-05,1.666666666655381e-05,-0.0013655574718683394,0.0018342597752563083,0.0010437049048975522
149570000000.0,2,0.31305768795,-0.10886362164999999,0.011954306349999999,0.12796,-0.1726,0.14035,-0.6498965021499999,-4.590688997999999,-8.641423846999999,-0.075066,0.48716,-1.3996,-1.6666666666775853e-05,-1.999999999990898e-05,1.6666666666775853e-05,-0.002041587980809445,0.002035993934431657,-7.339040121309703e-05
149570000000.0,2,0.24305782025,-0.0602716709,-0.09605613674999999,0.14673,-0.24943,0.10422,-0.6752074657999999,-4.602162778499999,-8.633382394,-0.078051,0.48848,-1.3982,-1.666666666655381e-05,-1.999999999990898e-05,1.6666666666775853e-05,-0.0020396951998454815,0.001812554533680899,-0.0004961102540282092
149570000000.0,2,0.19408341015,0.010091042849999999,-0.1353906099,0.16399,-0.25592,0.055163,-0.70091069545,-4.615597889,-8.6240660765,-0.081095,0.49004,-1.3972,-1.666666666655381e-05,-2.0000000000131024e-05,1.666666666655381e-05,-0.0015776328344829782,0.002281356915741828,-0.0008154374845759649
149570000000.0,2,0.18335493504999997,0.07024503395,0.00122583125,0.13517,-0.18208,-0.011193,-0.7124825424499999,-4.6266794035,-8.617201421499999,-0.082493,0.49132,-1.3974,-1.6666666666775853e-05,-1.999999999990898e-05,-3.333333333332966e-05,-0.00014023156885534238,0.0002545985521211769,-0.0005657973234634017
149570000000.0,2,0.1259369993,0.11785631969999999,0.10135172775,0.063816,-0.06635,-0.067026,-0.7185038255499999,-4.6343285905,-8.612592295999999,-0.083232,0.49221,-1.3979,-9.999999999998899e-05,-2.0000000000131024e-05,-3.333333333332966e-05,0.0010301951572647683,-9.390300651390682e-05,-0.0006025123871425397
149570000000.0,2,0.1267607579,0.057133542899999994,0.1344295582,-0.038319,0.090091,-0.088827,-0.71034469275,-4.6339363245,-8.6134748945,-0.082283,0.49216,-1.3989,-0.00010000000000021103,-1.999999999990898e-05,-3.333333333332966e-05,0.0019423491176004948,-0.001686946283041335,0.00012341530823878344
149570000000.0,2,0.27540015195,-0.0900054337,0.29896553189999997,-0.15451,0.25406,-0.061565,-0.6884072166999999,-4.6237374085,-8.6207318155,-0.079685,0.49098,-1.3998,5.0000000000105516e-05,-9.999999999998899e-05,-9.999999999998899e-05,0.002259866754535822,-0.002188962817929019,0.0008581567206568663
149570000000.0,2,0.3562755945,-0.18669900269999998,0.46368783194999996,-0.24668,0.3656,-0.010691,-0.6434339198,-4.6174611525,-8.6275964705,-0.074441,0.49025,-1.401,5.0000000000105516e-05,-0.00020000000000020002,-0.000300000000000189,0.0021419564343733155,-0.0028479276352857408,0.0013366783530015525
149570000000.0,2,0.251834772,-0.23579109259999997,0.44322135339999996,-0.26598,0.38595,0.040475,-0.6115623072999999,-4.594219391999999,-8.6423064455,-0.070646,0.48757,-1.4009,9.999999999998899e-05,-0.00019999999999997797,-0.00019999999999997797,0.004584052834830654,-0.0025473603522847554,0.00243375025419143
149570000000.0,2,0.0312439869,-0.27335056209999997,0.27473329975,-0.20346,0.34492,0.060937,-0.5832603154,-4.5745080255,-8.654760890999999,-0.06729,0.48529,-1.4005,0.00019999999999997797,-0.00019999999999997797,-0.00019999999999997797,0.0015781870024718092,-0.002028357459352481,0.002084881217290724
149570000000.0,2,-0.1140905661,-0.12777084285,0.1134629405,-0.069453,0.28415,0.049535,-0.5597243554,-4.5648975085,-8.6613313465,-0.064534,0.48418,-1.3999,9.999999999998899e-05,-9.999999999998899e-05,-9.999999999998899e-05,0.00017802341292966206,-0.0018729723626342842,0.0014507142157391129
149570000000.0,2,-0.11162909695,0.0325384647,0.0442672181,0.063749,0.2543,0.034876,-0.5427392376,-4.567349171,-8.6611352135,-0.062581,0.48447,-1.3993,9.999999999998899e-05,3.333333333332966e-05,-4.999999999988347e-05,-0.0009354015020757722,-0.002028177923211416,0.001542774048369444
149570000000.0,2,-0.04919015639999999,0.2487750972,0.03872646085,0.1513,0.26636,0.042478,-0.5218314598,-4.5785287519999995,-8.656526088,-0.060209,0.48576,-1.3988,9.999999999998899e-05,3.333333333332966e-05,-5.0000000000105516e-05,-0.0012694862451206879,-0.002201920678215119,0.0015912074754535765
149570000000.0,2,-0.13888177729999998,0.45942193919999996,-0.025330576949999996,0.20113,0.24567,0.071421,-0.5027673322,-4.594807791,-8.6489749675,-0.058064,0.48764,-1.3979,9.999999999998899e-05,3.333333333332966e-05,-3.333333333332966e-05,-0.0021364243935318994,-0.001750285347030811,0.0017131265747489799
149570000000.0,2,-0.33777044595,0.4162922925,-0.022427808549999997,0.18247,0.18827,0.084299,-0.4889791822999999,-4.61108683,-8.6411296475,-0.056527,0.48952,-1.3969,0.00019999999999997797,5.0000000000105516e-05,-3.333333333332966e-05,-0.0008823296242688183,-0.0020461281758314964,0.0017093563933791023
149570000000.0,2,-0.20481188525,0.211235241,-0.09533044465,0.077255,0.12091,0.10665,-0.4890576354999999,-4.6125578275,-8.640345115499999,-0.056541,0.48968,-1.3952,9.999999999998899e-05,4.999999999988347e-05,-3.333333333332966e-05,0.0009663405324683016,0.00032413002973585847,0.001644662562023086
149570000000.0,2,0.15595515495,0.16578141824999998,-0.32460992164999997,-0.10479,-0.040722,0.19522,-0.4966872092,-4.6066738375,-8.642992911,-0.057403,0.48901,-1.3933,0.00019999999999997797,9.999999999998899e-05,-0.00019999999999997797,0.0021433847551313723,0.0020569499844929062,0.001694872732164704
149570000000.0,2,0.2883351233,-0.10215587304999998,-0.6644201508,-0.16656,-0.11275,0.27209,-0.5184775855,-4.5907870645,-8.650249832,-0.059867,0.48717,-1.3906,0.00019999999999997797,2.4999999999941735e-05,-9.999999999998899e-05,0.0005884555555841775,0.0037803917705623302,0.0022542813934378625
149570000000.0,2,-0.008786758399999999,-0.69335957495,-0.4376707895,-0.084303,-0.082557,0.29886,-0.5399345356999999,-4.5799997495,-8.654564758,-0.062306,0.48593,-1.3873,0.00019999999999997797,2.500000000016378e-05,-9.999999999998899e-05,0.00130188053983038,0.0029273183268350156,0.002041219997138438
149570000000.0,2,-0.0625272004,-0.52688188455,0.4608929367,-0.027084,-0.12354,0.31718,-0.5672950891999999,-4.597553653,-8.643581309999998,-0.065539,0.48796,-1.3836,0.00029999999999996696,2.4999999999941735e-05,-9.999999999998899e-05,-0.00023455562932184204,0.003148010457172612,0.0018026127903434386
149570000000.0,2,0.0160436794,-0.007678606949999999,0.35238235445,-0.001626,-0.144,0.31406,-0.5936455577499999,-4.595200057,-8.6430909775,-0.068577,0.48768,-1.38,0.000300000000000189,2.4999999999941735e-05,-0.00019999999999997797,-0.00026057775298937713,0.0020482103089052295,0.0025313787825182177
149570000000.0,2,0.01118938765,0.15154216245,0.09831166624999998,0.004261,-0.084354,0.29902,-0.61527902765,-4.594023258999999,-8.642208379,-0.071075,0.48754,-1.3766,0.00029999999999996696,-9.999999999998899e-05,-9.999999999998899e-05,-0.0012165016030138975,0.0012958162904119774,0.002342266411905214
149570000000.0,2,0.03796154215,0.13713619359999998,0.3048691352,-0.055475,-0.077477,0.30745,-0.6356082130999999,-4.588825734499999,-8.643385177,-0.073405,0.48695,-1.3732,0.00029999999999996696,-9.999999999998899e-05,-9.999999999998899e-05,0.0031105538930646937,0.0016685650209744551,0.0025918200971741245
149570000000.0,2,-0.1177974798,-0.0017946169499999999,0.15611206134999997,-0.14999,-0.019165,0.31145,-0.6586734539,-4.5780384195,-8.6474059035,-0.076023,0.4857,-1.3695,0.00019999999999997797,-4.999999999988347e-05,-0.000300000000000189,0.003717947709488967,0.001711180682132385,0.002974804381292051
149570000000.0,2,-0.2039979333,-0.07487377275,-0.0281058589,-0.28859,-0.011622,0.30373,-0.6736187885,-4.554012127,-8.6589777505,-0.077639,0.48294,-1.3662,0.00029999999999996696,-5.0000000000105516e-05,-0.00029999999999996696,0.0034329874445193087,0.001371574972285572,0.0024578619816724434
149570000000.0,2,0.04202149524999999,-0.19105315529999997,-0.3500581784,-0.40536,0.020312,0.23622,-0.68441591015,-4.519688852,-8.6760413215,-0.078722,0.47899,-1.3636,0.00019999999999997797,-0.00019999999999997797,-0.00019999999999997797,0.0031750289477470717,0.001088826590813774,0.002167454413536135
149570000000.0,2,0.16456539365,-0.10935395414999999,-0.11890563124999999,-0.50684,0.087301,0.15374,-0.6860536207,-4.476441525499999,-8.698302416999999,-0.078708,0.47402,-1.3621,0.00019999999999997797,-9.999999999998899e-05,-0.00019999999999997797,0.005241051749829473,-0.0003005030761225047,0.0014158626933895024
149570000000.0,2,0.15998568809999997,0.02697809415,0.09218251,-0.54534,0.16229,0.076684,-0.6724910237499999,-4.427702475,-8.7242900395,-0.076931,0.46844,-1.3618,9.999999999998899e-05,-0.00019999999999997797,-0.00039999999999995595,0.006141658239092185,-0.0008838757751989945,0.001154937784410781
149570000000.0,2,0.017475450299999997,-0.0565451439,0.2556789788,-0.50458,0.27925,0.007167,-0.6522402915,-4.3819054195,-8.7490027975,-0.074412,0.46321,-1.362,9.999999999998899e-05,-9.999999999998899e-05,-0.00039999999999995595,0.005171054511855067,-0.0019686428194771732,0.0011680101265829634
149570000000.0,2,-0.09935117114999999,0.0554467991,0.62206522945,-0.36791,0.39539,-0.040834,-0.6189172948,-4.3463072799999996,-8.769106429999999,-0.070462,0.45917,-1.3626,5.0000000000105516e-05,-9.999999999998899e-05,-0.00029999999999996696,0.0029650348415295458,-0.00402765750907208,0.0012176378593611592
149570000000.0,2,-0.27034972719999995,0.2563262177,0.624095206,-0.14082,0.50434,-0.045969,-0.5751011826,-4.328851443,-8.780678277,-0.065403,0.45718,-1.3633,4.999999999988347e-05,6.666666666665932e-05,-0.00010000000000021103,0.0006586006003294065,-0.004936661948153009,0.002130267561736704
149570000000.0,2,-0.4840758573,0.4632465327,0.65393684195,0.12033,0.62045,-0.02437,-0.5307653179499999,-4.3316953714999995,-8.7821492745,-0.060364,0.4575,-1.3632,-9.999999999998899e-05,6.666666666665932e-05,-0.00019999999999997797,-0.0014117522086162793,-0.006053755663635307,0.0025155154244743405
149570000000.0,2,-0.60168701075,0.6146710153499999,0.8458333691499998,0.33531,0.70602,0.007874,-0.47031712735,-4.3569965285,-8.77302909,-0.053558,0.46038,-1.363,-9.999999999998899e-05,6.666666666665932e-05,-9.999999999998899e-05,-0.003069568125531663,-0.006722826675162663,0.003731936306173661
149570000000.0,2,-0.5860650173,0.5980291302999999,0.88309863915,0.44728,0.71892,0.039,-0.40842735919999995,-4.394359864999999,-8.757436516499999,-0.046604,0.46464,-1.3624,-4.999999999988347e-05,0.00019999999999997797,-0.00019999999999997797,-0.004106034793589397,-0.006625089106790272,0.0036929590889764885
149570000000.0,2,-0.42086219140000003,0.5004529628,0.65825176795,0.42833,0.62635,0.055141,-0.35336301945,-4.4328019329999995,-8.740471011999999,-0.040407,0.46903,-1.3616,-5.0000000000105516e-05,0.00019999999999997797,-0.00019999999999997797,-0.0033467003687563945,-0.005418016357167765,0.0028772067017549807
149570000000.0,2,-0.09011330684999999,0.2586602004,0.0627037201,0.30561,0.47075,0.024249,-0.3101647262,-4.462418016,-8.727035901499999,-0.035526,0.47242,-1.3611,-1.666666666655381e-05,9.999999999998899e-05,-9.999999999998899e-05,-0.0022305837129389383,-0.003308307355152529,0.002037220915679705
149570000000.0,2,0.2540314616,-0.07879643275,-0.58327012205,0.13193,0.3369,-0.023849,-0.2778223945,-4.4776183235,-8.720269313,-0.031849,0.47417,-1.3611,-1.6666666666775853e-05,9.999999999998899e-05,-0.00029999999999996696,-0.0002840585709484311,-0.00243199197955124,0.0011598193951863345
149570000000.0,2,0.43560158634999996,-0.31466597854999995,-0.8459608555999999,-0.000791,0.25706,-0.067708,-0.2380858487,-4.478108656,-8.721249978,-0.027292,0.47421,-1.3624,-1.6666666666775853e-05,9.999999999998899e-05,-0.00019999999999997797,0.0012650422520614213,-0.0020470592405734678,5.7629879364390346e-05
149570000000.0,2,0.3679357013499999,-0.49571635084999993,-0.6395308730999999,-0.087419,0.20667,-0.10726,-0.2147067951,-4.472420799,-8.724780372,-0.024604,0.47356,-1.3636,-1.666666666655381e-05,-9.999999999998899e-05,-0.00019999999999997797,0.0015824908955852646,-0.0022243675901114646,-0.0003417157358128753
149570000000.0,2,0.15058111075,-0.53302084745,-0.41467419525,-0.13672,0.14639,-0.15954,-0.19397553699999998,-4.4617315505,-8.7307624285,-0.022214,0.47234,-1.3652,-1.666666666655381e-05,-9.999999999998899e-05,-0.00019999999999997797,0.0014899142700235402,-0.0018236605308064036,-0.0012223511088191308
149570000000.0,2,0.052298864449999996,-0.4285309917,-0.31664692185,-0.16274,0.062476,-0.21068,-0.1779906975,-4.44829644,-8.737921283,-0.020367,0.4708,-1.3675,-1.6666666666775853e-05,-9.999999999998899e-05,-9.999999999998899e-05,0.002019645363277478,-0.0008226047144213045,-0.001651966261218718
149570000000.0,2,0.0526813238,-0.32435494875,-0.2671723726,-0.18569,-0.03,-0.24898,-0.1652028259,-4.437705257999999,-8.743609139999998,-0.018892,0.46959,-1.3704,-2.4999999999941735e-05,-9.999999999998899e-05,-0.00020000000000020002,0.0016987526247909113,4.8647062503848204e-05,-0.002021271418529924
149570000000.0,2,0.04531652965,-0.35667766715,-0.34586093219999997,-0.20122,-0.1151,-0.26594,-0.16188817819999998,-4.4209358865,-8.7521409255,-0.018495,0.46768,-1.3734,-2.4999999999941735e-05,-0.00019999999999997797,-9.999999999998899e-05,0.000671211283105877,0.00013175739826132293,-0.0028282147423060455
149570000000.0,2,0.1566710404,-0.28964921439999997,-0.2928461823,-0.18665,-0.16104,-0.2669,-0.16355530869999999,-4.4044607145,-8.7603785115,-0.018668,0.46579,-1.3764,-2.500000000016378e-05,-9.999999999998899e-05,-5.0000000000105516e-05,0.0016132417110592545,0.00017869322935681886,-0.002919480761014198
149570000000.0,2,-0.033244543499999994,-0.12261254495,-0.1818349043,-0.11174,-0.13502,-0.27002,-0.16442810054999998,-4.393183067,-8.766066368499999,-0.018755,0.4645,-1.3795,-2.4999999999941735e-05,-9.999999999998899e-05,-4.999999999988347e-05,0.000978856966499797,0.00023060017951692657,-0.0028718675100859736
149570000000.0,2,-0.2447543707,0.01770100325,0.10365629049999998,0.015588,-0.089186,-0.26881,-0.17063570999999997,-4.392986934,-8.766066368499999,-0.019463,0.46448,-1.382,-5.0000000000105516e-05,-0.00019999999999997797,-4.999999999988347e-05,-0.0017658151307383685,-0.0008754594666469107,-0.002950720534556084
149570000000.0,2,-0.26218078775,0.24852012429999998,0.5187325584,0.15452,-0.057303,-0.26328,-0.16458500694999997,-4.403970382,-8.760574644499998,-0.018785,0.46573,-1.3849,-4.999999999988347e-05,1.999999999990898e-05,-5.0000000000105516e-05,-0.001604901883508314,-0.0011586689091207525,-0.0024431867709801824
149570000000.0,2,-0.3814982983,0.30930174099999996,0.6732069091999999,0.25823,-0.028322,-0.26102,-0.15615128795,-4.424956613,-8.750179595499999,-0.017843,0.46813,-1.3878,-9.999999999998899e-05,2.0000000000131024e-05,3.333333333332966e-05,-0.0038885410956807642,-0.0013254457795026653,-0.0025104091972830422
149570000000.0,2,-0.5124759157,0.18452192639999998,0.5015513076,0.32573,-9.6e-05,-0.27163,-0.14473634735,-4.4525132995,-8.7364502855,-0.016566,0.47128,-1.3907,-0.00029999999999996696,1.999999999990898e-05,3.333333333332966e-05,-0.002064001999632248,3.999690459810523e-05,-0.0023028599681909345
149570000000.0,2,-0.38957897789999996,0.11804264605,0.11849375194999999,0.36213,0.00494,-0.28971,-0.14552087935,-4.483110047499999,-8.720661579,-0.016686,0.47479,-1.3932,-0.00019999999999997797,2.0000000000131024e-05,3.333333333332966e-05,-0.0036353496945233377,-0.0028291918352574275,-0.002937692074030218
149570000000.0,2,-0.25082468705,0.2149813813,-0.13589074904999998,0.13687,0.2487,-0.29907,-0.11189387649999999,-4.5017426825,-8.7115413945,-0.012844,0.47693,-1.3964,-0.00029999999999996696,1.999999999990898e-05,3.333333333332966e-05,-0.0007355415932868148,-0.005054383384376582,-0.0010467596011775326
149570000000.0,2,-0.46725745255,0.15105182995,-0.67488384635,0.016215,0.53948,-0.24322,-0.0569177966,-4.5074305395,-8.7091877985,-0.006535,0.47758,-1.3992,-0.00019999999999997797,-4.999999999988347e-05,3.333333333332966e-05,0.00034434752429768345,-0.007853174644797845,0.0011710280824273056
149570000000.0,2,-0.50444426935,-0.1011261748,-0.6072866079,-0.061693,0.72863,-0.14976,0.011395327299999999,-4.503802079,-8.711247194999999,0.001308,0.47716,-1.4012,-0.00019999999999997797,-5.0000000000105516e-05,3.333333333332966e-05,0.0006971529715276148,-0.0066769687513075215,0.0026196531824463076
149570000000.0,2,-0.44068143104999996,-0.14803138175,0.2231797407,-0.12163,0.74823,-0.079446,0.0766095498,-4.4968393575,-8.7144833895,0.008791,0.47637,-1.402,-0.00020000000000020002,9.999999999998899e-05,-9.999999999998899e-05,0.0024910890141482955,-0.0052091285997066805,0.003642535074371067
149570000000.0,2,-0.19754515759999997,-0.28714851865,0.24908890999999997,-0.15264,0.63229,-0.037667,0.13724406675,-4.4840907125,-8.720367379499999,0.015737,0.4749,-1.4025,-9.999999999998899e-05,-4.999999999988347e-05,-9.999999999998899e-05,0.0012870599657660575,-0.004138225372542381,0.0024902262491929283
149570000000.0,2,0.363630582,-0.2939837537,0.1915434878,-0.14183,0.39881,-0.011619,0.17880464945,-4.471047867999999,-8.7262513695,0.020488,0.47341,-1.4026,9.999999999998899e-05,-5.0000000000105516e-05,-9.999999999998899e-05,0.0006451923152388517,-0.0025138492561729286,0.001297596619675434
149570000000.0,2,0.7005086227999999,-0.13199750899999999,0.20752832729999998,-0.094146,0.091522,-0.010994,0.19417167,-4.4617315505,-8.7307624285,0.022237,0.47234,-1.4027,9.999999999998899e-05,-9.999999999998899e-05,-9.999999999998899e-05,0.0015585174460650553,0.0006329923935346482,-3.90347210139641e-05
149570000000.0,2,0.7166307554,-0.0085121722,0.2970434285,-0.032441,-0.18604,0.008803,0.2112744676,-4.46202575,-8.730174029499999,0.024196,0.47238,-1.4041,0.00010000000000021103,-9.999999999998899e-05,-9.999999999998899e-05,0.0005840964677887306,0.001846242218487948,-0.0007989595691395013
149570000000.0,2,0.6041190599499999,0.12973217285,0.37356471845,0.04387,-0.35508,0.054065,0.1814818649,-4.4640851464999995,-8.7297817635,0.020785,0.47261,-1.4037,0.00019999999999997797,6.666666666665932e-05,-0.00029999999999996696,-0.00034264681203471925,0.0023009749363849252,-0.0016068340129578584
149570000000.0,2,0.2090973913,0.40967280375,0.41804768285,0.14542,-0.43482,0.10241,0.1409019472,-4.474578262,-8.725172637999998,0.016148,0.47381,-1.4027,0.00029999999999996696,6.666666666665932e-05,-0.00029999999999996696,-0.002061309982055226,0.002742031307638504,-0.0015932557753763898
149570000000.0,2,0.06445911045,0.48396798415,0.40823122619999996,0.23393,-0.41854,0.13776,0.09744868104999999,-4.4936031629999995,-8.715954387,0.011181,0.476,-1.4012,0.00019999999999997797,6.666666666665932e-05,-9.999999999998899e-05,-0.003663355363157428,0.005274345976756578,-5.5459446616251684e-05
149570000000.0,2,-0.0085906254,0.42165653005,0.17179289469999998,0.25149,-0.36007,0.13235,0.057525808899999996,-4.5086073375,-8.708599399499999,0.006605,0.47771,-1.3997,9.999999999998899e-05,9.999999999998899e-05,-9.999999999998899e-05,-0.004180303843622668,0.004038309322349276,-0.0005653998142862715
149570000000.0,2,-0.165143986,0.28280417269999997,-0.278116594,0.22835,-0.34704,0.086393,0.022682781449999998,-4.5292013025,-8.6980082175,0.002608,0.48008,-1.3985,0.00019999999999997797,0.00019999999999997797,-0.00019999999999997797,-0.0029062527322852305,0.0025457807703570534,-0.0009617005665233658
149570000000.0,2,0.02470295135,0.15177752204999997,-0.31609774944999997,0.1636,-0.33368,0.040359,-0.0091397978,-4.544990008999999,-8.689868698,-0.001052,0.4819,-1.398,9.999999999998899e-05,9.999999999998899e-05,-0.00019999999999997797,-0.0006911468660166786,0.001890779126122455,-0.0003646159422973083
149570000000.0,2,0.08656329954999999,0.022427808549999997,-0.19438741629999998,0.080843,-0.29035,0.016656,-0.03658861115,-4.5539140604999995,-8.6850634395,-0.004212,0.48292,-1.3977,9.999999999998899e-05,9.999999999998899e-05,-0.00019999999999997797,-0.0005058686289288183,0.002536069011336295,-0.0014065760992459653
149570000000.0,2,-0.08668097934999999,-0.13377251265,-0.1070690047,-0.020856,-0.20638,0.005659,-0.06055606374999999,-4.556561856,-8.683592442,-0.006974,0.48323,-1.3974,0.00019999999999997797,-3.333333333332966e-05,-0.000300000000000189,0.00047154857199704914,0.0007895882220940731,-0.00093632282280251
149570000000.0,2,-0.22986787599999997,-0.23153500649999997,-0.03384274915,-0.11289,-0.10546,0.009592,-0.07240249694999999,-4.5486184695,-8.687613168499999,-0.008334,0.48231,-1.3974,5.0000000000105516e-05,-3.333333333332966e-05,-0.00029999999999996696,0.0010473587736555823,0.0007504124230819365,-0.00021294511965366802
149570000000.0,2,-0.250265708,-0.31792178635,0.028213732049999996,-0.1814,0.004851,0.01675,-0.0750404858,-4.5341046275,-8.695262355499999,-0.00863,0.48064,-1.3972,4.999999999988347e-05,-3.333333333332966e-05,-0.00029999999999996696,0.0012394426284932925,-0.0006399719791641001,0.0006758455191193669
149570000000.0,2,-0.319304524,-0.36251262389999994,0.20768523369999997,-0.21457,0.12235,0.010081,-0.0675089786,-4.515962325,-8.7046767395,-0.007755,0.47856,-1.3971,9.999999999998899e-05,-9.999999999998899e-05,-0.00019999999999997797,0.001446438930431837,-0.001287744124667256,0.0009673850547974872
149570000000.0,2,-0.44985064880000003,-0.33500497064999996,0.36624895755,-0.22418,0.23433,-0.018946,-0.06565552175,-4.5117454655,-8.706932269,-0.00754,0.47808,-1.3963,-9.999999999998899e-05,-0.00019999999999997797,-0.00029999999999996696,0.0026131245769778766,-0.0022075627261228803,0.0009116881687335765
149570000000.0,2,-0.56026372115,-0.31214566949999994,0.39737526465,-0.24372,0.30805,-0.048997,-0.03843226135,-4.4909553675,-8.7178176505,-0.004409,0.47569,-1.3968,-9.999999999998899e-05,-9.999999999998899e-05,-0.00019999999999997797,0.0026354114110743176,-0.0027083250128361325,0.0007429438857371184
149570000000.0,2,-0.5007079356999999,-0.2586405871,0.3096547804,-0.25816,0.36678,-0.053395,-0.0053740442,-4.468694272,-8.729291431,-0.000615,0.47314,-1.3974,-9.999999999998899e-05,-0.00019999999999997797,-0.00029999999999996696,0.0031412461662213564,-0.003496739363304524,0.0013918132261888094
149570000000.0,2,-0.35846247745,-0.24154759615,0.19408341015,-0.27696,0.42766,-0.037524,0.03254827135,-4.444962179,-8.7413536105,0.003724,0.47042,-1.3979,-9.999999999998899e-05,-0.00029999999999996696,-0.000400000000000178,0.002936372611650917,-0.003867744244470117,0.0017725827034511532
149570000000.0,2,-0.2561104714,-0.14798234849999997,0.17588226775,-0.27968,0.50118,-0.015239,0.06832293055,-4.426133411,-8.750767994499999,0.007807,0.46827,-1.3977,-0.00019999999999997797,-0.00020000000000020002,-0.00019999999999997797,0.002683143619827355,-0.0034729799302621878,0.0027850045933355827
149570000000.0,2,-0.200840192,-0.09348679445,0.1863655766,-0.25892,0.57239,0.001749,0.11719927414999999,-4.402793584,-8.761947575499999,0.013375,0.4656,-1.3977,-9.999999999998899e-05,-0.00019999999999997797,-0.00029999999999996696,0.0025111109360553274,-0.0038879438957681867,0.0025900333945923226
149570000000.0,2,-0.11009925954999998,-0.14299076365,0.2778616211,-0.22785,0.59875,0.0167,0.1689097396,-4.382199619,-8.771460026,0.019254,0.46325,-1.3975,-9.999999999998899e-05,-0.00019999999999997797,-0.00029999999999996696,0.001869017844545351,-0.00426052886654138,0.0031063320836711428
149570000000.0,2,-0.0184561153,-0.22653361499999997,0.26997707449999997,-0.20484,0.54208,0.020042,0.2174722704,-4.3637631169999995,-8.7795995455,0.024765,0.46115,-1.3973,-5.0000000000105516e-05,-0.00019999999999997797,-0.00019999999999997797,0.0010985815094259888,-0.004089337026504047,0.002762776900003483
149570000000.0,2,-0.0020593965,-0.195936867,0.15148332255,-0.17905,0.42573,0.011753,0.25823851444999996,-4.353956467,-8.7833260725,0.029392,0.46003,-1.3971,-4.999999999988347e-05,-0.00029999999999996696,-0.00029999999999996696,0.000400626999179754,-0.003092527788852939,0.002172031989520845
149570000000.0,2,-0.0565451439,-0.10798102315,-0.031194953649999996,-0.15303,0.33389,-0.004051,0.28922752845,-4.339834891,-8.789308128999998,0.032895,0.45843,-1.3971,-4.999999999988347e-05,-0.00019999999999997797,-0.00019999999999997797,0.0003723084748877281,-0.002474747701633806,0.0013325121526944206
149570000000.0,2,-0.05716296285,0.0285569648,-0.08859327609999999,-0.11165,0.29733,-0.016724,0.3164802088,-4.329047576,-8.793721121499999,0.035974,0.4572,-1.3972,-5.0000000000105516e-05,-0.00029999999999996696,-0.000300000000000189,-0.0002350901776874692,-0.0026160949244935505,0.0010395060633560382
149570000000.0,2,-0.038549941149999996,0.13941133639999997,-0.06940166205,-0.075475,0.27893,-0.026236,0.34245802464999997,-4.3214964555,-8.796466983499998,0.038912,0.45634,-1.3974,-5.0000000000105516e-05,-0.00019999999999997797,-0.00019999999999997797,-0.000247036211305951,-0.002653108994989495,0.0009681906321718226
149570000000.0,2,-0.023222147199999998,0.12496614095,-0.07444228015,-0.0427,0.23605,-0.03571,0.36589591814999994,-4.311787872,-8.800291577,0.041553,0.45525,-1.3977,-4.999999999988347e-05,-9.999999999998899e-05,-0.00019999999999997797,0.00027140920862733786,-0.0018671680039419325,0.0009015730996409788
149570000000.0,2,-0.004020726499999999,0.13285068754999999,-0.06522402914999999,-0.021772,0.17941,-0.044113,0.38484236595,-4.309434275999999,-8.800683843,0.043701,0.45497,-1.3982,-9.999999999998899e-05,-0.00019999999999997797,-0.00019999999999997797,2.57689534917116e-05,-0.0015361025700499908,0.0005286933096010638
149570000000.0,2,0.0901427268,0.10222451959999998,-0.0454440161,-0.035961,0.14754,-0.031272,0.39976808725,-4.3067864805,-8.801272242,0.04539,0.45467,-1.3986,5.0000000000105516e-05,-0.00020000000000020002,-9.999999999998899e-05,-0.00018918608677054305,-0.0011867121614086429,0.0005172434407394733
149570000000.0,2,0.22555294999999997,-0.0579965281,-0.12619197219999997,-0.080743,0.1777,0.011293,0.4144486423,-4.300608291,-8.803625837999999,0.047042,0.45398,-1.3985,4.999999999988347e-05,-0.00019999999999997797,-0.00029999999999996696,0.0004988601235073609,-0.0022992820109797307,0.0008504682091287352
149570000000.0,2,0.27515498569999997,-0.217119231,-0.171812508,-0.13494,0.24735,0.079385,0.44221126845,-4.293547502999999,-8.8056852345,0.050176,0.45317,-1.3983,4.999999999988347e-05,-0.00019999999999997797,-9.999999999998899e-05,0.0016762706932950677,-0.0017406019303838338,0.0019456539854148247
149570000000.0,2,0.11006983959999998,-0.3303664252,-0.10582356015,-0.17827,0.33077,0.1304,0.46439391074999997,-4.279229794,-8.8115692245,0.052654,0.45155,-1.3969,5.0000000000105516e-05,-0.00019999999999997797,-9.999999999998899e-05,0.001758699305706879,-0.0012997782761838828,0.002524017149225982
149570000000.0,2,-0.15393498504999997,-0.32919943385,-0.131016844,-0.20137,0.37891,0.13348,0.49122490514999995,-4.262460422499999,-8.8182377465,0.055648,0.44965,-1.3952,5.0000000000105516e-05,-0.00019999999999997797,-9.999999999998899e-05,0.0018668499297812557,-0.001795644908245242,0.002741462108113324
149570000000.0,2,-0.25572801204999995,-0.08368014445000001,-0.0576827153,-0.19391,0.35544,0.097238,0.5187913983,-4.245494918,-8.824808202,0.05872,0.44773,-1.3939,4.999999999988347e-05,-9.999999999998899e-05,-0.00019999999999997797,0.002000801334484714,-0.002046320870623397,0.0017984437605761683
149570000000.0,2,-0.21999257945,0.046336421249999996,-0.0085906254,-0.13815,0.23354,0.060194,0.5324324484499999,-4.230392676999999,-8.831280590999999,0.060217,0.44602,-1.3927,4.999999999988347e-05,-0.00019999999999997797,-9.999999999998899e-05,0.0009391651086249064,-0.0009720093370051419,0.001224401444762463
149570000000.0,2,-0.13881313074999999,0.03496070725,-0.0139450563,-0.075689,0.036958,0.05638,0.5378947525,-4.222743489999999,-8.834614852,0.06081,0.44516,-1.392,5.0000000000105516e-05,-0.00019999999999997797,-9.999999999998899e-05,-0.00012304858237194294,0.0001558368618805872,0.00019306397567903089
149570000000.0,2,0.0259680092,-0.00903192465,-0.059457718949999995,-0.08879,-0.12705,0.06732,0.52694072445,-4.2159769014999995,-8.838439445499999,0.059548,0.44439,-1.3913,5.0000000000105516e-05,-0.00019999999999997797,-9.999999999998899e-05,0.0006321574625092752,0.0028069216329009716,-0.0006923463010972963
149570000000.0,2,0.21837448219999997,-0.16924316569999998,-0.4527730305,-0.11989,-0.25683,0.10485,0.50332631125,-4.2064644509999995,-8.8443234355,0.056848,0.44332,-1.3902,4.999999999988347e-05,-0.00029999999999996696,-9.999999999998899e-05,0.0005895744911355583,0.0024435945745635568,-0.0006538225141042575
149570000000.0,2,0.396777059,-0.19920248145,-0.74919864005,-0.05633,-0.41298,0.15967,0.4742692073,-4.195677136,-8.851090024,0.053532,0.4421,-1.389,0.00019999999999997797,-0.00020000000000020002,9.999999999998899e-05,-0.0007467574078495187,0.005249645145661397,-0.00035888625621322
149570000000.0,2,0.29052200624999996,-0.25410010815,-0.49090128569999997,0.020366,-0.54046,0.19419,0.4209994845,-4.196853934,-8.853247486999999,0.047518,0.44224,-1.3869,0.00019999999999997797,-9.999999999998899e-05,0.00019999999999997797,-0.000433948543293039,0.006240736673705616,-0.00034781945267159387
149570000000.0,2,0.30211346655,-0.15756344555000001,-0.3448802672,0.076214,-0.63787,0.17844,0.35854093065000003,-4.2030321235,-8.853051354,0.040477,0.44293,-1.3849,0.00019999999999997797,-9.999999999998899e-05,0.00019999999999997797,-0.0014041419478372785,0.006016034621163069,-0.0011720883788382541
149570000000.0,2,0.46237374085,0.1663600106,-0.47127817905,0.18226,-0.72292,0.17131,0.28955114789999997,-4.217055633,-8.848932561,0.03271,0.44451,-1.3831,9.999999999998899e-05,-9.999999999998899e-05,0.00019999999999997797,-0.002146402312169171,0.006819943506544801,-0.0017151922202200132
149570000000.0,2,0.024751984600000002,0.2061553963,-0.32353119015,0.30092,-0.68342,0.18852,0.21914920754999997,-4.239610927999999,-8.840106576,0.024786,0.44707,-1.3811,-0.0004999999999999449,0.000500000000000167,0.0009999999999998899,0.007066206168038436,0.008096203775791677,0.002423486753963311
149570000000.0,2,-0.24827495804999997,0.23976278584999997,0.026262208699999998,0.35368,-0.49843,0.17548,0.16312381609999999,-4.270599942,-8.8264753325,0.01848,0.45057,-1.3792,0.0009000000000001229,-0.000600000000000156,-0.0005999999999999339,-0.015736756034772093,0.0007820761259758058,-0.00529895609001918
149570000000.0,2,-0.06705787269999999,0.1829332491,0.27166381829999997,0.3349,-0.32349,0.15699,0.12407373579999999,-4.3010986235,-8.812255689999999,0.014079,0.45403,-1.3775,9.999999999998899e-05,4.999999999988347e-05,0.00029999999999996696,-0.004387606513375553,0.0026611378373029293,-0.00019791171110164485
149570000000.0,2,-0.07006851425,0.178677163,0.33245524165,0.26754,-0.22062,0.13641,0.09670337564999999,-4.326497847,-8.800095444,0.010989,0.45691,-1.3759,-9.999999999998899e-05,5.0000000000105516e-05,0.00029999999999996696,-0.0022346032445642594,0.0031788921679114512,0.00027482200340558927
149570000000.0,2,-0.1821487171,0.04366901245,0.21602088619999998,0.20183,-0.17851,0.11488,0.0678227914,-4.34826861,-8.789700394999999,0.007717,0.45939,-1.3742,9.999999999998899e-05,-9.999999999998899e-05,0.00019999999999997797,-0.0023732693038766017,0.0018076556592707682,-8.651654116509366e-05
149570000000.0,2,-0.11452205869999998,-0.08175804105000001,0.0904565396,0.15295,-0.16742,0.092359,0.04853311085,-4.362782451999999,-8.782639607,0.005526,0.46104,-1.3731,-9.999999999998899e-05,-9.999999999998899e-05,0.00020000000000020002,-0.001962930621381642,0.001661412013014063,-0.00032121302357360215
149570000000.0,2,-0.03509800035,-0.07522681214999999,-0.09586000375,0.12469,-0.1405,0.048504,0.032705177749999995,-4.374354299,-8.776853683499999,0.003726,0.46236,-1.3725,-9.999999999998899e-05,-9.999999999998899e-05,0.00019999999999997797,-0.00021884149283279974,0.0011190354218888476,-0.0005511199316777515
149570000000.0,2,0.1599072349,0.014396162199999998,-0.1863459633,0.099732,-0.091227,-0.002862,0.0231044674,-4.3836706165,-8.7723426245,0.002634,0.46342,-1.3724,-9.999999999998899e-05,-9.999999999998899e-05,0.00019999999999997797,-0.0006402594430892083,0.0003156016209289181,-0.0005510491757936831
149570000000.0,2,0.2842751702,0.1304088317,-0.03137147335,0.066244,-0.021658,-0.023328,0.031302826799999996,-4.386122278999999,-8.77106776,0.003569,0.4637,-1.3731,-0.00010000000000021103,-9.999999999998899e-05,0.00029999999999996696,-0.0003656324383606302,3.0291140058036348e-05,-0.0006564460834139751
149570000000.0,2,0.00352058735,0.09797824014999999,0.19245550625,0.009019,0.025702,-0.025645,0.033440676499999995,-4.388279742,-8.7699890285,0.003813,0.46394,-1.3734,-9.999999999998899e-05,-9.999999999998899e-05,4.999999999988347e-05,0.001286618604603662,-0.00020225874346335715,-0.00045095479956730466
149570000000.0,2,-0.17270491315,-0.09625226975000001,0.36406207459999995,-0.058849,0.060389,-0.053576,0.04072701744999999,-4.3846512815,-8.771754225499999,0.004642,0.46353,-1.3739,-9.999999999998899e-05,-0.00019999999999997797,5.0000000000105516e-05,0.0007715765729207069,-0.00042844403216091287,-0.0006658019489816924
149570000000.0,2,0.07155912504999999,-0.3012210614,0.3139697064,-0.1085,-0.020173,-0.067396,0.04396321195,-4.3758252964999995,-8.776167218,0.005009,0.46253,-1.3747,-9.999999999998899e-05,0.00029999999999996696,0.0008999999999999009,0.01109233432523754,0.0020370897715815683,0.0028654457720642956
149570000000.0,2,0.014121576,-0.07989477754999999,-0.025781682849999998,-0.10492,-0.10226,-0.061908,0.0393050532,-4.366410912499999,-8.78087441,0.004476,0.46146,-1.3753,0.000700000000000145,-0.0006999999999999229,-0.0006999999999999229,-0.008841588771992148,-0.0015594604903630405,-0.005552707338395524
149570000000.0,2,-0.07623689709999999,-0.04861156404999999,-0.24446997785,-0.06904,-0.14094,-0.044698,0.02670350795,-4.3569965285,-8.785581601999999,0.00304,0.46038,-1.3757,-3.333333333332966e-05,-0.00019999999999997797,9.999999999998899e-05,0.0007508587407572542,0.0007263973381692601,-0.001104124495990011
149570000000.0,2,0.08003207065,-0.0973211946,-0.23267257789999998,-0.010372,-0.13929,-0.039263,0.016180972499999998,-4.3546429325,-8.7867584,0.001842,0.46012,-1.3761,-3.333333333332966e-05,-9.999999999998899e-05,0.00019999999999997797,-0.0001916155158455668,0.001378610920000245,-0.0010138409260225523
149570000000.0,2,-0.1995457142,0.08167958784999999,-0.25655177065,-0.026177,-0.23722,-0.022039,-0.00381478685,-4.3524854694999995,-8.7878371315,-0.000434,0.45987,-1.3763,-3.333333333332966e-05,-9.999999999998899e-05,0.00019999999999997797,-0.0006727139619733258,0.0018381805031690845,-0.0012662225665578952
149570000000.0,2,-0.68482778945,0.4191068010499999,-0.1890918253,-0.031783,-0.1902,-0.10646,-0.0183188222,-4.3495434745,-8.789308128999998,-0.002084,0.45953,-1.3773,-5.0000000000105516e-05,-0.00020000000000020002,9.999999999998899e-05,0.0006751677286779278,0.0008947245011954319,-0.0019097251620737166
149570000000.0,2,0.41332087754999997,-0.040256298249999996,0.2187667482,0.010498,-0.1255,-0.13639,-0.00914960445,-4.353858400499999,-8.787150665999999,-0.001042,0.46002,-1.3796,-5.0000000000105516e-05,-0.00019999999999997797,9.999999999998899e-05,-0.00039284151766882935,4.6839117292529764e-05,-0.002161971199611229
149570000000.0,2,0.3182846324,-0.07138260534999999,0.58772234115,0.077462,-0.013116,-0.11939,-0.0077864801,-4.3593501245,-8.784404804,-0.000887,0.46065,-1.3809,-9.999999999998899e-05,-9.999999999998899e-05,9.999999999998899e-05,-0.00043561474176934123,0.00016866669823856206,-0.0009304294984785744
149570000000.0,2,-0.19757457755000002,0.22132628384999997,0.7936423778499999,0.10757,0.14861,-0.1207,0.006943108199999999,-4.3683722425,-8.7799918115,0.00079,0.46168,-1.3823,-9.999999999998899e-05,-9.999999999998899e-05,0.00010000000000021103,-0.0013637930564368572,-0.0028015628391384606,-0.0004178847060817281
149570000000.0,2,-0.17674525295,0.11592440964999999,0.6175639771,0.078924,0.30442,-0.11782,0.035784465849999995,-4.3762175625,-8.775971085,0.004077,0.46258,-1.3836,-9.999999999998899e-05,-0.00019999999999997797,5.0000000000105516e-05,-0.0009316463839200706,-0.0039345480037922265,0.00042681891160284424
149570000000.0,2,-0.31019414614999996,0.07026464725,0.49989398375,0.021954,0.38374,-0.11912,0.0631352127,-4.3850435475,-8.771361959499998,0.007198,0.46358,-1.3844,-9.999999999998899e-05,-0.00019999999999997797,4.999999999988347e-05,-0.0003088800858501717,-0.0034510715304014727,0.0011276717451901286
149570000000.0,2,-0.50693515845,0.0588987399,0.4562445846,-0.05138,0.40461,-0.14277,0.10441140254999999,-4.3821015525,-8.7725387575,0.011902,0.46324,-1.3859,-0.00019999999999997797,-0.00019999999999997797,-9.999999999998899e-05,0.0010196625271038928,-0.00422697613583134,0.0007178817768903889
149570000000.0,2,-0.32868948805,-0.0085317855,0.29133595819999997,-0.11664,0.36894,-0.16523,0.14478538059999999,-4.372883301499999,-8.776559484,0.016496,0.46219,-1.3877,-0.00019999999999997797,-0.00019999999999997797,-0.00010000000000021103,0.0030810422709011687,-0.0028407044076865784,0.00018364584027311115
149570000000.0,2,-0.19516214164999998,-0.01419022255,0.09996899009999999,-0.14578,0.3106,-0.19186,0.18139360505,-4.3603307895,-8.782051207999999,0.020652,0.46076,-1.3897,-0.00019999999999997797,-0.00029999999999996696,-0.00019999999999997797,0.0015344835260250322,-0.00435045912914056,-0.0002337384585499036
149570000000.0,2,-0.0855728279,0.024928504299999998,0.0431884866,-0.16525,0.27773,-0.19184,0.21306908454999998,-4.345130481999999,-8.788915863,0.024238,0.45903,-1.3918,-0.00019999999999997797,-0.00019999999999997797,-0.00019999999999997797,0.0020158654251651864,-0.0027816908178384114,-2.721635974842207e-05
149570000000.0,2,-0.05438768089999999,-0.0642335575,-0.0608992965,-0.17121,0.21275,-0.16932,0.24113571685,-4.3295379085,-8.795878584499999,0.027407,0.45726,-1.3937,-0.00019999999999997797,-0.000300000000000189,-9.999999999998899e-05,0.0031930343891291013,-0.0015819716516360938,-0.0006883013719119757
149570000000.0,2,-0.36344425564999994,-0.128859381,-0.19595648029999999,-0.16209,0.14662,-0.17879,0.26288686655,-4.314827933499999,-8.802449039999999,0.029856,0.45558,-1.3956,-0.00019999999999997797,-0.00019999999999997797,-9.999999999998899e-05,0.0020528058104845037,-0.0017628389192172467,-0.001512608952230432
149570000000.0,2,-0.2579541216,-0.03592175895,-0.14918856645,-0.16123,0.10295,-0.20753,0.281450855,-4.300019892,-8.8092156285,0.031939,0.4539,-1.3977,-0.00019999999999997797,-0.00029999999999996696,-0.00019999999999997797,0.0008678885554064819,-0.0016951476909574659,-0.0014830549545404026
149570000000.0,2,0.09219231665,0.06498866955,-0.03702010375,-0.1477,0.058093,-0.2117,0.30060324245,-4.2828582545,-8.8168648155,0.034081,0.45196,-1.4002,-0.000300000000000189,-0.00029999999999996696,-9.999999999998899e-05,0.0018133765378671174,-0.0007132970889274226,-0.0019525617744484136
149570000000.0,2,0.06983315464999999,0.08744589804999998,0.0025889556,-0.11611,0.012001,-0.20089,0.3114395907,-4.270992208,-8.822258473,0.035288,0.45062,-1.4025,-0.00019999999999997797,-0.00019999999999997797,-2.4999999999941735e-05,0.0011331116092297422,-0.0010886910419176665,-0.0013508744152375685
149570000000.0,2,0.0420705285,0.092967042,-0.1188173714,-0.045987,-0.013105,-0.18258,0.31870631834999996,-4.2647159519999995,-8.825004335,0.036098,0.44991,-1.4045,-0.00019999999999997797,-9.999999999998899e-05,-2.4999999999941735e-05,0.0006076411035758622,-0.0007442790159102319,-0.001003894525771376
149570000000.0,2,0.03601982545,0.13422361854999998,-0.0767664562,0.018032,0.006582,-0.15155,0.32535522705,-4.264519819,-8.8249062685,0.036851,0.44988,-1.4063,-0.00019999999999997797,-9.999999999998899e-05,-2.500000000016378e-05,0.0006152392272210094,9.808240287334513e-05,-0.0011085013728918125
149570000000.0,2,-0.02164327655,0.17364635155,0.14313786339999998,0.058568,0.033907,-0.1067,0.33259253475,-4.2655985505,-8.82402367,0.037673,0.45001,-1.4076,-9.999999999998899e-05,-0.00019999999999997797,-2.4999999999941735e-05,-0.0007421496026880914,-0.000582764789284651,-0.0008740476053545609
149570000000.0,2,-0.0759819242,0.05973230515,0.2724679636,0.045648,0.044628,-0.066178,0.3396435161,-4.2699134765,-8.821670074,0.038482,0.4505,-1.4085,-9.999999999998899e-05,-0.00019999999999997797,-5.0000000000105516e-05,-0.0007531752977828488,-0.0006633761128727045,-0.0004165303728635439
149570000000.0,2,-0.16102519299999998,-0.0530932031,0.20917584449999996,-0.000583,0.020466,-0.034193,0.3438799889,-4.270796075,-8.821081674999999,0.038964,0.4506,-1.4089,-0.00019999999999997797,-9.999999999998899e-05,-4.999999999988347e-05,-0.0005212939526646476,0.0008585263309990321,-0.000249747794125843
149570000000.0,2,-0.20777349355,-0.147688149,0.046002995149999996,-0.058547,-0.025938,-0.038481,0.34424283495,-4.2669714815,-8.823043005,0.038997,0.45016,-1.4093,-0.00019999999999997797,-0.00020000000000020002,-9.999999999998899e-05,0.0005737234982806649,0.0003061206257586324,-0.0006973843667841262
149570000000.0,2,-0.2907083326,-0.0394619596,0.03127340685,-0.1125,-0.10009,-0.035242,0.33739779324999997,-4.2573609645,-8.8278482635,0.038201,0.44908,-1.4096,-9.999999999998899e-05,-0.00029999999999996696,-0.00019999999999997797,0.0002669289672891928,0.0002677287933221528,-0.0007513533016857976
149570000000.0,2,-0.2372032502,-0.0215354034,-0.09458513925,-0.071257,-0.15689,-0.053212,0.31770604005,-4.249025312,-8.832653522,0.035954,0.44812,-1.4097,-0.00019999999999997797,-0.00019999999999997797,-0.00019999999999997797,0.0005940505894166392,0.0003830867891372325,-0.001721398083516068
149570000000.0,2,-0.1949758153,-0.041766522349999995,0.25229568455,-0.071457,-0.22715,-0.12567,0.30360407735,-4.2428471225,-8.8360858495,0.034346,0.44743,-1.4108,-0.00019999999999997797,-0.00019999999999997797,-0.00019999999999997797,0.0007880532646381555,0.001831019216012919,-0.002418509180879158
149570000000.0,2,0.16905683935,0.40129792464999997,0.04686598035,-0.085462,-0.27919,-0.18218,0.28704064549999997,-4.23451147,-8.8405969085,0.032457,0.44649,-1.4126,-0.000300000000000189,-9.999999999998899e-05,-9.999999999998899e-05,0.0011202893587079488,0.002291742668085295,-0.002363585945195007
149570000000.0,2,0.34780264889999996,0.4778976677999999,-0.32588478614999994,-0.025689,-0.29669,-0.21513,0.2698986213,-4.2300984774999995,-8.8433427705,0.030511,0.44598,-1.4149,-0.00019999999999997797,-9.999999999998899e-05,-0.00010000000000021103,0.0010198959211870084,0.0013097727202509013,-0.003362325784279141
149570000000.0,2,0.0161025193,0.23033859519999997,-0.21028399595,0.053302,-0.31542,-0.25446,0.25249181755,-4.222547357,-8.8474615635,0.028531,0.44513,-1.4177,-0.00039999999999995595,9.999999999998899e-05,-9.999999999998899e-05,-0.0013045042495464232,0.0018878922011136279,-0.003727500081111723
149570000000.0,2,-0.18063849299999998,0.53343272675,-0.18578698424999998,0.12342,-0.23924,-0.28542,0.24093958385,-4.2314714085,-8.843440837,0.027239,0.44614,-1.4207,-0.00039999999999995595,9.999999999998899e-05,-9.999999999998899e-05,-0.0020713349022733474,0.0009836812328707367,-0.0037525431046229185
149570000000.0,2,-0.19939861444999998,0.5583220044499999,0.0359707922,0.13696,-0.17962,-0.33887,0.2380073955,-4.2428471225,-8.838145246,0.026923,0.44743,-1.4244,-0.0004999999999999449,9.999999999998899e-05,-0.00019999999999997797,-0.0010447486846101306,3.700750671131736e-05,-0.0044014581828352994
149570000000.0,2,-0.37232908054999997,0.54890762045,0.13081090435,0.092538,-0.16109,-0.38702,0.23929206664999997,-4.251575041,-8.8339283865,0.027082,0.44841,-1.4286,-0.000500000000000167,5.0000000000105516e-05,-0.00019999999999997797,-0.0005507799482543652,-0.0009477682843965773,-0.0043104993003114656
149570000000.0,2,-0.2852558352,0.44833061804999996,0.10564704045,-0.004386,-0.16559,-0.42987,0.2331825237,-4.2413761249999995,-8.838929777999999,0.026375,0.44726,-1.4328,-0.0004999999999999449,4.999999999988347e-05,-9.999999999998899e-05,0.00012035214588557164,0.00017281737041230372,-0.003771206204215838
149570000000.0,2,0.019181807399999997,0.29934799125,-0.1630257496,-0.063424,-0.21411,-0.43629,0.23370227615,-4.235884401,-8.841577573499999,0.026426,0.44664,-1.4376,-0.0004999999999999449,9.999999999998899e-05,-9.999999999998899e-05,0.0006062307208726248,-0.0003832577183395802,-0.005348478961994002
149570000000.0,2,0.1453541663,0.0307732677,-0.31437177905,-0.091388,-0.23946,-0.43203,0.2312800336,-4.227058415999999,-8.845794433,0.02614,0.44565,-1.4423,-0.0004999999999999449,9.999999999998899e-05,-9.999999999998899e-05,0.0006665753841255118,-0.00016107455741920518,-0.00527955140400968
149570000000.0,2,0.2220617826,-0.2077440736,-0.31982427645,-0.081749,-0.23421,-0.43095,0.22879895114999999,-4.2185266304999995,-8.8500112925,0.025847,0.44468,-1.4471,-0.00039999999999995595,9.999999999998899e-05,-0.00019999999999997797,0.002616239386023733,-0.0003059690613207433,-0.0045383303753545046
149570000000.0,2,0.30476126205,-0.2315546198,-0.10007686325,-0.061481,-0.22586,-0.41599,0.23542824655,-4.2161730345,-8.8509919575,0.026593,0.44441,-1.4522,-0.000400000000000178,9.999999999998899e-05,-9.999999999998899e-05,0.0007863446299587462,-0.00037200369992684834,-0.0042002600999282436
149570000000.0,2,0.25800315484999997,-0.36610185779999993,0.0863769732,-0.06649,-0.17256,-0.39581,0.23534979334999998,-4.2095045125,-8.8541300855,0.026575,0.44366,-1.4566,-0.00029999999999996696,-3.333333333332966e-05,-9.999999999998899e-05,0.00027270274637836156,-0.0008018284363200401,-0.004161652136882021
149570000000.0,2,0.2299855558,-0.33650538809999997,0.2144714355,-0.10945,-0.04864,-0.35448,0.24346969954999997,-4.199893995499999,-8.858445011499999,0.027478,0.44258,-1.4606,-0.00029999999999996696,-3.333333333332966e-05,-0.00019999999999997797,7.309779218916956e-05,-0.001997925601540773,-0.003700276561852317
149570000000.0,2,0.13942114305,-0.27096754614999996,0.18411985374999998,-0.086749,0.039532,-0.2724,0.2575618556,-4.1904796115,-8.862465738,0.029054,0.44151,-1.4639,-0.00019999999999997797,-3.333333333332966e-05,-5.0000000000105516e-05,-0.0003858097067764299,-0.0015720472256710583,-0.001798774733113101
149570000000.0,2,0.10290117845,-0.3148326916,0.23670311104999997,0.015393,0.07374,-0.15807,0.2756845448,-4.2018553254999995,-8.856581748,0.031118,0.4428,-1.4662,-9.999999999998899e-05,9.999999999998899e-05,-4.999999999988347e-05,0.00035444339493084787,-0.001230498923704637,-0.0009092383316670061
149570000000.0,2,0.1747348897,-0.56426483435,0.4316691197,0.1038,0.14107,-0.019279,0.2888450691,-4.209210313,-8.852659088,0.032616,0.44362,-1.4668,-3.333333333332966e-05,-3.333333333332966e-05,4.999999999988347e-05,-0.0010152162537092613,-0.0014725554769732252,0.0008409540005333005
149570000000.0,2,0.10213625975,-0.55887117685,0.3065166524,0.14297,0.15983,0.072553,0.30113280155,-4.2212724925,-8.8464808985,0.034027,0.44499,-1.4663,-3.333333333332966e-05,-3.333333333332966e-05,5.0000000000105516e-05,-0.0008150720025267288,-0.0008026057876067139,0.001469843392551018
149570000000.0,2,-0.11363946019999999,-0.3590802964,0.06856809679999999,0.14751,0.074521,0.094059,0.30577134699999997,-4.2348056695,-8.839910442999999,0.034577,0.44652,-1.4653,-3.333333333332966e-05,-3.333333333332966e-05,9.999999999998899e-05,-0.0011965077321541284,0.0005937835988694129,0.0011794172475898812
149570000000.0,2,-0.1743033971,-0.2434598929,-0.1132275809,0.10739,-0.007205,0.094137,0.29611179675,-4.251673107499999,-8.8321631895,0.033514,0.44843,-1.464,9.999999999998899e-05,-5.0000000000105516e-05,4.999999999988347e-05,-0.000788490805822939,-0.00011293172983606325,0.0007322814200955985
149570000000.0,2,-0.09935117114999999,-0.19424031655000001,-0.16515379264999996,0.052618,-0.062147,0.07706,0.28834492995,-4.2577532305,-8.8294173275,0.032646,0.44912,-1.4631,-1.666666666655381e-05,-4.999999999988347e-05,5.0000000000105516e-05,-0.0003740412052101183,0.0006449315043526305,0.0005833928176780523
149570000000.0,2,0.050161014749999996,-0.1654185722,-0.17005711764999998,0.026888,-0.089621,0.057851,0.27798910755,-4.260597159,-8.8284366625,0.031478,0.44943,-1.4624,-1.6666666666775853e-05,-4.999999999988347e-05,5.0000000000105516e-05,-0.0006974223737918894,0.0007199735827236875,0.00042227805229386184
149570000000.0,2,0.21522654755,0.04268834745,-0.21140195404999998,0.046435,-0.056731,0.041816,0.2701928208,-4.2642256194999995,-8.8268675985,0.030601,0.44985,-1.4619,-1.6666666666775853e-05,-5.0000000000105516e-05,4.999999999988347e-05,-0.0003284868178372591,0.0004361465347373361,0.0003953068026971984
149570000000.0,2,0.1339784523,0.23059356809999998,-0.10356803064999999,0.08662,0.026069,0.031063,0.27392915445,-4.262558489,-8.827554064,0.031021,0.44966,-1.4618,-1.666666666655381e-05,9.999999999998899e-05,9.999999999998899e-05,-0.0012353584757173741,4.2763950539814743e-05,0.00034347259390712925
149570000000.0,2,0.07032348715,0.3163429157,-0.0009414384,0.13209,0.10243,0.021401,0.28043096339999996,-4.273345804,-8.8221604065,0.031776,0.45088,-1.4616,-1.666666666655381e-05,9.999999999998899e-05,9.999999999998899e-05,-0.0007520335782087995,-0.0011636486036674665,0.0008269485973077251
149570000000.0,2,0.052651903849999994,0.30609496645,0.15662200715,0.14211,0.14073,-0.002132,0.2919635838,-4.285898316,-8.8156880175,0.033106,0.4523,-1.4616,-1.6666666666775853e-05,9.999999999998899e-05,9.999999999998899e-05,-0.0007911312226736578,-0.0005799875874958893,0.0008812851867056881
149570000000.0,2,-0.052740163699999995,0.2752334389,0.07722736875,0.12096,0.13882,-0.042727,0.3059282534,-4.297077897,-8.809804027499998,0.034712,0.45357,-1.462,-9.999999999998899e-05,9.999999999998899e-05,9.999999999998899e-05,-0.001507810244698149,-0.0019175135123414844,0.0003512815875174602
149570000000.0,2,-0.11396307965,0.3103608592,-0.00960071035,0.083594,0.10933,-0.086502,0.31566625685,-4.295803032499999,-8.8100001605,0.035815,0.45343,-1.4627,-9.999999999998899e-05,0.00010000000000021103,4.999999999988347e-05,-0.0008675384827024346,-0.0016831646090154084,-0.00041072473688119615
149570000000.0,2,-0.32803244249999997,0.36262049705,-0.093751574,0.050747,0.10859,-0.13352,0.3304252651,-4.300608291,-8.807156231999999,0.0375,0.45398,-1.4641,-0.00019999999999997797,0.00019999999999997797,5.0000000000105516e-05,-0.00047330016888225135,-0.00158114582657376,-0.00045690308558274384
149570000000.0,2,-0.47525967895,0.43204177239999997,-0.050925933449999995,0.050816,0.11924,-0.13034,0.3464297179,-4.304530950999999,-8.804606502999999,0.039326,0.45442,-1.4656,-0.000300000000000189,0.00019999999999997797,-5.0000000000105516e-05,0.0002634713597013949,-0.0019740247899435737,-0.0004003822525987799
149570000000.0,2,-0.3828712293,0.1434909028,0.10754953054999998,0.064486,0.12015,-0.088689,0.3613162126,-4.3097284755,-8.801468374999999,0.041029,0.45501,-1.4667,-9.999999999998899e-05,9.999999999998899e-05,-4.999999999988347e-05,-0.00015533905308806606,-0.0027546031787195613,-0.00030300554454190665
149570000000.0,2,-0.3766341999,-0.21448124215,0.12601545249999999,0.051325,0.10102,-0.045977,0.35987463505,-4.323163586,-8.794995986,0.040896,0.45653,-1.4667,-0.00029999999999996696,9.999999999998899e-05,-1.6666666666775853e-05,7.914476824333327e-05,-0.0007154705619385471,0.000126842575952274
149570000000.0,2,-0.30338833104999996,-0.22224810894999997,-0.03702010375,0.022107,0.065004,-0.021414,0.3674355622,-4.325713315,-8.793426922,0.041761,0.45682,-1.467,-0.00019999999999997797,0.00019999999999997797,-1.666666666655381e-05,0.0003403947572417354,-0.00038635768403350035,0.00023880531093528612
149570000000.0,2,-0.19773148394999998,-0.06781298475,-0.09882161204999998,0.008936,0.030994,-0.002163,0.3711620892,-4.3265959135,-8.792838522999999,0.042187,0.45692,-1.4671,-0.00019999999999997797,9.999999999998899e-05,-1.666666666655381e-05,-0.001287886553866635,-0.0007167323593000319,0.0006621188051444682
149570000000.0,2,-0.0422470482,-0.13240938829999999,-0.04408089175,-0.010383,0.027937,0.015955,0.3729468995,-4.3262036475,-8.7929365895,0.042389,0.45688,-1.467,-0.00019999999999997797,9.999999999998899e-05,-1.6666666666775853e-05,-0.00019307949904501243,0.00027149176114149576,0.0005883693527823641
149570000000.0,2,0.05246557749999999,-0.1984473694,0.03552949295,-0.032651,0.059,0.039344,0.37774235134999995,-4.3303224405,-8.790681059999999,0.042944,0.45735,-1.4667,-9.999999999998899e-05,9.999999999998899e-05,-1.6666666666775853e-05,0.00011222395495857906,-0.00037169405927417465,0.0011220531697549163
149570000000.0,2,0.09848818594999999,-0.1078535367,0.11417882594999999,-0.06348,0.089064,0.064855,0.38259664309999997,-4.325811381499999,-8.792740456499999,0.043485,0.45683,-1.466,-9.999999999998899e-05,4.999999999988347e-05,-1.666666666655381e-05,0.00010511601051038655,-0.0007891792028955624,0.0014324478159555565
149570000000.0,2,0.111599677,-0.15298373999999998,0.1327035878,-0.10214,0.082948,0.10429,0.38609761715,-4.317867995,-8.796466983499998,0.043865,0.45594,-1.4649,-9.999999999998899e-05,5.0000000000105516e-05,-3.333333333332966e-05,0.0007142693514189391,0.00042163690768215467,0.0015462241717605352
149570000000.0,2,0.06495924959999999,-0.20751852064999998,0.06794047119999999,-0.1143,0.053172,0.14275,0.38590148415,-4.3083555444999995,-8.801076109,0.043819,0.45486,-1.4634,-5.0000000000105516e-05,6.666666666665932e-05,-3.333333333332966e-05,0.000684450759353139,0.0005776717616439164,0.0010641486118191934
149570000000.0,2,-0.00960071035,-0.2782342738,0.061370015699999995,-0.085984,0.018792,0.18769,0.37995865424999997,-4.309238143,-8.800978042499999,0.043145,0.45495,-1.4614,-4.999999999988347e-05,6.666666666665932e-05,-3.333333333332966e-05,0.0011079068226020894,0.0010809542184617715,0.0018349732591871615
149570000000.0,2,-0.014719781649999998,-0.24149856289999996,-0.02680157445,0.00267,0.0617,0.23687,0.3743002172,-4.3079632785,-8.801860641,0.0425,0.45481,-1.4589,-9.999999999998899e-05,6.666666666665932e-05,9.999999999998899e-05,-6.299902602624474e-05,0.00042462529464626364,0.002749103442208911
149570000000.0,2,-0.17078280975,0.02427145875,0.02558554985,0.10992,0.1386,0.24759,0.3739864044,-4.3162008645,-8.797741848,0.042484,0.45574,-1.4561,-3.333333333332966e-05,9.999999999998899e-05,9.999999999998899e-05,-0.001328479836580465,-0.0008382792886922896,0.002685260342930873
149570000000.0,2,-0.19571131404999997,0.18780715415,0.18209968384999997,0.1714,0.20206,0.2177,0.38082163944999997,-4.3311069725,-8.790190727499999,0.043296,0.45744,-1.4537,-3.333333333332966e-05,9.999999999998899e-05,9.999999999998899e-05,-0.0010991893989601431,-0.002518290604182072,0.0032289234316648097
149570000000.0,2,0.02858638475,0.192602606,0.17642163349999998,0.15793,0.22778,0.17814,0.39413907014999994,-4.3438556175,-8.7833260725,0.044844,0.45889,-1.4518,-3.333333333332966e-05,0.00019999999999997797,9.999999999998899e-05,0.00040468399298632107,-0.0008321631628258608,0.0028081452212170843
149570000000.0,2,0.20698896155,0.11391404639999998,0.07257901665,0.10163,0.23468,0.13853,0.40802528655,-4.3546429325,-8.777344015999999,0.046453,0.46011,-1.4502,-9.999999999998899e-05,9.999999999998899e-05,4.999999999988347e-05,-0.0006398522061731859,-0.0022396798412438468,0.002286522763716131
149570000000.0,2,0.23937051985,0.0742167272,-0.04078585735,0.06038,0.24361,0.080808,0.4250202109999999,-4.361017254999999,-8.7733232895,0.048407,0.46084,-1.4491,-9.999999999998899e-05,0.00010000000000021103,5.0000000000105516e-05,-0.00011415092078553846,-0.0017133566185449922,0.002046611832190598
149570000000.0,2,0.22197352274999999,0.04872924385,-0.0528970701,0.039153,0.23636,0.046627,0.44361361939999994,-4.365136048,-8.7703812945,0.050538,0.46131,-1.4485,-9.999999999998899e-05,9.999999999998899e-05,9.999999999998899e-05,-1.6950308176499895e-05,-0.0008912396611282514,0.0017517779596470384
149570000000.0,2,0.17325408554999996,0.09176082405,-0.07071575315,0.029575,0.22049,0.015681,0.46898342294999995,-4.364351515999999,-8.7694006295,0.053429,0.46122,-1.4486,-0.00010000000000021103,0.00019999999999997797,9.999999999998899e-05,0.0004779153959636462,-0.0012216045309860757,0.001414876652030439
149570000000.0,2,0.11257053534999999,0.08134616174999999,-0.10671596529999999,0.008125,0.18128,-0.024849,0.48658635969999997,-4.3656263805,-8.7678315655,0.05544,0.46136,-1.4488,-0.0004999999999999449,0.0005999999999999339,0.0008000000000001339,0.009646155968762227,-0.0001738427223556549,0.004634040206675433
149570000000.0,2,0.0951441183,0.02170211645,-0.16747796869999998,-0.045222,0.15938,-0.060127,0.5032478580499999,-4.3628805185,-8.768321898,0.057332,0.46105,-1.4494,0.0004999999999999449,-0.00029999999999996696,-0.000700000000000145,-0.00837820482946744,-0.004553266023732627,-0.003556782716084367
149570000000.0,2,0.13691064065,-0.08774990419999999,-0.3378979324,-0.11679,0.1557,-0.048503,0.5196936100999999,-4.353956467,-8.771754225499999,0.059177,0.46004,-1.4499,-2.4999999999941735e-05,4.999999999988347e-05,4.999999999988347e-05,0.0010633091470195755,-0.0027770749494633318,0.0001927511910143065
149570000000.0,2,0.11296280134999999,-0.0793357985,-0.36083568675,-0.15196,0.19004,-0.00166,0.5400522154999999,-4.337677427999999,-8.7786188805,0.061442,0.45818,-1.4502,-2.500000000016378e-05,5.0000000000105516e-05,5.0000000000105516e-05,0.0017470592661251727,-0.001994053874595947,0.0005115764123065913
149570000000.0,2,-0.2260040559,-0.03325435015,-0.1627315501,-0.16341,0.24338,0.025978,0.5590967297999999,-4.3237519849999995,-8.784208671,0.063561,0.4566,-1.4498,-2.4999999999941735e-05,9.999999999998899e-05,5.0000000000105516e-05,0.0024048400937700665,-0.002441903124989153,0.0014196826437298526
149570000000.0,2,-0.25704210315,-0.19223975994999998,0.05071018715,-0.16309,0.27962,0.019511,0.5822110038499999,-4.3096304089999995,-8.789700394999999,0.066141,0.45499,-1.4495,-2.4999999999941735e-05,9.999999999998899e-05,4.999999999988347e-05,0.0020888329827016827,-0.002523700181018773,0.0014517749424141912
149570000000.0,2,-0.20073231885,-0.18484554585,0.16619329754999998,-0.16622,0.2754,-0.001835,0.60655110915,-4.2950185005,-8.795192119,0.068855,0.45334,-1.4493,-9.999999999998899e-05,9.999999999998899e-05,0.00010000000000021103,0.0016971113556235595,-0.0024381678103293503,0.0008186631234384789
149570000000.0,2,-0.14137266639999999,-0.17790243765,0.1736169316,-0.16646,0.24344,-0.002845,0.6248503180499999,-4.2875654464999995,-8.797545715,0.070906,0.4525,-1.449,-2.4999999999941735e-05,4.999999999988347e-05,1.1111111111183902e-05,0.001318423751585529,-0.002611414099054965,0.0009701959845941077
149570000000.0,2,-0.0843960299,-0.13128162354999998,0.15743595909999997,-0.18207,0.17747,0.026064,0.64134510335,-4.271972873,-8.8039200375,0.072719,0.45072,-1.4487,-2.500000000016378e-05,5.0000000000105516e-05,1.1111111110961858e-05,0.0018422685489525858,-0.0008830425200880843,0.0005425710108872828
149570000000.0,2,-0.09354563435,-0.023290793749999997,0.0923394164,-0.16338,0.1304,0.052864,0.6518480255,-4.2573609645,-8.810196293499999,0.073853,0.44908,-1.448,-2.4999999999941735e-05,5.0000000000105516e-05,1.1111111111183902e-05,0.0009365896363389692,-0.0008451238374023173,0.0012711939868220445
149570000000.0,2,0.00975761675,-0.0649984762,0.19350481779999998,-0.1393,0.085423,0.074334,0.6576339489999999,-4.245004585499999,-8.815786083999999,0.074459,0.44767,-1.4471,-2.4999999999941735e-05,4.999999999988347e-05,1.1111111111183902e-05,0.0014522247713123493,0.0004660779363758749,0.0010793077453178368
149570000000.0,2,0.16395738135000001,-0.09137836469999999,0.18970964425,-0.11239,-0.01603,0.078826,0.66129182945,-4.2399051275,-8.817943546999999,0.074854,0.4471,-1.4465,9.999999999998899e-05,9.999999999998899e-05,1.1111111110961858e-05,0.0016642135677680248,0.0014252031360904027,0.0009908359552835422
149570000000.0,2,0.28677586595,0.016661498349999998,0.11451225204999999,-0.1045,-0.090696,0.087511,0.6510046535999999,-4.2313733419999995,-8.822846872,0.073653,0.44613,-1.4455,9.999999999998899e-05,5.0000000000105516e-05,1.1111111111183902e-05,0.0011693328229612776,-0.00016109682698473016,0.0004188500151597885
149570000000.0,2,0.25449237415,0.03413694865,-0.0953598646,-0.11132,-0.13541,0.10145,0.63524536705,-4.2220570245,-8.8284366625,0.071831,0.44508,-1.4442,9.999999999998899e-05,4.999999999988347e-05,1.1111111111183902e-05,0.000791823223519672,0.001498706982123288,0.00020014296177936486
149570000000.0,2,0.055819451799999996,0.08684769239999998,-0.19165136095,-0.044268,-0.15302,0.10587,0.6175541704499999,-4.2169575665,-8.832065123,0.069808,0.44451,-1.443,0.00010000000000021103,9.999999999998899e-05,1.1111111110961858e-05,0.0009882961379086286,0.001600225699788238,0.0005514533841871616
149570000000.0,2,0.047071919999999996,0.0767664562,0.08405279715,0.030757,-0.11633,0.096329,0.6031089749999999,-4.2177420985,-8.832751588499999,0.068175,0.44459,-1.442,-2.500000000016378e-05,0.00019999999999997797,1.1111111111183902e-05,0.0006001097917726073,0.0018010690434717702,0.0007265149148241723
149570000000.0,2,-0.057849428349999996,0.023712479699999997,0.24572522905,0.074079,-0.051655,0.070672,0.5938514974,-4.2239202879999995,-8.8303979925,0.06715,0.44529,-1.4412,-2.4999999999941735e-05,0.00019999999999997797,9.999999999998899e-05,-0.0005902587050568009,0.001222070955811505,0.000899575776942968
149570000000.0,2,-0.19390689044999998,0.06530248235,0.19527982145,0.076787,-0.000494,0.037497,0.5908898891,-4.231177209,-8.827161798,0.066841,0.44611,-1.4408,-2.4999999999941735e-05,0.00020000000000020002,9.999999999998899e-05,-0.0009528685772948187,-0.00020000762424232654,0.0007990012594963902
149570000000.0,2,-0.2902572267,0.028125472199999998,0.11912137754999999,0.039851,0.035,0.012821,0.59252759965,-4.2355902015,-8.8249062685,0.067042,0.44661,-1.4406,-2.500000000016378e-05,9.999999999998899e-05,0.00019999999999997797,0.0001559398570082915,-0.0008634668188696182,0.00041990101470459895
