Time,placement_label,user_acc_x(m/s^2),user_acc_y(m/s^2),user_acc_z(m/s^2),rotation_rate_x(rad/s),rotation_rate_y(rad/s),rotation_rate_z(rad/s),gravity_x(m/s^2),gravity_y(m/s^2),gravity_z(m/s^2),attitude_roll(rad),attitude_pitch(rad),attitude_yaw(rad),target_delta_x,target_delta_y,target_delta_z,target_delta_roll,target_delta_pitch,target_delta_yaw
149570000000.0,2,-0.40982971014999997,-0.27254641679999997,0.08252295975,-0.21116,0.33289,0.006848,0.16307478285000002,-5.037676105,-8.4122424365,0.019383,0.53949,2.7095,0.0,0.0,0.0,0.0,0.0,0.0
149570000000.0,2,-0.36295392315,-0.2641126978,0.13593978229999998,-0.18279,0.27087,-0.003668,0.18743450145,-5.0214951325,-8.421362620999998,0.022253,0.53757,2.7096,0.00029999999999996696,9.999999999998899e-05,3.333333333332966e-05,0.001712535552670258,-0.0019960831983238947,0.0011808581178489042
149570000000.0,2,-0.26855511025,-0.26041559075,0.069038816,-0.12264,0.183,-0.011948,0.20541009089999998,-5.0095310195,-8.4281292095,0.024367,0.53615,2.7095,0.00029999999999996696,9.999999999998899e-05,3.333333333332966e-05,0.0010238492658876108,-0.0014821490327190379,0.0008778041994416119
149570000000.0,2,-0.1373911665,-0.21230416585,-0.006943108199999999,-0.036984,0.084259,-0.014826,0.2120589996,-5.0087464875,-8.428423408999999,0.025155,0.53605,2.7095,0.00019999999999997797,0.00019999999999997797,3.333333333332966e-05,2.6290018289465422e-05,-6.266920681752275e-05,0.00019624185836844554
149570000000.0,2,-0.08271909274999999,-0.14773718225,0.07397156095,0.050914,-0.000643,-0.018794,0.2145498887,-5.01119815,-8.426854344999999,0.025454,0.53634,2.7093,0.00029999999999996696,9.999999999998899e-05,3.333333333332966e-05,0.0011989607429764293,9.998148611689572e-05,7.717720622218982e-05
149570000000.0,2,-0.0653319023,-0.08773029090000001,0.1396074694,0.11549,-0.068301,-0.024967,0.211235241,-5.0197299355,-8.4218529535,0.025076,0.53736,2.709,0.00029999999999996696,9.999999999998899e-05,3.333333333332966e-05,-0.00015547148408801004,0.0009199834361313108,-6.282308439944928e-05
149570000000.0,2,-0.0489547968,-0.07077459305,0.17244994025,0.1461,-0.11224,-0.030173,0.20397832,-5.031399849,-8.415086364999999,0.024235,0.53875,2.7086,0.00019999999999997797,0.00019999999999997797,3.333333333332966e-05,-0.0017332713903314145,0.001266981350277252,-0.0008173364427088436
149570000000.0,2,-0.07116685905,-0.0998709236,0.16788004134999998,0.14385,-0.1282,-0.031216,0.19297525869999999,-5.0479730875,-8.4053777815,0.022955,0.54071,2.7084,0.00019999999999997797,0.00019999999999997797,9.999999999998899e-05,-0.0018059814937547713,0.0013575906710878716,-0.0007951481527294357
149570000000.0,2,-0.10464676214999999,-0.15615128795,0.1634964688,0.12043,-0.12268,-0.031266,0.18410024045,-5.0585642695,-8.3992976585,0.021915,0.54198,2.708,0.00020000000000020002,0.00019999999999997797,0.00019999999999997797,-0.001382330872816473,0.0019542851331979527,-0.0010791493376653694
149570000000.0,2,-0.15293470674999998,-0.20622404284999998,0.18182509764999996,0.097084,-0.10757,-0.033468,0.17627453375,-5.0671941215,-8.3941982005,0.020997,0.543,2.7076,0.00019999999999997797,0.00020000000000020002,0.00019999999999997797,-0.0011728568375133364,0.0010472975233073445,-0.0010419451214985498
149570000000.0,2,-0.1911316085,-0.22326800054999998,0.15474893699999998,0.083472,-0.076553,-0.035681,0.1709299095,-5.074549109,-8.389883274499999,0.02037,0.54388,2.7071,9.999999999998899e-05,9.999999999998899e-05,0.00019999999999997797,-0.0007371128845268249,0.0007186124164426655,-0.0009763527427170404
149570000000.0,2,-0.22495474434999999,-0.20430193945,0.18392372075,0.067794,-0.040194,-0.041107,0.16271193679999998,-5.086905487999999,-8.382528287,0.019408,0.54535,2.707,0.00019999999999997797,9.999999999998899e-05,9.999999999998899e-05,-0.000958436188070122,-8.986917369080416e-05,-0.000841519674897151
149570000000.0,2,-0.24766694574999998,-0.17274413974999997,0.22547449679999998,0.046708,-0.009126,-0.040128,0.15683775345,-5.09749667,-8.376252031,0.018722,0.54662,2.7069,0.00029999999999996696,9.999999999998899e-05,3.333333333332966e-05,-0.00033653413982936975,-0.0011052284464652118,-0.0005381064628051657
149570000000.0,2,-0.25484541354999996,-0.1424906245,0.21038206245,0.017039,0.015621,-0.04022,0.15309161315,-5.1046555245,-8.371937104999999,0.018284,0.54748,2.7069,0.00019999999999997797,-9.090909090847532e-06,3.333333333332966e-05,-3.386654663772859e-05,-0.0012431945382100906,-8.077946870227448e-05
149570000000.0,2,-0.22861262479999997,-0.14595237195,0.19088644224999998,-0.008419,0.036067,-0.036028,0.15185597525,-5.109460783,-8.36899511,0.018143,0.54805,2.7068,9.999999999998899e-05,-9.090909091069577e-06,3.333333333332966e-05,-0.00026500711315791126,-0.0009168055981987333,-0.00041323044119273566
149570000000.0,2,-0.18586543745,-0.14357916264999998,0.21605030614999998,-0.028687,0.036228,-0.034994,0.15234630775,-5.112598911,-8.3671318465,0.018206,0.54842,2.7066,0.00019999999999997797,-9.090909090847532e-06,-4.999999999988347e-05,-0.00018358531773643438,-0.0014956859806447564,-0.00010260690338209644
149570000000.0,2,-0.1498848386,-0.1531406464,0.25002054175,-0.04591,0.012929,-0.040319,0.1522776612,-5.1145602409999995,-8.3659550485,0.0182,0.54865,2.7064,9.999999999998899e-05,-9.090909090847532e-06,-5.0000000000105516e-05,0.0002933070602191279,-0.0011770955789214277,-0.00010924423672273309
149570000000.0,2,-0.10524496779999999,-0.1334488932,0.18286460255,-0.04066,-0.000965,-0.044554,0.15208152819999998,-5.1152467065,-8.365464716,0.018178,0.54874,2.7061,0.00019999999999997797,-9.090909090847532e-06,-3.333333333332966e-05,0.0003325106524663113,-7.922533793225384e-05,-0.00033571281445080037
149570000000.0,2,-0.06916630245,-0.11548311039999999,0.1373127133,-0.011839,-0.001202,-0.046638,0.15266012054999997,-5.1170119035,-8.364385984499998,0.018249,0.54895,2.7056,9.999999999998899e-05,-9.090909091069577e-06,-3.333333333332966e-05,0.0001417442803904878,-0.0002997049415527364,-0.0003227542410480233
149570000000.0,2,-0.13380193259999998,-0.07044116695,0.21646218544999998,0.009552,0.000756,-0.053008,0.15205210824999998,-5.1212287629999995,-8.3618362555,0.018182,0.54945,2.7052,9.999999999998899e-05,-9.090909090847532e-06,-3.333333333332966e-05,-0.000292073525705816,-0.0001152102406736244,-0.00040384480628749553
149570000000.0,2,-0.16227063754999999,-0.041756715699999995,0.22353278009999997,0.02021,-0.00253,-0.055116,0.1510420233,-5.1258378884999996,-8.358992327,0.018067,0.55,2.7048,0.00010000000000021103,-9.090909090847532e-06,-3.333333333332966e-05,-0.00012539190404559086,-2.5017260827375765e-05,-0.0005697065392885892
149570000000.0,2,-0.09442823285,-0.0452674964,0.18461018625,0.019077,-0.004665,-0.044439,0.15099299004999997,-5.130250881,-8.3563445315,0.018067,0.55053,2.7043,9.999999999998899e-05,-9.090909090847532e-06,-3.333333333332966e-05,-0.00043836892124726745,-0.00041155980122842273,-0.0005172062132960953
149570000000.0,2,-0.0811598354,-0.06390993805,0.2185117753,-0.000268,-0.014112,-0.03058,0.149845612,-5.1340754745,-8.353990935499999,0.017935,0.55099,2.7041,9.999999999998899e-05,-9.090909091069577e-06,-3.333333333332966e-05,4.9019301456176834e-05,0.0005848384998015099,-0.00017470712051767534
149570000000.0,2,-0.0838664708,-0.08697517885,0.23056414814999998,-0.024927,-0.027767,-0.027396,0.1473154963,-5.136429070499999,-8.3526180045,0.017635,0.55127,2.7039,9.999999999998899e-05,-9.090909090847532e-06,-9.999999999998899e-05,0.0007786799042535097,0.0002290731112915001,1.9770746506747594e-05
149570000000.0,2,-0.03379371589999999,-0.09136855805,0.21234339244999997,-0.045264,-0.03719,-0.028482,0.14512861335,-5.1366252034999995,-8.352519938,0.017373,0.5513,2.7036,0.00019999999999997797,-5.0000000000105516e-05,-9.999999999998899e-05,0.0006198856853844026,0.00031964386669813827,-0.0003632578010370202
149570000000.0,2,-0.012062179499999999,-0.06357651195,0.2086462854,-0.059265,-0.054125,-0.028477,0.1420983585,-5.134958072999999,-8.353598669499998,0.017009,0.5511,2.7033,9.999999999998899e-05,-4.999999999988347e-05,-9.999999999998899e-05,0.0005935120984169595,0.0004761615862332036,-0.0006631321407415125
149570000000.0,2,-0.0342055952,-0.0233006004,0.212608172,-0.053016,-0.072295,-0.026299,0.13700870715,-5.133094809499999,-8.354873534,0.016397,0.55087,2.703,9.999999999998899e-05,-4.999999999988347e-05,-9.999999999998899e-05,0.000659495634621643,0.0006579280101348672,-0.0006805876557894608
149570000000.0,2,-0.04690520694999999,-0.0014513841999999999,0.18033448684999998,-0.038262,-0.094796,-0.025166,0.12981062605,-5.1309373465,-8.356246465,0.015533,0.55062,2.7028,9.999999999998899e-05,-5.0000000000105516e-05,-9.999999999998899e-05,0.0009266665916304317,0.0011341173022596518,-0.000635620250764829
149570000000.0,2,-0.06349805874999999,0.0190445143,0.17346002519999998,-0.020282,-0.11413,-0.024033,0.12036682209999999,-5.130250881,-8.356834864,0.014402,0.55053,2.7026,9.999999999998899e-05,-5.0000000000105516e-05,-9.999999999998899e-05,0.00041411048349293544,0.0013355917689128471,-0.0008529904235947405
149570000000.0,2,-0.07824726035,0.027811659399999997,0.12935952015,-0.007543,-0.12489,-0.02826,0.1095206672,-5.1301528145,-8.357030997,0.013105,0.55052,2.7024,9.999999999998899e-05,-4.999999999988347e-05,-9.999999999998899e-05,-0.00040538299638370745,0.0009861337676004833,-0.001162979905457856
149570000000.0,2,-0.08863250269999999,0.0447575506,0.09010350019999999,3.3e-05,-0.11748,-0.037865,0.09925310464999999,-5.1301528145,-8.3571290635,0.011876,0.55053,2.7021,5.0000000000105516e-05,1.1111111111183902e-05,-9.999999999998899e-05,-0.0001314436702301025,0.001245625291105279,-0.0011012558864489652
149570000000.0,2,-0.1164833887,0.046022608449999995,0.0874164781,-0.001903,-0.10147,-0.051771,0.09029963319999999,-5.1301528145,-8.3573251965,0.010804,0.55051,2.7017,4.999999999988347e-05,1.1111111110961858e-05,-0.00019999999999997797,9.742186778594064e-05,0.0005929701252860298,-0.0009137713408008674
149570000000.0,2,-0.13192886245,0.04631680795,0.08375859764999999,-0.009148,-0.080089,-0.062493,0.08344478484999998,-5.1293682825,-8.357815529,0.009984,0.55042,2.7012,4.999999999988347e-05,1.1111111111183902e-05,-9.999999999998899e-05,0.00031097998539797445,0.0005177145210903955,-0.0009355203821264091
149570000000.0,2,-0.1122469159,0.06847983695,0.03286208415,0.001669,-0.058873,-0.05824,0.07887488594999999,-5.128485683999999,-8.358403928,0.009437,0.55032,2.7006,5.0000000000105516e-05,1.1111111111183902e-05,-9.999999999998899e-05,0.00016681808389928943,9.829104790082255e-07,-0.0007431537533189314
149570000000.0,2,-0.08627890669999999,0.09929233124999999,0.057869041649999994,0.008074,-0.048288,-0.042235,0.0751973922,-5.127995351499999,-8.3586981275,0.008996,0.55026,2.7002,5.0000000000105516e-05,1.1111111110961858e-05,-9.999999999998899e-05,-7.97938770914497e-05,-6.960369851416459e-05,-0.0007264193220845594
149570000000.0,2,-0.0821405004,0.10470560205,0.12857498814999999,0.004843,-0.044014,-0.029438,0.07136299204999999,-5.128191484499999,-8.3586981275,0.008538,0.55029,2.6999,4.999999999988347e-05,1.1111111111183902e-05,-0.00010000000000021103,-0.0002821075030761122,0.0001114328074243165,-0.0005807482593495339
149570000000.0,2,-0.039648285949999994,0.07618786385,0.10708861799999998,-0.004814,-0.048202,-0.025177,0.06792085789999999,-5.127603085499999,-8.358992327,0.008126,0.55022,2.6997,9.999999999998899e-05,1.1111111111183902e-05,-0.00019999999999997797,-0.0004994101242262738,-0.0008200623644896154,-0.0005810272778674352
149570000000.0,2,0.03401926885,0.026850607699999997,0.1071866845,-0.025192,-0.06295,-0.027322,0.0650377028,-5.1268185535,-8.359580725999999,0.00778,0.55012,2.6994,9.999999999998899e-05,1.1111111110961858e-05,-9.999999999998899e-05,-0.0002764148067747607,3.334506720542585e-05,-0.0006668587124349368
149570000000.0,2,0.0751385523,-0.0012160246,0.11183503659999998,-0.041288,-0.079856,-0.035861,0.06192899475,-5.124661090499999,-8.360953657,0.007406,0.54986,2.6989,9.999999999998899e-05,1.1111111111183902e-05,-0.00019999999999997797,-0.00021162222617587823,0.00016594889825283232,-0.0009767461628039098
149570000000.0,2,0.08354285135,-0.015053207749999999,0.08390569739999999,-0.052068,-0.097875,-0.042253,0.057859234999999995,-5.121424896,-8.362914987,0.006919,0.54947,2.6983,9.999999999998899e-05,2.4999999999941735e-05,-0.00019999999999997797,0.0008874425562253041,0.00029309710694302993,-0.0006437877100627654
149570000000.0,2,0.0951833449,-0.026360275199999998,0.0263995018,-0.046841,-0.1107,-0.041156,0.05280881025,-5.1178945019999995,-8.36507245,0.006313,0.54905,2.6977,9.999999999998899e-05,2.500000000016378e-05,-0.00019999999999997797,-2.0022654510398752e-05,0.00036835672535073805,-0.0012918652063481084
149570000000.0,2,0.0691368825,0.010149882749999999,-0.0052563644,-0.025557,-0.11621,-0.038975,0.04638545449999999,-5.114854440499999,-8.3669357135,0.005544,0.54869,2.6972,9.999999999998899e-05,2.4999999999941735e-05,-0.00019999999999997797,0.00021252046027464555,0.0016568296455201637,-0.0008503406844055372
149570000000.0,2,0.03745159635,0.057310062599999996,-0.03949137955,0.004396,-0.10154,-0.031477,0.0397561591,-5.113383443,-8.367916378499999,0.004751,0.54852,2.6967,0.00020000000000020002,2.4999999999941735e-05,-0.00019999999999997797,3.7386847553277924e-05,0.0008362153598708844,-0.0006471242963392299
149570000000.0,2,0.036098278649999996,0.09420267989999999,-0.0206920315,0.028064,-0.070846,-0.021884,0.03498032055,-5.1137757090000004,-8.3677202455,0.00418,0.54856,2.6964,9.999999999998899e-05,9.999999999998899e-05,-9.999999999998899e-05,-0.0005995833243797044,0.0007566297939658462,-0.0006030993834869047
149570000000.0,2,0.023163307299999998,0.10450946905,-0.0015396440499999998,0.031618,-0.019737,-0.011294,0.03339164325,-5.1152467065,-8.366837647,0.003991,0.54874,2.6962,0.00019999999999997797,9.999999999998899e-05,-0.00019999999999997797,-0.00028180822283530027,6.745512856798364e-05,-0.00020495063874231834
149570000000.0,2,-0.010071429549999998,0.09446745944999999,-0.012856518150000001,0.027646,0.026102,0.002495,0.034607667849999996,-5.116129305,-8.366249247999999,0.004137,0.54885,2.6962,9.999999999998899e-05,9.999999999998899e-05,-4.999999999988347e-05,-2.1955739136658714e-05,-5.002762176786746e-05,3.822612126969105e-05
149570000000.0,2,0.006894074949999999,0.04311984005,6.864654999999999e-05,0.002272,0.064658,0.017327,0.038893173899999994,-5.116325438,-8.3661511815,0.004649,0.54886,2.6963,0.00019999999999997797,9.999999999998899e-05,-5.0000000000105516e-05,0.0003569611853510013,-0.0005112337131165656,7.561143635043122e-05
149570000000.0,2,0.02589936265,-0.019603493349999997,-0.0152199208,-0.033901,0.084126,0.027903,0.0448752304,-5.1142660415,-8.3673279795,0.005363,0.54863,2.6966,0.00019999999999997797,9.999999999998899e-05,-0.00019999999999997797,0.0006854623081066213,-0.00023503965650140124,0.0005942201801519276
149570000000.0,2,0.057967108149999995,-0.06882306969999999,-0.06983315464999999,-0.061761,0.079012,0.043874,0.050818060299999995,-5.109853049,-8.369975775,0.006071,0.54809,2.697,0.00029999999999996696,0.00019999999999997797,-9.999999999998899e-05,0.0006629169135498048,-0.0006882240571701725,0.0006710296624459211
149570000000.0,2,0.0885736628,-0.0979488202,-0.11701294779999999,-0.063994,0.072629,0.053487,0.05612345795,-5.104949724,-8.373015836499999,0.006703,0.54751,2.6975,0.00019999999999997797,9.999999999998899e-05,-0.00020000000000020002,0.0006216106633025742,-0.00022610938053890806,0.00047194640072190097
149570000000.0,2,0.07182390459999999,-0.11234498239999999,-0.10280311194999998,-0.043807,0.063936,0.056738,0.06015399109999999,-5.101517396499999,-8.375075232999999,0.007182,0.54709,2.6981,0.00029999999999996696,0.00019999999999997797,-9.999999999998899e-05,0.00046368876049096563,-0.0004272723547982249,0.0010799378071007781
149570000000.0,2,0.0430904201,-0.07773731454999999,-0.06232126075,-0.011853,0.058343,0.058938,0.0629979196,-5.1003405985,-8.3757616985,0.007522,0.54695,2.6987,0.000300000000000189,0.00019999999999997797,-9.999999999998899e-05,-0.0003216635754339503,0.00037930692551357836,0.0010794713675082723
149570000000.0,2,0.042168594999999996,-0.0273801668,-0.0391873734,0.005164,0.055001,0.064309,0.0652730624,-5.1004386649999995,-8.375663631999998,0.007793,0.54696,2.6994,0.00019999999999997797,0.00019999999999997797,2.4999999999941735e-05,-0.0007600836091629093,2.0920803493584827e-05,0.0007601899445131288
149570000000.0,2,0.027105580599999998,-0.009914523149999998,-0.0017455836999999998,0.011528,0.054942,0.071792,0.06687154635,-5.101517396499999,-8.3749771665,0.007984,0.5471,2.7002,0.00019999999999997797,0.00019999999999997797,2.500000000016378e-05,8.433827110554404e-05,0.0011977732097299132,0.0011903660033122931
149570000000.0,2,-0.007178467799999999,-0.0116699135,-0.010424468949999998,0.013503,0.038935,0.078228,0.06643024709999999,-5.102792261,-8.3741926345,0.007933,0.54725,2.7011,0.00039999999999995595,0.00020000000000020002,2.4999999999941735e-05,-0.0010190720534992703,-0.0008094779976357547,0.00078112051139273
149570000000.0,2,-0.012925164699999998,-0.013337044000000001,-0.05416212795,0.020664,0.007961,0.090037,0.06304695284999999,-5.104165192,-8.3734081025,0.00753,0.54741,2.7021,0.00029999999999996696,9.999999999998899e-05,2.4999999999941735e-05,-0.00017604518002933833,-0.0011299575103773662,0.00027857168963990597
149570000000.0,2,-0.012042566199999999,-0.0371475902,-0.07044116695,0.052266,-0.034937,0.10298,0.0555840922,-5.1077936525,-8.3712506395,0.00664,0.54785,2.7033,0.00039999999999995595,0.00019999999999997797,-9.999999999998899e-05,0.0006940015097366414,0.0012838521490210475,0.0005067848816617815
149570000000.0,2,-0.03711817025,-0.04672868725,-0.08038511004999999,0.097758,-0.075818,0.11487,0.0434042329,-5.115148639999999,-8.366837647,0.005188,0.54873,2.7047,0.00029999999999996696,0.00029999999999996696,5.0000000000105516e-05,-0.001609455189897635,0.0012772439320409834,0.000560092579288074
149570000000.0,2,-0.06561629514999999,-0.03786347565,-0.06263507355,0.1371,-0.093192,0.1139,0.028507931549999997,-5.126132087999999,-8.360169125,0.00341,0.55004,2.7061,0.000300000000000189,0.00019999999999997797,4.999999999988347e-05,-0.0023204158967695676,0.0006222661955261888,0.00033243404973143376
149570000000.0,2,-0.1255447333,-0.03925601994999999,-0.06566532839999999,0.16067,-0.089114,0.1022,0.012866324799999999,-5.1393710655,-8.3520296055,0.001541,0.55163,2.7075,0.00029999999999996696,0.00029999999999996696,4.999999999988347e-05,-0.0010602180222696322,0.0014426998290630877,0.0007316971710664422
149570000000.0,2,-0.1922887932,-0.0588987399,-0.0696076017,0.16097,-0.063526,0.08294,-0.00134351105,-5.153590707999999,-8.343301686999999,-0.000161,0.55332,2.7088,0.00029999999999996696,0.00019999999999997797,5.0000000000105516e-05,-0.0016692332914006736,0.0008652487131806108,0.0005579804529290966
149570000000.0,2,-0.2294363834,-0.0906722859,-0.06828370395,0.15172,-0.032529,0.061525,-0.012523092049999998,-5.167123885,-8.334966034499999,-0.001502,0.55495,2.7098,0.00019999999999997797,0.00029999999999996696,0.00020000000000020002,-0.001559161656056851,0.0010575989327623603,0.0002136238950495306
149570000000.0,2,-0.2630731929,-0.12274003139999999,-0.06625372739999999,0.12764,0.011376,0.04006,-0.0197505931,-5.1794802639999995,-8.327218781,-0.002371,0.55644,2.7107,0.00019999999999997797,0.00029999999999996696,0.00019999999999997797,-0.00069287331507073,0.0008118616517882593,0.0002741598764574027
149570000000.0,2,-0.26688797975,-0.1527091538,-0.0415213561,0.099183,0.048912,0.030341,-0.022810267899999997,-5.1902675789999995,-8.320550259,-0.002742,0.55773,2.7113,9.999999999998899e-05,0.00020000000000020002,9.999999999998899e-05,-0.0005771038834215814,-0.0011739617365496002,0.0007588826546361671
149570000000.0,2,-0.24749042604999996,-0.1685174736,0.00608992965,0.066355,0.080079,0.0313,-0.022751427999999997,-5.198799364499999,-8.3151566015,-0.002736,0.55876,2.712,0.00019999999999997797,0.00019999999999997797,0.00019999999999997797,-0.0007362348934581986,-0.0004412868736012321,0.0007464729269864856
149570000000.0,2,-0.2516190257,-0.19875137555,0.05051405415,0.037611,0.097345,0.047233,-0.0216138566,-5.205565952999999,-8.310939742,-0.002601,0.55957,2.7128,9.999999999998899e-05,0.00019999999999997797,9.999999999998899e-05,-0.00032652378920960956,-0.0008501054036882394,0.0009701209984692427
149570000000.0,2,-0.25118753309999997,-0.24525450985,0.08082640929999999,0.006695,0.10717,0.058906,-0.02025073225,-5.210665411,-8.3077035475,-0.002438,0.56018,2.7137,9.999999999998899e-05,0.00019999999999997797,0.00019999999999997797,-0.00028094826283775465,-0.0002569942280188364,0.0009285875589106207
149570000000.0,2,-0.269682875,-0.26339681235,0.1089518815,-0.020989,0.11273,0.057783,-0.018818961349999996,-5.213803539,-8.305840284,-0.002266,0.56056,2.7147,4.999999999988347e-05,9.999999999998899e-05,9.999999999998899e-05,0.00042266295932125164,-0.0002479099941388174,0.001027082958565545
149570000000.0,2,-0.26520123595,-0.25664983715,0.08890708889999999,-0.050656,0.1279,0.041697,-0.01552392695,-5.213803539,-8.305840284,-0.001869,0.56056,2.7156,5.0000000000105516e-05,0.00019999999999997797,9.999999999998899e-05,0.0007745919963653147,-0.00012094830319497873,0.0012777139501220502
149570000000.0,2,-0.30872314865,-0.2147852483,0.10435256265,-0.062216,0.13334,0.016052,-0.0110619012,-5.212528674499999,-8.306624816,-0.001331,0.56041,2.7162,-9.999999999998899e-05,4.999999999988347e-05,0.00019999999999997797,0.0007384694486245458,-0.0006524136654231238,0.0008354965474760001
149570000000.0,2,-0.3656115253,-0.15884811669999999,0.10154786075,-0.053541,0.13436,-0.009548,-0.00608992965,-5.210567344499999,-8.307801614,-0.000733,0.56017,2.7165,-4.999999999988347e-05,5.0000000000105516e-05,9.999999999998899e-05,0.00027390731571141913,-0.001342655711946028,0.0004211997102172571
149570000000.0,2,-0.3531963064,-0.1000082167,0.09368292745,-0.023531,0.13839,-0.029779,0.00050013915,-5.210077011999999,-8.30819388,6e-05,0.5601,2.7166,-5.0000000000105516e-05,9.999999999998899e-05,0.00019999999999997797,0.00048174582367033203,-0.001423911813169365,0.00044936128069519854
149570000000.0,2,-0.3448410406,-0.040403398,0.13904849035,0.010853,0.1551,-0.044706,0.009208444349999999,-5.211842209,-8.307017082,0.001108,0.56033,2.7165,-0.00019999999999997797,9.999999999998899e-05,0.00019999999999997797,-0.00027803961828931634,-0.0022913185456980845,0.00015595608396495875
149570000000.0,2,-0.3571778063,0.011944499699999998,0.14679574385,0.047335,0.17399,-0.055346,0.019887886199999996,-5.2161571350000004,-8.304271219999999,0.002395,0.56085,2.7163,-0.00019999999999997797,9.999999999998899e-05,0.00019999999999997797,-0.0007674803121511253,-0.002176181037302216,0.0002680900314737389
149570000000.0,2,-0.32589459279999994,0.034087915399999995,0.18655190295000001,0.05908,0.17283,-0.058522,0.03186180585,-5.2221391915,-8.300544692999999,0.003838,0.56157,2.716,-0.00019999999999997797,9.999999999998899e-05,9.999999999998899e-05,1.0299076905195825e-05,-0.001654754308622275,0.0006553627714439569
149570000000.0,2,-0.19989875359999998,0.0136900834,0.20364489389999998,0.048211,0.15159,-0.052096,0.04458103089999999,-5.227925115,-8.296818166,0.005373,0.56226,2.7155,-0.00029999999999996696,9.999999999998899e-05,0.00020000000000020002,-0.0001113712526122912,-0.0012189966861577695,0.0004963654605348589
149570000000.0,2,-0.0757269513,-0.04102121695,0.14242197794999997,0.039338,0.11649,-0.040308,0.056270557699999994,-5.2331226395,-8.293483905,0.006785,0.56288,2.7151,-0.00019999999999997797,9.999999999998899e-05,9.999999999998899e-05,-0.00015849345761209666,-0.0008205200022197712,0.00032951669733380373
149570000000.0,2,-0.0023339827,-0.0895739411,0.15600418819999998,0.031398,0.064326,-0.028489,0.0645865969,-5.238320163999999,-8.290149644,0.007791,0.56351,2.7147,-0.00019999999999997797,9.999999999998899e-05,9.999999999998899e-05,0.00033111676081998276,0.0005368539379473347,0.0004354329073777419
149570000000.0,2,0.08621026015,-0.1058333668,0.19018036345,0.027667,-0.00171,-0.027314,0.0689603628,-5.2436157549999995,-8.286815382999999,0.008321,0.56415,2.7143,-0.00019999999999997797,4.999999999988347e-05,9.999999999998899e-05,-0.00028062655444038853,0.0004572290336128937,-0.00025828803581931514
149570000000.0,2,0.12987927259999998,-0.08160113465,0.16407506114999998,0.033632,-0.061423,-0.034672,0.0691368825,-5.248617146499999,-8.2835791885,0.008347,0.56476,2.7137,-0.00010000000000021103,5.0000000000105516e-05,9.999999999998899e-05,-0.00032832696309748055,0.0005638389394162502,-0.0005470144748222494
149570000000.0,2,0.16015240114999998,-0.0399915187,0.0793554118,0.046178,-0.097748,-0.040994,0.0665479269,-5.253422404999999,-8.280539126999999,0.008036,0.56534,2.7131,-0.00019999999999997797,5.0000000000105516e-05,9.999999999998899e-05,-0.0007522725010172815,0.0006567865575195508,-0.0009785072554505114
149570000000.0,2,0.13844047804999998,0.026311241949999998,0.1016753472,0.056912,-0.095695,-0.050585,0.06086987654999999,-5.257933464,-8.2776951985,0.007354,0.56588,2.7125,-9.999999999998899e-05,4.999999999988347e-05,9.999999999998899e-05,-0.0014562347648960916,0.0008097545235401515,-0.0012782148661386328
149570000000.0,2,0.07133357209999999,0.08379782425,0.1049703816,0.060426,-0.060552,-0.057045,0.0579573015,-5.262934855499999,-8.2745570705,0.007004,0.56648,2.7118,-0.00019999999999997797,3.333333333332966e-05,9.999999999998899e-05,-0.0007721748978312126,0.000304820443908671,-0.0008368398863116411
149570000000.0,2,0.03437230825,0.09862547904999999,0.11831723224999999,0.047904,-0.019965,-0.0486,0.058251501,-5.267053648499999,-8.271909275,0.007042,0.56699,2.7112,-9.999999999998899e-05,3.333333333355171e-05,3.333333333332966e-05,-0.0004393979358647826,-0.0004938258851523436,-0.0006257144484324018
149570000000.0,2,-0.0011964113,0.0996747906,0.15691620665,0.0289,0.016403,-0.030551,0.0608992965,-5.269701443999999,-8.2702421445,0.007364,0.5673,2.7108,-9.999999999998899e-05,3.333333333332966e-05,3.333333333332966e-05,-0.0006915620001086697,-0.0009957943780236622,-0.00034048872385772366
149570000000.0,2,-0.01793636285,0.0736283282,0.14702129679999998,0.011943,0.03997,-0.015678,0.06477292324999999,-5.271270508,-8.269163413,0.007833,0.5675,2.7106,-0.00019999999999997797,3.333333333332966e-05,3.333333333332966e-05,-0.00044990899800168016,-0.0009138775153509915,-0.00015790644658775221
149570000000.0,2,0.0115914603,0.03401926885,0.12771200295,-0.000851,0.046461,-0.007172,0.0689211362,-5.271466641,-8.2690653465,0.008334,0.56752,2.7105,-9.999999999998899e-05,3.333333333332966e-05,5.0000000000105516e-05,7.554238041362904e-05,-0.0007119434966442739,7.593128257302184e-05
149570000000.0,2,0.033528936349999997,0.07232404375,0.10156747405,-0.008269,0.050787,-0.010395,0.0736087149,-5.270878241999999,-8.269359545999999,0.008902,0.56745,2.7104,-9.999999999998899e-05,3.333333333332966e-05,4.999999999988347e-05,-0.0001306541487607893,-0.0005055888774196937,0.00018925835224287146
149570000000.0,2,0.04833697785,0.09246690284999999,0.057663101999999994,-0.007186,0.052911,-0.010398,0.0796103847,-5.269505311,-8.2702421445,0.009625,0.56728,2.7102,-0.00019999999999997797,9.999999999998899e-05,-1.1111111111183902e-05,0.0004205664762023664,-0.0003049892626685313,0.0002828760899385996
149570000000.0,2,0.05239693095,0.10060642235,0.06400800455,-0.008355,0.042262,-0.007179,0.08497462225,-5.2678381805,-8.2712228095,0.010273,0.56708,2.71,-9.999999999998899e-05,4.999999999988347e-05,-1.1111111110961858e-05,-0.000733683741154123,-0.0007182576197386492,-0.00021334421872762355
149570000000.0,2,0.0506807672,0.08145403489999999,0.07275553635,-0.011713,0.027365,0.000312,0.08877960245,-5.266563315999999,-8.2720073415,0.010732,0.56692,2.7099,-9.999999999998899e-05,5.0000000000105516e-05,-1.1111111111183902e-05,-7.639460649200291e-05,-0.00043536939112276407,9.21840513966321e-05
149570000000.0,2,0.07571714465,0.05322068955,0.0579573015,-0.007672,0.001754,0.004633,0.09082919229999999,-5.265582650999999,-8.2725957405,0.010979,0.5668,2.7098,-9.999999999998899e-05,5.0000000000105516e-05,-1.1111111111183902e-05,-5.816419798632122e-05,-0.0004183447177958932,8.926643670034706e-05
149570000000.0,2,0.11180561665,0.0417371024,0.04961184235,0.012421,-0.018659,0.007904,0.09140778464999999,-5.26617105,-8.2722034745,0.011049,0.56688,2.7098,-9.999999999998899e-05,4.999999999988347e-05,-1.1111111110961858e-05,-0.00024090588700764748,-0.0002585036369282534,-0.0002335220709857866
149570000000.0,2,0.1143651523,0.04006016525,0.044845810449999995,0.028415,-0.019854,0.007933,0.09138817134999999,-5.2678381805,-8.271124743,0.011048,0.56707,2.7097,-9.999999999998899e-05,9.999999999998899e-05,-1.1111111111183902e-05,-6.456641665142371e-05,5.437972575506045e-05,7.956122224642148e-05
149570000000.0,2,0.08381743755,0.06165440855,0.05427000109999999,0.065841,-0.012696,0.002647,0.09171179079999998,-5.27205504,-8.2684769475,0.011091,0.56759,2.7097,-9.999999999998899e-05,9.999999999998899e-05,-1.1111111111183902e-05,-0.0005257988682341175,7.579481352726347e-05,-0.00018545748004170082
149570000000.0,2,0.04682675374999999,0.07714891555,0.11627744904999998,0.05733,-0.022194,-0.017632,0.09174121075,-5.277840963499999,-8.2647504205,0.0111,0.56828,2.7095,-5.0000000000105516e-05,9.999999999998899e-05,-1.1111111110961858e-05,-0.00041897235992494064,1.4596129372712596e-05,-2.8534168169391805e-05
149570000000.0,2,0.06506712275,-0.022869107799999996,0.47412210755,0.010292,-0.04204,-0.029422,0.09130971815,-5.284019152999999,-8.2608277605,0.011052,0.56904,2.7091,-5.0000000000105516e-05,1.4285714285744433e-05,-1.1111111111183902e-05,-0.00011005767500005259,0.00012504936576296366,-0.0005187567221585365
149570000000.0,2,0.12343630354999999,-0.0341663686,0.21377516334999996,-0.02169,-0.036451,-0.02522,0.09188831049999999,-5.2851959509999995,-8.260141295,0.011124,0.56917,2.7086,-9.999999999998899e-05,1.4285714285744433e-05,-9.999999999998899e-05,0.00023996536365755716,4.031458104925001e-05,-0.0006124596228992696
149570000000.0,2,0.11961171004999999,-0.08544534145,0.2611510895,-0.062197,-0.021216,-0.007173,0.092574776,-5.2843133525,-8.2606316275,0.011206,0.56907,2.7083,-3.333333333332966e-05,1.4285714285744433e-05,-9.999999999998899e-05,0.0005431103973643214,0.0002323598282991668,-0.00043938038346508224
149570000000.0,2,0.08007129724999999,-0.11310990110000001,0.22385639954999997,-0.089706,0.018421,0.010853,0.09439881289999999,-5.2805868254999995,-8.2629852235,0.011424,0.56862,2.7083,-3.333333333332966e-05,1.4285714285522388e-05,-9.999999999998899e-05,0.0008499902552502325,-0.00023471245020090237,0.0001219666399749908
149570000000.0,2,0.014945334599999999,-0.0532108829,-0.02549729,-0.079861,0.062008,0.032141,0.09758597414999999,-5.274016369999999,-8.2671040165,0.011804,0.56783,2.7086,-3.333333333332966e-05,1.4285714285744433e-05,-9.999999999998899e-05,0.0009036046432536748,-0.000115063056760345,0.0003707314123180261
149570000000.0,2,-0.0392266,-0.0447967772,-0.07602115079999999,-0.048756,0.090509,0.044954,0.1017734137,-5.269407244499999,-8.2700460115,0.012306,0.56727,2.7091,-3.333333333332966e-05,1.4285714285744433e-05,1.999999999990898e-05,0.00030276704594600634,-0.00010023352475996283,0.0006433195142771242
149570000000.0,2,-0.10215587304999998,-0.0017946169499999999,-0.03788308895,-0.022046,0.09455,0.043927,0.10545090744999999,-5.266759448999999,-8.2716150755,0.012748,0.56695,2.7098,-3.333333333332966e-05,1.4285714285744433e-05,2.0000000000131024e-05,0.0005557810787893969,-0.00012508698288815623,0.0008126863231597281
149570000000.0,2,-0.11000119304999999,-0.00542307745,-0.08007129724999999,0.002475,0.083705,0.030114,0.1089518815,-5.265974916999999,-8.272105408,0.013171,0.56686,2.7103,-3.333333333332966e-05,4.999999999988347e-05,1.999999999990898e-05,-0.0002531596268572356,-0.0009651760024249612,0.0005815719637164707
149570000000.0,2,-0.08035569009999999,-0.0366572577,-0.09535005795,0.013139,0.069785,0.00881,0.112972608,-5.2666613825,-8.2716150755,0.013657,0.56693,2.7106,-4.999999999988347e-05,5.0000000000105516e-05,2.0000000000131024e-05,0.00011813827187789894,-0.0001497377100698749,0.00036255141502192223
149570000000.0,2,-0.07567791805,-0.08290541909999999,-0.0528382302,0.011979,0.045306,-0.011428,0.11622841579999998,-5.2684265795,-8.2704382775,0.014052,0.56715,2.7106,-5.0000000000105516e-05,-9.090909090847532e-06,1.999999999990898e-05,0.00010394517087264354,2.241898695354294e-05,0.0002026019837328974
149570000000.0,2,-0.054338647649999995,-0.13059515805,-0.0335583563,-0.003095,0.016677,-0.029549,0.11868988494999999,-5.2697995104999995,-8.269555679,0.014351,0.56732,2.7103,-9.999999999998899e-05,-9.090909091069577e-06,4.999999999988347e-05,7.46633299704147e-05,-0.00023293021887971221,-1.9198478376392103e-05
149570000000.0,2,-0.01344491715,-0.16943929870000002,-0.01772061655,-0.007495,-0.003528,-0.034858,0.12043546865,-5.271270508,-8.268575014,0.014564,0.56749,2.7099,-9.999999999998899e-05,-9.090909090847532e-06,5.0000000000105516e-05,8.7971279755239e-05,0.00023033128324434493,-0.00026062466461340694
149570000000.0,2,0.00640374245,-0.15960322875,-0.010551955399999998,0.008346,-0.024969,-0.035861,0.12078850804999999,-5.273624104,-8.2671040165,0.01461,0.56777,2.7095,-9.999999999998899e-05,-9.090909090847532e-06,5.0000000000105516e-05,-0.00022096124027015662,0.00017718870996330516,-0.00043067564566731664
149570000000.0,2,-0.00561921045,-0.12658423819999998,0.04978836204999999,0.015727,-0.03356,-0.031564,0.11979803639999999,-5.276369965999999,-8.265338819499998,0.014493,0.56811,2.7091,-9.999999999998899e-05,-9.090909090847532e-06,4.999999999988347e-05,-0.00038321544173558486,0.00013525813589132518,-0.00047575865497476166
149570000000.0,2,-0.028135278849999997,-0.0824739265,0.0635667053,0.032814,-0.030506,-0.029404,0.11821916575,-5.280390692499999,-8.2627890905,0.014306,0.5686,2.7088,-9.999999999998899e-05,-9.090909091069577e-06,4.999999999988347e-05,-0.00030013440185427953,0.00010432622293832239,-0.0003442176360734239
149570000000.0,2,-0.029949509099999997,-0.052014471599999994,0.07865913965,0.041388,-0.025251,-0.028331,0.11704236774999999,-5.2850978845,-8.2598470955,0.014169,0.56917,2.7085,-9.999999999998899e-05,-9.090909090847532e-06,5.0000000000105516e-05,-0.0005437170624271737,0.0003513304787035043,-0.0003328541198807655
149570000000.0,2,-0.06573397495,-0.04093295709999999,0.08513152865,0.040404,-0.01778,-0.032615,0.1158557631,-5.2898050764999995,-8.256807034,0.014031,0.56973,2.7082,-9.999999999998899e-05,-9.090909090847532e-06,9.999999999998899e-05,0.0001879010920227131,0.0017180028772256772,-3.863635190054504e-05
149570000000.0,2,-0.07120608565,-0.036549384549999994,0.056133264599999996,0.035098,-0.017732,-0.03796,0.11505161779999999,-5.2937277365,-8.254355371499999,0.013937,0.57021,2.7078,-0.00019999999999997797,-9.090909090847532e-06,4.999999999988347e-05,-0.0005802489999557903,-8.725716149426965e-05,-0.0003903041148517472
149570000000.0,2,-0.055427185799999994,-0.03786347565,0.0340486888,0.027644,-0.018733,-0.04224,0.11483587149999999,-5.2968658645,-8.252295975,0.013915,0.57059,2.7074,-9.999999999998899e-05,-9.090909091069577e-06,5.0000000000105516e-05,-0.0004295369566256202,0.00022583035416290365,-0.0002942908215936013
149570000000.0,2,-0.04672868725,-0.0233202137,0.02409493905,0.034977,-0.033716,-0.038999,0.1136198469,-5.3000039925,-8.2502365785,0.01377,0.57098,2.707,-9.999999999998899e-05,-9.090909090847532e-06,5.0000000000105516e-05,-0.00017180250665327357,0.0006287270176015269,-0.0004939804599400077
149570000000.0,2,-0.034284048399999996,0.02807643895,0.03962867265,0.042316,-0.046569,-0.033626,0.11119760434999999,-5.303436319999999,-8.248177182,0.01348,0.57138,2.7066,-9.999999999998899e-05,-4.999999999988347e-05,4.999999999988347e-05,-0.00037500824563951873,2.8762577657381883e-06,-0.0005947738390969237
149570000000.0,2,-0.0334995164,0.06238990729999999,0.07326548214999999,0.059339,-0.049911,-0.02932,0.10802024975,-5.307947378999999,-8.245235186999999,0.0131,0.57193,2.7063,-9.999999999998899e-05,-5.0000000000105516e-05,2.4999999999941735e-05,-0.0007120699586764534,-0.00045674475614343457,-0.0006650738238956067
149570000000.0,2,-0.0092574776,0.09972382384999999,0.09069189919999998,0.047642,-0.040233,-0.021886,0.10548032739999999,-5.311575839499999,-8.2429796575,0.012796,0.57238,2.706,-0.00019999999999997797,-3.333333333332966e-05,2.4999999999941735e-05,-0.0005334195536925712,-0.0002090350795596052,-0.00047666623683692566
149570000000.0,2,-0.02999854235,0.10182244694999999,0.09439881289999999,0.029654,-0.018777,-0.017684,0.10392107005,-5.314027502,-8.2414105935,0.012609,0.57267,2.7058,-0.00010000000000021103,-3.333333333332966e-05,2.500000000016378e-05,-0.0004954709675882851,-0.00014228141687544493,-0.0002477026403792659
149570000000.0,2,-0.08126770854999998,0.0781982271,0.09427132645,0.008424,-0.005815,-0.01881,0.10266581884999998,-5.314910100499999,-8.2408221945,0.012457,0.57278,2.7057,-9.999999999998899e-05,-3.333333333332966e-05,2.4999999999941735e-05,-0.0003162582007618653,-0.0003492830596409924,-0.00037223552734799714
149570000000.0,2,-0.05880067339999999,0.0605658704,0.09671318229999999,-0.001181,-0.006802,-0.019892,0.10219509965,-5.315106233499999,-8.240724127999998,0.012401,0.5728,2.7055,-9.999999999998899e-05,-3.333333333332966e-05,-9.999999999998899e-05,0.0004895811746749024,-0.0008384947746744587,4.785747547225716e-05
149570000000.0,2,-0.026203368799999998,0.04489484369999999,0.10811831625,-0.001298,-0.022783,-0.021998,0.10132230779999998,-5.315302366499999,-8.240626061499999,0.012295,0.57282,2.7053,-0.00019999999999997797,-3.333333333332966e-05,-1.6666666666775853e-05,-0.000259416171128124,-0.0005640183353068373,-0.00027670497892148815
149570000000.0,2,0.009051537949999999,0.0496020357,0.10547052075,0.008111,-0.048433,-0.024072,0.09928252459999999,-5.3159888319999995,-8.2402337955,0.012048,0.57291,2.705,-9.999999999998899e-05,-3.333333333332966e-05,-1.666666666655381e-05,-0.0002649753152127454,-0.0005451255202488792,-0.00037669831854195146
149570000000.0,2,0.0418743955,0.07326548214999999,0.11990590955,0.027126,-0.07416,-0.027196,0.0957913572,-5.317754029,-8.239056997499999,0.011626,0.57313,2.7046,-9.999999999998899e-05,-1.999999999990898e-05,-1.666666666655381e-05,-0.00015572865079227505,0.0007815873588692401,-0.0006474728129397256
149570000000.0,2,0.046777720499999995,0.09709564165,0.1586519837,0.03656,-0.099803,-0.034607,0.09059383269999999,-5.3205979574999995,-8.2372918005,0.010997,0.57347,2.7042,-0.00019999999999997797,-2.0000000000131024e-05,-1.6666666666775853e-05,-0.0005217685261224014,0.000533906100091297,-0.0010995618631927107
149570000000.0,2,0.04086431055,0.12933990685,0.17027286395,0.042707,-0.13501,-0.039872,0.08288580579999999,-5.323834152,-8.2353304705,0.010064,0.57386,2.7037,-0.00019999999999997797,-1.999999999990898e-05,-1.6666666666775853e-05,3.2902959822278532e-06,0.001791514835950192,-0.0008570870529563679
149570000000.0,2,0.09389867375,0.13765594605,0.1449815136,0.051014,-0.16279,-0.038742,0.07369697474999999,-5.3272664794999995,-8.2331730075,0.008951,0.57427,2.7031,-9.999999999998899e-05,-2.0000000000131024e-05,-1.666666666655381e-05,-1.0111595975526022e-05,0.0014298382560882228,-0.0012910167291919905
149570000000.0,2,0.1395094029,0.11641474214999999,0.13202692894999998,0.056164,-0.17989,-0.029098,0.06310579275,-5.331483339,-8.230525212,0.007667,0.57479,2.7026,-9.999999999998899e-05,-1.999999999990898e-05,-5.0000000000105516e-05,-0.0007641349010131249,0.0005641986509583585,-0.0013929029192043807
149570000000.0,2,0.16793888125,0.1139336597,0.15474893699999998,0.056085,-0.18309,-0.018421,0.0518771785,-5.335994398,-8.227681283499999,0.006305,0.57534,2.7021,-9.999999999998899e-05,-1.4285714285744433e-05,-4.999999999988347e-05,-0.0007060003672177961,0.002025124084027885,-0.0011665421298567846
149570000000.0,2,0.1925241528,0.10854000219999999,0.13651837465,0.044562,-0.15103,-0.00996,0.04255105435,-5.339720925,-8.2253276875,0.005174,0.57579,2.7018,-5.0000000000105516e-05,-1.4285714285744433e-05,-9.999999999998899e-05,-0.0006770155127996391,0.0015412363218485492,-0.0010208972782370929
149570000000.0,2,0.16100557969999998,0.09636994955,0.1165618419,0.023655,-0.094386,-0.005829,0.036519964599999996,-5.341878388,-8.2239547565,0.00444,0.57606,2.7015,-4.999999999988347e-05,-1.4285714285744433e-05,-9.999999999998899e-05,7.264735439616032e-05,0.0013490267481299778,-0.0005468061436554594
149570000000.0,2,0.1070493914,0.08131674180000001,0.13237996835,-0.02172,-0.030076,-0.003887,0.03480380085,-5.341093856,-8.224445089,0.004232,0.57596,2.7013,-4.999999999988347e-05,-1.4285714285522388e-05,-9.999999999998899e-05,0.00031588724253883704,0.0006036459384288761,-0.00021583000769517802
149570000000.0,2,0.061154269399999996,0.0512103263,0.12979101275,-0.055495,0.020279,0.003436,0.0365591912,-5.337857661499999,-8.2265044855,0.004444,0.57557,2.7013,-5.0000000000105516e-05,-1.4285714285744433e-05,-9.999999999998899e-05,0.00010509644362610704,0.00024662763069027704,-0.00010318814745807758
149570000000.0,2,0.03127340685,0.04151154945,0.106892485,-0.086255,0.048229,0.011872,0.0401091985,-5.331679472,-8.230525212,0.004873,0.57481,2.7014,-1.4285714285744433e-05,-1.4285714285744433e-05,-9.999999999998899e-05,0.00037078846963167766,4.72499934176529e-05,0.0001121166883648883
149570000000.0,2,0.008953471449999998,0.0309694007,0.046660040699999995,-0.089394,0.059971,0.018251,0.044022051849999994,-5.3241283515,-8.235428536999999,0.005345,0.5739,2.7016,-1.4285714285744433e-05,-1.4285714285744433e-05,-0.00019999999999997797,0.0008567596647071074,5.410231774982677e-05,0.00032670118330033193
149570000000.0,2,-0.0024810824500000003,0.02368305975,-0.00226533615,-0.075517,0.060922,0.018273,0.04812123155,-5.317067563499999,-8.239939596,0.00584,0.57305,2.7018,-1.4285714285744433e-05,5.0000000000105516e-05,-9.999999999998899e-05,0.0007465990170265613,-0.00010874678436145757,0.00029560590480406934
149570000000.0,2,-0.03904027365,0.06515538259999999,-0.01318994425,-0.04354,0.053205,0.011938,0.05130839279999999,-5.311771972499999,-8.2433719235,0.006225,0.5724,2.702,-1.4285714285522388e-05,4.999999999988347e-05,-9.999999999998899e-05,0.0005615832448158109,-0.0005645973268062487,0.0003920399365180127
149570000000.0,2,-0.07026464725,0.12626061875,-0.07950251154999999,-0.001867,0.058195,0.006665,0.05439748755,-5.3085357779999995,-8.24543132,0.006598,0.572,2.7022,-1.4285714285744433e-05,4.999999999988347e-05,-0.00020000000000020002,6.400397435990524e-05,-0.0006181221235297407,0.000352136628164218
149570000000.0,2,-0.14272598409999998,0.1760293675,-0.05854570049999999,0.034432,0.056835,-0.000739,0.056692243649999995,-5.3080454455,-8.245725519499999,0.006875,0.57194,2.7023,-1.4285714285744433e-05,5.0000000000105516e-05,-9.999999999998899e-05,-0.00016394093289606726,-0.0009213914864194539,0.00034463359279920946
149570000000.0,2,-0.20449807244999998,0.1805208132,-0.03849110124999999,0.071724,0.046941,-0.007059,0.0577023286,-5.3105951744999995,-8.244058389,0.007,0.57225,2.7025,-1.4285714285744433e-05,9.999999999998899e-05,-9.999999999998899e-05,-0.000325374324346428,-0.0009880453396313715,0.00039740817101291404
149570000000.0,2,-0.17350905845,0.15179713535,-0.06772472489999999,0.090849,0.036127,-0.009139,0.05843782734999999,-5.315498499499999,-8.240920261,0.007091,0.57285,2.7026,-4.999999999988347e-05,9.999999999998899e-05,-4.999999999988347e-05,-0.0011212745725939222,-0.0010730088376993407,-3.8842925965593134e-05
149570000000.0,2,-0.1439812353,0.09619342985,-0.0101400761,0.10993,0.021048,-0.00801,0.05854570049999999,-5.3231476865,-8.235918869499999,0.007108,0.57378,2.7026,-5.0000000000105516e-05,0.00019999999999997797,-5.0000000000105516e-05,-0.0012135615554017543,-0.0009349857864247024,5.0701739441105786e-05
149570000000.0,2,-0.1646536535,0.06979392805,0.05916351945,0.10866,-0.008774,-0.01543,0.056466690699999995,-5.3319736715,-8.2302310125,0.00686,0.57485,2.7026,-9.999999999998899e-05,9.999999999998899e-05,-9.999999999998899e-05,-0.0014073865014136988,-0.001159349732617443,-4.396353049998525e-05
149570000000.0,2,-0.1376657527,0.05051405415,0.08985833395,0.096676,-0.050218,-0.032454,0.052220411249999994,-5.340505456999999,-8.2247392885,0.006349,0.57589,2.7025,-9.999999999998899e-05,9.999999999998899e-05,-4.999999999988347e-05,-0.001016447305883017,0.00017093019260583375,-0.0003383826745300411
149570000000.0,2,-0.04202149524999999,-0.00914960445,0.06604778774999999,0.072965,-0.094754,-0.055899,0.04725824635,-5.347762378,-8.220130162999999,0.00575,0.57677,2.7019,-0.00020000000000020002,0.00019999999999997797,-5.0000000000105516e-05,-0.0007634247504288982,0.0010095215517345046,-0.0007721160069427135
149570000000.0,2,0.036196345149999996,-0.0014513841999999999,0.06775414485,0.047094,-0.13928,-0.074011,0.0408741172,-5.3527637695,-8.216893968499999,0.004974,0.57737,2.701,-9.999999999998899e-05,9.999999999998899e-05,-9.999999999998899e-05,-0.0009214542634770062,0.0004090636380353896,-0.0013363675678322862
149570000000.0,2,0.10121443464999999,-0.0159456129,0.0216726965,0.027846,-0.1487,-0.080434,0.034509601349999995,-5.3557057645,-8.2149326385,0.004201,0.57774,2.7,-0.00019999999999997797,9.999999999998899e-05,-9.999999999998899e-05,-0.0008721274153532521,0.0009222630924963227,-0.0016677317400501934
149570000000.0,2,0.09376138064999999,-0.0334799031,0.020084019199999997,0.001412,-0.11758,-0.078401,0.02968472955,-5.3570786955,-8.21405004,0.003614,0.5779,2.6989,-9.999999999998899e-05,9.999999999998899e-05,-9.999999999998899e-05,-0.00024970790362988105,0.0009431337742826784,-0.001262787771264956
149570000000.0,2,0.057015863099999994,-0.023712479699999997,0.048042778349999996,-0.018387,-0.054553,-0.072143,0.028733484499999996,-5.3566864295,-8.214344239499999,0.003498,0.57785,2.698,-9.999999999998899e-05,4.999999999988347e-05,-9.999999999998899e-05,0.0003628205146563035,0.0006421913889873565,-0.0008946879243862671
149570000000.0,2,-0.010983447999999998,-0.03827535494999999,0.061154269399999996,-0.040229,0.022339,-0.061642,0.032381558299999995,-5.354627032999999,-8.215619103999998,0.003942,0.57761,2.6972,-9.999999999998899e-05,5.0000000000105516e-05,-9.999999999998899e-05,0.0005279618566451649,0.00013228222139072265,-0.0005354001354644644
149570000000.0,2,-0.06638121385,-0.056486304,0.07769808795,-0.061222,0.074709,-0.046826,0.0393050532,-5.351292772,-8.2178746335,0.004782,0.5772,2.6967,-0.00019999999999997797,9.999999999998899e-05,-9.999999999998899e-05,0.0005836534607073229,-0.00012430512628225365,-0.0004280679292946177
149570000000.0,2,-0.08867172929999999,-0.05888893325,0.05524085945,-0.070718,0.091829,-0.040468,0.047523025899999995,-5.34658558,-8.2208166285,0.005781,0.57663,2.6963,-9.999999999998899e-05,4.999999999988347e-05,-9.999999999998899e-05,0.0014159571254045433,-0.0008488684450143058,0.00011504830916736486
149570000000.0,2,-0.0933396947,-0.06785221135,-0.0439534053,-0.05256,0.094874,-0.039373,0.055937131599999995,-5.3421725874999995,-8.223660556999999,0.006802,0.57609,2.6959,-9.999999999998899e-05,5.0000000000105516e-05,-9.999999999998899e-05,0.0012759587176046638,-0.0009269579256339089,1.597356950264195e-05
149570000000.0,2,-0.07156893169999999,-0.0326365312,-0.04914112314999999,-0.021566,0.098884,-0.043595,0.0651357693,-5.3396228585,-8.225229621,0.007919,0.57578,2.6955,-9.999999999998899e-05,5.0000000000105516e-05,-9.999999999998899e-05,0.0004594969873359389,-0.0015238443703424753,0.00020811645688068037
149570000000.0,2,-0.050288501199999995,-0.00381478685,0.004716998649999999,-0.001112,0.11365,-0.056394,0.0761780572,-5.339328659,-8.2253276875,0.009261,0.57574,2.6949,-0.00019999999999997797,5.0000000000105516e-05,-9.999999999998899e-05,0.000322730925829684,-0.0013160781808183586,0.0003258568931503447
149570000000.0,2,-0.04364939915,0.04955300245,0.022192448949999995,0.040819,0.14316,-0.073452,0.09064286594999998,-5.341191922499999,-8.2239547565,0.011021,0.57597,2.6941,-9.999999999998899e-05,9.999999999998899e-05,-5.0000000000105516e-05,-3.4657589045306025e-06,-0.001161206534910697,0.0001332354178282813
149570000000.0,2,-0.046326614599999996,0.20768523369999997,0.0684111904,0.053582,0.14517,-0.062759,0.10588240004999999,-5.343251319,-8.222483759,0.012877,0.57622,2.6934,-0.00019999999999997797,0.00019999999999997797,-4.999999999988347e-05,-0.00039988000147161973,-0.0008736370770996427,0.0003458609210983121
149570000000.0,2,-0.03933447314999999,0.0568393434,0.09599729685,0.044692,0.11006,-0.047768,0.11804264605,-5.3472720455,-8.219639830499998,0.01436,0.57671,2.6928,-9.999999999998899e-05,9.999999999998899e-05,-2.4999999999941735e-05,-0.00042735723379794255,-0.001095074634102744,0.00016800624219626137
149570000000.0,2,0.026487761649999997,-0.12020010905,0.007158854499999999,0.032535,0.068586,-0.029571,0.12688824435,-5.3515869715,-8.2166978355,0.015442,0.57724,2.6923,-9.999999999998899e-05,9.999999999998899e-05,-2.4999999999941735e-05,-0.0005310570469263531,-0.00048722883683716134,3.242645138679112e-06
149570000000.0,2,0.12150439349999999,-0.06761685175,-0.04605202839999999,0.025693,0.026,-0.009229,0.13273300775,-5.354332833499999,-8.214834572,0.016156,0.57757,2.692,-5.0000000000105516e-05,9.999999999998899e-05,-2.500000000016378e-05,-0.0004470366516285962,-0.00019304561541222398,-0.0002406936322391362
149570000000.0,2,0.13760691279999998,-0.10267562549999999,0.01644575205,0.021048,-0.0134,0.00364,0.13458646459999998,-5.357569028,-8.212677109,0.016386,0.57797,2.6918,-5.0000000000105516e-05,9.999999999998899e-05,-2.4999999999941735e-05,-0.0004883364243720711,0.0001096613165207927,-0.0001199846667233051
149570000000.0,2,0.1285455682,-0.12575067294999998,-0.014817848149999998,0.006997,-0.030342,0.01325,0.1339196124,-5.3601187569999995,-8.211108045,0.016308,0.57827,2.6918,-4.999999999988347e-05,9.999999999998899e-05,-3.333333333332966e-05,-0.00012471049442297488,0.0006186309784077526,-6.054863281076961e-05
149570000000.0,2,0.0822974068,-0.04617951484999999,-0.0612915625,0.007021,-0.023953,0.018575,0.13228190185,-5.360511023,-8.210813845499999,0.016109,0.57832,2.6919,-5.0000000000105516e-05,9.999999999998899e-05,-3.333333333332966e-05,1.0934001363538393e-05,0.000660890383840318,-0.0001710316528838185
149570000000.0,2,0.0043247326499999995,0.0378732823,-0.009296704199999999,0.001781,-0.01006,0.021744,0.13004598565,-5.360511023,-8.210911912,0.015837,0.57832,2.6922,1.4285714285744433e-05,9.999999999998899e-05,-3.333333333332966e-05,-0.00013941886899049294,1.430880793740208e-05,9.2017011907225e-05
149570000000.0,2,-0.0410898635,0.08883844234999999,0.0536031489,0.000811,0.004861,0.025986,0.12818272214999998,-5.359922624,-8.211304177999999,0.015609,0.57826,2.6925,1.4285714285744433e-05,0.00019999999999997797,-4.999999999988347e-05,-2.867354392521726e-05,0.00022864623858809274,0.00022092508390134102
149570000000.0,2,-0.044737937299999996,0.13192886245,0.090417313,-0.014099,0.012436,0.032352,0.12673133795,-5.358157426999999,-8.212480975999998,0.015431,0.57804,2.693,1.4285714285744433e-05,9.999999999998899e-05,-5.0000000000105516e-05,1.4861537152022208e-05,0.0007039788479190623,0.0003157087233975897
149570000000.0,2,-0.0375594695,0.11965093665,0.07758040814999999,-0.020437,0.023139,0.036592,0.1258389328,-5.355607698,-8.2141481065,0.015319,0.57773,2.6934,1.4285714285522388e-05,9.999999999998899e-05,-5.0000000000105516e-05,3.919892099724098e-05,9.381774337269277e-05,0.00046556615105491916
149570000000.0,2,-0.012817291549999998,0.10316595799999999,0.06472388999999999,-0.022432,0.046589,0.046154,0.12669211135,-5.353057969,-8.215815237,0.01542,0.57741,2.694,1.4285714285744433e-05,0.00019999999999997797,-4.999999999988347e-05,-0.000562600224580323,-0.0015615120644483227,0.0003460539182572886
149570000000.0,2,-0.00697252815,0.09107435855,0.1192096374,-0.022269,0.07109,0.052516,0.1292320337,-5.351096639,-8.216992034999999,0.015726,0.57718,2.6946,1.4285714285744433e-05,9.999999999998899e-05,-0.00010000000000021103,0.000172141577187368,-0.0002482662231835242,0.0007897675978607577
149570000000.0,2,-0.0195544601,0.050504247499999995,0.16128016589999997,-0.029569,0.091397,0.0514,0.1334292799,-5.3496256415,-8.2178746335,0.016235,0.577,2.6952,1.4285714285744433e-05,9.999999999998899e-05,-9.999999999998899e-05,0.00010639444138105247,-0.0005039732245635253,0.0008129947936465765
149570000000.0,2,0.012817291549999998,-0.0253207703,0.16082906,-0.04338,0.095778,0.047098,0.13906810365,-5.347860444499999,-8.218953364999999,0.016919,0.57678,2.6958,5.0000000000105516e-05,9.999999999998899e-05,-9.999999999998899e-05,6.000921782944868e-05,-0.001145812914427724,0.0009005247256621551
149570000000.0,2,0.050053141599999997,-0.07630554364999999,0.12335785034999999,-0.050927,0.079799,0.043893,0.1446284742,-5.3455068484999995,-8.2204243625,0.017592,0.5765,2.6963,5.0000000000105516e-05,5.0000000000105516e-05,-0.00019999999999997797,0.00017822730165784062,-0.0010757523261708535,0.0006414188274066757
149570000000.0,2,0.06887210295,-0.1244856151,0.10988351325,-0.058608,0.04684,0.03433,0.14840403445,-5.343153252499999,-8.22189536,0.018048,0.57621,2.6966,3.333333333332966e-05,5.0000000000105516e-05,-9.999999999998899e-05,0.00041414922881677363,-0.0005127702865983519,0.0005126570572903111
149570000000.0,2,0.10851058225,-0.14393220205,0.09083899895,-0.059875,0.012768,0.020511,0.15065956395,-5.3406035235,-8.223464424,0.018319,0.5759,2.6968,3.333333333332966e-05,4.999999999988347e-05,-9.999999999998899e-05,0.00040466238426994927,0.00017265957928680464,0.0002156588868549858
149570000000.0,2,0.1048919284,-0.14316728335,0.053711022049999994,-0.053612,-0.012843,0.007756,0.15128718954999998,-5.3380537944999995,-8.225131554499999,0.018391,0.57559,2.6968,3.333333333332966e-05,5.0000000000105516e-05,-9.999999999998899e-05,0.0005546628299427647,0.0004925709778096365,0.00017587646624209197
149570000000.0,2,0.08529824169999999,-0.08874037585,0.04013861845,-0.044099,-0.028896,0.000328,0.1505320775,-5.3355040655,-8.226798684999999,0.018296,0.57528,2.6968,3.333333333332966e-05,3.333333333332966e-05,-9.999999999998899e-05,0.00028862712233657106,-0.00028558393032840357,-0.0002406865851356521
149570000000.0,2,0.04585589539999999,-0.05491724,0.053818895199999994,-0.054722,-0.026671,-0.005032,0.14897282015,-5.3321698045,-8.228956148,0.018102,0.57488,2.6967,3.333333333332966e-05,3.333333333332966e-05,-9.999999999998899e-05,0.00043410336802685023,0.0006692332373128274,-0.000214027910651865
149570000000.0,2,0.013307624049999998,-0.04339442625,0.032381558299999995,-0.052539,-0.019232,-0.002906,0.1475508559,-5.3286394105,-8.231309743999999,0.017924,0.57444,2.6967,3.333333333332966e-05,3.333333333332966e-05,-9.999999999998899e-05,0.0006955288756553824,0.00053327418803506,-0.00013229388762173167
149570000000.0,2,-0.038775494099999995,-0.0292826569,0.007649186999999999,-0.049222,-0.002215,0.00134,0.14636425125,-5.3247167504999995,-8.233859472999999,0.017774,0.57397,2.6967,2.4999999999941735e-05,4.999999999988347e-05,-9.999999999998899e-05,0.0003328210263264797,0.0006655802528918731,-0.0002707587596315342
149570000000.0,2,-0.07018619405,-0.0268898343,0.00481506515,-0.059679,0.022382,-0.001923,0.1466486441,-5.3205979574999995,-8.2365072685,0.017803,0.57347,2.6968,2.4999999999941735e-05,5.0000000000105516e-05,-9.999999999998899e-05,0.001113650787399778,-0.00017060289210335533,0.00018518216062232695
149570000000.0,2,-0.08215030705,-0.04123696325,0.01107170785,-0.055246,0.041528,-0.004083,0.1485903608,-5.316381098,-8.239155064,0.018032,0.57296,2.6968,2.500000000016378e-05,5.0000000000105516e-05,-9.999999999998899e-05,0.0007225439538515177,-0.00012883659741813602,0.0001943327681829532
149570000000.0,2,-0.07936521845,-0.04445354444999999,0.0373241099,-0.05413,0.048974,-0.001959,0.15134602945,-5.312752637499999,-8.24150866,0.018362,0.57251,2.6969,2.4999999999941735e-05,4.999999999988347e-05,-5.0000000000105516e-05,0.0008822121854603626,-4.898071356085332e-05,0.00021191990651459047
149570000000.0,2,-0.07839436009999999,-0.05426019444999999,0.043688625749999994,-0.056327,0.041531,-0.000881,0.15380749859999998,-5.3090261105,-8.243862256,0.018655,0.57207,2.697,-1.4285714285744433e-05,-1.999999999990898e-05,-4.999999999988347e-05,0.0008146164436266812,-0.0003637765269461912,0.00024558515329908825
149570000000.0,2,-0.06285081984999999,-0.1147574183,0.04980797535,-0.057582,0.022351,0.006623,0.15487642345,-5.3059860489999995,-8.245725519499999,0.01878,0.5717,2.6971,-1.4285714285744433e-05,-2.0000000000131024e-05,-9.999999999998899e-05,0.0005846923275732996,-0.00033074741214922376,0.0001615048940057373
149570000000.0,2,-0.0355785262,-0.14846287435,0.06312540605,-0.061124,-0.015989,0.014157,0.1530425799,-5.303240187,-8.247588783,0.018555,0.57137,2.6973,-1.4285714285744433e-05,-1.999999999990898e-05,-5.0000000000105516e-05,0.0005494487455065533,-6.642735637063524e-05,1.172880197758408e-05
149570000000.0,2,-0.029978929049999995,-0.1650655328,0.04543420945,-0.063543,-0.055392,0.008885,0.1480411884,-5.300494325,-8.2494520465,0.017944,0.57103,2.6975,-1.4285714285522388e-05,-2.0000000000131024e-05,-4.999999999988347e-05,0.0008604594409791222,0.001185239163485896,-1.0729373646017892e-05
149570000000.0,2,-0.037049523699999996,-0.14577585224999998,-0.0052171378,-0.068944,-0.076639,-0.011367,0.14149034619999998,-5.296571665,-8.252099842,0.017145,0.57055,2.6975,-1.4285714285744433e-05,-1.999999999990898e-05,-4.999999999988347e-05,0.0006044910673691506,0.0009122628083886308,-0.00043248833365944206
149570000000.0,2,-0.08880902239999999,-0.06540054884999999,-0.0177108099,-0.064548,-0.07665,-0.036975,0.13504737714999998,-5.291472206999999,-8.255434102999999,0.016358,0.56994,2.6972,-1.4285714285744433e-05,2.4999999999941735e-05,-5.0000000000105516e-05,0.0010111703500778058,0.0007385184387487254,-0.0006199675778281177
149570000000.0,2,-0.13882293739999998,0.05671185694999999,-0.0284588983,-0.051502,-0.060751,-0.060462,0.13014405215,-5.285980483,-8.259062563499999,0.015756,0.56927,2.6968,-1.4285714285744433e-05,2.500000000016378e-05,-5.0000000000105516e-05,0.0003159741563933949,0.0004109493350676896,-0.0011321593091601634
149570000000.0,2,-0.18884665904999998,0.15975032849999998,-0.03858916775,-0.026657,-0.032171,-0.076478,0.1276433564,-5.2807829585,-8.2623968245,0.015448,0.56864,2.6961,-9.999999999998899e-05,2.4999999999941735e-05,-4.999999999988347e-05,0.0004659230204118181,-0.00024073372493083056,-0.0009936657025800821
149570000000.0,2,-0.18789541399999998,0.24305782025,0.022771041299999996,-0.006125,-0.000373,-0.078631,0.12788852265,-5.277056431499999,-8.264848487,0.015473,0.56819,2.6954,-9.999999999998899e-05,2.4999999999941735e-05,-3.333333333332966e-05,0.0004464347652975986,2.347285998038906e-05,-0.0008069280695018888
149570000000.0,2,-0.17101816935,0.29728859475,0.09982189035,0.007958,0.031468,-0.071188,0.13090897085,-5.2744086359999995,-8.266417551,0.015835,0.56787,2.6947,-0.00010000000000021103,9.999999999998899e-05,-3.333333333332966e-05,-0.00021679617225001113,-0.00032671151819929634,-0.000635808136964594
149570000000.0,2,-0.14396162199999998,0.22930889695,0.128467115,0.010308,0.063407,-0.063767,0.13677334754999998,-5.273427970999999,-8.26700595,0.016543,0.56776,2.6941,-9.999999999998899e-05,9.999999999998899e-05,-3.333333333332966e-05,-0.0002813942118041757,-0.000832687166499424,-0.0003011659185611082
149570000000.0,2,-0.05266171049999999,0.13781285245,0.20855802555,-0.010995,0.078482,-0.046751,0.14499132025,-5.272937638499999,-8.2671040165,0.017536,0.56769,2.6935,-9.999999999998899e-05,4.999999999988347e-05,-0.00010000000000021103,0.0005467046232922046,-0.0006073477761696644,0.00017169829894617128
149570000000.0,2,0.06580262149999999,0.04955300245,0.27153633185,-0.04536,0.061698,-0.028637,0.15356233235,-5.271270508,-8.267986615,0.018571,0.5675,2.693,-4.999999999988347e-05,5.0000000000105516e-05,-9.999999999998899e-05,0.0001740675856582996,-0.0007914797287407183,0.0001424907075575632
149570000000.0,2,0.18453173304999998,-0.04747399265,0.27602777754999996,-0.078745,0.03106,-0.014767,0.16113306615,-5.2682304465,-8.269849878499999,0.019482,0.56713,2.6926,-5.0000000000105516e-05,-2.4999999999941735e-05,-9.999999999998899e-05,0.0006722344198119012,-3.7181320216239655e-05,0.0002127020827162318
149570000000.0,2,0.3093998075,-0.10608833969999999,0.28018579714999997,-0.1059,-0.024132,-0.005114,0.16615407094999998,-5.263229054999999,-8.272889939999999,0.020081,0.56652,2.6922,9.999999999998899e-05,-2.500000000016378e-05,-0.00019999999999997797,0.0006298055136747527,0.0002696030678885908,-0.0001111698238608072
149570000000.0,2,0.41098689485,-0.11657164854999999,0.27544918519999995,-0.12451,-0.076204,0.004552,0.16078002675,-5.253226272,-8.2794603955,0.019417,0.56531,2.6923,9.999999999998899e-05,-2.4999999999941735e-05,-0.00019999999999997797,0.000857875201640268,0.0007949740629096258,-0.00035786571208432094
149570000000.0,2,0.42106813105,-0.10735339755,0.2128827582,-0.12705,-0.11563,0.023831,0.15099299004999997,-5.242635089999999,-8.286226984,0.01822,0.56403,2.6925,9.999999999998899e-05,-2.4999999999941735e-05,-0.00019999999999997797,0.0005665380919140928,0.000828988471504255,-0.0006949957902425141
149570000000.0,2,0.34240899140000003,-0.07366755479999999,0.19023920335,-0.12631,-0.14017,0.05056,0.13747942635,-5.232141974499999,-8.293091639,0.016576,0.56277,2.693,0.00010000000000021103,-9.999999999998899e-05,-0.00019999999999997797,0.0007914479089800031,0.0011355073598457999,-0.0005668173834355583
149570000000.0,2,0.21139214739999998,-0.06187996149999999,0.10900091475,-0.11686,-0.14134,0.079396,0.12528976039999998,-5.223904388499999,-8.298485296499999,0.015097,0.56178,2.6937,0.00019999999999997797,-9.999999999998899e-05,-0.00019999999999997797,0.0008028521676941569,4.2848865503097855e-05,-0.00048276317952286596
149570000000.0,2,0.0424824078,-0.03753004955,-0.0012356379,-0.10613,-0.12333,0.096461,0.10984428664999998,-5.2148822704999995,-8.304369286499998,0.013227,0.56069,2.6948,0.00019999999999997797,-4.999999999988347e-05,-0.00019999999999997797,0.001144929943902806,0.0012351181070686668,1.2919861408972055e-05
149570000000.0,2,-0.1355867429,-0.0135135637,-0.0646650501,-0.093092,-0.090412,0.10176,0.09623265645,-5.2070369505,-8.3094687445,0.01158,0.55975,2.696,0.00019999999999997797,-5.0000000000105516e-05,-9.999999999998899e-05,0.001181597076418961,0.0016665451034709733,0.00029012377012008206
149570000000.0,2,-0.21803124945,0.0482094914,-0.13115413709999998,-0.052268,-0.056647,0.099639,0.08545514809999999,-5.2015452265,-8.3129991385,0.010279,0.55909,2.6972,9.999999999998899e-05,3.333333333332966e-05,-0.00019999999999997797,0.0004978695928777865,0.0007196176342452176,0.0003927949199183378
149570000000.0,2,-0.26064114369999997,0.0949087587,-0.13469433775,-0.008221,-0.022908,0.092188,0.0730007026,-5.1978186995,-8.315450800999999,0.008778,0.55864,2.6987,0.00019999999999997797,3.333333333332966e-05,-0.00019999999999997797,0.0005795463867284134,0.0014200543125297838,0.0007506596973871349
149570000000.0,2,-0.29371897415,0.1200922359,-0.08750473795,0.039952,-0.009441,0.081574,0.06761685175,-5.1999761625,-8.3141759365,0.008133,0.5589,2.6997,9.999999999998899e-05,3.333333333332966e-05,-0.00010000000000021103,0.00017415001285769893,0.0003882489003281808,0.0008562850440457515
149570000000.0,2,-0.2860992071,0.1199941694,-0.06612624095,0.073064,-0.010769,0.072027,0.06284101319999999,-5.205565952999999,-8.310743609,0.007561,0.55957,2.7005,-1.999999999990898e-05,9.999999999998899e-05,-4.999999999988347e-05,-0.0009177636410719892,-0.00019498773611204,0.0004710833255116009
149570000000.0,2,-0.26796671125,0.06838177044999999,-0.0540346415,0.092304,-0.013048,0.06139,0.05847705395,-5.213019007000001,-8.306036417,0.00704,0.56047,2.7013,-2.0000000000131024e-05,9.999999999998899e-05,-5.0000000000105516e-05,-0.0011031701632747692,0.0003825149714853371,0.000496867777915605
149570000000.0,2,-0.2363206517,-0.0008825985,-0.021368690349999997,0.089177,-0.00982,0.051776,0.0498766219,-5.220668194,-8.301329225,0.006008,0.56139,2.7022,-1.999999999990898e-05,9.999999999998899e-05,-3.333333333332966e-05,-0.0009925430818151781,3.994252290073774e-05,0.0006340767178026063
149570000000.0,2,-0.2188648147,-0.06443949715,0.037510436249999994,0.071226,0.004196,0.036776,0.0476799323,-5.227042516499999,-8.297406565,0.005747,0.56215,2.7027,-2.0000000000131024e-05,9.999999999998899e-05,-3.333333333332966e-05,-0.0013524329272165403,-0.00022558683867246465,0.0002942149504847058
149570000000.0,2,-0.23937051985,-0.14102943364999998,0.087671451,0.042711,0.026832,0.014271,0.04843504435,-5.231259376,-8.294660703,0.005839,0.56266,2.7029,-1.999999999990898e-05,-2.4999999999941735e-05,-3.333333333332966e-05,-0.0009487844999132022,-9.237335215606102e-05,0.00036319152998892656
149570000000.0,2,-0.22241482199999998,-0.19437760964999998,0.1614762989,0.008879,0.051643,-0.008246,0.052426350899999995,-5.23282844,-8.293680038,0.006321,0.56285,2.7029,-9.999999999998899e-05,-2.4999999999941735e-05,-4.999999999988347e-05,-0.0002822484259298319,-0.00037686954683824325,0.00029846472430170023
149570000000.0,2,-0.1786575497,-0.22232656215,0.25991545159999996,-0.038862,0.069108,-0.032908,0.0557998385,-5.236162701,-8.291522575,0.00673,0.56325,2.7028,-0.00019999999999997797,-2.500000000016378e-05,-5.0000000000105516e-05,0.0005742517424711657,0.0004234852384361609,5.429395003206383e-05
149570000000.0,2,-0.15324851955,-0.25546323249999997,0.27149710525,-0.080297,0.079059,-0.052211,0.0646650501,-5.230278711,-8.295249102,0.007795,0.56254,2.7022,-9.999999999998899e-05,-2.4999999999941735e-05,-9.999999999998899e-05,0.0009938676040561756,-0.0005223575334596386,-9.425714882971281e-05
149570000000.0,2,-0.09597768355,-0.28485376255,0.25325673625,-0.098318,0.087743,-0.061864,0.07487377275,-5.222237258,-8.300152427,0.009021,0.56158,2.7015,-0.00019999999999997797,-0.00019999999999997797,-9.999999999998899e-05,0.0010296408421763825,-0.0011380437440773328,-5.8718844049038266e-05
149570000000.0,2,-0.05899680639999999,-0.2604450107,0.25396281504999996,-0.097145,0.098394,-0.06615,0.08622987345,-5.213999672,-8.305251884999999,0.010382,0.56059,2.7008,-0.00019999999999997797,-9.999999999998899e-05,-9.999999999998899e-05,0.0015504092175308015,-0.00018786691452699067,-0.0001769903435713538
149570000000.0,2,-0.08196398070000001,-0.18094249914999996,0.31193972984999996,-0.091724,0.10475,-0.071488,0.09707602835,-5.211842209,-8.3065267495,0.011686,0.56032,2.7,-0.00020000000000020002,-0.00019999999999997797,-9.999999999998899e-05,0.0015986831016521208,-0.0016045542038873872,-0.000450984634135454
149570000000.0,2,-0.06712651925,-0.1255839599,0.31142978405,-0.081235,0.082283,-0.07143,0.10827522265,-5.204781421,-8.310743609,0.013028,0.55948,2.6992,-0.00019999999999997797,-0.000300000000000189,-0.00019999999999997797,0.00045099944389837,-0.0005829145491382803,-0.000479984427032204
149570000000.0,2,-0.060752196749999994,-0.07432460034999999,0.25370784215,-0.069932,0.02678,-0.073448,0.115522337,-5.198603231499999,-8.3145682025,0.013893,0.55873,2.6984,-0.00019999999999997797,-0.00019999999999997797,-9.999999999998899e-05,-0.0008105772731261673,-0.0017189771013346178,-0.000372650352611692
149570000000.0,2,-0.057211996099999995,-0.0591733261,0.15205210824999998,-0.049088,-0.043706,-0.087163,0.11766018669999999,-5.1938960395,-8.317510197499999,0.014145,0.55816,2.6974,-0.00019999999999997797,-0.00019999999999997797,-9.999999999998899e-05,2.729862465100652e-05,0.00015102053625781764,-0.0004849151631935722
149570000000.0,2,-0.028390251749999998,-0.0312439869,0.03409772205,-0.031444,-0.1163,-0.10408,0.1138355932,-5.191836642999999,-8.318785062,0.013683,0.55792,2.6963,-9.999999999998899e-05,-0.00019999999999997797,-0.00019999999999997797,0.0003229593446953949,-0.00027252987106951565,-0.00102957614714011
149570000000.0,2,-0.01687724465,0.03254827135,-0.053181462949999994,0.000271,-0.16555,-0.12422,0.10710823129999998,-5.190855978,-8.3194715275,0.012873,0.5578,2.6949,-0.00029999999999996696,-0.00019999999999997797,-0.00019999999999997797,0.0003828616538555929,0.0011820318775763727,-0.001974875993220465
149570000000.0,2,-0.050935740099999995,0.09035847309999999,-0.1180132261,0.02272,-0.16679,-0.13486,0.1000082167,-5.192228909,-8.318686995499998,0.012022,0.55797,2.6933,-0.00019999999999997797,-0.00019999999999997797,-9.999999999998899e-05,3.174245256898356e-05,0.0017808691115881459,-0.0023076369130809182
149570000000.0,2,-0.10261678559999998,0.1262115855,-0.16091731985,0.048595,-0.13184,-0.13274,0.09513431164999998,-5.1956612364999994,-8.316627599,0.011439,0.55837,2.6917,-0.00029999999999996696,-9.999999999998899e-05,-4.999999999988347e-05,0.0005366639270316664,0.0011633320116748447,-0.002129252745495941
149570000000.0,2,-0.182992089,0.14995348515,-0.10659828549999999,0.060701,-0.077614,-0.12107,0.0897700741,-5.1969361009999995,-8.315941133499999,0.010794,0.55853,2.6905,-0.00019999999999997797,-0.00019999999999997797,-5.0000000000105516e-05,-0.0004574459052467672,-0.0002804364767741152,-0.0016697638659374792
149570000000.0,2,-0.25574762535,0.169066646,-0.04929802955,0.055751,-0.018983,-0.1041,0.09264342254999999,-5.201643293,-8.312901071999999,0.011144,0.5591,2.6892,-0.000300000000000189,-9.999999999998899e-05,-9.999999999998899e-05,-0.0008844548328305057,0.00025138013260872505,-0.0009436026826325772
149570000000.0,2,-0.2621513678,0.13704793375,-0.025879749349999998,0.038978,0.026962,-0.090334,0.09890006525,-5.2052717535,-8.310547476,0.0119,0.55953,2.6881,-0.00029999999999996696,-9.999999999998899e-05,-9.999999999998899e-05,-0.0012859027231130193,-0.001294611734685036,-0.0002563483537807443
149570000000.0,2,-0.2354576665,0.10523516114999999,0.01736757715,0.008206,0.052782,-0.082961,0.10721610444999999,-5.206546617999999,-8.3096648775,0.012902,0.55968,2.6871,-0.00029999999999996696,-5.0000000000105516e-05,-0.00010000000000021103,0.00024362437512204238,-0.00023693620190723408,-0.0003841360751419276
149570000000.0,2,-0.16546760544999997,0.055417379149999994,0.0422470482,-0.025882,0.056262,-0.088361,0.1127960883,-5.2044872215,-8.310939742,0.013571,0.55943,2.6864,-0.00029999999999996696,-4.999999999988347e-05,-9.999999999998899e-05,0.0007613272920279357,-0.0002714636084912847,-0.0003591427936791569
149570000000.0,2,-0.08401357055,-0.0034617474499999998,0.0308713342,-0.059009,0.043757,-0.098003,0.12172994645,-5.2001722955,-8.313489471,0.014641,0.55892,2.6852,-0.00029999999999996696,-9.999999999998899e-05,-9.999999999998899e-05,0.0009173447711726679,-0.001298974502993211,-0.0006688799029709036
149570000000.0,2,0.03003776895,-0.0321854253,-0.00652142225,-0.079431,0.018362,-0.10867,0.1293301002,-5.193797973,-8.3173140645,0.015548,0.55815,2.684,-0.00029999999999996696,-9.999999999998899e-05,-9.999999999998899e-05,0.0004599069918044263,-0.001114113223104063,-0.0011792684604975956
149570000000.0,2,0.11663048845,-0.035990405499999996,-0.01756371015,-0.088196,-0.010337,-0.10863,0.13475317765,-5.186344919,-8.32192319,0.016192,0.55726,2.6827,-0.00029999999999996696,-9.999999999998899e-05,-4.999999999988347e-05,0.0008823060516786052,-0.0013549107454766673,-0.000891551028803117
149570000000.0,2,0.16195682474999998,-0.0157298666,-0.06694999955,-0.081942,-0.022117,-0.097929,0.14210816515,-5.178499598999999,-8.326630382,0.017065,0.55631,2.6813,-0.000300000000000189,-0.00010000000000021103,-5.0000000000105516e-05,0.0007926392457617837,-0.0004127211826783217,-0.0008986714430176679
149570000000.0,2,0.13841105809999998,0.021182364,-0.12006281595,-0.052166,-0.022382,-0.078664,0.14455982765,-5.173400141,-8.32976851,0.017352,0.5557,2.6803,-0.00029999999999996696,-9.999999999998899e-05,-9.999999999998899e-05,0.0006400088199092213,-6.402613317813e-05,-0.0009141189852599485
149570000000.0,2,0.1013615344,0.061595568649999995,-0.10652963894999999,-0.013787,-0.013126,-0.058334,0.14883552705,-5.168987148499999,-8.3324163055,0.01786,0.55518,2.6794,-0.00019999999999997797,-9.999999999998899e-05,1.999999999990898e-05,-0.00010808160504560682,-0.001191365917513565,-0.0007009096480025678
149570000000.0,2,0.0518575652,0.0908684189,-0.08585722075,0.026751,-0.000693,-0.038006,0.1519442351,-5.167908417,-8.333102771,0.018232,0.55505,2.6789,-0.00019999999999997797,1.666666666655381e-05,2.0000000000131024e-05,5.038629508347103e-05,0.00031412990289614307,-0.0007424488450799571
149570000000.0,2,0.00291257505,0.088848249,-0.10428391609999998,0.064037,-0.002074,-0.0294,0.15345445919999998,-5.17006588,-8.3316317735,0.018416,0.55531,2.6785,-0.00019999999999997797,1.6666666666775853e-05,1.999999999990898e-05,-0.00024824544465629206,-8.24953779272608e-05,-0.00039843388345939257
149570000000.0,2,-0.013376270599999998,0.05743754905,-0.11107011789999999,0.08635,-0.013979,-0.030407,0.15373885204999999,-5.174773072,-8.328787845,0.018457,0.55586,2.6782,-9.999999999998899e-05,1.6666666666775853e-05,2.0000000000131024e-05,-0.0004514415082266243,0.00019057499231189823,-0.00012797156356528228
149570000000.0,2,-0.01211121275,0.060408963999999996,-0.1107366918,0.077776,-0.027745,-0.045341,0.15352310574999997,-5.1794802639999995,-8.325845849999999,0.018437,0.55644,2.6777,-0.00019999999999997797,1.666666666655381e-05,1.999999999990898e-05,-0.00020620202557897205,0.0010736035293306134,-0.0003234535995488841
149570000000.0,2,0.0163574922,-0.00967916355,-0.16725241575,0.060783,-0.029716,-0.064581,0.15437628429999997,-5.1835009905,-8.323296121,0.018545,0.55691,2.6769,-0.00019999999999997797,1.666666666655381e-05,9.999999999998899e-05,-0.0003218736008447909,0.0005755900394235347,-0.0006296265088581443
149570000000.0,2,0.03358777625,-0.07968883789999999,-0.19833949625,0.044959,-0.015718,-0.07851,0.15734769925,-5.1869333179999995,-8.321138658,0.018907,0.55733,2.676,-0.00029999999999996696,1.6666666666775853e-05,9.999999999998899e-05,-0.0004346179358086788,0.0006407344259216075,-0.0006398075139238124
149570000000.0,2,0.0328522775,-0.09558541755,-0.13102665065,0.022762,0.008977,-0.080727,0.1625746437,-5.1894830469999995,-8.3194715275,0.019539,0.55763,2.675,-9.999999999998899e-05,-4.999999999988347e-05,9.999999999998899e-05,-0.0005791228443380314,-0.0006693008803191347,-0.0008073114628243394
149570000000.0,2,0.024320492,-0.1101482928,-0.0806302763,0.009095,0.038919,-0.073332,0.16976291815,-5.1912482440000005,-8.318196662999998,0.020406,0.55784,2.674,-0.00020000000000020002,-5.0000000000105516e-05,9.999999999998899e-05,0.0002817822294098882,-0.0005080981563365672,-0.0004787340019424269
149570000000.0,2,0.0251834772,-0.1124234356,-0.0760799907,0.011324,0.061261,-0.05629,0.17832412359999997,-5.193013441,-8.3169217985,0.021438,0.55805,2.6733,-9.999999999998899e-05,1.666666666655381e-05,0.00010000000000021103,-0.00033112263946788456,-0.0006564161894793141,-0.00028720378862021056
149570000000.0,2,-0.0044326057999999995,-0.08381743755,-0.0376183094,0.024141,0.070733,-0.043475,0.18668919604999998,-5.19556317,-8.3151566015,0.022448,0.55836,2.6727,-9.999999999998899e-05,1.6666666666775853e-05,9.999999999998899e-05,-0.0007116158800107852,-0.0019343455136666687,-0.0003671682212731675
149570000000.0,2,-0.01564160675,-0.027066353999999997,-0.0251246373,0.047508,0.064136,-0.032749,0.19401476359999997,-5.1994858299999995,-8.312508805999999,0.023336,0.55883,2.6723,-0.00019999999999997797,1.6666666666775853e-05,0.00019999999999997797,-0.0007194158489273184,-0.0012305769092739727,-0.0001694974138706229
149570000000.0,2,-0.01819133575,-0.00848275225,-0.027605719749999997,0.068655,0.041581,-0.030538,0.1992515147,-5.204389154999999,-8.309272611499999,0.023974,0.55943,2.6719,-9.999999999998899e-05,1.666666666655381e-05,9.999999999998899e-05,-0.0005077102118726806,-0.001290372089447711,4.2801463478958635e-05
149570000000.0,2,-0.022790654599999998,-0.00342252085,-0.029410143349999997,0.084535,0.01802,-0.043277,0.20280152199999998,-5.2109596105,-8.3051538185,0.024414,0.56022,2.6715,-9.999999999998899e-05,1.666666666655381e-05,0.00019999999999997797,-0.0007062982482304303,-3.848775440462582e-05,-0.00013345811210924152
149570000000.0,2,-0.0163967188,-0.013582210249999999,-0.03550987965,0.087751,0.007358,-0.063533,0.20629268939999998,-5.2182165314999995,-8.300544692999999,0.024848,0.56109,2.6708,-0.00019999999999997797,1.6666666666775853e-05,0.00019999999999997797,-0.0010543202262004447,-0.0010065980335733915,-0.0005358804016848406
149570000000.0,2,0.00152003075,-0.0205155118,-0.01269961175,0.077186,0.011722,-0.077436,0.21110775455,-5.22498312,-8.296033634,0.025442,0.56191,2.6698,-0.00019999999999997797,-1.6666666666775853e-05,0.00019999999999997797,-0.0006884389088869236,0.0004537063624474591,-0.00047183958353058664
149570000000.0,2,0.015651413399999998,-0.04590492865,0.005060231399999999,0.062462,0.034229,-0.083905,0.21822738244999998,-5.231259376,-8.2920129075,0.026312,0.56266,2.6688,-9.999999999998899e-05,-1.666666666655381e-05,0.00019999999999997797,-0.00048509976048993764,-0.0008055963952571243,-0.0005649849167775056
149570000000.0,2,0.0032067745499999994,-0.07738427515,0.0018436501999999997,0.053125,0.068403,-0.081847,0.22782809279999996,-5.2368491665,-8.288188314,0.027482,0.56334,2.6678,-0.00019999999999997797,-1.666666666655381e-05,0.00019999999999997797,-0.000665162119687146,-0.0011845124451088651,-0.0004670039155770245
149570000000.0,2,0.011885659799999998,-0.06757762515,0.037294689949999994,0.044797,0.10149,-0.070179,0.23994911219999998,-5.242046691,-8.2845598535,0.028956,0.56396,2.6669,-9.999999999998899e-05,-1.6666666666775853e-05,0.00029999999999996696,-0.0002941828074578545,-0.0013454597477584596,-0.00022790819716150823
149570000000.0,2,0.03858916775,-0.028213732049999996,0.0704509736,0.038413,0.11538,-0.051002,0.25335480275,-5.246263550499999,-8.281519792,0.030583,0.56447,2.6661,-9.999999999998899e-05,-1.6666666666775853e-05,0.00019999999999997797,-0.0006641143004283423,-0.001954399096731896,-0.0002200375292050749
149570000000.0,2,0.0572512227,0.008384685749999999,0.06479253655,0.039297,0.10576,-0.029636,0.26567195514999997,-5.250088143999999,-8.2786758635,0.03208,0.56493,2.6656,-9.999999999998899e-05,-1.666666666655381e-05,0.00020000000000020002,-0.000666533507041156,-0.001097548489120248,-4.0535352306969585e-05
149570000000.0,2,0.10749069065,0.00718827445,0.0576042621,0.03895,0.074843,-0.009304,0.2755864783,-5.253814671,-8.276028067999999,0.033287,0.56538,2.6653,-9.999999999998899e-05,-2.4999999999941735e-05,0.00019999999999997797,0.00022982482711708663,1.9974037235082065e-05,0.0005189369091157525
149570000000.0,2,0.13243880824999998,0.00226533615,0.046140288249999994,0.040849,0.051377,0.000346,0.28310817884999995,-5.257541198,-8.273380272499999,0.034205,0.56583,2.665,-2.4999999999941735e-05,-2.500000000016378e-05,0.00019999999999997797,-0.0005627953549438569,-0.0002399294186936629,0.000193464870833715
149570000000.0,2,0.12285771119999998,-0.0170243444,0.023810546199999998,0.047134,0.032155,-0.007083,0.2889431356,-5.2617580575,-8.2704382775,0.034923,0.56634,2.6648,-2.500000000016378e-05,-2.4999999999941735e-05,0.00019999999999997797,-0.00044862672705714424,-0.0006811239664519242,8.423717222633131e-05
149570000000.0,2,0.085121722,0.019024901,0.01711260425,0.062035,0.015006,-0.027309,0.29346400125,-5.266367183,-8.267398216,0.035481,0.5669,2.6644,-2.4999999999941735e-05,-2.4999999999941735e-05,0.00019999999999997797,-0.0004791059629714045,-0.0003570210271350849,2.905653752363624e-05
149570000000.0,2,0.0381870951,0.06733245889999999,-0.0016867438,0.087665,0.009482,-0.041132,0.29715130165,-5.2721531065,-8.2635736225,0.035944,0.5676,2.6639,-2.4999999999941735e-05,9.999999999998899e-05,0.00029999999999996696,-0.0006810440357274405,0.0009857851485299829,-0.000419215689797775
149570000000.0,2,0.021309850449999997,0.09428113309999998,-0.00028439285,0.11334,0.01886,-0.040037,0.3011622215,-5.2798022935,-8.2584741645,0.036451,0.56853,2.6633,2.4999999999941735e-05,3.333333333332966e-05,0.00019999999999997797,-0.0008476597989366397,-0.0003942784239869823,-0.00017189956829000153
149570000000.0,2,-0.0215354034,0.13228190185,0.030655587899999996,0.11974,0.028382,-0.025098,0.30450628914999994,-5.288334078999999,-8.2529824405,0.036879,0.56956,2.6629,2.4999999999941735e-05,3.333333333332966e-05,0.00029999999999996696,-0.0013975378405874928,-0.0011081359954800973,-0.00028978437598795037
149570000000.0,2,-0.06241932725,0.12163187995000001,0.04006016525,0.11014,0.039099,-0.008055,0.30707563145,-5.296375532,-8.2476868495,0.037215,0.57054,2.6628,2.500000000016378e-05,3.333333333332966e-05,0.00019999999999997797,-0.0010698663518127205,-0.0004419884662030249,6.840060229051925e-07
149570000000.0,2,-0.0432277132,0.0997728571,0.021584436649999997,0.094071,0.043473,0.011123,0.30957632719999995,-5.3035343865,-8.2429796575,0.037539,0.5714,2.6629,2.4999999999941735e-05,3.333333333332966e-05,0.00020000000000020002,-0.00130308814461233,-0.0010239469644570676,8.60918278790812e-05
149570000000.0,2,-0.037932122199999994,0.08331729839999999,-0.005099457999999999,0.082298,0.045689,0.021774,0.31177301679999997,-5.309614509499999,-8.239056997499999,0.037823,0.57213,2.6631,5.0000000000105516e-05,3.333333333332966e-05,0.00019999999999997797,-0.0010383188593036108,-0.0008531743425199689,0.0003861007004238026
149570000000.0,2,-0.031430313249999994,0.08397434394999999,0.010983447999999998,0.077965,0.040392,0.026045,0.3134989872,-5.3152043,-8.2353304705,0.038049,0.57281,2.6634,4.999999999988347e-05,3.333333333332966e-05,0.00019999999999997797,-0.0009132046402554606,-5.841266051764826e-05,0.00046076647763862444
149570000000.0,2,-0.032146198699999996,0.1006750689,0.046650234049999996,0.071528,0.034054,0.022843,0.31466597854999995,-5.320303758,-8.2319962095,0.038206,0.57344,2.6637,3.333333333332966e-05,5.0000000000105516e-05,0.00019999999999997797,-0.0006865338121974096,-0.000607016994158327,0.0005489909299673523
149570000000.0,2,-0.022927947699999996,0.10172438045,0.0517398854,0.065121,0.030914,0.018569,0.31576432335,-5.3251090165,-8.2288580815,0.038355,0.57402,2.6639,3.333333333332966e-05,5.0000000000105516e-05,0.00019999999999997797,-0.0005519893283666422,-0.00010608898075759043,0.0003522458771455239
149570000000.0,2,-0.040481851199999995,0.09606594339999999,0.047395539449999996,0.057766,0.040572,0.011067,0.3174608738,-5.329227809499999,-8.2261122195,0.038572,0.57451,2.6641,3.333333333332966e-05,9.999999999998899e-05,0.00019999999999997797,-0.0009185971104885837,-0.0002732790333839219,0.0003204953056447635
149570000000.0,2,-0.0751581656,0.0932220149,0.05546641239999999,0.034444,0.058879,0.009928,0.31997137619999994,-5.3315814055,-8.224445089,0.038885,0.5748,2.6643,1.1111111111183902e-05,4.999999999988347e-05,9.999999999998899e-05,-0.0007310108849427621,-0.0005174675772674497,0.00016065854907165722
149570000000.0,2,-0.10103791494999999,0.0802968502,0.0643904639,0.024967,0.076003,0.012018,0.3234037037,-5.333738868499999,-8.2229740915,0.039309,0.57507,2.6645,1.1111111110961858e-05,5.0000000000105516e-05,0.00019999999999997797,0.0004240591267503646,-9.232821642224387e-05,0.0007081579000513538
149570000000.0,2,-0.1531602597,0.054466134099999994,0.08327807179999999,0.010172,0.086724,0.00662,0.32718907059999996,-5.3349156665,-8.222091493,0.039773,0.5752,2.6648,1.1111111111183902e-05,9.999999999998899e-05,0.00019999999999997797,-0.00020183420244557215,-0.0009432945204808085,0.0004550829511670573
149570000000.0,2,-0.1318994425,0.03786347565,0.0639785846,0.013473,0.097353,0.003407,0.33241601504999996,-5.3358963315,-8.2212088945,0.040412,0.57533,2.665,1.1111111111183902e-05,9.999999999998899e-05,0.00019999999999997797,0.00022505225398938844,-0.00015639365129249683,0.0006917093337013014
149570000000.0,2,-0.1052645811,0.051239746249999996,0.0551329863,0.036857,0.087566,0.005601,0.33780967254999994,-5.338347993999999,-8.219345631,0.041076,0.57563,2.6652,1.1111111110961858e-05,9.999999999998899e-05,9.999999999998899e-05,0.00016630256754546213,-0.00024964080056189,0.0005336956449240593
149570000000.0,2,-0.10590201334999999,0.07746272835,0.1374696197,0.055928,0.068231,0.001399,0.34187943229999995,-5.3429571195,-8.216207503,0.041586,0.57618,2.6653,1.1111111111183902e-05,9.999999999998899e-05,0.00020000000000020002,-0.0006472149599360266,-0.00030792553660452526,0.0004992078377710762
149570000000.0,2,-0.0498373953,0.0866711727,0.15752421895,0.068528,0.04468,0.004665,0.34506659355,-5.348644976499999,-8.212382909499999,0.041994,0.57688,2.6654,1.1111111111183902e-05,9.999999999998899e-05,9.999999999998899e-05,-0.0007822427785328934,-0.0006892079104565685,0.0001736052533433674
149570000000.0,2,0.0060703163499999995,0.0813363551,0.16733086894999996,0.075759,0.016912,0.007929,0.34692985704999996,-5.355313498499999,-8.207969917,0.042242,0.57769,2.6654,1.1111111110961858e-05,9.999999999998899e-05,9.999999999998899e-05,-0.0007152616013530455,-0.00023872225941379277,0.00017086780089092812
149570000000.0,2,0.020240925599999997,0.06520441585,0.22240501535,0.075506,-0.012926,0.011183,0.34637087799999994,-5.362668486,-8.203164658499999,0.042199,0.57859,2.6654,1.1111111111183902e-05,5.0000000000105516e-05,9.999999999998899e-05,-0.0008236839356189352,-0.00020660677890060875,9.014089873396469e-05
149570000000.0,2,0.03341125655,0.009208444349999999,0.2404394447,0.065717,-0.037352,0.010141,0.34383095565,-5.370317673,-8.1983594,0.041914,0.57951,2.6655,4.999999999988347e-05,4.999999999988347e-05,4.999999999988347e-05,-0.0006607203507856818,0.00021428649106791653,-0.00017527353080851182
149570000000.0,2,0.04541459614999999,-0.025565936549999998,0.26918273585,0.057092,-0.054321,0.001616,0.3403495949,-5.37796686,-8.193358008499999,0.041515,0.58045,2.6654,5.0000000000105516e-05,-2.4999999999941735e-05,5.0000000000105516e-05,-0.0007778542524541354,5.915342362605713e-05,-0.00033858242790113513
149570000000.0,2,0.053367789299999996,-0.021005844299999996,0.29146344465,0.043159,-0.068049,-0.006924,0.3362896418,-5.384635382,-8.189141149,0.041042,0.58127,2.6653,5.0000000000105516e-05,-2.4999999999941735e-05,-3.333333333332966e-05,-0.0006678708092060504,0.0002579019524686643,-0.00027287938290354585
149570000000.0,2,0.0720788775,-0.028655031299999998,0.25523767955,0.027097,-0.076439,-0.008005,0.33194529584999993,-5.389734839999999,-8.186003021,0.040528,0.58188,2.6651,4.999999999988347e-05,-2.500000000016378e-05,-3.333333333332966e-05,-0.00044599283868174133,0.0006504525141153294,-0.0005050935452821648
149570000000.0,2,0.06742071875,-0.048376204449999995,0.22119879739999998,0.005844,-0.068799,-0.012326,0.3277774696,-5.393069100999999,-8.184041691,0.040029,0.58229,2.6649,4.999999999988347e-05,-2.4999999999941735e-05,-3.333333333332966e-05,-0.0002770083953466118,0.00036169203735014754,-0.0005377407518320498
149570000000.0,2,0.05520163285,-0.03702010375,0.20138936439999996,-0.015214,-0.03346,-0.011358,0.32576710634999995,-5.394343965499999,-8.1831590925,0.039789,0.58245,2.6647,5.0000000000105516e-05,-5.0000000000105516e-05,-4.999999999988347e-05,0.00026565322758920207,0.0009034342047611332,-0.0003027795947861678
149570000000.0,2,0.025830716099999998,0.00779628675,0.16957659179999998,-0.035141,0.014648,-0.002939,0.32671835139999994,-5.393069100999999,-8.184041691,0.0399,0.5823,2.6646,9.999999999998899e-05,-4.999999999988347e-05,-5.0000000000105516e-05,-0.00022081848743671362,-0.0004094885257270864,-0.0003272446809067242
149570000000.0,2,-0.0349705139,0.0328915041,0.19253395945,-0.06151,0.063863,0.015075,0.33005261239999995,-5.3896367734999995,-8.186199153999999,0.040297,0.58187,2.6647,9.999999999998899e-05,-4.999999999988347e-05,-5.0000000000105516e-05,0.0008426265298701052,-0.00010250791518928715,0.0001744041869477242
149570000000.0,2,-0.08185610755,0.031430313249999994,0.17076319645000002,-0.072085,0.087372,0.03423,0.33399488569999997,-5.3851257145,-8.188945016,0.040763,0.58133,2.6652,5.0000000000105516e-05,-5.0000000000105516e-05,-4.999999999988347e-05,0.0006746075245717131,-0.0002968562722489576,0.0006824299729975281
149570000000.0,2,-0.0779824808,0.00208881645,0.148080415,-0.074444,0.070322,0.052402,0.33639751495,-5.380320456,-8.1919850775,0.041042,0.58074,2.6659,4.999999999988347e-05,-9.999999999998899e-05,-9.999999999998899e-05,0.0007470355942507112,-0.0001909791829737273,0.0007719993679688175
149570000000.0,2,-0.05900661305,-0.0026674088,0.12107290089999999,-0.06095,0.021195,0.049311,0.33538743,-5.376201663,-8.1947309395,0.040904,0.58023,2.6667,9.999999999998899e-05,-9.999999999998899e-05,-9.999999999998899e-05,0.0006439427675943854,1.4450870871041133e-05,0.000706849769767065
149570000000.0,2,-0.014543261949999999,-0.005275977699999999,0.05106322654999999,-0.03139,-0.030177,0.03024,0.33163148304999995,-5.3734558009999995,-8.1966922695,0.040436,0.5799,2.6671,0.00019999999999997797,-5.0000000000105516e-05,-0.00010000000000021103,0.0007209570118821285,0.0011053569323145052,0.0005005936747131678
149570000000.0,2,0.013258590799999997,0.0272036471,-0.01144436055,0.002612,-0.063464,0.004739,0.32657125164999995,-5.372573202499999,-8.1974768015,0.039817,0.57979,2.6672,5.0000000000105516e-05,-4.999999999988347e-05,-9.999999999998899e-05,0.00012014278360727992,0.0011981834509739997,-0.00017528692121135392
149570000000.0,2,-0.0213196571,0.08144422825,0.0236144132,0.028245,-0.070053,-0.011215,0.32074610155,-5.3735538675,-8.1970845355,0.039109,0.57991,2.6672,4.999999999988347e-05,-4.999999999988347e-05,-9.999999999998899e-05,-4.8115994293107534e-05,0.0008644021521411194,-0.00029792763891506313
149570000000.0,2,-0.0616642152,0.08877960245,0.0226925881,0.02515,-0.05724,-0.01231,0.31530341079999996,-5.375024865,-8.1963000035,0.03845,0.58009,2.6671,9.999999999998899e-05,-5.0000000000105516e-05,-9.999999999998899e-05,-0.0005252775911840368,0.0006351664749084662,-0.0006543203923982943
149570000000.0,2,-0.0744324735,0.0534070159,0.0272036471,0.018872,-0.03376,0.000448,0.31086099835,-5.376593928999999,-8.195515471499998,0.037912,0.58028,2.6671,5.0000000000105516e-05,-5.0000000000105516e-05,-5.0000000000105516e-05,-0.00048781643016171383,0.00040659041634194537,-0.00039435775297524955
149570000000.0,2,-0.06826409065,-0.00159848395,0.0234182802,-0.026866,-0.005696,0.017398,0.3078307435,-5.3755151974999995,-8.1963000035,0.037539,0.58015,2.6673,4.999999999988347e-05,-4.999999999988347e-05,-4.999999999988347e-05,-0.000547337766755196,0.0002767880643619325,-0.0003655795032033171
149570000000.0,2,-0.048572337449999996,-0.0449929102,-0.023545766649999997,-0.054492,0.017958,0.032253,0.3063989726,-5.3718867370000005,-8.198751666,0.037354,0.57971,2.6678,9.999999999998899e-05,-3.333333333332966e-05,-9.999999999998899e-05,0.00038953997778123917,0.0001518261598258963,0.00022442770589098382
149570000000.0,2,-0.04381611219999999,-0.05339720925,-0.0197505931,-0.063943,0.04147,0.039668,0.3065754923,-5.3672776115,-8.2017917275,0.037362,0.57914,2.6683,9.999999999998899e-05,-3.333333333332966e-05,-5.0000000000105516e-05,0.0005145276479753269,0.00013912933075710399,0.0003890438434672461
149570000000.0,2,-0.07167680485,-0.0342055952,-0.013376270599999998,-0.058538,0.048886,0.03753,0.3072031179,-5.362472352999999,-8.204831789,0.037424,0.57856,2.6689,5.0000000000105516e-05,-3.333333333332966e-05,-4.999999999988347e-05,0.0013502019704608736,-0.0001291866270372033,0.0009318809126393213
149570000000.0,2,-0.09480088554999999,-0.00493274495,-0.05584887175,-0.030785,0.046531,0.031179,0.30774248364999995,-5.358941958999999,-8.2070873185,0.037479,0.57813,2.6694,5.0000000000105516e-05,-1.6666666666775853e-05,1.6666666666775853e-05,0.0003467592101344952,-0.00017312448648887369,0.0004894122279091584
149570000000.0,2,-0.09976305044999999,0.02125101055,-0.08273870605,0.004287,0.030255,0.032337,0.3071638913,-5.3577651610000006,-8.207969917,0.037405,0.57799,2.6699,9.999999999998899e-05,-1.666666666655381e-05,1.666666666655381e-05,0.00024175940764892268,-0.00037925418686723944,0.00046390412269212145
149570000000.0,2,-0.08216992035,0.0244185585,-0.0672147791,0.029635,-0.001923,0.032439,0.30452590245,-5.359138091999999,-8.207185384999999,0.037088,0.57816,2.6704,5.0000000000105516e-05,-1.6666666666775853e-05,1.666666666655381e-05,2.0772607914221197e-05,4.292424166174591e-05,0.000364076498996585
149570000000.0,2,-0.047925098549999996,-0.019809433,-0.11468877175,0.046518,-0.02657,0.030378,0.3000638767,-5.3621781534999995,-8.205322121499998,0.036553,0.57853,2.6708,4.999999999988347e-05,-1.6666666666775853e-05,1.6666666666775853e-05,-0.000513731355437308,0.00011415894119082282,0.00019724002939569552
149570000000.0,2,-0.01825017565,-0.0585653138,-0.10314634469999999,0.046469,-0.039346,0.019726,0.29522919825,-5.366100813499999,-8.2029685255,0.035976,0.579,2.6711,9.999999999998899e-05,-1.666666666655381e-05,1.6666666666775853e-05,-0.0006154894245127274,0.00016379617835871052,-3.063966764016435e-05
149570000000.0,2,-0.023506540049999997,-0.07748234165,-0.0603697374,0.034844,-0.032845,0.007954,0.29120847175,-5.369729274,-8.200712996,0.035496,0.57945,2.6712,9.999999999998899e-05,-1.6666666666775853e-05,1.666666666655381e-05,-0.0006992156224709944,-0.000436097405519309,-0.00018250245809703358
149570000000.0,2,-0.015700446649999998,-0.08633774659999999,-0.047219019749999994,0.027532,-0.016795,0.002576,0.2890804287,-5.372867402,-8.198751666,0.035245,0.57983,2.6712,3.333333333332966e-05,-1.999999999990898e-05,5.0000000000105516e-05,-0.0002367385087366225,0.000952964174959714,-0.00010023254618574118
149570000000.0,2,-0.048484077599999995,-0.0700390943,0.00836507245,0.010639,0.004656,0.001442,0.28820763684999995,-5.3751229315,-8.1972806685,0.035144,0.5801,2.6713,3.333333333332966e-05,-2.0000000000131024e-05,4.999999999988347e-05,-0.0006241639884162486,-8.380217405346002e-05,-0.00019499971742090172
149570000000.0,2,-0.07344200185,-0.052387124300000004,0.05078864034999999,-0.005276,0.01757,0.004595,0.2878644041,-5.376201663,-8.196594203,0.035106,0.58023,2.6714,3.333333333332966e-05,-1.999999999990898e-05,9.999999999998899e-05,0.00047090279560535464,0.0004672833165337842,0.0003508148868712202
149570000000.0,2,-0.0528774568,-0.05839860075,0.015357213899999998,-0.010548,0.0272,0.007772,0.28870777599999997,-5.3762997294999995,-8.1964961365,0.035208,0.58025,2.6716,3.333333333332966e-05,-2.0000000000131024e-05,3.333333333332966e-05,0.00016506221767587093,9.38397524417045e-05,0.00025264680227840564
149570000000.0,2,-0.04861156404999999,-0.046679654,0.02015266575,-0.01898,0.040055,0.007735,0.29043374639999997,-5.3757113305,-8.196790336,0.035417,0.58018,2.6717,3.333333333332966e-05,-1.999999999990898e-05,3.333333333332966e-05,-0.000276946230175934,6.314827243047993e-05,-4.2847132556173007e-05
149570000000.0,2,-0.0634294122,-0.011130547749999999,0.03955021945,-0.009307,0.047436,0.005605,0.292826569,-5.3752209980000005,-8.1970845355,0.035708,0.58012,2.6719,3.333333333332966e-05,-4.999999999988347e-05,3.333333333332966e-05,0.0006069666247858763,-0.0002962646121087431,0.0006560275384578651
149570000000.0,2,-0.0442868314,0.0025105023999999997,0.03158721965,-0.013567,0.046408,0.002397,0.29582740389999995,-5.3742403329999995,-8.197574868,0.036072,0.57999,2.6719,3.333333333332966e-05,-5.0000000000105516e-05,4.999999999988347e-05,-0.0003403713760503635,-0.00022458600476138457,0.00011877911287269671
149570000000.0,2,-0.01307226445,0.037657536,0.04559111585,-0.013641,0.037883,0.00348,0.2988870787,-5.3729654684999995,-8.1982613335,0.036441,0.57984,2.672,3.333333333332966e-05,1.0000000000065512e-05,5.0000000000105516e-05,-4.002880711961865e-05,-0.0002222644102256588,0.00027839985346672647
149570000000.0,2,0.0254384501,0.04447315775,0.03480380085,-0.011652,0.025071,0.012045,0.30136816115,-5.371690604,-8.199045865499999,0.03674,0.57969,2.6721,3.333333333332966e-05,9.999999999843467e-06,5.0000000000105516e-05,-5.63455955087111e-05,-0.00012805903899004711,0.00015678119599643603
149570000000.0,2,0.05351488905,0.045581309199999996,0.05608423135,-0.018299,0.003799,0.027013,0.30187810695,-5.370317673,-8.199928464,0.036798,0.57951,2.6723,9.999999999998899e-05,1.0000000000065512e-05,4.999999999988347e-05,-8.727397122731961e-05,2.964630001933699e-06,0.00027476648012431104
149570000000.0,2,0.0716081583,0.042403954599999995,0.025428643449999996,-0.019627,-0.017519,0.045194,0.29993639025,-5.368258276499999,-8.201301395,0.036556,0.57927,2.6727,4.999999999988347e-05,1.0000000000065512e-05,0.00010000000000021103,0.0001482781179057424,0.0009667829499457881,0.00025518686251069234
149570000000.0,2,0.061595568649999995,0.036647451049999995,-0.02209438245,-0.013322,-0.020782,0.059086,0.29619024995,-5.366591145999999,-8.202576259499999,0.036094,0.57906,2.6733,5.0000000000105516e-05,1.0000000000065512e-05,4.999999999988347e-05,0.0003512898489825833,0.00034825997430254496,0.0001603783592520336
149570000000.0,2,-0.01028717585,0.047179793149999996,-0.01126784085,0.011203,-0.017795,0.066595,0.29085543235,-5.366395013,-8.2029685255,0.035443,0.57903,2.6741,9.999999999998899e-05,9.999999999843467e-06,5.0000000000105516e-05,0.0006453207643166703,0.0006279379598908008,0.0006158065110934696
149570000000.0,2,-0.0858866407,0.0864554264,0.033538742999999996,0.014456,-0.012493,0.064458,0.28475569605,-5.366983412,-8.202674325999999,0.034701,0.57912,2.675,9.999999999998899e-05,1.0000000000065512e-05,9.999999999998899e-05,-0.00014923698852442602,0.0010326377991507485,0.0003531337907211052
149570000000.0,2,-0.11773863989999998,0.1138748198,0.06689115964999999,0.021854,-0.023209,0.061289,0.27770471469999997,-5.3680621435,-8.20228206,0.033844,0.57925,2.6759,9.999999999998899e-05,1.0000000000065512e-05,9.999999999998899e-05,-0.00044451955097313256,-0.00024702657580277787,9.232455316671162e-06
149570000000.0,2,-0.1357436493,0.1269372776,0.09100571199999999,0.011059,-0.043361,0.053836,0.26906505605,-5.368748608999999,-8.202085926999999,0.032793,0.57932,2.6767,9.999999999998899e-05,9.999999999843467e-06,5.0000000000105516e-05,-0.00017727325371996727,0.0007111233189089905,0.00017144246879891023
149570000000.0,2,-0.09234922305,0.0840037639,0.09205502354999999,-0.014596,-0.052736,0.048472,0.26069017694999996,-5.3680621435,-8.202870459,0.031769,0.57924,2.6774,9.999999999998899e-05,1.0000000000065512e-05,4.999999999988347e-05,8.98608480940366e-05,0.0005357693854106671,0.00014952983404434295
149570000000.0,2,-0.06430220405,0.03517645355,0.10587259339999999,-0.045488,-0.049282,0.044144,0.25284485695,-5.365610480999999,-8.2047337225,0.030807,0.57894,2.678,9.999999999998899e-05,-3.333333333332966e-05,-3.333333333332966e-05,0.00042690850163307204,0.0007808315122137532,0.00015629984829462762
149570000000.0,2,-0.08303290555,0.009963556399999999,0.13085013095,-0.084838,-0.038295,0.036585,0.2458331022,-5.3604129565,-8.2082641165,0.029941,0.57831,2.6786,5.0000000000105516e-05,-3.333333333332966e-05,-3.333333333332966e-05,0.00038910581724627136,0.0004151004508015088,-9.540575689145903e-05
149570000000.0,2,-0.06642044044999999,-0.02283968785,0.11629706235,-0.10384,-0.014695,0.034377,0.241047457,-5.3533521685,-8.213069375,0.029341,0.57745,2.6791,4.999999999988347e-05,-3.333333333332966e-05,-3.333333333332966e-05,0.0009145256557230308,4.964955492559042e-05,0.00013791107585545137
149570000000.0,2,-0.061909381449999995,-0.01870128155,0.11654222859999999,-0.10259,0.004481,0.027941,0.23833101495,-5.3459971809999995,-8.217972699999999,0.028993,0.57655,2.6796,3.333333333332966e-05,-3.333333333332966e-05,-5.0000000000105516e-05,0.0005915199461347109,0.00023874704944448766,-3.211244244250011e-05
149570000000.0,2,-0.09482049885,0.0050798447,0.17049841689999998,-0.09176,0.021445,0.023662,0.2368305975,-5.3392305925,-8.2223856925,0.028795,0.57573,2.68,3.333333333332966e-05,-3.333333333332966e-05,-4.999999999988347e-05,0.0010175650280240811,2.8427823550059017e-05,0.00017113873090829346
149570000000.0,2,-0.04659139415,0.019181807399999997,0.1400781886,-0.057612,0.025419,0.029051,0.23662465785,-5.334425334,-8.225425754,0.02876,0.57515,2.6804,3.333333333332966e-05,-3.333333333332966e-05,-4.999999999988347e-05,0.0007848214137305964,-0.00013181758669666976,0.0003315183093390017
149570000000.0,2,-0.0191621941,0.031420506599999995,0.10270504544999999,-0.023543,0.020868,0.03659,0.2362814251,-5.3323659375,-8.226798684999999,0.028713,0.5749,2.6809,3.333333333332966e-05,-1.999999999990898e-05,-5.0000000000105516e-05,0.00021336383868086894,-5.0570231090674156e-05,0.00036826595978770027
149570000000.0,2,-0.050729800449999994,0.042600087599999996,0.1284475017,-0.001334,0.001495,0.045203,0.23358459634999998,-5.332464004,-8.226798684999999,0.028386,0.57491,2.6815,3.333333333332966e-05,-2.0000000000131024e-05,-3.333333333332966e-05,-5.348963171381005e-05,0.00010293421257934199,0.00021980111525782275
149570000000.0,2,-0.022800461249999997,0.0072961475999999996,0.0691564958,0.016559,-0.028491,0.046355,0.22885779104999998,-5.3341311345,-8.2259160865,0.027814,0.57511,2.682,3.333333333332966e-05,-1.999999999990898e-05,-3.333333333332966e-05,-7.474579920196955e-05,4.148221061806012e-05,0.0002802198176682369
149570000000.0,2,-0.014513841999999999,-0.02260432825,0.024722564649999997,0.02493,-0.05519,0.03681,0.22236578875,-5.336680863499999,-8.224445089,0.027031,0.57542,2.6825,4.999999999988347e-05,-2.0000000000131024e-05,-3.333333333332966e-05,-0.0005164908101801258,-4.9404696341293075e-05,-2.7029590880717214e-05
149570000000.0,2,-0.02870406455,-0.055417379149999994,0.019446586949999997,0.0271,-0.064776,0.014415,0.2154521005,-5.339720925,-8.2225818255,0.026196,0.5758,2.6828,5.0000000000105516e-05,-1.999999999990898e-05,1.4285714285744433e-05,-0.00025162477329443433,0.0005976024493836718,-0.00014976007973094285
149570000000.0,2,-0.033430869849999996,-0.09168237084999999,0.01723028405,0.025171,-0.05408,-0.009089,0.21030360924999997,-5.343153252499999,-8.220522428999999,0.025577,0.57621,2.6828,-5.0000000000105516e-05,-3.333333333332966e-05,1.4285714285744433e-05,-0.0003644299622835856,0.0006915601266981319,-0.0002759995987609565
149570000000.0,2,-0.06599875449999999,-0.11323738755,0.030734041099999998,0.001889,-0.043213,-0.029429,0.2065084357,-5.3455068484999995,-8.2190514315,0.02512,0.5765,2.6826,-4.999999999988347e-05,-3.333333333332966e-05,1.4285714285744433e-05,-0.00033993855466973866,0.00032492099672354335,-0.0004881999074662635
149570000000.0,2,-0.06305675949999999,-0.1305853514,0.02166288985,-0.005389,-0.02503,-0.038012,0.20490995174999999,-5.3468797795,-8.2182668995,0.024929,0.57667,2.6822,-4.999999999988347e-05,-3.333333333332966e-05,1.4285714285522388e-05,0.00016372174608703105,0.000720126104821972,-0.0005259939774029387
149570000000.0,2,-0.04129580315,-0.1511008632,0.0205155118,-0.027611,-0.00247,-0.03809,0.20559641725,-5.346977845999999,-8.2180707665,0.025013,0.57668,2.6818,-5.0000000000105516e-05,-4.999999999988347e-05,1.4285714285744433e-05,0.00021897434068962607,0.000524735352250616,-0.00025407984863859423
149570000000.0,2,-0.03213639205,-0.15952477555,0.0356373661,-0.051031,0.008371,-0.030677,0.20736161425,-5.3453107155,-8.219149498,0.025224,0.57648,2.6815,-1.4285714285744433e-05,-5.0000000000105516e-05,1.4285714285744433e-05,-0.00048543387435229235,-0.0003188766276789323,-0.0006626649494790027
149570000000.0,2,-0.005727083599999999,-0.12582912615,-0.04102121695,-0.052075,0.019022,-0.017889,0.20983289004999997,-5.342074521,-8.2212088945,0.025518,0.57608,2.6812,-1.4285714285744433e-05,-9.999999999998899e-05,1.4285714285744433e-05,0.0008828073911648637,-0.00011514944045898368,-0.0002642955543343539
149570000000.0,2,-0.01774022985,-0.048386011099999994,-0.07335374199999999,-0.038222,0.024223,-0.006133,0.21197073974999997,-5.338544127,-8.223464424,0.02577,0.57565,2.6812,-1.4285714285744433e-05,-9.999999999998899e-05,3.333333333332966e-05,0.0004366361477148306,-0.00022443493755130994,-6.472625195591553e-05
149570000000.0,2,-0.031057660549999998,0.0232417605,-0.04286486715,-0.021255,0.016615,0.00245,0.2128631449,-5.335798265,-8.225229621,0.025874,0.57532,2.6812,-1.4285714285522388e-05,-9.999999999998899e-05,3.333333333332966e-05,0.00018375312373397623,-0.00023784886002742311,-3.484768827424767e-05
149570000000.0,2,-0.0362453784,0.08893650885,-0.0815128748,-0.002148,0.004735,0.002505,0.21281411165,-5.333542735499999,-8.226700618499999,0.025863,0.57505,2.6813,-1.4285714285744433e-05,-9.999999999998899e-05,3.333333333332966e-05,0.0001903441036518183,-0.00033278745739018234,8.827014438883563e-06
149570000000.0,2,-0.06599875449999999,0.1398232157,-0.103362091,0.021238,-0.008241,-0.001701,0.2112940809,-5.332267871,-8.227583217,0.025676,0.57488,2.6813,-1.4285714285744433e-05,2.4999999999941735e-05,4.999999999988347e-05,0.0001126896312899639,0.00011920627699413266,-3.625394453496411e-05
149570000000.0,2,-0.07252017675,0.173381572,-0.08955432779999999,0.029662,-0.024291,-0.005926,0.20853841224999997,-5.331875605,-8.2278774165,0.02534,0.57483,2.6814,-1.4285714285744433e-05,2.500000000016378e-05,5.0000000000105516e-05,-0.00022282860606659405,0.0004693836815548025,-0.000208884647412394
149570000000.0,2,-0.04982758864999999,0.17428378379999998,-0.11660106849999999,0.044517,-0.034005,-0.005883,0.2052924111,-5.3321698045,-8.227779349999999,0.024946,0.57487,2.6813,9.090909090847532e-06,2.4999999999941735e-05,9.999999999998899e-05,-0.00036817391907839614,0.00019638516541919948,-0.00016094560968185623
149570000000.0,2,-0.0451302033,0.15655336059999997,-0.09368292745,0.062634,-0.034158,-0.002648,0.20180124369999997,-5.3343272675,-8.2265044855,0.024525,0.57514,2.6813,9.090909091069577e-06,2.4999999999941735e-05,9.999999999998899e-05,-0.000489641597713586,0.00038148301625007264,-0.00016806861090915004
149570000000.0,2,-0.050161014749999996,0.14876688049999998,-0.01107170785,0.065827,-0.032059,0.001624,0.19815316989999998,-5.337857661499999,-8.224248956,0.024089,0.57557,2.6814,9.090909090847532e-06,9.999999999998899e-05,9.999999999998899e-05,-0.0007251863012361914,0.00022203165901246713,-0.00019671689692737915
149570000000.0,2,-0.021829602899999998,0.14306921684999999,0.033568162949999994,0.061522,-0.033095,0.006956,0.19480910225,-5.3415841885,-8.22189536,0.02369,0.57603,2.6815,9.090909090847532e-06,5.0000000000105516e-05,4.999999999988347e-05,-0.0009126294107437705,0.0001708383689422721,-0.0001077650612817671
149570000000.0,2,-0.00041187929999999997,0.11647358205,0.021947282699999997,0.054086,-0.02558,0.012267,0.19194556045,-5.3451145825,-8.219737897,0.023348,0.57645,2.6816,9.090909090847532e-06,4.999999999988347e-05,5.0000000000105516e-05,-0.0007036250278121825,0.0004956924498027426,-6.719872101268454e-05
149570000000.0,2,0.0140235095,0.09003485365,0.0396777059,0.051986,-0.019172,0.015454,0.1897782908,-5.348743043,-8.217384301,0.023091,0.57689,2.6817,9.090909091069577e-06,9.999999999998899e-05,9.999999999998899e-05,-0.0007661669670236959,0.00020189745349519228,0.00010989118619281202
149570000000.0,2,0.028792324399999996,0.07691355594999999,0.10135172775,0.045608,-0.014859,0.01757,0.1880327071,-5.3526657029999996,-8.214834572,0.022885,0.57737,2.6819,9.090909090847532e-06,9.999999999998899e-05,4.999999999988347e-05,-0.00048287818646186587,-0.0002635078835300231,0.00011266540293486393
149570000000.0,2,0.0491509298,0.05643727074999999,0.12163187995000001,0.044541,-0.016977,0.014369,0.1866793894,-5.3567844959999995,-8.212284843,0.022728,0.57786,2.682,9.090909090847532e-06,4.999999999988347e-05,5.0000000000105516e-05,-0.0003488699540153961,0.00021808049232507898,0.00013638508468169497
149570000000.0,2,0.067665885,0.033009183899999996,0.1446088609,0.034908,-0.022222,0.012226,0.1855222047,-5.3606090895,-8.209735113999999,0.022594,0.57833,2.6821,9.090909090847532e-06,5.0000000000105516e-05,-1.4285714285744433e-05,-0.0003155581790379447,0.0006228433937720546,8.883188661804042e-05
149570000000.0,2,0.09813514655,0.005982056499999999,0.168282114,0.017745,-0.035928,0.009017,0.18408062714999998,-5.3637472175,-8.207675717499999,0.022424,0.57872,2.6821,9.090909091069577e-06,9.999999999998899e-05,-1.4285714285744433e-05,-0.00022211578946573773,0.0001675951443704804,-7.352323429521412e-07
149570000000.0,2,0.12027856225,-0.0173381572,0.1782064438,-0.016454,-0.044168,0.007903,0.18213891044999997,-5.3647278825,-8.207185384999999,0.022189,0.57883,2.682,9.090909090847532e-06,1.4285714285744433e-05,-1.4285714285744433e-05,-0.00026798623108215125,0.00028559725751420295,-0.000134013225464219
149570000000.0,2,0.11901350439999998,-0.0371083636,0.1282121421,-0.04845,-0.042837,0.007844,0.18011874055,-5.362668486,-8.2084602495,0.021939,0.57859,2.682,5.0000000000105516e-05,1.4285714285744433e-05,-1.4285714285522388e-05,0.00028539429372642644,0.000298683847615111,-0.00019735779424440159
149570000000.0,2,0.08548456805,-0.03325435015,0.08460196954999999,-0.068572,-0.025617,0.005643,0.1787752295,-5.358451626499999,-8.211304177999999,0.021769,0.57808,2.682,4.999999999988347e-05,1.4285714285744433e-05,-1.4285714285744433e-05,0.0005914289845880827,0.00025130661600991644,-0.0001318539510720973
149570000000.0,2,-0.00644296905,0.0077080269,0.08142461494999999,-0.080123,4.8e-05,0.009847,0.17762785144999998,-5.3526657029999996,-8.2151287715,0.021619,0.57736,2.6821,4.999999999988347e-05,1.4285714285522388e-05,-1.4285714285744433e-05,0.0006707974265854899,0.00020293995537468135,-1.7005598936248312e-05
149570000000.0,2,-0.06551822865,0.0419920753,0.08521978849999999,-0.072528,0.019159,0.015164,0.17700022584999997,-5.346389447,-8.2192475645,0.021531,0.5766,2.6824,5.0000000000105516e-05,1.4285714285744433e-05,-1.4285714285744433e-05,0.001198566684618263,-0.00030309188351784755,0.0003302724695739556
149570000000.0,2,-0.0974192611,0.0384028414,0.09227076985,-0.069282,0.025523,0.016227,0.1765785399,-5.3407996565,-8.222777958499998,0.021471,0.57593,2.6827,0.00010000000000021103,1.4285714285744433e-05,-4.999999999988347e-05,0.0007309841262540528,-0.00029295946890095514,0.00017865808454792242
149570000000.0,2,-0.11589498969999999,0.047925098549999996,0.0403053315,-0.051105,0.026444,0.009854,0.1762058872,-5.335798265,-8.2261122195,0.021417,0.57532,2.683,5.0000000000105516e-05,1.4285714285744433e-05,-5.0000000000105516e-05,0.0005838540085619792,-0.0002879340797086183,0.00023368246014696115
149570000000.0,2,-0.10594123994999999,0.08402337719999999,0.035235293449999996,-0.023376,0.019829,0.001376,0.1759705276,-5.3325620705,-8.228171616,0.021383,0.57492,2.6832,4.999999999988347e-05,5.0000000000105516e-05,-2.4999999999941735e-05,0.00038317644769780834,-0.00038627288049752906,0.0001225347688661449
149570000000.0,2,-0.072765343,0.09798804679999999,0.06390993805,-0.002058,0.015393,-0.00178,0.1761666606,-5.331287206,-8.2290542145,0.021405,0.57476,2.6832,1.6666666666775853e-05,4.999999999988347e-05,-2.500000000016378e-05,-1.5365427979863178e-05,-0.0002735766328203493,2.3635849512343432e-05
149570000000.0,2,-0.07595250425,0.07736466185,0.0392462133,0.011819,0.013151,-0.007088,0.17636279359999998,-5.331483339,-8.228956148,0.021429,0.57479,2.6832,1.666666666655381e-05,4.999999999988347e-05,-2.4999999999941735e-05,9.936161216483885e-05,-1.4798217504718991e-06,-8.380019637932445e-06
149570000000.0,2,-0.058643767,0.03933447314999999,0.0432080999,0.012914,0.015275,-0.009224,0.1770100325,-5.332464004,-8.228269682499999,0.021509,0.57491,2.6832,1.666666666655381e-05,5.0000000000105516e-05,-2.4999999999941735e-05,0.0001009390584008063,-0.00024198964485488972,1.3548421313458459e-06
149570000000.0,2,-0.0261249156,0.00505042475,0.0653907422,-0.005145,0.019694,-0.017802,0.17890271594999999,-5.333052402999999,-8.227779349999999,0.021741,0.57498,2.6831,1.6666666666775853e-05,0.00010000000000021103,-1.999999999990898e-05,0.0001120726236185643,-0.0001311046160892282,-1.8223878202938693e-05
149570000000.0,2,-0.00220649625,-0.03086152755,0.06432181734999999,-0.021121,0.023023,-0.017836,0.18161915799999998,-5.3327582035,-8.227975483,0.02207,0.57495,2.6828,1.6666666666775853e-05,3.333333333332966e-05,-2.0000000000131024e-05,-6.428642035094523e-05,-0.0002892355331445273,-0.00015997332568132294
149570000000.0,2,0.015455280399999998,-0.05585867839999999,0.0578200084,-0.041321,0.033842,-0.014688,0.18550259139999997,-5.330698806999999,-8.229250347499999,0.022538,0.57469,2.6826,1.666666666655381e-05,3.333333333332966e-05,-1.999999999990898e-05,0.000743503428154102,-0.00042539729808144244,-3.1427875290285234e-05
149570000000.0,2,0.013876409749999999,-0.0538777351,0.0738048479,-0.054115,0.036077,-0.01258,0.1894840913,-5.327560678999999,-8.231113611,0.023016,0.57431,2.6825,5.0000000000105516e-05,3.333333333332966e-05,-2.0000000000131024e-05,0.0004591344106228412,-0.00026837013211444827,-5.441777321638086e-05
149570000000.0,2,-0.01587696635,-0.05661379045,0.08495500895,-0.057312,0.03504,-0.014718,0.1928968055,-5.324030285,-8.2333691405,0.023425,0.57389,2.6823,4.999999999988347e-05,3.333333333332966e-05,-1.999999999990898e-05,0.0005751405090189676,-0.00047670645330954997,7.562729278082214e-05
149570000000.0,2,-0.031106693799999998,-0.0334799031,0.0443456713,-0.045544,0.032821,-0.0243,0.19629971305,-5.3205979574999995,-8.2355266035,0.023832,0.57346,2.6821,1.1111111111183902e-05,3.333333333332966e-05,-5.0000000000105516e-05,0.0006953054678974224,-9.73617998263343e-05,-0.00013941582186918766
149570000000.0,2,-0.04754263919999999,0.0177696498,0.01772061655,-0.02205,0.031568,-0.030661,0.19986933364999998,-5.3180482285,-8.236997601,0.02426,0.57317,2.6818,1.1111111110961858e-05,3.333333333332966e-05,-4.999999999988347e-05,0.0007946212178598921,0.00024191051455835222,-1.0512195314754669e-05
149570000000.0,2,-0.061791701649999996,0.0329699573,0.03531374665,-0.013536,0.022982,-0.040237,0.20304668825,-5.3166752975,-8.2378801995,0.024643,0.57299,2.6814,1.1111111111183902e-05,5.0000000000105516e-05,1.6666666666775853e-05,0.00021708836575751178,-0.00044357369596004226,-0.0003247961713837011
149570000000.0,2,-0.07151989845,0.049739328799999996,-0.007433440699999999,-0.003952,0.016449,-0.041294,0.20559641725,-5.315302366499999,-8.2386647315,0.02495,0.57283,2.681,1.1111111111183902e-05,4.999999999988347e-05,1.666666666655381e-05,7.959384120836965e-05,-0.000275563969741599,-0.00026504592993012444
149570000000.0,2,-0.05051405415,0.0322442652,-0.10337189764999999,0.019493,0.017314,-0.03485,0.20808730634999997,-5.315008167,-8.238762798,0.025252,0.5728,2.6806,1.1111111110961858e-05,4.999999999988347e-05,1.666666666655381e-05,-0.00031482265462445813,-0.0008900472884565414,-0.00042177425262879265
149570000000.0,2,-0.06298811295,0.0312047603,-0.07067652655,0.038692,0.026729,-0.018822,0.21038206245,-5.31716563,-8.237389867,0.025534,0.57305,2.6804,1.1111111111183902e-05,5.0000000000105516e-05,1.6666666666775853e-05,-0.0003286546113965283,0.0002441713741481166,-9.63262131142284e-05
149570000000.0,2,-0.0731379957,0.0347743809,0.004795451849999999,0.048213,0.024504,-0.005992,0.2117059602,-5.320696024,-8.235036271,0.025703,0.57349,2.6804,1.1111111111183902e-05,9.999999999998899e-05,1.6666666666775853e-05,-0.00023022631606350874,2.5812690231941104e-06,9.51775872984062e-05
149570000000.0,2,-0.0550545331,0.0339113957,0.03188141915,0.048044,0.007449,0.000443,0.21187267324999998,-5.324618684,-8.232486542,0.02573,0.57396,2.6804,1.1111111110961858e-05,9.999999999998899e-05,1.666666666655381e-05,-0.000867657609536221,-0.000430789957735378,-3.668374158694032e-05
149570000000.0,2,-0.006325289249999999,0.012317152399999998,0.040364171399999996,0.037285,-0.008439,-0.007019,0.21162750699999996,-5.328149078,-8.2302310125,0.025708,0.57439,2.6803,1.1111111111183902e-05,9.999999999998899e-05,-1.666666666655381e-05,-0.0005001292346994424,3.707716697176622e-05,9.48440842873377e-05
149570000000.0,2,0.0302437086,0.008757338449999999,0.047424959399999994,0.026666,-0.011532,-0.021976,0.21216687275,-5.330894939999999,-8.228367749,0.025779,0.57472,2.68,1.999999999990898e-05,9.999999999998899e-05,-1.6666666666775853e-05,-0.00039771209358963056,0.0010998991505373201,-0.00022850904530052896
149570000000.0,2,0.03056732805,-0.0185737951,0.044836003799999996,0.011856,-0.001809,-0.031626,0.21378497,-5.3327582035,-8.227190950999999,0.02598,0.57495,2.6797,2.0000000000131024e-05,9.999999999998899e-05,-1.6666666666775853e-05,-0.00043705738592259014,-0.0002992318148107298,-0.00022014154840557798
149570000000.0,2,0.017514676899999998,-0.01673995155,0.06612624095,-0.007132,0.023924,-0.033839,0.21742323714999998,-5.333248535999999,-8.226798684999999,0.026422,0.57501,2.6792,1.999999999990898e-05,4.999999999988347e-05,-1.666666666655381e-05,-0.0006280202716891781,-0.0005888426084443843,-0.0003460099418173823
149570000000.0,2,-0.0352843267,0.01599464615,0.0887305692,-0.018862,0.032532,-0.021066,0.22098305109999997,-5.332660137,-8.2270928845,0.026854,0.57493,2.6789,2.0000000000131024e-05,5.0000000000105516e-05,-1.666666666655381e-05,2.0125743029897336e-05,-0.0008881921492625011,-0.00011560001871135928
149570000000.0,2,-0.0067469752,0.0024320492,0.07222597724999999,-0.022453,0.006948,0.016332,0.22208139589999998,-5.3309930065,-8.2280735495,0.026984,0.57474,2.679,1.999999999990898e-05,5.0000000000105516e-05,-1.6666666666775853e-05,0.0003060961954769459,0.0001104511445579881,0.0001627257039977792
149570000000.0,2,0.074726673,0.0106696352,0.09119203834999999,-0.016826,-0.063471,0.059162,0.21707019774999997,-5.3301104079999995,-8.228760014999999,0.026373,0.57463,2.6795,9.999999999998899e-05,4.999999999988347e-05,-4.999999999988347e-05,-0.0003160499541795536,0.00010302117727767346,0.0001631930762009126
149570000000.0,2,0.1767550596,-0.0089632781,0.10911859454999999,-0.016506,-0.14235,0.082782,0.2055669973,-5.329914274999999,-8.229250347499999,0.024975,0.57461,2.6802,9.999999999998899e-05,3.333333333332966e-05,-5.0000000000105516e-05,-0.0002986263638234954,0.0003369474662946459,6.256411362592917e-07
149570000000.0,2,0.28667779945,-0.019181807399999997,0.08777932415,-0.013872,-0.20738,0.092504,0.18931737824999997,-5.329718141999999,-8.229740679999999,0.023001,0.57458,2.681,0.00019999999999997797,3.333333333332966e-05,-9.999999999998899e-05,-0.0002868301827545494,0.0016728974685604747,-7.812938292101057e-05
149570000000.0,2,0.3496070725,0.040677984199999996,0.10576472024999999,-0.009768,-0.22659,0.094676,0.1714398553,-5.329129743,-8.230525212,0.020826,0.57451,2.6818,0.00029999999999996696,3.333333333332966e-05,-4.999999999988347e-05,6.100688212384853e-05,0.003059830071037384,-0.0007556145137663783
149570000000.0,2,0.34167349264999997,0.07751176159999999,0.10798102315,0.003185,-0.20857,0.093595,0.15422918455,-5.329031676499999,-8.230917477999999,0.018735,0.57449,2.6826,0.00019999999999997797,3.333333333332966e-05,-5.0000000000105516e-05,0.0008062646391593375,0.0031687179725821135,-0.0003061488474757068
149570000000.0,2,0.16429080745,0.13030095854999998,0.15906386299999997,0.024827,-0.17251,0.090365,0.13693025395,-5.330306541,-8.230329078999999,0.016635,0.57466,2.6835,0.00029999999999996696,3.333333333332966e-05,-9.999999999998899e-05,-0.00018125365901244805,0.002291081963568864,-0.0002611986689994017
149570000000.0,2,0.05995785809999999,0.1690470327,0.11253130875,0.025305,-0.11923,0.079597,0.12229873214999999,-5.3313852724999995,-8.229936812999998,0.014859,0.57478,2.6844,0.00019999999999997797,3.333333333332966e-05,-0.00010000000000021103,-0.00016662794313659912,0.002048995567506262,0.00017498038608410038
149570000000.0,2,-0.0118072066,0.17613724065,0.06789143795,0.013155,-0.044522,0.067703,0.11296280134999999,-5.331483339,-8.2300348795,0.013725,0.57479,2.6852,0.000300000000000189,9.999999999998899e-05,-9.999999999998899e-05,-0.0008288996925912562,0.0021780434294158546,-7.059472709319836e-05
149570000000.0,2,-0.067665885,0.14924740635,0.005011198149999999,-0.011727,0.043066,0.062169,0.11015809944999999,-5.329227809499999,-8.231505877,0.013382,0.57452,2.6861,9.999999999998899e-05,9.999999999998899e-05,-9.999999999998899e-05,0.00047572590142408444,0.0006747442628511902,0.0006097022580464628
149570000000.0,2,-0.11358062029999999,0.10054758244999999,-0.022672974799999995,-0.044096,0.13497,0.06729,0.11433573234999998,-5.32501095,-8.2341536725,0.013884,0.574,2.687,0.00019999999999997797,9.999999999998899e-05,-4.999999999988347e-05,0.0011230907366927,0.0002821320725472365,0.0010949790413982974
149570000000.0,2,-0.15390556509999997,0.02974356945,0.018044235999999998,-0.078802,0.2045,0.077783,0.12353437005,-5.3190288935,-8.2378801995,0.014994,0.57327,2.688,0.00019999999999997797,0.00019999999999997797,-5.0000000000105516e-05,0.001438957305133104,-0.0004376793575029403,0.0016112278044226325
