Time,placement_label,user_acc_x(m/s^2),user_acc_y(m/s^2),user_acc_z(m/s^2),rotation_rate_x(rad/s),rotation_rate_y(rad/s),rotation_rate_z(rad/s),gravity_x(m/s^2),gravity_y(m/s^2),gravity_z(m/s^2),attitude_roll(rad),attitude_pitch(rad),attitude_yaw(rad),target_delta_x,target_delta_y,target_delta_z,target_delta_roll,target_delta_pitch,target_delta_yaw
150000000000.0,1,0.031744126049999995,0.0943791996,0.12724128375,0.003587,-0.028703,-0.002387,-2.0601810319999996,-9.521080351999998,1.128941548,-2.0721,1.3289,-1.8303,0.0,0.0,0.0,0.0,0.0,0.0
150000000000.0,1,0.0461500949,0.0816501679,0.09645820939999998,0.014223,-0.034118,-0.003428,-2.0591023004999998,-9.520982285499999,1.1323738755,-2.0736,1.3288,-1.8291,0.00010000000000010001,-4.999999999988347e-05,-4.0000000000040004e-05,0.00019481924770925474,0.0003103546931260137,-0.0007166717508875209
150000000000.0,1,0.0319304524,0.05554486559999999,0.06733245889999999,0.009918,-0.040475,-0.005561,-2.0577293694999996,-9.520884219,1.1354139369999998,-2.075,1.3288,-1.828,0.00012999999999996348,-5.0000000000105516e-05,2.0000000000020002e-05,-0.0021052993008296994,-0.00011027521879736213,4.836076443603954e-05
150000000000.0,1,0.024212618849999996,0.0484056244,0.0722357839,0.013124,-0.041566,-0.007689,-2.056258372,-9.5207861525,1.1389443309999998,-2.0766,1.3287,-1.8269,7.999999999996898e-05,-5.0000000000105516e-05,-2.0000000000020002e-05,0.0005251735741906849,0.00010045316492557355,-6.549468222061261e-05
150000000000.0,1,0.0197505931,0.04746418599999999,0.0902800199,0.010987,-0.040486,-0.004493,-2.055081574,-9.520590019499998,1.1425727915,-2.0782,1.3287,-1.8257,9.999999999998899e-05,-4.999999999988347e-05,3.0000000000085514e-05,0.0002957081463099698,0.0006102652707995482,-0.0002527252685148307
150000000000.0,1,0.02317311395,0.02745862,0.0869261456,0.01095,-0.041559,0.001912,-2.0543951085,-9.52029582,1.1461031855,-2.0797,1.3286,-1.8246,8.000000000008001e-05,-0.0002500000000000835,-3.0000000000085514e-05,-4.844083228494611e-05,7.917442128979602e-05,-0.0006483573287047184
150000000000.0,1,0.02964550295,0.011767979999999999,0.06908784925,0.007742,-0.039408,0.007238,-2.0539047759999995,-9.5200016205,1.149143247,-2.0809,1.3284,-1.8238,5.999999999994898e-05,-0.0002500000000000835,-0.00024999999999997247,0.00358430859201353,0.0014581919340204141,-0.0036892083810476928
150000000000.0,1,0.043865145450000004,0.0168282114,0.04573821559999999,0.009835,-0.041563,0.012581,-2.0539047759999995,-9.519707421,1.1517910425,-2.0819,1.3283,-1.8233,5.999999999994898e-05,0.00039999999999995595,0.00017999999999995797,-0.004049850405840827,-0.0015356498971059729,0.00252257462563088
150000000000.0,1,0.04066817755,-0.00661948875,0.029596469699999996,0.010871,-0.041578,0.018985,-2.0544931749999997,-9.519315155,1.1541446385,-2.0826,1.3281,-1.8229,4.999999999999449e-05,-4.999999999988347e-05,-3.999999999992898e-05,4.250643677128352e-05,4.8569492619998655e-05,-0.0006597597504361952
150000000000.0,1,0.04182536225,-0.02580129615,0.0121798593,0.010862,-0.039453,0.024316,-2.05547384,-9.5188248225,1.1563021015,-2.0832,1.3279,-1.8227,3.0000000000085514e-05,-5.0000000000105516e-05,-2.0000000000020002e-05,0.0007413719585358525,-0.00011311423576687574,-0.0004997156266601799
150000000000.0,1,0.034087915399999995,-0.036412091449999996,0.00591340995,0.017269,-0.037377,0.026456,-2.056846771,-9.5182364235,1.1587537639999999,-2.0838,1.3277,-1.8225,9.999999999998899e-05,1.999999999990898e-05,2.999999999997449e-05,-0.000289301730119762,0.0010404761079980673,-6.370874420447148e-05
150000000000.0,1,0.034489988049999996,-0.0429923536,-0.00446202575,0.018379,-0.032059,0.026446,-2.0583177685,-9.5176480245,1.1610092934999998,-2.0844,1.3274,-1.8223,5.999999999994898e-05,2.0000000000131024e-05,-5.000000000032756e-06,5.76567186898469e-05,0.00011535363578363267,-0.0001513074739251108
150000000000.0,1,0.0228298812,-0.07452073334999999,-0.0069234948999999995,0.014128,-0.029893,0.026433,-2.0598868324999997,-9.5170596255,1.162872557,-2.0847,1.3272,-1.8223,2.999999999997449e-05,1.999999999990898e-05,-4.999999999921734e-06,-5.531908265266061e-05,-0.00020471618092243737,-0.00037678032387034044
150000000000.0,1,0.01154242705,-0.0912802982,-0.0205743517,0.011016,-0.021338,0.022142,-2.0612597635,-9.5166673595,1.1639512885,-2.0848,1.327,-1.8224,6.0000000000060005e-05,2.0000000000131024e-05,-1.0000000000065512e-05,-7.804333987593282e-05,-0.00011598555241087993,4.955277567575411e-05
150000000000.0,1,0.00381478685,-0.08570031435,-0.024153778949999996,0.008946,-0.01386,0.021056,-2.0628288275,-9.5162750935,1.1645396874999998,-2.0847,1.3268,-1.8227,2.0000000000020002e-05,1.999999999990898e-05,-2.999999999997449e-05,-0.0004069992519415422,-0.00043854312865665435,-0.00020307945905051472
150000000000.0,1,0.011885659799999998,-0.0836311112,-0.020878357849999998,0.005792,-0.008505,0.019973,-2.0642017585,-9.5158828275,1.164833887,-2.0846,1.3267,-1.8229,5.999999999994898e-05,5.0000000000105516e-05,-9.99999999995449e-06,-9.453021520222649e-06,-2.2304051903621058e-05,-0.00010763164277405313
150000000000.0,1,0.02501676415,-0.08251315309999999,-0.028713871199999998,0.003732,-0.001026,0.016752,-2.0651824235,-9.5156866945,1.1649319535,-2.0844,1.3266,-1.8231,7.00000000000145e-05,5.0000000000105516e-05,2.0000000000020002e-05,-8.254270055974011e-05,4.9978959424823444e-05,8.973723682037527e-05
150000000000.0,1,0.029243430299999998,-0.07861991304999999,-0.055280086049999996,0.009126,0.005326,0.014613,-2.0659669555,-9.515588628,1.1647358205,-2.0841,1.3265,-1.8233,9.999999999998899e-05,9.999999999998899e-05,-2.0000000000020002e-05,-0.0012723424054816856,-0.00011773678228688134,0.0002911122673053823
150000000000.0,1,0.0486605973,-0.0697841214,-0.06757762515,0.009182,0.010657,0.011398,-2.0663592215,-9.515588628,1.1639512885,-2.0838,1.3265,-1.8236,4.999999999999449e-05,9.999999999998899e-05,-2.0000000000020002e-05,-0.00017609420187136848,-0.0003635965861426005,7.282247129447583e-05
150000000000.0,1,0.05743754905,-0.07634477025,-0.07214752405,0.010322,0.020238,0.01138,-2.066653421,-9.515588628,1.163264823,-2.0835,1.3265,-1.8237,4.0000000000040004e-05,9.999999999998899e-05,-7.999999999996898e-05,-0.0005017536964959657,-0.0007336921301621668,0.0002747801244876724
150000000000.0,1,0.0593106192,-0.07090207949999999,-0.08524920844999999,0.013579,0.02767,0.011369,-2.066849554,-9.515588628,1.162480291,-2.0831,1.3266,-1.8238,2.999999999997449e-05,0.00019999999999997797,-4.999999999999449e-05,5.8633791304218974e-05,-5.190660137799341e-05,-4.60817014669157e-06
150000000000.0,1,0.06416491095,-0.05066115389999999,-0.0949872119,0.013604,0.031931,0.012425,-2.0672418199999996,-9.5156866945,1.161499626,-2.0827,1.3266,-1.8239,4.999999999999449e-05,9.999999999998899e-05,-4.999999999999449e-05,1.6926279022833057e-05,0.00012677142792516527,-0.00021540935176189713
150000000000.0,1,0.06338037895,-0.026154335549999998,-0.09066247925,0.014687,0.035118,0.013486,-2.0677321525,-9.515588628,1.160715094,-2.0823,1.3266,-1.8239,4.0000000000040004e-05,9.999999999998899e-05,-4.999999999999449e-05,-0.00015554914628390648,0.0003178338837528383,3.314871401749464e-05
150000000000.0,1,0.04534594959999999,-0.02493831095,-0.09242767625,0.017879,0.035091,0.014556,-2.0687128175,-9.5154905615,1.160126695,-2.0819,1.3265,-1.824,2.999999999997449e-05,0.00019999999999997797,-8.000000000008001e-05,0.00031717842503153904,0.0005414917240529338,-0.00034243381805554307
150000000000.0,1,0.0333622233,-0.0172400907,-0.07922792534999999,0.017918,0.040419,0.014545,-2.0700857485,-9.515294428499999,1.1596363625,-2.0814,1.3264,-1.8241,4.0000000000040004e-05,9.999999999998899e-05,-9.99999999995449e-06,-0.00024631938086594474,0.00018196114030533117,0.000307613439819554
150000000000.0,1,0.02793914585,-0.0194956202,-0.06034031744999999,0.020075,0.043599,0.014542,-2.071556746,-9.515000229,1.1595382959999998,-2.0811,1.3263,-1.8239,-0.0007300000000000084,0.0009999999999998899,-0.0006399999999999739,0.008465273503464266,-0.0007273412040831317,-0.013491189178234997
150000000000.0,1,0.036971070499999995,-0.030881140849999995,-0.03896182045,0.016885,0.045755,0.015598,-2.072929677,-9.5147060295,1.1596363625,-2.0808,1.3262,-1.8237,3.999999999992898e-05,0.00010000000000021103,-1.0000000000065512e-05,-0.00010474201346322154,0.00023523902369815275,0.00048265174726458415
150000000000.0,1,0.044836003799999996,-0.04477716389999999,-0.0263798885,0.01582,0.046828,0.016659,-2.0742045415,-9.514411829999998,1.1596363625,-2.0806,1.326,-1.8235,6.0000000000060005e-05,9.999999999998899e-05,1.0000000000065512e-05,-0.0004297861776689782,-4.655558240695967e-05,0.0006883742516637925
150000000000.0,1,0.044836003799999996,-0.045375369549999996,-0.023967452599999998,0.011589,0.05219,0.017707,-2.0756755389999997,-9.5141176305,1.1594402295,-2.0802,1.3259,-1.8234,4.999999999999449e-05,9.999999999998899e-05,1.999999999990898e-05,-9.5791903085507e-05,3.766331349841501e-05,0.0004972625404506825
150000000000.0,1,0.045610729149999994,-0.038157675149999994,-0.0039520799499999995,0.007324,0.053289,0.018763,-2.077244603,-9.513823430999999,1.1588518305,-2.0797,1.3258,-1.8234,4.0000000000040004e-05,3.333333333332966e-05,-2.999999999997449e-05,-0.0011330552626818147,7.373410352018439e-05,6.74519973303811e-05
150000000000.0,1,0.0599382448,-0.04147232285,0.0025889556,0.005235,0.05757,0.016613,-2.078421401,-9.513627298,1.158165365,-2.0792,1.3257,-1.8233,3.999999999992898e-05,3.333333333332966e-05,1.4999999999987246e-05,0.00011365326950141252,0.00010516379964964351,0.00033676059937814973
150000000000.0,1,0.062331067399999995,-0.049964881749999995,0.01774022985,0.004202,0.059713,0.013402,-2.0793039995,-9.5135292315,1.1574788994999998,-2.0788,1.3257,-1.8231,6.0000000000060005e-05,3.333333333332966e-05,1.4999999999987246e-05,0.0001396415256675887,8.827171026593028e-05,0.0004896863816883368
150000000000.0,1,0.063350959,-0.07377542795,0.0342055952,0.001058,0.064005,0.009115,-2.0796962655,-9.5135292315,1.1568905005,-2.0785,1.3257,-1.8228,3.999999999992898e-05,5.0000000000105516e-05,-1.999999999990898e-05,-0.0001703604523921598,0.0001273167659705532,0.0004796170732389582
150000000000.0,1,0.0612131093,-0.06893094285,0.047621092399999995,0.002153,0.064,0.003776,-2.0796962655,-9.5135292315,1.1564982344999999,-2.0783,1.3257,-1.8223,8.000000000008001e-05,4.999999999988347e-05,1.4999999999987246e-05,0.0001146519285928349,1.2327728349248446e-07,0.00026528093929978347
150000000000.0,1,0.0697645081,-0.06255662035,0.05276958365,-0.001043,0.06509,0.004832,-2.0795001324999998,-9.513627298,1.1560079019999998,-2.0782,1.3257,-1.8219,6.999999999990347e-05,4.999999999988347e-05,1.4999999999987246e-05,0.0008166741250250631,0.0002099186081969684,0.00011932421493998646
150000000000.0,1,0.07257901665,-0.07734504854999999,0.0678031781,0.007517,0.067151,0.003771,-2.079205933,-9.513725364499999,1.156400168,-2.0784,1.3257,-1.821,4.0000000000040004e-05,5.0000000000105516e-05,-1.0000000000065512e-05,0.0007266889643591234,5.050640219872449e-05,0.0002987861821398541
150000000000.0,1,0.06973508815,-0.07342238855,0.0797476778,0.006465,0.069288,0.004828,-2.0791078665,-9.513725364499999,1.156400168,-2.0784,1.3258,-1.8203,2.999999999997449e-05,-8.333333333387927e-06,5.000000000032756e-06,0.000408106108487738,9.928939156811367e-05,0.00043690753043668096
150000000000.0,1,0.08186591419999999,-0.038755880799999996,0.060546257099999994,0.008559,0.06607,0.008035,-2.0791078665,-9.513627298,1.156792434,-2.0785,1.3257,-1.8195,4.0000000000040004e-05,-8.333333333165882e-06,5.000000000032756e-06,0.00028654920240445136,6.064089705692943e-05,0.000188160212572841
150000000000.0,1,0.0927120691,-0.01354298365,0.04961184235,0.013865,0.062827,0.009112,-2.0790097999999997,-9.513627298,1.1574788994999998,-2.0788,1.3257,-1.8186,9.99999999995449e-06,-8.333333333387927e-06,1.0000000000065512e-05,0.000374133578164626,-0.0002023554482759593,0.0006629152180837039
150000000000.0,1,0.1171502409,0.02948859655,0.03894220715,0.0149,0.058555,0.009116,-2.0787156005,-9.5135292315,1.1584595645,-2.0792,1.3257,-1.8176,3.0000000000085514e-05,-8.333333333387927e-06,9.99999999995449e-06,0.0004010383075332413,-2.275445360155892e-05,0.0001554750903307589
150000000000.0,1,0.106304086,0.021751149699999996,0.012974197949999999,0.012762,0.055379,0.004843,-2.078421401,-9.5135292315,1.1588518305,-2.0794,1.3257,-1.8168,9.99999999995449e-06,-8.333333333387927e-06,1.999999999990898e-05,-2.8064496606194922e-05,2.447723873144625e-05,0.00036593498637382815
150000000000.0,1,0.08230721344999999,0.01011065615,0.0289492308,0.008521,0.056482,0.001628,-2.078029135,-9.513627298,1.1591460299999998,-2.0796,1.3257,-1.8161,2.999999999997449e-05,-8.333333333387927e-06,-1.999999999990898e-05,0.00032328267540115974,-7.061746501912936e-05,0.00042847455633765463
150000000000.0,1,0.06330192574999999,4.903325e-05,0.046856173699999996,-1.3e-05,0.054424,-0.001589,-2.0775388025,-9.513725364499999,1.1590479635,-2.0797,1.3258,-1.8155,2.0000000000020002e-05,-8.333333333165882e-06,-4.0000000000040004e-05,0.00048765656745786146,-9.998043114523014e-06,0.0002107372372240901
150000000000.0,1,0.057104122949999996,-0.0040011132,0.056172491199999994,-0.010672,0.053449,-0.004811,-2.0767542705,-9.514019564,1.158165365,-2.0795,1.3259,-1.8151,7.00000000000145e-05,-8.333333333387927e-06,-2.0000000000020002e-05,-0.0007251347396310948,-0.00017720689097178166,0.0003730353908376616
150000000000.0,1,0.05155355905,-0.0282235387,0.0667244466,-0.010664,0.053449,-0.005882,-2.075871672,-9.514313763499999,1.1571847,-2.0793,1.326,-1.8148,4.999999999999449e-05,-8.333333333387927e-06,-2.999999999997449e-05,0.00032812019515526814,3.758545514820355e-05,7.816878321642573e-05
150000000000.0,1,0.046895400299999994,-0.0244773984,0.0907703524,-0.015992,0.054556,-0.004828,-2.07508714,-9.514607963,1.1560079019999998,-2.0791,1.3261,-1.8145,4.0000000000040004e-05,-8.333333333165882e-06,-4.0000000000040004e-05,-0.0004903198845584988,-0.0001950911205306216,0.00012908333118732962
150000000000.0,1,0.05480936685,-0.01460210185,0.09409480674999998,-0.014927,0.054545,-0.003762,-2.074302608,-9.514902162499999,1.1549291705,-2.0788,1.3263,-1.8143,3.999999999992898e-05,-8.333333333387927e-06,-7.999999999996898e-05,-0.0001744603566642411,5.611951850759134e-05,-0.00011985683759596633
150000000000.0,1,0.0776882813,0.02586013605,0.07750195495,-0.007516,0.050215,0.001591,-2.073714209,-9.5150982955,1.1543407714999998,-2.0787,1.3264,-1.8139,2.999999999997449e-05,-8.333333333387927e-06,-7.00000000000145e-05,-0.00011193648575913429,-0.0002071941787389342,0.00043870737561069184
150000000000.0,1,0.09560503085,0.037794829099999996,0.07595250425,0.00207,0.049067,0.00374,-2.0730277435,-9.515196362,1.1545369045,-2.0789,1.3264,-1.8132,3.0000000000085514e-05,-0.0003333333333332966,-5.999999999994898e-05,-0.0002283690670046301,-5.658141103781489e-05,0.00011485058427862516
150000000000.0,1,0.11868988494999999,0.06555745525,0.047532832549999994,0.009467,0.040479,0.00483,-2.0722432115,-9.515294428499999,1.1554195029999998,-2.0794,1.3264,-1.8123,3.999999999992898e-05,-0.00033333333333351867,-4.999999999999449e-05,0.00012959659254785372,-0.00010192644606821233,0.0001980596019807157
150000000000.0,1,0.11564982345,0.0783747468,0.0315577997,0.014753,0.036168,0.008044,-2.071752879,-9.515294428499999,1.1566943674999999,-2.08,1.3264,-1.8114,0.0007700000000000484,-0.0003333333333332966,0.0006800000000000139,-0.007164231330310633,0.0027365977377735717,0.014120157090482865
150000000000.0,1,0.1064021525,0.08142461494999999,0.032558078,0.014735,0.032972,0.006977,-2.0712625465,-9.515196362,1.1582634315,-2.0807,1.3264,-1.8104,7.999999999996898e-05,-5.0000000000105516e-05,-2.0000000000020002e-05,0.00033732564257848985,9.858850224087057e-05,0.000974767163242185
150000000000.0,1,0.08313097205,0.06198783465,0.0372064301,0.011522,0.031931,0.008037,-2.0712625465,-9.5150982955,1.1594402295,-2.0811,1.3263,-1.8097,4.0000000000040004e-05,-4.999999999988347e-05,-7.00000000000145e-05,0.00014899599945739084,4.178749962835404e-05,0.0002219596590576911
150000000000.0,1,0.06371380505,0.02303582085,0.055946938249999995,0.009365,0.028751,0.008036,-2.071360613,-9.514804095999999,1.160715094,-2.0816,1.3262,-1.8089,3.999999999992898e-05,-4.999999999988347e-05,-9.00000000000345e-05,-0.00038745863602374087,0.00019527587571732674,0.00011026496949229081
150000000000.0,1,0.054976079899999995,-0.0135135637,0.06065413025,0.006153,0.02771,0.009097,-2.0716548125,-9.5147060295,1.1618918919999999,-2.0819,1.3262,-1.8083,5.0000000000105516e-05,-5.0000000000105516e-05,-7.00000000000145e-05,-0.0003941032324317195,0.0004473822666060112,0.0005164816029358255
150000000000.0,1,0.0515437524,-0.022682781449999998,0.05053366744999999,0.005069,0.02665,0.011228,-2.072145145,-9.5145098965,1.1625783575,-2.0821,1.3261,-1.8079,3.999999999992898e-05,-5.0000000000105516e-05,-0.00012000000000000899,-0.0005269487087284919,-4.711348228880752e-05,-6.689905329648749e-05
150000000000.0,1,0.05461323385,-0.0254776767,0.052622483899999996,0.006083,0.022374,0.015504,-2.0727335439999997,-9.514215697,1.163460956,-2.0823,1.326,-1.8075,2.0000000000020002e-05,-4.999999999988347e-05,-9.999999999998899e-05,-7.752422879758747e-05,0.00013045989380833234,4.604414052244987e-05
150000000000.0,1,0.05924197265,-0.021741343049999997,0.035137226949999996,0.00819,0.020222,0.017643,-2.073714209,-9.513921497499998,1.1643435545,-2.0824,1.3258,-1.8071,2.999999999997449e-05,-4.999999999988347e-05,-0.00010999999999994348,-0.00037306087801436405,3.383770940046382e-05,-0.0004038029791049169
150000000000.0,1,0.0621937743,0.0053936575,0.0174950636,0.015609,0.015895,0.020863,-2.0747929405,-9.5135292315,1.1655203525,-2.0826,1.3257,-1.8068,5.000000000032756e-06,-5.0000000000105516e-05,-0.0001100000000000545,-2.394329879695789e-05,-1.9663057893026803e-05,-0.00021904976448072766
150000000000.0,1,0.06349805874999999,0.06208590115,0.004971971549999999,0.012359,0.011655,0.024064,-2.076460071,-9.513038899,1.1665010175,-2.0827,1.3255,-1.8066,5.000000000032756e-06,-5.0000000000105516e-05,-0.00010999999999994348,2.712703660945337e-05,0.00022763988064822271,-0.00011760850939590561
150000000000.0,1,0.06514557594999999,0.0974388744,0.0003334261,0.025114,0.006221,0.025161,-2.0782252679999997,-9.5123524335,1.1690507465,-2.0832,1.3252,-1.806,-1.0000000000065512e-05,-4.999999999988347e-05,-8.000000000008001e-05,0.0006411482913029065,0.0004500648412362196,1.119172777042099e-05
150000000000.0,1,0.05939887904999999,0.08074795609999999,-0.01877973475,0.028277,0.000868,0.024107,-2.079990465,-9.511665967999999,1.1716004755,-2.0838,1.3249,-1.8054,-9.99999999995449e-06,-4.999999999988347e-05,-8.999999999992347e-05,-0.00036065626491521563,0.00013589982253403576,-0.00011490867007946104
150000000000.0,1,0.055613512149999995,0.05182814524999999,-0.0555644789,0.029306,-0.00234,0.026247,-2.0816575955,-9.5109795025,1.1736598719999998,-2.0842,1.3246,-1.805,2.999999999997449e-05,-5.0000000000105516e-05,-2.0000000000020002e-05,-0.001363760766028177,-0.00045454873054207034,0.0006811886346100859
150000000000.0,1,0.046463907699999994,0.00452086565,-0.057133542899999994,0.027158,-0.004452,0.025177,-2.083520859,-9.5103911035,1.1755231355,-2.0845,1.3244,-1.8047,-9.99999999995449e-06,-9.999999999998899e-05,-7.00000000000145e-05,-8.092685287852674e-05,-8.26424845969953e-05,9.919752612852495e-05
150000000000.0,1,0.028537351499999995,-0.01213082605,-0.05207331149999999,0.023925,-0.007623,0.026243,-2.085482189,-9.509704638,1.1771902659999998,-2.0847,1.3241,-1.8045,-1.0000000000065512e-05,-4.999999999988347e-05,-4.999999999999449e-05,-0.0001764847796819069,-9.177254494829867e-05,0.00015869458299389017
150000000000.0,1,0.01828940225,-0.03519606685,-0.043041386849999995,0.020745,-0.005465,0.025166,-2.087443519,-9.509116238999999,1.1786612635,-2.0848,1.3238,-1.8045,-9.99999999995449e-06,-5.0000000000105516e-05,-5.999999999994898e-05,-0.00038351418336279863,-0.00033780802738392346,6.446051248887308e-05
150000000000.0,1,0.0146903617,-0.07286340949999999,-0.0409525704,0.011185,-0.003249,0.019807,-2.0890125829999997,-9.508723973,1.1792496625,-2.0847,1.3237,-1.8046,-2.999999999997449e-05,1.999999999990898e-05,-4.999999999999449e-05,-0.0002705645358771491,-0.00019465924706119075,-4.0510772876700685e-05
150000000000.0,1,0.01203275955,-0.07915927879999998,-0.02797837245,0.009091,-3.2e-05,0.016594,-2.0901893809999996,-9.5084297735,1.1796419285,-2.0846,1.3235,-1.8047,1.999999999990898e-05,2.0000000000131024e-05,3.999999999992898e-05,1.3740211191048957e-05,0.0008069115986222286,0.0006919953090795961
150000000000.0,1,0.02705654735,-0.0711570524,-0.010061622899999999,-0.00045,0.004315,0.011231,-2.0906797134999997,-9.508331707,1.179347729,-2.0844,1.3235,-1.8049,-3.999999999992898e-05,1.999999999990898e-05,-4.999999999999449e-05,-0.00029556832632104957,-0.0004673142053279733,-0.0005687975442916215
150000000000.0,1,0.0452478831,-0.0803753034,-0.01475900825,0.001724,0.007496,0.008023,-2.0906797134999997,-9.5084297735,1.1789554629999999,-2.0843,1.3235,-1.805,-2.999999999997449e-05,2.0000000000131024e-05,-4.999999999999449e-05,-0.0007962500583844623,-0.0005114868703202102,0.0003706590665187859
150000000000.0,1,0.046483521,-0.1088342017,0.0039422733,0.003896,0.009614,0.00375,-2.0900913144999995,-9.50852784,1.1789554629999999,-2.0844,1.3236,-1.8048,-7.00000000000145e-05,1.999999999990898e-05,-9.00000000000345e-05,3.306588026941171e-05,-0.0006861798136104102,0.00028075028838558946
150000000000.0,1,0.05539776585,-0.1165226153,-0.0095124505,0.009315,0.017033,-0.001595,-2.0890125829999997,-9.508723973,1.1789554629999999,-2.0846,1.3237,-1.8044,-4.999999999999449e-05,3.333333333332966e-05,-5.999999999994898e-05,-0.00036259390620796417,-0.00035511308824043297,-0.00039916801179729067
150000000000.0,1,0.04958242239999999,-0.11252150209999999,-0.02383996615,0.015757,0.02018,-0.004795,-2.087639652,-9.5090181725,1.1791515959999999,-2.085,1.3238,-1.8038,-3.0000000000085514e-05,3.333333333332966e-05,-2.999999999997449e-05,0.0005109269259460092,-0.0003723870373384397,0.0005486420539742021
150000000000.0,1,0.0470326934,-0.0965758892,-0.03617673185,0.022189,0.022261,-0.007993,-2.0861686544999998,-9.5092143055,1.1800341945,-2.0856,1.3239,-1.803,-4.999999999999449e-05,3.333333333332966e-05,-4.999999999999449e-05,-0.0001426933154540233,-0.00040590923327421535,5.680364722226994e-05
150000000000.0,1,0.0433846196,-0.09776249384999999,-0.0547603336,0.020089,0.025477,-0.010141,-2.0844034574999997,-9.509606571499999,1.180524527,-2.0861,1.324,-1.8022,-3.999999999992898e-05,9.999999999998899e-05,-4.999999999999449e-05,-5.5995156673649404e-05,-0.0003601620759428048,0.0004803834073617841
150000000000.0,1,0.026468148349999998,-0.08536688824999998,-0.08285638584999999,0.012684,0.031935,-0.01337,-2.08293246,-9.5099988375,1.179739995,-2.0861,1.3242,-1.8018,-3.0000000000085514e-05,4.999999999988347e-05,-7.00000000000145e-05,0.00019515611524401066,-0.0003669874489862224,0.00031091071862054953
150000000000.0,1,0.019407360349999996,-0.07629573699999999,-0.08772048425,0.007447,0.042638,-0.016601,-2.0812653295,-9.5105872365,1.1782689975,-2.0859,1.3244,-1.8016,-9.99999999995449e-06,5.0000000000105516e-05,-2.0000000000020002e-05,0.00014544872841382173,-0.0002630004232184735,0.0008788487409187029
150000000000.0,1,0.01364105015,-0.05342662919999999,-0.08202282059999999,0.002152,0.04801,-0.016621,-2.0798923984999997,-9.511077569,1.176209601,-2.0855,1.3247,-1.8015,1.4999999999987246e-05,9.999999999998899e-05,-7.00000000000145e-05,-0.00010987438279919104,-0.00029153276670901285,0.0006966108895108958
150000000000.0,1,0.027713592899999997,-0.032754211,-0.07473647964999999,0.00115,0.056543,-0.01664,-2.0783233345,-9.511764034499999,1.173856005,-2.0849,1.3249,-1.8015,1.4999999999987246e-05,0.00019999999999997797,-2.999999999997449e-05,0.0007723627455851201,-1.9439345051441848e-05,0.0012332655987591368
150000000000.0,1,0.03484302745,-0.037059330349999996,-0.07265746984999999,-0.001996,0.065092,-0.014527,-2.0769504035,-9.5123524335,1.171110143,-2.0842,1.3252,-1.8016,2.0000000000020002e-05,9.999999999998899e-05,-7.999999999996898e-05,0.00016154123836176204,-0.00014053374315015077,0.0009686260811080372
150000000000.0,1,0.04800355175,-0.028655031299999998,-0.0771587222,0.000144,0.068268,-0.01133,-2.0755774725,-9.513038899,1.1684623475,-2.0835,1.3255,-1.8016,-2.999999999997449e-05,0.00019999999999997797,-9.00000000000345e-05,0.000793673564007058,0.0005599101338775725,0.00023764993034469661
150000000000.0,1,0.055299699349999995,-0.005579983849999999,-0.09127049154999999,0.001255,0.073588,-0.012407,-2.0744006744999997,-9.513627298,1.1655203525,-2.0827,1.3257,-1.8017,3.999999999992898e-05,9.999999999998899e-05,-4.999999999999449e-05,-0.00023498581494751924,-0.00042048895168611544,0.0012572935451379275
150000000000.0,1,0.0664694737,0.0116699135,-0.08498442889999999,0.0013,0.078917,-0.013487,-2.072929677,-9.514215697,1.162872557,-2.082,1.326,-1.8016,1.0000000000065512e-05,9.999999999998899e-05,-2.999999999997449e-05,0.0001503787327068462,-0.0003432141390573573,0.0006670488632080085
150000000000.0,1,0.06949972855,0.02048609185,-0.07099033934999999,0.019437,0.079832,-0.012393,-2.0716548125,-9.5147060295,1.161499626,-2.0818,1.3262,-1.8009,2.0000000000020002e-05,9.999999999998899e-05,-6.0000000000060005e-05,-4.42958777115976e-05,0.0001250547853377526,0.001184426792302018
150000000000.0,1,0.06557706854999999,0.027654752999999997,-0.07444228015,0.016237,0.080923,-0.011336,-2.070576081,-9.5150982955,1.159930562,-2.0814,1.3264,-1.8005,2.999999999997449e-05,0.00020000000000020002,-4.999999999999449e-05,0.0008096433343447451,-4.466382763523846e-05,0.0013227962898800794
150000000000.0,1,0.0571139296,0.000784532,-0.07014696744999999,0.016274,0.087314,-0.009215,-2.0696934825,-9.5154905615,1.1584595645,-2.0811,1.3265,-1.7999,-9.99999999995449e-06,5.0000000000105516e-05,-4.0000000000040004e-05,0.0006522704365503618,-0.00015382059123525416,0.0004538456811662428
150000000000.0,1,0.06150730879999999,-0.0346370878,-0.05712373625,0.014162,0.091592,-0.007095,-2.0689089505,-9.5158828275,1.1570866334999999,-2.0807,1.3267,-1.7993,-3.0000000000085514e-05,4.999999999988347e-05,-6.999999999990347e-05,0.0007619710454291884,0.00022398913282684063,0.0004608763962030693
150000000000.0,1,0.06555745525,-0.051239746249999996,-0.04747399265,0.013077,0.091597,-0.003898,-2.0683205515,-9.516177027,1.1557137025,-2.0803,1.3268,-1.7988,2.0000000000020002e-05,4.999999999988347e-05,-2.0000000000020002e-05,0.0002677450359984679,0.00021009838274199666,0.0008389010478628833
150000000000.0,1,0.05059250735,-0.07629573699999999,-0.027233067049999997,0.007756,0.094835,-0.001782,-2.0681244184999996,-9.51637316,1.154046572,-2.0798,1.3269,-1.7985,1.4999999999987246e-05,5.0000000000105516e-05,-4.999999999999449e-05,0.0003255397646624303,-0.0002725177598963402,0.0006885389683812804
150000000000.0,1,0.0544072942,-0.08818139679999999,-0.00426589275,0.000288,0.097024,0.0014,-2.0682224849999997,-9.516569292999998,1.1519871755,-2.079,1.327,-1.7983,1.4999999999987246e-05,9.999999999998899e-05,-4.999999999999449e-05,0.00036440429817852227,0.0003539062813207039,0.0006806265207534024
150000000000.0,1,0.039834612299999995,-0.09524218479999999,0.02389880605,-0.005033,0.10133,0.00565,-2.0689089505,-9.516765426,1.149731646,-2.078,1.327,-1.7982,3.0000000000085514e-05,9.999999999998899e-05,-7.00000000000145e-05,-0.0010324486121144894,0.000549663000430467,-0.0001591091365502617
150000000000.0,1,0.049857008599999995,-0.09482049885,0.05347566245,-0.011417,0.10457,0.007764,-2.0696934825,-9.5168634925,1.14737805,-2.077,1.3271,-1.7983,6.999999999990347e-05,9.999999999998899e-05,-6.0000000000060005e-05,-0.0012087409147625294,0.00037170386962959157,0.0010917948665341015
150000000000.0,1,0.0509749667,-0.08393511735,0.06608701435,-0.002918,0.10237,0.012049,-2.0707722139999998,-9.5168634925,1.1457109195,-2.0761,1.3271,-1.7981,8.000000000008001e-05,0.00019999999999997797,-2.999999999997449e-05,-0.0007928841442765844,0.0002657960293732664,0.0013033615916500096
150000000000.0,1,0.06945069529999999,-0.0613307891,0.0725495967,0.002386,0.10019,0.01526,-2.0718509455,-9.5166673595,1.1447302545,-2.0756,1.327,-1.7977,2.0000000000020002e-05,4.999999999988347e-05,-7.999999999996898e-05,-0.0008913875568490326,0.0010573814199912324,-0.0007919640352492818
150000000000.0,1,0.07624670374999999,-0.05739832244999999,0.07742350174999998,0.007647,0.092679,0.01848,-2.07312581,-9.51637316,1.1446321879999999,-2.0753,1.3269,-1.7971,9.99999999995449e-06,5.0000000000105516e-05,-7.00000000000145e-05,-0.00022033652768760348,0.0004719268114108388,-0.00023798539200148294
150000000000.0,1,0.09001524035,-0.0408741172,0.06722458575,0.018274,0.088326,0.020636,-2.0744987409999998,-9.5160789605,1.1454167199999998,-2.0753,1.3267,-1.7962,5.999999999994898e-05,9.999999999998899e-05,-2.4999999999941735e-05,5.455345271854206e-05,0.0001895602306578592,0.0002555801032905203
150000000000.0,1,0.0991844581,-0.0263210486,0.040207265,0.029913,0.078634,0.024937,-2.0761658714999998,-9.5154905615,1.146985784,-2.0755,1.3265,-1.7951,1.0000000000065512e-05,0.00019999999999997797,-2.5000000000052758e-05,0.0006035460440683149,0.0002774530421534305,-0.00019661015641148083
150000000000.0,1,0.10243045925,-0.02234935535,0.0254188368,0.038365,0.070036,0.028164,-2.0779310685,-9.514804095999999,1.14933938,-2.076,1.3262,-1.7939,5.999999999994898e-05,0.00019999999999997797,-4.0000000000040004e-05,0.0002456949740643477,3.396922769738353e-07,3.0987156219186573e-05
150000000000.0,1,0.11559098355,-0.036627837749999996,0.0174362237,0.039359,0.0615,0.029242,-2.079402066,-9.5141176305,1.1521833085,-2.0768,1.3259,-1.7925,-0.00042999999999993044,0.00019999999999997797,-0.0004999999999999449,0.013232531829706184,0.0015993362187467497,-0.010715580700712324
150000000000.0,1,0.12616255224999998,-0.046022608449999995,0.0027556686499999998,0.04036,0.051903,0.027119,-2.0804807975,-9.5135292315,1.1550272369999999,-2.0776,1.3257,-1.7911,-0.000200000000000089,0.000400000000000178,-0.00036000000000002697,-0.0015576094689939701,-0.0038917520765846536,-0.004551951197496074
150000000000.0,1,0.11773863989999998,-0.049503969200000005,-0.01572005995,0.031831,0.048782,0.020699,-2.0811672629999998,-9.513235032,1.156596301,-2.078,1.3256,-1.7902,7.00000000000145e-05,-0.00045000000000006146,0.00038000000000004697,0.00045023501997842885,0.0002454681706816064,-0.00018871744527859668
150000000000.0,1,0.1348610508,-0.0550741464,-0.0017063571,0.018977,0.042494,0.02068,-2.081363396,-9.513038899,1.1576750325,-2.0784,1.3255,-1.7894,0.0008100000000000884,-0.00045000000000006146,0.00037999999999993594,-0.009856567611863376,0.0018951775239604007,0.015273882009207096
150000000000.0,1,0.14479518724999998,-0.06818563744999999,0.005687856999999999,0.008299,0.039387,0.017457,-2.08097113,-9.5131369655,1.1578711654999998,-2.0786,1.3255,-1.7888,0.00013999999999991797,0.0005500000000000504,2.0000000000020002e-05,6.633285743129491e-05,0.001028405203586713,0.0003900971779423612
150000000000.0,1,0.15993665485,-0.0667440599,0.0072765343,0.000816,0.036253,0.015306,-2.0800885315,-9.513333098499999,1.1574788994999998,-2.0786,1.3256,-1.7884,-0.0006199999999999539,0.0005500000000000504,-0.0008000000000000229,0.011108439069530629,-0.0032117401999087747,-0.01614058791258821
150000000000.0,1,0.16132919915,-0.06596933455,0.017377383799999997,-0.004575,0.027773,0.013168,-2.0789117335,-9.513725364499999,1.156792434,-2.0786,1.3257,-1.7882,0.00036999999999998145,-0.001100000000000101,0.000140000000000029,0.007152801579663803,0.00740406066495769,0.002856027547343487
150000000000.0,1,0.1549058434,-0.0622526142,0.015180694199999997,-0.007799,0.023538,0.011026,-2.077636869,-9.5141176305,1.1557137025,-2.0785,1.3259,-1.7881,-0.00019999999999997797,0.001100000000000101,-0.00017000000000000348,-0.0072663056994584085,-0.007505373595423803,-0.0028845082254317367
150000000000.0,1,0.1566710404,-0.044973296899999994,0.03074384775,-0.00035,0.02028,0.009969,-2.0760678049999997,-9.5145098965,1.1554195029999998,-2.0787,1.3261,-1.7877,7.999999999996898e-05,-9.999999999998899e-05,-9.99999999995449e-06,0.0002122237164385865,-8.647166208808343e-05,-7.67318489298674e-05
150000000000.0,1,0.1423141048,-0.043767078949999996,0.0519556317,-0.0068,0.013938,0.009961,-2.074694874,-9.514804095999999,1.1553214365,-2.0789,1.3262,-1.7874,9.999999999998899e-05,-0.000500000000000167,-1.0000000000065512e-05,-1.9864107975831047e-05,-4.9494653956427825e-05,-0.000269109186543548
150000000000.0,1,0.12651559164999998,-0.051122066449999996,0.07067652655,0.007059,0.009564,0.005716,-2.073321943,-9.514902162499999,1.156792434,-2.0797,1.3263,-1.7864,0.0003300000000000525,-0.0004999999999999449,0.00012000000000000899,0.007078491692559918,0.006327473123633798,0.0026056612732672235
150000000000.0,1,0.11062881864999999,-0.048042778349999996,0.09244728954999999,0.008115,0.006359,0.003582,-2.071752879,-9.515000229,1.1588518305,-2.0808,1.3263,-1.7853,-0.000160000000000049,0.0009000000000001229,-0.00012999999999996348,-0.00689239423138277,-0.006490111502059026,-0.0026105929820005036
150000000000.0,1,0.10379358359999999,-0.051769305349999996,0.08764203105,0.005992,0.005313,0.000372,-2.069987682,-9.515196362,1.1606170274999998,-2.0818,1.3264,-1.7842,0.0001100000000000545,-2.500000000016378e-05,-2.0000000000020002e-05,-0.00011973080158456106,1.3848634541790972e-05,-0.00031398332835375076
150000000000.0,1,0.09791940025,-0.06284101319999999,0.0794142517,0.00178,0.008549,-0.004984,-2.0679282855,-9.5154905615,1.1619899585,-2.0827,1.3265,-1.7832,0.00010999999999994348,-2.4999999999941735e-05,-1.0000000000065512e-05,-0.0007980984675437508,-0.00012154151437226979,-0.0005547836341346368
150000000000.0,1,0.09080957899999999,-0.055603705499999996,0.08672020594999999,-0.00352,0.011789,-0.006072,-2.0657708224999998,-9.515784760999999,1.162872557,-2.0835,1.3266,-1.7824,0.0001100000000000545,-2.4999999999941735e-05,-9.99999999995449e-06,-0.00027670231728604833,-0.00021298074034770131,-0.00022599974170345316
150000000000.0,1,0.0842195102,-0.05212234475,0.0957913572,-0.003511,0.011789,-0.007144,-2.0636133595,-9.516177027,1.163853222,-2.0843,1.3268,-1.7815,0.00013999999999991797,-2.500000000016378e-05,-2.0000000000020002e-05,0.0002179861355973145,-0.00023656082127021527,-0.0004710302384933751
150000000000.0,1,0.0832192319,-0.0318912258,0.10037106274999999,-0.000309,0.010697,-0.008209,-2.0614558965,-9.5164712265,1.1651280865,-2.0852,1.3269,-1.7805,0.0001100000000000545,-3.333333333332966e-05,-2.999999999997449e-05,-5.4381595582686515e-05,-2.3552855189956645e-05,-0.00025932532537598085
150000000000.0,1,0.08695556554999999,-0.006207609449999999,0.07093149944999999,0.00499,0.008516,-0.003931,-2.059592633,-9.516765426,1.1663048845,-2.086,1.327,-1.7796,0.00012000000000000899,-3.333333333332966e-05,-1.4999999999987246e-05,-0.00021660863208183834,-0.00017596790656648764,-9.33857238517577e-05
150000000000.0,1,0.08256218634999998,-0.025310963649999997,0.03141069995,0.008158,0.006355,-0.000724,-2.0581216355,-9.516961558999999,1.167383616,-2.0867,1.3271,-1.7788,0.00010999999999994348,-3.333333333332966e-05,-1.4999999999987246e-05,-0.0003568650378071858,5.1659979539930845e-05,-5.24084332906849e-05
150000000000.0,1,0.08198359399999999,-0.040687790849999995,0.00199074995,0.014512,0.000973,0.000359,-2.056650638,-9.5170596255,1.1684623475,-2.0875,1.3272,-1.7781,0.0001300000000000745,-4.999999999988347e-05,-4.0000000000040004e-05,-0.00034242559822872387,-0.0001276573012536364,-0.00010668495611809714
150000000000.0,1,0.08120886865,-0.052387124300000004,-0.024114552349999995,0.016608,-0.002244,0.002498,-2.0553757735,-9.5172557585,1.1696391455,-2.0881,1.3272,-1.7774,9.999999999998899e-05,-5.0000000000105516e-05,-4.0000000000040004e-05,-0.000615502736138529,-1.3545398948267007e-05,2.697666658391107e-06
150000000000.0,1,0.0539758016,-0.06461601685,-0.0423255014,0.014477,0.000965,0.006755,-2.0547873745,-9.5172557585,1.170325611,-2.0885,1.3273,-1.777,0.00010999999999994348,-3.333333333332966e-05,-1.999999999990898e-05,0.0004794822709519586,0.00021930882590193157,8.745721787883909e-06
150000000000.0,1,0.04821929805,-0.0641551043,-0.037657536,0.012302,-0.00328,0.007823,-2.0543951085,-9.5172557585,1.1708159434999998,-2.0888,1.3273,-1.7768,0.0001100000000000545,-3.333333333332966e-05,-5.000000000032756e-06,-0.0006083457073502441,-0.00014625279835733807,-3.5192841180253787e-05
150000000000.0,1,0.04043281795,-0.053711022049999994,-0.03525490675,0.008036,-0.002181,0.008879,-2.0543951085,-9.5172557585,1.1712082094999998,-2.0889,1.3273,-1.7767,9.999999999998899e-05,-3.333333333332966e-05,-5.000000000032756e-06,0.0005338387753126561,2.2376152498226887e-05,0.0009423457617645514
150000000000.0,1,0.0366180311,-0.0333818366,-0.0508769002,0.005869,-0.005361,0.009946,-2.0545912415,-9.5172557585,1.17091401,-2.0888,1.3272,-1.7769,0.00010999999999994348,-3.333333333332966e-05,-9.99999999995449e-06,0.00021679490225934295,2.3350291645352073e-05,-0.0001726381751826489
150000000000.0,1,0.0447967772,-0.0263210486,-0.048484077599999995,-0.002684,-0.005294,0.013131,-2.0549835075,-9.5172557585,1.1700314115,-2.0884,1.3273,-1.7773,9.00000000000345e-05,-3.333333333332966e-05,-1.0000000000065512e-05,0.0001569420817035816,-2.2584103262612842e-05,-9.625718255146243e-05
150000000000.0,1,0.030047575599999998,-0.01772061655,-0.042099948449999994,-0.001627,-0.006368,0.013133,-2.055669973,-9.517157692,1.1694430125,-2.088,1.3272,-1.7777,7.999999999996898e-05,-3.333333333332966e-05,1.0000000000065512e-05,5.5805846882250876e-05,7.802622591812636e-06,-0.0007465632051184556
150000000000.0,1,0.0355196863,-0.02837063845,-0.0343625016,-0.002696,-0.006359,0.013129,-2.056258372,-9.517157692,1.1687565469999999,-2.0877,1.3272,-1.7782,9.00000000000345e-05,-3.333333333332966e-05,2.0000000000020002e-05,0.0006342895169091367,-0.00035803841403914127,-0.00042306992504770324
150000000000.0,1,0.0242616521,-0.03635325154999999,-0.03197948565,-0.001628,-0.007432,0.010997,-2.0567487045,-9.5170596255,1.168168148,-2.0873,1.3272,-1.7786,7.999999999996898e-05,-3.333333333332966e-05,-1.5000000000098268e-05,0.00041465300012499817,-0.0002649703228192468,-0.0003819084784555393
150000000000.0,1,0.018112882549999997,-0.0359315656,-0.02336924695,-0.002708,-0.009553,0.00993,-2.057239037,-9.5170596255,1.1676778154999998,-2.087,1.3272,-1.779,8.000000000008001e-05,-3.333333333332966e-05,-1.4999999999987246e-05,0.00039693187643563554,-0.00016739591218328798,-0.00011890439571859979
150000000000.0,1,0.01495514125,-0.028733484499999996,-0.01687724465,-0.005862,-0.006326,0.005648,-2.0575332365,-9.5170596255,1.16699135,-2.0867,1.3272,-1.7793,7.999999999996898e-05,-0.0004999999999999449,2.0000000000020002e-05,-0.00030121689726492207,-0.00018426914478442136,-0.000334951613314205
150000000000.0,1,0.01118938765,-0.036853390699999995,-0.0055309506,-0.004749,-0.003134,0.001374,-2.0573371035,-9.5172557585,1.166402951,-2.0866,1.3272,-1.7796,0.0008200000000000429,-0.0004999999999999449,0.0007000000000000339,-0.009674461993040007,0.002170224323569503,0.01384586866080062
150000000000.0,1,0.0311459204,-0.0289688441,0.0178088764,-0.011134,-0.003078,-0.001842,-2.056454505,-9.517451891499999,1.1658145519999998,-2.0865,1.3273,-1.7797,9.999999999998899e-05,-1.2499999999970868e-05,4.0000000000040004e-05,-0.00022164935183655032,-0.0004118660063565649,0.00019946022714312228
150000000000.0,1,0.03205793885,-0.0097478101,0.01511204765,0.002771,-0.002122,-0.007158,-2.0552777069999997,-9.5176480245,1.1661087515,-2.0869,1.3274,-1.7793,4.999999999999449e-05,-1.2499999999970868e-05,-1.0000000000065512e-05,1.0546774014130733e-06,-0.00030970979413691424,-0.00014939412939629637
150000000000.0,1,0.0140235095,0.00279489525,0.008119906199999999,-0.00253,5.6e-05,-0.010374,-2.0541989755,-9.517942223999999,1.1659126185,-2.087,1.3275,-1.7792,7.999999999996898e-05,-1.2499999999970868e-05,4.0000000000040004e-05,-0.00027899400573216937,-0.0006392839179156784,0.00029941615824824463
150000000000.0,1,0.0085317855,-0.01318994425,0.0151218543,-0.005676,0.005412,-0.012524,-2.052924111,-9.5182364235,1.1655203525,-2.0872,1.3277,-1.779,4.0000000000040004e-05,-1.2499999999970868e-05,-1.0000000000065512e-05,0.00012756260965041122,-0.00013026280530437084,-0.00018655455025540224
150000000000.0,1,0.00430511935,-0.028194118749999997,0.0017259703999999998,-0.002455,0.00539,-0.016789,-2.051158914,-9.518726756,1.1651280865,-2.0874,1.3279,-1.7787,2.999999999997449e-05,-1.2500000000192912e-05,-9.99999999995449e-06,0.00012537929868283726,-0.0002957975739437124,-6.512506124978223e-05
150000000000.0,1,0.0050798447,-0.01640652545,0.0021378497,-0.003496,0.008595,-0.016797,-2.04958985,-9.519119022,1.164637754,-2.0875,1.328,-1.7785,4.999999999999449e-05,-1.2499999999970868e-05,9.99999999995449e-06,0.00013035967412733385,-0.00028406422443927326,8.002136373930213e-05
150000000000.0,1,0.022584714949999998,-0.0160632927,0.013739116649999997,-0.000262,0.010703,-0.019999,-2.0473343205,-9.5196093545,1.1645396874999998,-2.088,1.3282,-1.778,5.999999999994898e-05,-1.2499999999970868e-05,3.0000000000085514e-05,-9.977064510735545e-05,-0.0004164433760061037,4.3857770965827214e-05
150000000000.0,1,0.029115943849999996,-0.03141069995,0.01748525695,-0.0024,0.010719,-0.018937,-2.045078791,-9.520099687,1.1643435545,-2.0884,1.3285,-1.7774,1.0000000000065512e-05,-1.2499999999970868e-05,-2.0000000000020002e-05,0.0006438217857660522,-0.00015836486227649438,-0.0005549147505039542
150000000000.0,1,0.025203090499999997,-0.05327952945,0.013131104349999999,-0.003462,0.010729,-0.020008,-2.0426271285,-9.520688086,1.1639512885,-2.0887,1.3287,-1.777,2.0000000000020002e-05,9.090909090847532e-06,2.999999999997449e-05,-0.0009116740657504341,-0.00011270123437845392,0.0003298593312575093
150000000000.0,1,0.0110619012,-0.0546818804,0.00208881645,-0.00875,0.017164,-0.018963,-2.040567732,-9.5211784185,1.1629706235,-2.0888,1.3289,-1.7767,4.999999999999449e-05,9.090909091069577e-06,9.99999999995449e-06,0.0007291349527669411,-0.0002954574620335215,-0.00018814697993685403
150000000000.0,1,0.009129991149999999,-0.032489431449999995,0.0162005858,-0.004505,0.014997,-0.017885,-2.0387044684999998,-9.521668751,1.1623822245,-2.089,1.3292,-1.7764,1.999999999990898e-05,9.090909090847532e-06,1.0000000000065512e-05,0.00018784246639125257,-0.00043440320739174254,0.0002741800391774518
150000000000.0,1,0.0038834333999999996,-0.0378928956,0.0136900834,-0.003451,0.013921,-0.016815,-2.0370373379999998,-9.5221590835,1.1616957589999999,-2.0891,1.3293,-1.7761,-9.99999999995449e-06,9.090909090847532e-06,-1.0000000000065512e-05,-0.0002280031448589348,-8.329759442959883e-05,3.389861096292357e-05
150000000000.0,1,0.00104931155,-0.04955300245,0.0073549875,-0.003407,0.018186,-0.018958,-2.035272141,-9.522649416,1.1610092934999998,-2.0892,1.3295,-1.7759,-5.000000000032756e-06,9.090909090847532e-06,5.000000000032756e-06,0.0009024759626408141,-0.00031335499579254744,5.469677591318778e-05
150000000000.0,1,0.00850236555,-0.0259287826,0.0037461403,0.001902,0.014945,-0.018944,-2.0334088775,-9.523041682,1.160715094,-2.0895,1.3297,-1.7754,-4.999999999921734e-06,9.090909091069577e-06,5.000000000032756e-06,-0.0004230826713955693,2.8481406395997055e-05,0.00024152203722882515
150000000000.0,1,0.00326561445,0.011993532949999998,9.80665e-05,0.002986,0.017067,-0.018946,-2.031741747,-9.523433948,1.1606170274999998,-2.0898,1.3299,-1.7749,-1.0000000000065512e-05,9.090909090847532e-06,-1.0000000000065512e-05,0.00031240356673278846,-0.00024956187143088115,0.00023605880275212598
150000000000.0,1,-0.0168085981,0.0,0.01609271265,0.001949,0.021337,-0.017887,-2.030564949,-9.523728147499998,1.160518961,-2.09,1.33,-1.7745,-2.0000000000020002e-05,9.090909090847532e-06,-9.99999999995449e-06,5.707865921844579e-05,-5.0385935102648105e-05,0.0001128433861934397
150000000000.0,1,-0.011434553899999998,-0.00410898635,0.0341075287,0.000889,0.023475,-0.015757,-2.0292900845,-9.5239242805,1.160715094,-2.0904,1.3301,-1.7739,-9.99999999995449e-06,9.090909090847532e-06,-4.0000000000040004e-05,0.00023501704748962737,-8.61098558502249e-05,9.319510477479032e-05
150000000000.0,1,-0.019505426849999997,-0.0157887065,0.02944936995,0.007332,0.029813,-0.013622,-2.028407486,-9.524022347,1.16110736,-2.0907,1.3301,-1.7733,-2.0000000000020002e-05,9.090909091069577e-06,-9.99999999995449e-06,0.00014336862935526717,-0.0001838735284647175,0.0002732304635107985
150000000000.0,1,-0.013297817399999998,-0.01952504015,0.029812216,0.000935,0.03093,-0.012567,-2.0277210205,-9.524218479999998,1.1610092934999998,-2.0908,1.3302,-1.7729,-2.999999999997449e-05,9.090909090847532e-06,-4.0000000000040004e-05,0.00020455794648044368,2.674827802140456e-05,0.00012697734005640005
150000000000.0,1,-0.0140823494,-0.0037657536,0.021751149699999996,-0.002256,0.032022,-0.012574,-2.0271326215,-9.524414613,1.160518961,-2.0908,1.3303,-1.7726,-0.00036000000000002697,0.00039999999999995595,-0.00034000000000000696,0.013072123595197382,0.0029901090864066227,-0.007959792230164076
150000000000.0,1,-0.0017848103,0.009169217749999998,-0.0036088471999999997,-0.000139,0.032001,-0.009368,-2.0265442225,-9.524610745999999,1.159734429,-2.0906,1.3304,-1.7725,-4.999999999999449e-05,4.999999999988347e-05,-1.999999999990898e-05,-0.0006437497735616304,0.00017163420473975677,6.61197998551577e-05
150000000000.0,1,0.00936535075,0.0205547384,-0.020299765499999997,0.003014,0.028774,-0.005087,-2.0261519564999997,-9.524806879,1.1590479635,-2.0904,1.3305,-1.7723,-2.999999999997449e-05,5.0000000000105516e-05,-3.0000000000085514e-05,4.9032487466016406e-05,-0.00011855285683548544,0.00011909490366657227
150000000000.0,1,0.0151610809,0.02452643165,-0.022555295,0.007293,0.030869,-0.004017,-2.0259558235,-9.5249049455,1.1587537639999999,-2.0903,1.3305,-1.7721,-9.99999999995449e-06,3.333333333332966e-05,-9.99999999995449e-06,0.0001542363795752344,-0.0001635291033836861,9.89761392231614e-05
150000000000.0,1,0.008816178349999999,0.020338992099999998,-0.0196917532,0.007264,0.028736,-0.001878,-2.02605389,-9.5249049455,1.1585576309999999,-2.0902,1.3305,-1.7719,-5.0000000000105516e-05,3.333333333332966e-05,-4.0000000000040004e-05,-7.586407493143099e-05,-6.809763472714891e-05,0.00025399468244913237
150000000000.0,1,0.00361865385,0.00885540495,-0.0181815291,0.016846,0.027589,0.000275,-2.026446156,-9.524708812499998,1.1588518305,-2.0903,1.3304,-1.7715,-6.999999999990347e-05,3.333333333332966e-05,-3.999999999992898e-05,-0.00022427970926641727,3.5826412547734776e-05,-5.2922862502913226e-05
150000000000.0,1,0.008688691899999998,-0.017426417049999997,-0.011032481249999998,0.00512,0.030879,0.003451,-2.026838422,-9.524708812499998,1.1589498969999998,-2.0902,1.3304,-1.7713,-4.999999999999449e-05,0.00024999999999986144,-4.0000000000040004e-05,0.0003431106657036942,0.00011374263883845437,0.0003491007633364962
150000000000.0,1,-0.004167826249999999,-0.0401876517,-0.0021966895999999997,0.010437,0.028704,0.003463,-2.027426821,-9.524512679499999,1.1592440965,-2.0902,1.3303,-1.771,-0.00048000000000003595,0.0002500000000000835,-0.0005100000000000104,-0.003869464004121248,-0.0050779550723465405,-0.005802885540896474
150000000000.0,1,-0.0050798447,-0.021721729749999998,-0.000196133,0.009337,0.026579,0.006668,-2.0283094195,-9.524218479999998,1.1596363625,-2.0901,1.3302,-1.7708,-4.999999999999449e-05,9.999999999998899e-05,-4.999999999999449e-05,-0.0003270003711552949,-0.00010745172715731499,0.0002750832330210562
150000000000.0,1,0.00020593964999999999,-0.0078845466,-0.0034323275,0.005067,0.027677,0.008793,-2.0294862174999997,-9.524022347,1.1595382959999998,-2.0899,1.3301,-1.7707,-4.999999999999449e-05,2.4999999999941735e-05,-7.00000000000145e-05,-7.124182395323864e-05,6.274313135934406e-06,0.0003244923806871025
150000000000.0,1,0.011287454149999999,-0.00018632635,0.00383440015,0.006137,0.028733,0.00986,-2.0304668825,-9.523826214,1.1596363625,-2.0897,1.33,-1.7707,-6.0000000000060005e-05,2.4999999999941735e-05,-2.999999999997449e-05,8.225215802548647e-05,7.096506045334294e-05,0.00016962506606688077
150000000000.0,1,0.017063571,0.01389602305,0.007384407449999999,0.008269,0.029779,0.011996,-2.0316436804999998,-9.5235320145,1.159930562,-2.0896,1.3299,-1.7705,-4.999999999999449e-05,2.500000000016378e-05,9.99999999995449e-06,-0.00036000523159418485,-0.00011807998758617266,0.00015472724708709418
150000000000.0,1,0.027772432799999996,0.00430511935,0.0213196571,0.009345,0.030835,0.011994,-2.0327224119999996,-9.523237815,1.160518961,-2.0895,1.3298,-1.7702,-5.999999999994898e-05,2.4999999999941735e-05,9.99999999995449e-06,-0.000254715445319631,3.573251228061736e-05,0.00020464672271003348
150000000000.0,1,0.049503969200000005,0.010042009599999999,0.01318994425,0.014691,0.030793,0.009867,-2.0334088775,-9.5229436155,1.161499626,-2.0898,1.3297,-1.7697,-6.0000000000060005e-05,-3.333333333332966e-05,1.0000000000065512e-05,-0.0001501499243481419,4.214586733630732e-05,1.5834377290468993e-05
150000000000.0,1,0.06781298475,0.00854159215,0.0035990405499999995,0.017909,0.032897,0.009865,-2.0336050105,-9.522845549,1.1623822245,-2.0901,1.3296,-1.769,-5.999999999994898e-05,-3.333333333332966e-05,4.0000000000040004e-05,4.3909902447847315e-05,0.00018682623065435777,0.00011621425182428702
150000000000.0,1,0.06966644159999999,-0.02888058425,0.006413549099999999,0.020057,0.033945,0.008796,-2.0337030769999997,-9.522649416,1.1635590225,-2.0905,1.3295,-1.7683,-4.0000000000040004e-05,-3.333333333332966e-05,2.4999999999941735e-05,0.00025448389389781667,-0.00018133590669244803,0.0001227207091069049
150000000000.0,1,0.07638399685,-0.06285081984999999,0.01909354755,0.024313,0.031779,0.007735,-2.0333108109999998,-9.522453282999999,1.1654222859999999,-2.0912,1.3295,-1.7672,-2.999999999997449e-05,9.999999999998899e-05,2.5000000000052758e-05,-0.00016031147239892185,0.00029782126830046884,0.0001291686707121098
150000000000.0,1,0.06763646505,-0.10323460455,0.01577889985,0.020026,0.028618,0.006661,-2.0330166115,-9.5223552165,1.1670894165,-2.0919,1.3294,-1.7662,-2.0000000000020002e-05,1.666666666655381e-05,-2.5000000000052758e-05,-0.00016684287958335098,8.804186592170637e-05,0.00013054709261706154
150000000000.0,1,0.0592910059,-0.16713473594999997,0.02048609185,0.023238,0.030721,0.007725,-2.032526279,-9.5221590835,1.169148813,-2.0928,1.3294,-1.765,-3.3333333333551707e-06,1.6666666666775853e-05,-2.4999999999941735e-05,-7.07690454964105e-05,-6.05955325683194e-05,-0.00019914611349480804
150000000000.0,1,0.03678474415,-0.21829602899999997,0.0171224109,0.010444,0.031892,0.007697,-2.032330146,-9.52225715,1.1693449459999998,-2.0929,1.3294,-1.7646,-3.3333333332441484e-06,1.6666666666775853e-05,1.0000000000065512e-05,-0.00017456891422851228,7.184260203985104e-05,-7.150441884418157e-05
150000000000.0,1,0.02958666305,-0.20466478549999997,0.013925443,0.002948,0.029819,0.009819,-2.032526279,-9.52225715,1.1689526799999999,-2.0927,1.3294,-1.7644,-3.3333333333551707e-06,1.666666666655381e-05,9.99999999995449e-06,4.040711256769747e-05,0.00010035578942391155,5.743018600123939e-06
150000000000.0,1,0.06606740105,-0.15338581264999998,-0.00269682875,-0.00135,0.028784,0.014078,-2.0326243455,-9.5223552165,1.167972015,-2.0923,1.3294,-1.7646,3.3333333333551707e-06,1.666666666655381e-05,-3.3333333333551707e-06,-5.937775979347748e-05,-4.664138898946568e-05,-0.00020423443848915923
150000000000.0,1,0.1169148813,-0.0516418189,-0.03227368515,0.001811,0.026622,0.018351,-2.0326243455,-9.522453282999999,1.166795217,-2.0919,1.3295,-1.7647,3.3333333332441484e-06,1.6666666666775853e-05,-3.3333333333551707e-06,0.00028156093895193024,-0.00028262508998744273,-0.00024103732185065674
150000000000.0,1,0.15648471404999997,0.0216726965,-0.05171046544999999,0.008128,0.016977,0.019438,-2.0322320795,-9.522649416,1.166402951,-2.0918,1.3295,-1.7646,3.3333333333551707e-06,1.999999999990898e-05,-3.3333333333551707e-06,-6.794296201828587e-05,-2.54479540882091e-05,-4.626316237654748e-06
150000000000.0,1,0.17517618895,0.057623875399999996,-0.07666838969999999,0.01557,0.012655,0.017316,-2.0314475475,-9.522845549,1.1662068179999998,-2.0919,1.3296,-1.7644,-9.99999999995449e-06,2.0000000000131024e-05,1.0000000000065512e-05,-0.00012540978566777383,-0.00012903476680659054,-8.96024739170942e-05
150000000000.0,1,0.16675227659999997,0.0449536836,-0.09442823285,0.019818,0.007296,0.011987,-2.0303688159999997,-9.523041682,1.166402951,-2.0923,1.3297,-1.764,3.999999999992898e-05,1.999999999990898e-05,-5.000000000032756e-06,5.452924042481655e-05,-0.0003096666489561528,-0.00027181352718341767
150000000000.0,1,0.1309776174,-0.00122583125,-0.0885540495,0.020883,0.004095,0.006651,-2.0290939515,-9.523237815,1.166795217,-2.0927,1.3298,-1.7635,2.0000000000020002e-05,2.0000000000131024e-05,-5.000000000032756e-06,-2.8197135902630066e-05,-0.00011182841644719055,0.00020513280483958063
150000000000.0,1,0.11978822974999999,-0.032048132199999996,-0.061271949199999995,0.015603,0.007342,0.000225,-2.027426821,-9.5235320145,1.167383616,-2.0932,1.3299,-1.7628,2.0000000000020002e-05,1.999999999990898e-05,-1.4999999999987246e-05,-4.848191365058874e-05,0.0002480869393655105,-0.00040544876891279724
150000000000.0,1,0.1305657381,-0.059977471399999996,-0.026615248099999995,0.008147,0.006341,-0.004063,-2.0247790254999996,-9.524022347,1.167775882,-2.0939,1.3301,-1.7621,4.999999999999449e-05,2.500000000016378e-05,-1.4999999999987246e-05,-2.6443717009438927e-05,-0.0003124509371161821,-0.00014107139008845415
150000000000.0,1,0.12412276905,-0.0782178404,-0.01538663385,-0.000375,0.007477,-0.005154,-2.02213123,-9.524610745999999,1.1674816825,-2.0944,1.3304,-1.7615,4.0000000000040004e-05,2.4999999999941735e-05,-2.0000000000020002e-05,-0.00017137530373556586,-0.00013041572093719367,-0.0004781883971953782
150000000000.0,1,0.12213201909999999,-0.083356525,-0.00981645665,-0.00571,0.00752,-0.005171,-2.019385368,-9.5252972115,1.1665010175,-2.0946,1.3307,-1.7612,2.999999999997449e-05,2.4999999999941735e-05,5.000000000032756e-06,-0.0002701035159058396,-1.6996459120122154e-05,-0.0002931012050301218
150000000000.0,1,0.1176994133,-0.04731708625,-0.01740680375,-0.00466,0.007508,-0.001973,-2.017227905,-9.5258856105,1.1656184189999999,-2.0947,1.3309,-1.7611,2.999999999997449e-05,2.500000000016378e-05,5.000000000032756e-06,-0.00035473887184234165,-0.00017995939153414575,-0.00026330061781132397
150000000000.0,1,0.11451225204999999,-0.00887501825,-0.010787315,0.000633,0.004263,0.001238,-2.0153646414999997,-9.526375943,1.1652261529999999,-2.095,1.3311,-1.7607,1.0000000000065512e-05,-5.0000000000105516e-05,1.999999999990898e-05,-0.00027399008389683566,0.0001395088006881373,-0.0003991590009558843
150000000000.0,1,0.11429650575,0.016661498349999998,-0.0232613738,0.008011,-0.004328,0.00553,-2.013893644,-9.526572075999999,1.1656184189999999,-2.0955,1.3312,-1.7603,9.99999999995449e-06,-5.0000000000105516e-05,2.0000000000020002e-05,-0.00017049984085337755,-0.00012378705260007727,-0.0006882458493173704
150000000000.0,1,0.10798102315,0.011424747249999999,-0.014719781649999998,0.01011,-0.008608,0.005535,-2.012716846,-9.526768209,1.1665010175,-2.096,1.3313,-1.7598,9.99999999995449e-06,1.0000000000065512e-05,2.999999999997449e-05,-0.0002238074381133437,-4.162424607234705e-05,-0.0003388941764298492
150000000000.0,1,0.0748639661,-0.0234378935,-0.0012748644999999999,0.011163,-0.009684,0.006603,-2.011932314,-9.526768209,1.1678739485,-2.0967,1.3313,-1.7592,-1.999999999990898e-05,1.0000000000065512e-05,4.0000000000040004e-05,-0.00015002250927831362,-0.0001952461919678683,-0.0005120424962004044
150000000000.0,1,0.05269113045,-0.06681270645,0.015229727449999998,0.011145,-0.013943,0.003404,-2.0110497155,-9.526768209,1.1692468795,-2.0975,1.3313,-1.7586,-1.0000000000065512e-05,9.999999999843467e-06,2.999999999997449e-05,6.92317232402484e-05,-0.00010434764434252841,-0.0007233719155489426
150000000000.0,1,0.027556686499999997,-0.0906330593,0.03480380085,0.006855,-0.018169,0.001267,-2.0102651835,-9.5266701425,1.1708159434999998,-2.0982,1.3313,-1.7581,-2.500000000016378e-06,1.0000000000065512e-05,4.999999999999449e-05,-0.00016078363939264761,-0.00011730009976851363,-0.0004815353608185191
150000000000.0,1,0.01968194655,-0.09181966394999999,0.03805960865,0.002581,-0.0192,0.001259,-2.0095787179999998,-9.526768209,1.1718946749999999,-2.0987,1.3313,-1.7577,-2.500000000016378e-06,1.0000000000065512e-05,3.0000000000085514e-05,-0.0001156627876552907,1.2235261260373775e-05,-0.00084695479558905
150000000000.0,1,0.00408937305,-0.1058333668,0.0320089056,-0.002773,-0.022352,0.000187,-2.0089903189999996,-9.526768209,1.1725811405,-2.0991,1.3313,-1.7576,-2.4999999999053557e-06,1.0000000000065512e-05,9.99999999995449e-06,-0.0003829668617902904,-6.6323490459652135e-06,-0.000801178293999838
150000000000.0,1,-0.0013533177,-0.1238383762,0.0254188368,-0.009188,-0.023366,0.001244,-2.00840192,-9.5268662755,1.1725811405,-2.0992,1.3314,-1.7577,-2.500000000016378e-06,1.0000000000065512e-05,3.3333333333551707e-06,-0.00045259251366513986,-7.873732623187024e-05,-0.0013090389918283263
150000000000.0,1,-0.01556315355,-0.11132509079999998,0.019485813549999998,-0.008191,-0.030835,0.003393,-2.0081077205,-9.526964342,1.1723850075,-2.0992,1.3314,-1.758,-2.0000000000020002e-05,9.999999999843467e-06,3.3333333332441484e-06,-0.0005101179763560282,-0.00021784729453022678,-0.00033997329354296113
150000000000.0,1,-0.0223983886,-0.07797267414999999,0.011964112999999998,-0.006071,-0.031919,0.004466,-2.0082057869999996,-9.526964342,1.1723850075,-2.0992,1.3314,-1.7583,-2.0000000000020002e-05,1.0000000000065512e-05,3.3333333333551707e-06,-0.00039045297276030233,-0.0002416573968309077,-0.0006286271482415229
150000000000.0,1,-0.005942829899999999,-0.0423843413,-0.0009218250999999998,-0.003994,-0.038331,0.005548,-2.0082057869999996,-9.526964342,1.1725811405,-2.0993,1.3314,-1.7586,-2.999999999997449e-05,1.0000000000065512e-05,3.0000000000085514e-05,-0.00012417718945223477,-0.00014744126961274695,-0.000431372425589438
150000000000.0,1,0.0250657974,0.0155925735,-0.013052651149999999,0.004504,-0.0416,0.007703,-2.0081077205,-9.5268662755,1.173463739,-2.0997,1.3313,-1.7587,-4.0000000000040004e-05,-0.00010000000000021103,-1.0000000000065512e-05,-6.037555571714037e-05,-0.00031508944230385083,-0.0012138556795373567
150000000000.0,1,0.0519556317,0.06473369664999999,-0.023447700149999997,0.009801,-0.046971,0.006652,-2.007617388,-9.526768209,1.175032803,-2.1003,1.3313,-1.7585,-2.999999999997449e-05,-9.999999999998899e-05,2.0000000000020002e-05,-0.00027719429618233704,-0.0003035074707942176,-0.00030767799914788174
150000000000.0,1,0.0723338504,0.0798065177,-0.01860321505,0.012986,-0.050192,0.004525,-2.0065386564999996,-9.526768209,1.1770921994999999,-2.1013,1.3313,-1.758,-2.999999999997449e-05,-9.999999999998899e-05,9.99999999995449e-06,-0.00022843378604253672,-7.829615426557801e-05,-0.0005503015111222309
150000000000.0,1,0.0786885596,0.04125657654999999,-0.0055897905,0.014083,-0.049132,0.000252,-2.0049695924999997,-9.526768209,1.179347729,-2.1025,1.3313,-1.7573,-1.0000000000065512e-05,-9.999999999998899e-05,1.0000000000065512e-05,-0.00014349993086870683,-0.00020366590388132266,-0.00045258084811838906
150000000000.0,1,0.05470149369999999,-0.00514849125,0.02768417295,0.013037,-0.048056,-0.001889,-2.0034005285,-9.526768209,1.1820935909999999,-2.1039,1.3313,-1.7564,-9.99999999995449e-06,-9.999999999998899e-05,9.99999999995449e-06,-0.0007506730212409884,-1.526744871793717e-05,-0.0007061656845367414
150000000000.0,1,0.031234180249999997,-0.05916351945,0.04847427095,0.008807,-0.044823,-0.00404,-2.0018314645,-9.526768209,1.184839453,-2.1052,1.3313,-1.7555,-9.99999999995449e-06,-9.999999999998899e-05,1.0000000000065512e-05,-0.00024121747657801507,-8.360071708168881e-05,-0.00024368274165709192
150000000000.0,1,0.0126898051,-0.07758040814999999,0.05282842355,0.009929,-0.039502,-0.006184,-2.0003604669999997,-9.526768209,1.1873891819999998,-2.1065,1.3313,-1.7547,4.999999999921734e-06,-9.999999999998899e-05,9.99999999995449e-06,-0.00013384194750609701,-7.432337403101563e-05,-0.0003628661215530071
150000000000.0,1,0.01807365595,-0.0594871389,0.04755244585,0.007802,-0.036293,-0.001925,-1.9990856025,-9.526768209,1.189546645,-2.1075,1.3313,-1.754,5.000000000032756e-06,-9.999999999998899e-05,2.999999999997449e-05,0.00026987436818681765,0.00010577318394289215,-0.000271299837331207
150000000000.0,1,0.0497197155,-0.024124358999999998,0.03223445855,0.007804,-0.034166,0.001271,-1.9977126715,-9.526768209,1.191507975,-2.1086,1.3313,-1.7533,9.99999999995449e-06,-9.999999999998899e-05,3.0000000000085514e-05,0.00014078578197018743,-5.1134604546199114e-05,-0.00025941229451575953
150000000000.0,1,0.07604076409999999,0.00718827445,-0.0051582979,0.012059,-0.03314,0.005542,-1.996437807,-9.5268662755,1.1932731719999998,-2.1095,1.3313,-1.7527,1.0000000000065512e-05,-9.999999999998899e-05,3.999999999992898e-05,-4.079413522917186e-05,0.00015875464775039205,-0.0005471967145456169
150000000000.0,1,0.09906677829999999,0.0064920023,-0.01915238745,0.012042,-0.033144,0.008739,-1.9952610089999998,-9.5268662755,1.194842236,-2.1104,1.3314,-1.7522,0.0009599999999999609,-9.999999999998899e-05,0.0008500000000000174,-0.007210152407125525,0.004793323731794974,0.013714923794059142
150000000000.0,1,0.0774529217,-0.047944711849999995,-0.03805960865,0.012073,-0.027819,0.01086,-1.9944764769999999,-9.5268662755,1.1959209675,-2.1109,1.3314,-1.7519,1.0000000000065512e-05,3.333333333332966e-05,7.00000000000145e-05,0.0002271684500436688,-0.00018220148314562756,0.00016786129115275994
150000000000.0,1,0.051886985149999995,-0.0759623109,-0.044522190999999996,0.010985,-0.028878,0.012991,-1.9941822775,-9.5268662755,1.1967054995,-2.1113,1.3314,-1.7518,9.99999999995449e-06,3.333333333332966e-05,5.999999999994898e-05,8.176973385642938e-05,-6.939600496247422e-06,-0.00010276224871708095
150000000000.0,1,0.0534070159,-0.0815717147,-0.046091255,0.007805,-0.024592,0.01511,-1.9941822775,-9.526768209,1.1972938985,-2.1115,1.3313,-1.7519,-2.999999999997449e-05,3.333333333332966e-05,-1.999999999990898e-05,0.0009371986111845754,3.5091506875639666e-05,-0.0006630768869456682
150000000000.0,1,0.041962655349999996,-0.1025579457,-0.045149816599999996,0.003553,-0.022426,0.015095,-1.9944764769999999,-9.526768209,1.1971958319999998,-2.1114,1.3313,-1.7522,-6.0000000000060005e-05,9.999999999998899e-05,-3.0000000000085514e-05,-0.0007365538633654634,-0.0012061027457346274,-0.0002517265367082411
150000000000.0,1,0.03817728845,-0.09703680174999998,-0.05628036435,-0.002847,-0.01918,0.019345,-1.9949668095,-9.526768209,1.1964112999999998,-2.111,1.3313,-1.7528,1.0000000000065512e-05,5.0000000000105516e-05,2.0000000000020002e-05,0.0004928612513224184,-0.000218430845101647,0.0007471980524548227
150000000000.0,1,0.03990325885,-0.08105196225,-0.08052240314999999,-0.011346,-0.014847,0.018253,-1.9956532749999998,-9.5268662755,1.194253837,-2.1101,1.3314,-1.7539,2.0000000000020002e-05,4.999999999988347e-05,-2.0000000000020002e-05,-0.0023257205689337646,7.161209034722837e-05,-0.0002758465771908192
150000000000.0,1,0.0381086419,-0.0586633803,-0.08992698049999999,-0.020904,-0.009439,0.017157,-1.996437807,-9.527160475,1.191115709,-2.1087,1.3315,-1.7554,1.999999999990898e-05,9.999999999998899e-05,3.0000000000085514e-05,0.0006904213239931067,-0.00028866033432595195,0.00015416603834872422
150000000000.0,1,0.041854782199999996,-0.03827535494999999,-0.0902407933,-0.024055,-0.004082,0.015005,-1.9970262059999997,-9.5274546745,1.1873891819999998,-2.1072,1.3316,-1.757,-9.99999999995449e-06,9.999999999998899e-05,-1.0000000000065512e-05,-0.00027879107565098593,-0.00014668433987519158,-4.842834002749541e-05
150000000000.0,1,0.04939609605,-0.013925443,-0.09538928455,-0.019737,0.000149,0.010733,-1.997222339,-9.5278469405,1.183662655,-2.1058,1.3318,-1.7584,4.0000000000040004e-05,0.00029999999999996696,4.0000000000040004e-05,8.639273545130166e-05,-0.00042316889373705813,0.0005443580853771168
150000000000.0,1,0.054466134099999994,0.016033872749999997,-0.0953598646,-0.010094,0.004335,0.008605,-1.9973204054999998,-9.528239206499999,1.1808187264999999,-2.1047,1.3319,-1.7595,2.999999999997449e-05,9.999999999998899e-05,-1.0000000000065512e-05,5.1553833999129495e-05,-0.0006812926323220836,0.0009557392409347276
150000000000.0,1,0.07761963475,0.0480721983,-0.0966739557,-0.000463,0.00639,0.005413,-1.9970262059999997,-9.528533406,1.1788573965,-2.1041,1.3321,-1.7601,-2.999999999997449e-05,0.00020000000000020002,-9.99999999995449e-06,-0.000857669702784003,-0.00046515573314809266,0.0001996540651242329
150000000000.0,1,0.1043623693,0.05694721654999999,-0.0996747906,0.00813,0.012715,0.003277,-1.996045541,-9.5288276055,1.1776805985,-2.1038,1.3322,-1.7602,9.99999999995449e-06,9.999999999998899e-05,2.0000000000020002e-05,5.119373356166079e-05,-4.726514091224487e-06,0.00015419751447409702
150000000000.0,1,0.1015380541,0.0459931885,-0.08139519499999999,0.015662,0.01905,7.2e-05,-1.9948687429999998,-9.529121804999999,1.1774844654999999,-2.104,1.3323,-1.7598,2.999999999997449e-05,9.999999999998899e-05,9.99999999995449e-06,-0.0006174670924663506,-4.2709803169671545e-05,0.00042653958571425843
150000000000.0,1,0.08226798685,0.0027556686499999998,-0.037814442399999995,0.018963,0.029682,-0.003147,-1.9937900114999998,-9.529317938,1.178170931,-2.1045,1.3324,-1.759,1.0000000000065512e-05,0.00019999999999997797,9.00000000000345e-05,0.0003826354159448542,-0.00027143027620213367,0.0009838918271078967
150000000000.0,1,0.06012457115,-0.033734876,-0.0183972754,0.016912,0.038227,-0.006372,-1.992515147,-9.5294160045,1.1788573965,-2.105,1.3325,-1.7581,-0.0007400000000000739,0.0009999999999998899,-0.0006399999999999739,0.009832418706077206,-0.0017839833574029296,-0.01317388584519652
150000000000.0,1,0.0574473557,-0.0561528779,0.016818404749999998,0.014844,0.045703,-0.007459,-1.9912402825,-9.5296121375,1.1796419285,-2.1056,1.3325,-1.7571,2.0000000000020002e-05,9.999999999998899e-05,7.999999999996898e-05,0.0005046603761256208,7.103905755490025e-05,0.00028662856908212575
150000000000.0,1,0.044737937299999996,-0.07087265955,0.0358531124,0.013822,0.053167,-0.004275,-1.990357684,-9.529710203999999,1.1804264604999999,-2.1061,1.3326,-1.7561,-9.99999999995449e-06,4.999999999988347e-05,2.999999999997449e-05,-3.0313242839419274e-05,0.00013186061844083774,0.0005314749652944872
150000000000.0,1,0.03686319735,-0.092574776,0.04265892749999999,0.013845,0.05849,-1.8e-05,-1.9899654179999997,-9.529710203999999,1.181112926,-2.1064,1.3326,-1.7552,-2.0000000000020002e-05,5.0000000000105516e-05,6.0000000000060005e-05,1.509759786011422e-05,-6.326450110449855e-06,0.00036694004194282037
150000000000.0,1,0.02399687255,-0.10341112425,0.04308061345,0.01064,0.058515,0.001042,-1.9899654179999997,-9.529710203999999,1.181505192,-2.1066,1.3326,-1.7544,-2.999999999997449e-05,9.999999999998899e-05,3.999999999992898e-05,0.0001371996300514322,-8.927568137018227e-05,0.0005794190613533923
150000000000.0,1,-0.00452086565,-0.0946145592,0.0284000584,0.006344,0.05748,0.005305,-1.9909460829999999,-9.529514071,1.1814071254999998,-2.1064,1.3325,-1.7541,-2.0000000000020002e-05,9.999999999998899e-05,4.0000000000040004e-05,0.0001523585430118768,-6.001168776403887e-05,0.0002598340968554824
150000000000.0,1,-0.0036971070499999996,-0.1002631896,0.02211399575,0.001004,0.057522,0.006362,-1.9918286815,-9.529317938,1.1807206599999998,-2.1059,1.3324,-1.754,-2.999999999997449e-05,5.0000000000105516e-05,2.999999999997449e-05,-2.5417723878984333e-06,-0.00012320284287237193,0.00038990158874163683
150000000000.0,1,-0.0205351251,-0.08679865914999998,0.02958666305,-0.006491,0.055451,0.008488,-1.993299679,-9.529219871499999,1.1794457955,-2.1051,1.3324,-1.7542,-2.0000000000020002e-05,4.999999999988347e-05,4.0000000000040004e-05,0.00032524546426504486,-0.00010482274212408882,0.0003958480811848686
150000000000.0,1,-0.028056825649999995,-0.05746696899999999,0.04189400879999999,-0.010734,0.057618,0.00741,-1.9948687429999998,-9.5290237385,1.177974798,-2.1042,1.3323,-1.7546,-2.999999999997449e-05,0.00010000000000021103,5.999999999994898e-05,-6.131059804115324e-05,-0.00011224156352040993,0.00010072282721207415
150000000000.0,1,-0.00887501825,-0.0119248864,0.054652460449999996,-0.010716,0.057621,0.004208,-1.9961436074999999,-9.528925672,1.1766999335,-2.1035,1.3323,-1.7548,0.00027999999999994696,-0.001000000000000112,9.999999999998899e-05,0.008858150037224677,0.008614130533314945,0.0006937844969806539
150000000000.0,1,0.0140038962,-0.0016082905999999998,0.06545938875,-0.008612,0.052277,0.002085,-1.9967320065,-9.528925672,1.175817335,-2.103,1.3323,-1.7547,-0.00031999999999998696,0.001000000000000112,-7.999999999996898e-05,-0.009328774826035557,-0.008248710424221706,-0.0010535565830721572
150000000000.0,1,0.038549941149999996,-0.009345737449999999,0.04590492865,0.000963,0.047936,0.00104,-1.9967320065,-9.5290237385,1.1754250689999999,-2.1029,1.3323,-1.7544,-2.0000000000020002e-05,9.999999999998899e-05,2.999999999997449e-05,-0.0004386078026068496,8.042429254762062e-05,0.0004401992076515926
150000000000.0,1,0.0594871389,-0.01764216335,0.04455161095,0.006307,0.046829,-0.002154,-1.9961436074999999,-9.529121804999999,1.1757192685,-2.1031,1.3323,-1.7537,1.0000000000065512e-05,5.0000000000105516e-05,4.0000000000040004e-05,0.00048535876465227723,8.014808476208835e-05,0.00023496430964176085
150000000000.0,1,0.07502087249999999,0.00028439285,0.02789991925,0.011608,0.042522,-0.002141,-1.9951629424999997,-9.529219871499999,1.1764057339999998,-2.1035,1.3324,-1.7528,-2.0000000000020002e-05,4.999999999988347e-05,2.0000000000020002e-05,-0.0002537080987867757,-5.116670687055347e-05,0.00021023111356488489
150000000000.0,1,0.07524642545,-0.017298930599999998,0.0259680092,0.014805,0.042494,-0.001073,-1.9941822775,-9.529317938,1.177386399,-2.1041,1.3324,-1.7518,-5.000000000032756e-06,2.4999999999941735e-05,3.999999999992898e-05,-2.7641561642255397e-05,0.0001351939380771494,0.00021662569511671226
150000000000.0,1,0.06932320885,-0.052406737599999996,0.05469168705,0.01162,0.043586,-0.002152,-1.9932016124999998,-9.529317938,1.1786612635,-2.1048,1.3324,-1.7507,-5.000000000032756e-06,2.4999999999941735e-05,3.0000000000085514e-05,-4.998308243076011e-06,-0.0001187087195133607,0.00020047270797762806
150000000000.0,1,0.07287321615,-0.04684636705,0.06472388999999999,0.006276,0.04469,0.002102,-1.9926132134999999,-9.529317938,1.1795438619999998,-2.1053,1.3324,-1.7498,-4.999999999921734e-06,2.500000000016378e-05,1.999999999990898e-05,-4.3839326890893204e-06,-6.48613838829526e-05,0.0001112248629420165
150000000000.0,1,0.08625929339999999,-0.021682503149999997,0.06207609449999999,0.005182,0.043628,0.006367,-1.9920248145,-9.5294160045,1.1802303275,-2.1057,1.3324,-1.749,-5.000000000032756e-06,2.4999999999941735e-05,2.0000000000020002e-05,-7.745620304477896e-05,-4.224929308160874e-05,4.622988429014985e-05
150000000000.0,1,0.11268821514999999,0.00040207264999999996,0.0617426684,0.003045,0.043644,0.007425,-1.9912402825,-9.529514071,1.1808187264999999,-2.1061,1.3325,-1.7482,1.0000000000065512e-05,-0.00029999999999996696,4.0000000000040004e-05,2.4013839285963456e-06,7.35910754670055e-05,0.00015831161909096725
150000000000.0,1,0.10356803064999999,-0.01005181625,0.05292649005,0.007284,0.04041,0.0085,-1.99074995,-9.529514071,1.1814071254999998,-2.1064,1.3325,-1.7475,9.99999999995449e-06,-0.000300000000000189,4.999999999999449e-05,-0.0001137511518618517,0.00018132272784887604,-4.466796471525036e-05
150000000000.0,1,0.09066247925,-0.02878251775,0.05227925115,0.008328,0.037203,0.008502,-1.9904557505,-9.529514071,1.1821916575,-2.1068,1.3325,-1.7467,0.0007899999999999574,-0.00029999999999996696,0.0008500000000000174,-0.00840392496022746,0.0025434023371948555,0.01399964830785183
150000000000.0,1,0.0811206088,-0.024663724749999998,0.03813806185,0.010434,0.032924,0.007441,-1.990161551,-9.5294160045,1.1831723225,-2.1072,1.3324,-1.746,2.999999999997449e-05,0.00045000000000006146,3.999999999992898e-05,0.00023352901370476964,4.8490357256625316e-05,-3.996542541362391e-05
150000000000.0,1,0.07618786385,-0.0347351543,0.028213732049999996,0.012535,0.028643,0.007448,-1.9898673515,-9.529317938,1.1841529874999999,-2.1076,1.3324,-1.7453,-0.0007800000000000029,0.00045000000000006146,-0.0007999999999999119,0.007984583310572502,-0.0025627499899019135,-0.014132449579220552
150000000000.0,1,0.08144422825,-0.028635417999999996,0.0263210486,0.010399,0.027595,0.006374,-1.9894750854999999,-9.529317938,1.1851336525,-2.1081,1.3324,-1.7445,2.0000000000020002e-05,-0.00045000000000006146,1.999999999990898e-05,9.009879396559839e-05,-1.4821535626374782e-05,2.9428634131245524e-05
150000000000.0,1,0.09113319844999998,-0.0187503148,0.0193191005,0.009297,0.024405,0.008508,-1.988984753,-9.529317938,1.1858201179999999,-2.1084,1.3324,-1.7439,0.0008799999999999919,-0.00045000000000006146,0.0009500000000000064,-0.008439817383893988,0.0034001282615268025,0.013904129076159899
150000000000.0,1,0.10194012674999998,-0.036196345149999996,0.009502643849999999,0.009258,0.02014,0.009577,-1.9882982875,-9.5294160045,1.1866046499999998,-2.1088,1.3324,-1.7433,4.0000000000040004e-05,0.00019999999999997797,4.999999999999449e-05,-0.0006209936193670718,0.00012110222172889706,4.627864797390746e-05
150000000000.0,1,0.09292781539999999,-0.05726102934999999,0.01583773975,0.008212,0.023344,0.010632,-1.9878079549999998,-9.5294160045,1.1870949825,-2.1092,1.3325,-1.7428,-0.000280000000000058,0.00019999999999997797,-0.00024999999999997247,0.012717391433729519,0.0031895760016389385,-0.007501619837074092
150000000000.0,1,0.09299646195,-0.07158854499999999,0.016622271749999997,0.007086,0.015893,0.010637,-1.9872195559999997,-9.529514071,1.1876833814999999,-2.1095,1.3325,-1.7423,7.00000000000145e-05,-0.00019999999999997797,2.999999999997449e-05,-0.0009010676846123999,-0.00010683606130390544,-0.0002775670414346676
150000000000.0,1,0.10467618209999999,-0.0699410278,0.00508965135,0.002805,0.014861,0.011693,-1.9865330904999998,-9.5296121375,1.1876833814999999,-2.1096,1.3325,-1.742,0.00036000000000002697,-0.00019999999999997797,0.00031000000000003247,-0.01116132824231797,-0.0022689107203905934,0.007287075595305947
150000000000.0,1,0.10360725724999999,-0.05577041855,0.0023045627499999996,0.002791,0.013793,0.012756,-1.986042758,-9.529710203999999,1.187585315,-2.1097,1.3326,-1.7418,7.00000000000145e-05,-1.2499999999970868e-05,6.0000000000060005e-05,0.00019630471397147353,-0.00027506200042748397,-0.0001665469187128732
150000000000.0,1,0.10919704775,-0.036873003999999994,0.01077750835,0.003813,0.009519,0.014894,-1.9856504919999998,-9.529710203999999,1.187977581,-2.1099,1.3326,-1.7415,7.00000000000145e-05,-1.2499999999970868e-05,3.999999999992898e-05,-0.0014960245137394246,0.0003438483913658086,0.0005427022757775735
150000000000.0,1,0.12010204254999998,-0.0106107953,-0.006168382849999999,0.004863,0.007378,0.014894,-1.9851601595,-9.5298082705,1.188173714,-2.1101,1.3326,-1.7412,4.999999999999449e-05,-1.2499999999970868e-05,-9.99999999995449e-06,0.0008754826722523479,-0.00015994140677544344,-0.00027208557148594714
150000000000.0,1,0.11701294779999999,0.0108265416,-0.01813249585,0.006965,0.004162,0.015965,-1.9847678934999997,-9.529906337,1.1884679135,-2.1103,1.3327,-1.741,7.999999999996898e-05,-1.2500000000192912e-05,9.99999999995449e-06,-1.7738359621821687e-05,0.0001920974142353149,-0.0002673000461266284
150000000000.0,1,0.10530380769999999,0.0008433719,-0.01668111165,0.008027,0.000961,0.011697,-1.9842775609999999,-9.529906337,1.1889582459999999,-2.1106,1.3327,-1.7407,7.999999999996898e-05,-1.2499999999970868e-05,6.0000000000060005e-05,-0.0003115752660334259,-5.953864516272667e-05,0.00017361213642619333
150000000000.0,1,0.08563166779999999,-0.00885540495,-0.025212897149999997,0.008006,-0.002235,0.010631,-1.9839833614999998,-9.529906337,1.1894485785,-2.1109,1.3327,-1.7405,9.999999999998899e-05,-1.2499999999970868e-05,5.999999999994898e-05,-0.00040527614578711457,-0.0003308458993829255,0.0002414763783853413
150000000000.0,1,0.07873759285,-0.0021378497,-0.025369803549999997,0.01118,-0.005459,0.010638,-1.9835910955,-9.529906337,1.1900369775,-2.1112,1.3327,-1.7402,3.0000000000085514e-05,-1.2499999999970868e-05,4.0000000000040004e-05,0.0006118504470589148,-9.994504439769791e-05,0.00011761303752677588
150000000000.0,1,0.0964778227,0.0191621941,-0.026948674199999998,0.009043,-0.006506,0.009564,-1.9830026964999998,-9.5300044035,1.190723443,-2.1115,1.3327,-1.7399,5.999999999994898e-05,-1.2499999999970868e-05,5.999999999994898e-05,-0.0003499169705873939,-0.0005386035572447767,-0.00020989489480327528
150000000000.0,1,0.09478127224999999,0.0243793319,-0.037186816799999994,0.003733,-0.003266,0.009544,-1.9823162309999998,-9.53010247,1.190723443,-2.1117,1.3328,-1.7398,4.0000000000040004e-05,-4.999999999988347e-05,4.999999999999449e-05,3.657327191053383e-05,-0.0002526658104098356,0.00015349893627414346
150000000000.0,1,0.09391828705,-0.00730595425,-0.0301652554,0.000536,-0.003239,0.008467,-1.9816297655,-9.530298603,1.1904292435,-2.1118,1.3328,-1.7397,-1.0000000000065512e-05,-5.0000000000105516e-05,1.0000000000065512e-05,-0.0006866049526601525,-0.00014837606119044722,-0.0004495543143999692
150000000000.0,1,0.0669205796,-0.04992565515,-0.01564160675,-0.00479,-0.00213,0.008451,-1.9811394329999998,-9.530494736,1.1898408445,-2.1117,1.3329,-1.7399,6.0000000000060005e-05,-5.0000000000105516e-05,9.99999999995449e-06,-6.959626575797628e-05,-0.00019452377494233453,-3.5853740645075405e-05
150000000000.0,1,0.0492489963,-0.08529824169999999,-0.0017455836999999998,-0.012231,6.4e-05,0.006296,-1.9806491005,-9.530690868999999,1.1886640465,-2.1113,1.333,-1.7402,5.999999999994898e-05,-4.999999999988347e-05,4.999999999999449e-05,-0.0003837917391515955,3.027237272190675e-06,0.0006602242345193909
150000000000.0,1,0.00940457735,-0.10605891975,0.026428921749999997,-0.017478,0.009699,0.004134,-1.9805510339999999,-9.530887001999998,1.1872911154999999,-2.1108,1.3331,-1.7407,7.00000000000145e-05,-1.999999999990898e-05,2.999999999997449e-05,-0.0008352161660578616,6.9668610893636185e-06,0.0002671424760569696
150000000000.0,1,0.007207887749999999,-0.06316463265,0.04539498285,-0.017493,0.007568,0.004137,-1.9807471669999999,-9.5309850685,1.1861143175,-2.1103,1.3331,-1.7411,7.00000000000145e-05,-2.0000000000131024e-05,-3.999999999992898e-05,-0.0006887633939016702,5.473882160234034e-05,-0.0003733515696218159
150000000000.0,1,0.0097870367,-0.030175062049999996,0.05842802069999999,-0.017471,0.010763,0.005197,-1.9811394329999998,-9.531083135,1.185035586,-2.1099,1.3332,-1.7415,9.00000000000345e-05,-1.999999999990898e-05,9.99999999995449e-06,0.0004108941307923164,-0.0001410004427233602,0.000829724657917752
150000000000.0,1,0.02480101785,0.00903192465,0.054966273249999996,-0.015342,0.011807,0.0084,-1.9816297655,-9.531083135,1.1841529874999999,-2.1094,1.3332,-1.7419,2.999999999997449e-05,-2.0000000000131024e-05,-4.999999999999449e-05,0.0001320898779659796,-0.00022502614800279375,-0.0004183311737894213
150000000000.0,1,0.0449929102,0.03603943875,0.04215878835,-0.007871,0.013873,0.01161,-1.9822181644999999,-9.5309850685,1.1838587879999998,-2.1092,1.3331,-1.7421,9.00000000000345e-05,-1.999999999990898e-05,-9.99999999995449e-06,6.870939697600775e-05,0.0007839422596547241,2.0236026003983554e-05
150000000000.0,1,0.05303436319999999,0.05500549985,0.03362700285,0.000672,0.015931,0.013754,-1.9829046299999997,-9.5307889355,1.1841529874999999,-2.1091,1.3331,-1.742,2.999999999997449e-05,-0.00019999999999997797,-4.999999999999449e-05,-0.0007491422784178248,-0.0012114509949823216,-0.00014449480041012208
150000000000.0,1,0.067469752,0.057211996099999995,0.0272036471,0.013434,0.012625,0.016981,-1.9836891619999997,-9.530494736,1.185427852,-2.1094,1.3329,-1.7415,-2.999999999997449e-05,-0.00019999999999997797,-0.00019999999999997797,0.003091482294108161,0.0004621635637034327,-0.002657595915449562
150000000000.0,1,0.08020859035,0.056584370499999995,0.02311427405,0.023022,0.012542,0.020196,-1.9846698269999998,-9.5300044035,1.187781448,-2.1101,1.3327,-1.7408,0.00013999999999991797,0.00029999999999996696,0.00013999999999991797,-0.003970780054596279,-0.0008967098661094575,0.00255041910445597
150000000000.0,1,0.0883579165,0.044404511199999996,0.01434712895,0.025154,0.013587,0.022329,-1.9856504919999998,-9.529514071,1.1902331105,-2.1108,1.3325,-1.7399,-2.999999999997449e-05,-0.0004999999999999449,-0.00012999999999996348,0.003923349886831851,0.001019384517904287,-0.002793165432546263
150000000000.0,1,0.08627890669999999,0.007119627899999999,0.009561483749999999,0.023004,0.011473,0.022324,-1.9865330904999998,-9.5290237385,1.1924886399999999,-2.1114,1.3323,-1.7392,0.000140000000000029,0.00029999999999996696,0.00017000000000000348,-0.0036375372341530543,0.0005206428322963585,0.00198345188873561
150000000000.0,1,0.08275831935,-0.013954862949999999,0.005462304049999999,0.019816,0.013629,0.023378,-1.9875137554999998,-9.528533406,1.1943519034999999,-2.1119,1.3321,-1.7386,5.999999999994898e-05,-9.999999999998899e-05,-6.0000000000060005e-05,0.001108252324471648,5.4933190316575065e-06,-0.0005087639549786749
150000000000.0,1,0.068254284,-0.02650737495,0.01866205495,0.016635,0.014722,0.021232,-1.9885924869999998,-9.528141139999999,1.1959209675,-2.1123,1.3319,-1.7381,6.0000000000060005e-05,-9.999999999998899e-05,-2.999999999997449e-05,-0.0007091085807997555,0.0004001223206291371,-0.00044503615750124403
150000000000.0,1,0.0517987253,-0.0633901856,0.03296015065,0.00917,0.013719,0.019083,-1.989573152,-9.527748873999998,1.1971958319999998,-2.1125,1.3317,-1.7377,7.999999999996898e-05,-9.999999999998899e-05,1.0000000000065512e-05,-0.0002659961043192105,4.209052124437562e-05,-1.2035059895221245e-05
150000000000.0,1,0.04908228325,-0.09283955555,0.020182085699999998,0.007025,0.011606,0.018012,-1.9904557505,-9.527552741,1.1978822974999999,-2.1125,1.3316,-1.7375,6.0000000000060005e-05,-9.999999999998899e-05,9.99999999995449e-06,0.000632933764146415,0.00021861485053520369,-0.0003724639957886078
150000000000.0,1,0.05951655884999999,-0.05839860075,-0.020201699,0.004865,0.008427,0.01801,-1.9911422159999999,-9.527356608,1.1976861644999999,-2.1123,1.3316,-1.7377,5.999999999994898e-05,-4.999999999988347e-05,-9.99999999995449e-06,0.00018613122713984076,0.0003055113184522451,-0.00040396463311731523
150000000000.0,1,0.07098053269999999,-0.0288511643,-0.03490186735,0.004855,0.00736,0.018008,-1.9917306149999998,-9.527356608,1.1974900314999999,-2.1121,1.3315,-1.7378,5.999999999994898e-05,-5.0000000000105516e-05,-1.0000000000065512e-05,0.0002509207768366384,0.00031385946130457754,-0.00049358661727672
150000000000.0,1,0.0836703378,-0.020044792599999996,-0.04329635974999999,0.005891,0.00309,0.016945,-1.9920248145,-9.5272585415,1.1971958319999998,-2.1119,1.3315,-1.7379,3.0000000000085514e-05,-9.999999999998899e-05,-9.99999999995449e-06,6.808156540882848e-05,-0.0010927088794394635,-0.0003767835229988581
150000000000.0,1,0.10745146404999999,-0.01152281375,-0.05851628055,0.006951,-0.000112,0.012677,-1.991534482,-9.5274546745,1.1968035659999998,-2.1119,1.3316,-1.738,2.999999999997449e-05,-9.999999999998899e-05,-4.0000000000040004e-05,1.1932184222906983e-06,0.00015541775550365067,-0.0008615329872032618
150000000000.0,1,0.1068140318,-0.013454723799999999,-0.0628998531,0.007995,-0.003317,0.011612,-1.9909460829999999,-9.527552741,1.196607433,-2.112,1.3317,-1.738,4.999999999999449e-05,-0.00010000000000021103,-4.0000000000040004e-05,0.0005020503165003021,-5.720057557079272e-05,-0.0004990347860759359
150000000000.0,1,0.0914175913,-0.040805470649999995,-0.054328840999999996,0.004786,-0.00542,0.00947,-1.990161551,-9.527748873999998,1.1964112999999998,-2.1121,1.3317,-1.7379,2.999999999997449e-05,-0.00019999999999997797,-3.999999999992898e-05,0.00014434355137393773,0.00035818449286173504,-0.0013057857497380532
150000000000.0,1,0.08010071719999999,-0.07812958055,-0.04155077605,0.000488,-0.009646,0.008398,-1.989377019,-9.5280430735,1.195822901,-2.1121,1.3318,-1.738,9.00000000000345e-05,-3.333333333332966e-05,-2.0000000000020002e-05,0.0002701611300734985,-0.0001350996644071678,-0.0005184815314210889
150000000000.0,1,0.046973853499999996,-0.09588942369999999,-0.02948859655,-0.006965,-0.007454,0.008378,-1.988984753,-9.528239206499999,1.194842236,-2.1118,1.3319,-1.7384,2.0000000000020002e-05,-3.333333333332966e-05,-0.00012000000000000899,0.0014269694328297167,0.00023984320874781417,-0.0013644530671780286
150000000000.0,1,0.030096608849999998,-0.07375581465,-0.01144436055,-0.011247,-0.008485,0.009437,-1.988984753,-9.528337273,1.1937635045,-2.1113,1.332,-1.7389,7.00000000000145e-05,-3.333333333332966e-05,-2.0000000000020002e-05,-0.0003319628537790109,6.430700720261306e-05,-0.0003753936569284022
150000000000.0,1,0.0358531124,-0.048366397799999995,0.012778064949999998,-0.014449,-0.007396,0.011562,-1.9891808859999998,-9.5284353395,1.1925867065,-2.1109,1.332,-1.7395,4.999999999999449e-05,-9.999999999998899e-05,-7.00000000000145e-05,0.00012509057315801542,0.00021914337340112056,-0.0007357393399241019
150000000000.0,1,0.0501315948,-0.0177892631,0.020084019199999997,-0.012351,-0.010613,0.013704,-1.9894750854999999,-9.528533406,1.1918021744999998,-2.1105,1.3321,-1.74,4.999999999999449e-05,-5.0000000000105516e-05,-9.999999999998899e-05,-0.00023252700079279265,6.0558968128843205e-05,-0.0008557415610419561
150000000000.0,1,0.06132098245,0.017622550049999998,0.019368133750000002,-0.005988,-0.014929,0.014787,-1.9896712184999998,-9.5284353395,1.1918021744999998,-2.1105,1.332,-1.7402,4.999999999999449e-05,-4.999999999988347e-05,-3.999999999992898e-05,-0.00019934684411349046,0.00013605758729040573,-0.00016918949533206717
150000000000.0,1,0.06116407605,0.033636809499999996,0.01075789505,0.000396,-0.017114,0.014799,-1.990161551,-9.528337273,1.1921944405,-2.1105,1.332,-1.7403,3.999999999992898e-05,-9.999999999998899e-05,-6.0000000000060005e-05,3.6227321266846246e-05,0.00018047357460604374,-0.0003651189219489037
150000000000.0,1,0.048042778349999996,0.04135464305,-0.0035990405499999995,0.005719,-0.019288,0.013742,-1.9906518835,-9.5280430735,1.193077039,-2.1107,1.3319,-1.7403,4.999999999999449e-05,-9.999999999998899e-05,-7.00000000000145e-05,-0.00016992357075129583,-3.4610087054076644e-05,-0.0006272700453812119
150000000000.0,1,0.03264633785,0.04073682409999999,0.0030204482,0.013181,-0.021479,0.011623,-1.9911422159999999,-9.527748873999998,1.194842236,-2.1113,1.3317,-1.74,6.0000000000060005e-05,-9.999999999998899e-05,-7.00000000000145e-05,-0.0007683569949639146,3.494767278588995e-05,-0.0014109250992501154
150000000000.0,1,0.0205155118,0.036745517549999995,0.0303417751,0.01426,-0.021486,0.009489,-1.991534482,-9.527356608,1.1972938985,-2.1121,1.3316,-1.7394,9.999999999998899e-05,-9.999999999998899e-05,-9.99999999995449e-06,-0.001384945565978013,4.266515371642576e-05,0.0008981406015847737
150000000000.0,1,0.016190779149999997,0.03530394,0.039001047049999994,0.015329,-0.021495,0.009491,-1.9920248145,-9.526964342,1.199745561,-2.1129,1.3314,-1.7388,1.4999999999987246e-05,-9.999999999998899e-05,-4.999999999999449e-05,-0.00038531113948869766,-0.00018196098212097667,-0.0005688141683153347
150000000000.0,1,0.02042725195,0.029527823149999997,0.01962310665,0.013211,-0.018283,0.011616,-1.9926132134999999,-9.526572075999999,1.201706891,-2.1135,1.3312,-1.7384,1.4999999999987246e-05,-9.999999999998899e-05,-5.999999999994898e-05,-0.00025677501125409563,-0.00027180610482568923,-0.0003331129660588683
150000000000.0,1,0.03753004955,0.0174362237,0.015249340749999998,0.007886,-0.017174,0.011603,-1.9930054794999998,-9.5262778765,1.203275955,-2.114,1.3311,-1.7381,2.999999999997449e-05,-9.999999999998899e-05,-4.999999999999449e-05,-0.00021012153700006309,0.00010007672891476638,-0.0006645812641832283
150000000000.0,1,0.03501954715,0.0203193788,0.014141189299999999,0.007904,-0.015043,0.011597,-1.9934958119999997,-9.526081743499999,1.2045508194999999,-2.1143,1.331,-1.7379,2.0000000000020002e-05,-9.999999999998899e-05,-6.0000000000060005e-05,0.00011466506932489295,-5.5715208229001334e-05,-0.00048219304186025713
150000000000.0,1,0.036284605,0.005099457999999999,0.01638691215,0.006841,-0.01397,0.012659,-1.9939861445,-9.525787544,1.2057276175,-2.1146,1.3309,-1.7377,1.0000000000065512e-05,-9.999999999998899e-05,-2.0000000000020002e-05,0.000813805980719895,-0.0001275173712786959,1.8569327111972456e-05
150000000000.0,1,0.035147033599999995,-0.01372931,0.0162594257,0.008993,-0.011857,0.012657,-1.9944764769999999,-9.5254933445,1.2070024819999998,-2.115,1.3308,-1.7374,9.99999999995449e-06,-9.999999999998899e-05,-2.0000000000020002e-05,0.0006961981508142312,0.0003508123473068281,0.00048136350673366746
150000000000.0,1,0.02897865075,-0.019868272899999997,0.017897136249999997,0.012191,-0.012948,0.011595,-1.9948687429999998,-9.525199145,1.2086696124999998,-2.1155,1.3306,-1.737,7.999999999996898e-05,-9.999999999998899e-05,8.000000000008001e-05,-0.0005470628885901885,0.0007218784725926408,0.0005092786168553465
150000000000.0,1,0.025232510450000002,-0.039422733,0.00295180165,0.013286,-0.010824,0.009457,-1.9952610089999998,-9.525003011999999,1.2101406099999998,-2.116,1.3305,-1.7367,1.0000000000065512e-05,-9.999999999998899e-05,2.0000000000020002e-05,0.00037690772675569306,6.013624177159116e-05,0.0002631066279603633
150000000000.0,1,0.00877695175,-0.06059529034999999,0.0010395049,0.012263,-0.006551,0.007312,-1.9955552085,-9.524708812499998,1.211513541,-2.1164,1.3304,-1.7363,5.000000000032756e-06,-4.999999999988347e-05,-6.666666666710341e-06,0.0004406370221836653,-0.00022310439109451963,-3.2412199134856934e-05
150000000000.0,1,-0.006952914849999999,-0.0672343924,-0.01222889255,0.010148,-0.005466,0.005171,-1.9959474744999999,-9.524512679499999,1.212298073,-2.1166,1.3304,-1.7362,4.999999999921734e-06,-5.0000000000105516e-05,-6.666666666599319e-06,0.00028007103231986186,-3.29463736510327e-05,2.0475613968895523e-05
150000000000.0,1,-0.0038834333999999996,-0.05047482755,-0.01218966595,0.008047,-0.001186,0.00516,-1.9963397404999998,-9.524414613,1.2128864719999999,-2.1168,1.3303,-1.7361,1.0000000000065512e-05,-9.999999999998899e-05,-6.666666666710341e-06,0.00024335980270850932,3.913523200282931e-05,-0.0001614431816031603
150000000000.0,1,0.00342252085,-0.0471307599,-0.00862004535,0.008052,-0.001185,0.004092,-1.996437807,-9.5243165465,1.213474871,-2.117,1.3302,-1.7359,-4.0000000000040004e-05,-2.4999999999941735e-05,-3.0000000000085514e-05,0.0002029016869382616,-7.857195170202225e-05,4.242966236678303e-05
150000000000.0,1,0.004118793,-0.05743754905,-0.030792880999999998,0.004869,-9.1e-05,0.001949,-1.996437807,-9.5243165465,1.2133768045,-2.1169,1.3303,-1.7359,2.0000000000020002e-05,-2.500000000016378e-05,-9.99999999995449e-06,0.00025766783623870637,-4.984581121880716e-05,-0.00018957396419849726
150000000000.0,1,-0.0014709974999999999,-0.08003207065,-0.0551918262,-0.000437,0.003151,0.000866,-1.9963397404999998,-9.524414613,1.2123961395,-2.1166,1.3303,-1.7362,9.99999999995449e-06,-2.500000000016378e-05,-2.0000000000020002e-05,-7.15072719965626e-05,-0.00022030850509913158,8.522831696544664e-05
150000000000.0,1,-0.01611232595,-0.06385109815,-0.05320107625,-0.003613,0.005311,-0.001278,-1.9963397404999998,-9.524610745999999,1.210925142,-2.116,1.3304,-1.7367,-2.0000000000020002e-05,-2.4999999999941735e-05,-2.0000000000020002e-05,0.0001779229034677421,-0.0002038308966005875,-4.0611057702366615e-05
150000000000.0,1,-0.00463854545,-0.04480658385,-0.0537600553,-0.000367,0.010614,-0.002349,-1.9963397404999998,-9.524806879,1.2095522109999999,-2.1155,1.3305,-1.737,-1.999999999990898e-05,6.666666666710341e-06,1.0000000000065512e-05,0.00019514723329550066,-0.0002591982205071286,0.0001227012667573968
150000000000.0,1,0.009532063799999999,-0.026213175449999997,-0.05567235204999999,0.000732,0.014867,-0.002356,-1.9961436074999999,-9.525003011999999,1.208375413,-2.1151,1.3306,-1.7373,9.99999999995449e-06,6.666666666710341e-06,9.99999999995449e-06,0.00040934116233115603,0.0005357966927943547,0.0002845113444572833
150000000000.0,1,0.027448813349999997,-0.014778621550000001,-0.04839581775,0.002863,0.01485,-0.002353,-1.9956532749999998,-9.525199145,1.2074928145,-2.1149,1.3306,-1.7374,-2.999999999997449e-05,6.666666666710341e-06,-9.99999999995449e-06,-0.0002215773346971872,-0.0003165635795414623,0.00020482832779766813
150000000000.0,1,0.03480380085,-0.012395605599999998,-0.06124252924999999,0.002883,0.016982,-0.003426,-1.9948687429999998,-9.5254933445,1.206414083,-2.1147,1.3308,-1.7374,-8.000000000008001e-05,6.666666666488297e-06,-7.00000000000145e-05,6.125287526881351e-05,-0.0008664046223134658,-0.00010966013665059116
150000000000.0,1,0.0399130655,-0.0132193642,-0.07414808064999999,0.001835,0.019123,-0.004502,-1.9939861445,-9.5258856105,1.2049430854999998,-2.1144,1.3309,-1.7376,-2.999999999997449e-05,6.666666666710341e-06,3.3333333333551707e-06,-1.2922261574566107e-05,7.72555566377342e-05,0.00015651739202660053
150000000000.0,1,0.02768417295,-0.03213639205,-0.059673465249999995,-0.000237,0.024473,-0.008786,-1.9930054794999998,-9.5262778765,1.2034720879999998,-2.114,1.3311,-1.7376,-2.999999999997449e-05,6.666666666710341e-06,3.3333333332441484e-06,-1.2264588715282798e-05,1.51346494827731e-05,0.00023803632251651052
150000000000.0,1,0.00865927195,-0.05426019444999999,-0.0291061372,-0.002333,0.028754,-0.009865,-1.9922209475,-9.526572075999999,1.20229529,-2.1138,1.3312,-1.7376,-2.999999999997449e-05,6.666666666710341e-06,3.3333333333551707e-06,0.0004485343350215665,3.4283873735496684e-06,0.00034414676568761404
150000000000.0,1,0.0037559469499999997,-0.09068209255,-0.01923084065,-0.005492,0.034108,-0.009882,-1.9914364155,-9.526964342,1.2006281595,-2.1133,1.3314,-1.7377,-4.999999999999449e-05,6.666666666710341e-06,-9.99999999995449e-06,8.929337345797705e-05,6.725435311527583e-05,2.0018142391053928e-05
150000000000.0,1,0.00485429175,-0.07773731454999999,-0.031165533699999998,-0.005488,0.036237,-0.007751,-1.99074995,-9.527356608,1.198764896,-2.1128,1.3316,-1.7379,-6.0000000000060005e-05,6.666666666710341e-06,-2.999999999997449e-05,0.0005614448892197199,-6.454317609616567e-05,-0.00020960949420656405
150000000000.0,1,0.0155729602,-0.046660040699999995,-0.037588889449999996,-0.005455,0.040499,-0.00776,-1.9900634844999998,-9.527748873999998,1.1967054995,-2.1122,1.3317,-1.7381,-3.999999999992898e-05,6.666666666710341e-06,-1.0000000000065512e-05,0.00014254751592535087,-3.668656520305902e-05,0.00014129202892032566
150000000000.0,1,0.02121178395,-0.0408348906,-0.043874952099999996,0.003027,0.036164,-0.004537,-1.989573152,-9.5280430735,1.195234502,-2.1118,1.3319,-1.7381,-7.00000000000145e-05,6.666666666710341e-06,-1.999999999990898e-05,0.00019595704873287545,-3.947137379167742e-07,0.00017367908289855905
150000000000.0,1,0.017671583299999998,-0.04147232285,-0.03607866535,0.003026,0.036164,-0.004538,-1.9891808859999998,-9.528337273,1.193861571,-2.1113,1.332,-1.7382,-0.00012000000000000899,6.666666666488297e-06,-0.0001100000000000545,0.0016200748459211933,9.953032538989603e-05,-0.0008809192457521764
150000000000.0,1,-0.0017848103,-0.05712373625,-0.0322050386,0.000916,0.039378,-0.004548,-1.988984753,-9.528533406,1.1923905735,-2.1108,1.3321,-1.7383,-4.0000000000040004e-05,6.666666666710341e-06,-2.999999999997449e-05,0.00014246289387731537,3.866231768423489e-05,0.00010470054224065439
150000000000.0,1,0.004501252349999999,-0.0392462133,-0.0355392996,0.000909,0.039378,-0.003481,-1.9888866865,-9.528729538999999,1.190919576,-2.1103,1.3322,-1.7384,-7.00000000000145e-05,6.666666666710341e-06,-2.0000000000020002e-05,0.0003549869918439974,2.4634837258563635e-05,-0.0002752941375249174
150000000000.0,1,0.011993532949999998,-0.0195936867,-0.0322246519,-0.000151,0.040452,-0.003486,-1.9886905535,-9.528925672,1.189546645,-2.1098,1.3322,-1.7384,-9.999999999998899e-05,6.666666666710341e-06,-6.0000000000060005e-05,-6.156833111337079e-06,-0.00023398116650907852,2.1281550139362615e-05
150000000000.0,1,0.01422944915,0.0077472535,-0.012513285399999999,-0.00231,0.039401,-0.000286,-1.9888866865,-9.5290237385,1.188369847,-2.1094,1.3323,-1.7385,-2.0000000000020002e-05,1.999999999990898e-05,-2.999999999997449e-05,-0.00011260420600800458,5.5364368471089165e-05,0.00041576056145453677
150000000000.0,1,0.019446586949999997,0.036108085299999995,-0.014866881399999999,-0.001275,0.036194,0.000788,-1.9890828194999999,-9.529121804999999,1.1872911154999999,-2.1089,1.3323,-1.7386,-3.999999999992898e-05,2.0000000000131024e-05,7.00000000000145e-05,0.0001516912958430261,0.0004223227591559908,0.0007686641067958799
150000000000.0,1,0.0273801668,0.0446987107,-0.0199074995,-0.001294,0.035127,0.002924,-1.989377019,-9.529219871499999,1.1863104505,-2.1085,1.3323,-1.7387,-2.0000000000020002e-05,1.999999999990898e-05,-2.999999999997449e-05,-0.0009960808347457828,0.0004481294184006668,0.0006178142410907528
150000000000.0,1,0.009532063799999999,0.0355785262,-0.01787752295,0.000836,0.034045,0.001862,-1.9899654179999997,-9.529219871499999,1.1853297855,-2.108,1.3323,-1.7388,-9.00000000000345e-05,2.0000000000131024e-05,-2.999999999997449e-05,0.0006686400066704401,-0.00013593437499115346,-3.819136761995523e-05
150000000000.0,1,0.004903325,0.0366180311,-0.003138128,0.006134,0.030802,0.004012,-1.99074995,-9.5290237385,1.1853297855,-2.1078,1.3323,-1.7387,-8.999999999992347e-05,1.999999999990898e-05,-6.0000000000060005e-05,0.00011466529542691895,-0.00018219597202362436,-7.078038876451309e-05
150000000000.0,1,0.013925443,0.027713592899999997,0.0130428445,0.012482,0.02542,0.006167,-1.9913383489999998,-9.5288276055,1.186016251,-2.1079,1.3322,-1.7383,-0.00010000000000010001,2.4999999999941735e-05,-2.999999999997449e-05,-0.00019744529542475853,-0.0002875073559744923,6.623100777514157e-05
150000000000.0,1,0.01073828175,-0.0033931009,0.016985117799999998,0.014614,0.024337,0.005104,-1.9921228809999998,-9.528533406,1.187193049,-2.1082,1.3321,-1.7378,-7.999999999996898e-05,2.500000000016378e-05,-4.999999999999449e-05,-0.0007112805834181835,-0.00032426076904878975,0.00031001943802944076
150000000000.0,1,0.012160246,-0.042207821599999994,0.00858081875,0.0125,0.02755,0.006161,-1.9926132134999999,-9.528337273,1.187977581,-2.1084,1.332,-1.7373,-7.999999999996898e-05,2.4999999999941735e-05,-2.0000000000020002e-05,0.00043237141742658025,1.597183751145259e-05,7.645902295738694e-05
150000000000.0,1,0.02240819525,-0.0547603336,0.01797558945,0.009331,0.030774,0.005081,-1.9928093464999999,-9.528141139999999,1.18856598,-2.1086,1.3319,-1.7368,-6.0000000000060005e-05,2.4999999999941735e-05,-4.0000000000040004e-05,-0.00032887115702884273,-0.00029204347134292874,0.00044023775490986683
150000000000.0,1,0.028507931549999997,-0.05706489635,0.0299102825,0.006162,0.033997,0.004,-1.992907413,-9.528141139999999,1.1888601795,-2.1087,1.3319,-1.7364,-3.999999999992898e-05,0.00024999999999986144,-1.999999999990898e-05,-0.00011747837435693853,-9.168336249154585e-05,0.0002067118240586252
150000000000.0,1,0.0478760653,-0.06781298475,0.03494109395,0.005136,0.038269,0.00292,-1.9927112799999998,-9.528141139999999,1.1890563125,-2.1088,1.3319,-1.7359,-0.00034000000000000696,0.0002500000000000835,-0.000280000000000058,0.009941930091374118,0.0015265565521429547,-0.005623931402380933
150000000000.0,1,0.055731191949999995,-0.08164036125,0.03207755215,0.003029,0.041482,0.002907,-1.992319014,-9.528239206499999,1.1889582459999999,-2.1088,1.3319,-1.7355,-2.0000000000020002e-05,9.999999999998899e-05,2.0000000000020002e-05,-5.603174714741144e-05,-0.0001255723712731971,0.0004488451713418051
150000000000.0,1,0.07938483175,-0.07202984424999999,0.011336487399999998,0.004103,0.043602,0.005035,-1.9917306149999998,-9.5284353395,1.1884679135,-2.1088,1.332,-1.7351,-4.999999999999449e-05,3.333333333332966e-05,-9.99999999995449e-06,0.00017951586354447713,1.5577146701417632e-05,0.00047387474448667977
150000000000.0,1,0.09283955555,-0.043374812949999994,-0.019966339399999998,0.007328,0.046771,0.00503,-1.9911422159999999,-9.528631472499999,1.187781448,-2.1086,1.3321,-1.7348,-5.999999999994898e-05,3.333333333332966e-05,2.999999999997449e-05,2.8904595378076436e-05,-9.247245029042617e-06,0.0005477688674778713
150000000000.0,1,0.1123057558,-0.00979684335,-0.037373143149999996,0.015853,0.045635,0.005041,-1.9902596174999998,-9.5288276055,1.1874872484999999,-2.1088,1.3322,-1.7342,-5.0000000000105516e-05,3.333333333332966e-05,2.999999999997449e-05,0.0001324322980895687,-1.0087485154741671e-05,0.00031177312035857163
150000000000.0,1,0.11618918919999999,-0.00932612415,-0.045620535799999994,0.020115,0.044535,0.003977,-1.989377019,-9.5290237385,1.1876833814999999,-2.109,1.3323,-1.7335,-5.999999999994898e-05,-0.00014999999999987246,4.0000000000040004e-05,-0.00017846928543896468,8.470474216326629e-05,0.000466173254757285
150000000000.0,1,0.1085596155,-0.037049523699999996,-0.0699802544,0.016934,0.046693,0.002894,-1.9882982875,-9.529317938,1.1872911154999999,-2.1091,1.3324,-1.7329,0.000260000000000038,-0.0001500000000000945,0.00026999999999999247,-0.010733788344538864,-0.0015751961001446713,0.005996271924841312
150000000000.0,1,0.0900642736,-0.05975191845,-0.09017214675,0.012673,0.04673,0.000747,-1.9873176224999998,-9.5296121375,1.1863104505,-2.1089,1.3325,-1.7326,-3.0000000000085514e-05,9.999999999998899e-05,9.99999999995449e-06,0.00029263006961577354,-1.5842748444461208e-05,0.0006217865660967936
150000000000.0,1,0.06862693669999999,-0.10482328185,-0.083748791,0.005229,0.048925,-0.001409,-1.9863369575,-9.5300044035,1.184447187,-2.1085,1.3327,-1.7326,-9.99999999995449e-06,9.999999999998899e-05,2.0000000000020002e-05,0.00032092669465511037,6.358749225565674e-05,0.0006066292090346481
150000000000.0,1,0.0550153065,-0.14661922415,-0.057967108149999995,0.002023,0.050015,0.000714,-1.9856504919999998,-9.530494736,1.182485857,-2.1079,1.3329,-1.7327,-9.99999999995449e-06,4.999999999988347e-05,2.999999999997449e-05,0.0007550048938052001,0.0003641149321220727,-2.610961791094102e-05
150000000000.0,1,0.05129858615,-0.15085569695,-0.045493049349999995,-0.002244,0.051114,0.001768,-1.9850620929999998,-9.530887001999998,1.1802303275,-2.1072,1.3331,-1.7329,1.999999999990898e-05,5.0000000000105516e-05,3.0000000000085514e-05,-0.0002664353394274954,3.7312216410345656e-05,0.0005415333377289944
150000000000.0,1,0.0542896144,-0.1023225861,-0.055623318799999995,-0.003321,0.052185,0.004963,-1.9849640265,-9.5311812015,1.177582532,-2.1063,1.3332,-1.7333,3.0000000000085514e-05,9.999999999998899e-05,2.999999999997449e-05,-9.9251473649975e-05,0.00024990078827369366,0.0008850387862807674
150000000000.0,1,0.08024781695,-0.05727083599999999,-0.06398839125,-0.002296,0.050041,0.009233,-1.9848659599999998,-9.531475401,1.175228936,-2.1054,1.3334,-1.7337,-1.0000000000065512e-05,9.999999999998899e-05,9.99999999995449e-06,0.00045091480937520245,5.793105511475716e-05,0.0005899695729270071
150000000000.0,1,0.11202136295000001,-0.015072821049999999,-0.07661935645,0.007277,0.046765,0.00925,-1.984473694,-9.531769600499999,1.173463739,-2.1048,1.3335,-1.7337,4.0000000000040004e-05,9.999999999998899e-05,9.99999999995449e-06,-0.0008384954986055959,-8.203140399465347e-05,0.00074851406284826
150000000000.0,1,0.1264077185,-0.0026576021499999996,-0.0806891162,0.011538,0.045665,0.008186,-1.9836891619999997,-9.5320638,1.1722869409999999,-2.1045,1.3336,-1.7336,2.999999999997449e-05,9.999999999998899e-05,-2.999999999997449e-05,0.0006766086603871013,0.0003554766395308384,0.00039003090693956466
150000000000.0,1,0.10921666104999998,-0.0223983886,-0.0761584439,0.01051,0.048874,0.00497,-1.9830026964999998,-9.532357999499999,1.1710120765,-2.1042,1.3337,-1.7334,4.0000000000040004e-05,9.999999999998899e-05,4.0000000000040004e-05,0.00011219274178175809,-0.0002230506615112926,0.0011782378357745316
150000000000.0,1,0.0966739557,-0.0367945508,-0.05873202685,0.007315,0.049965,0.004958,-1.9824142974999999,-9.532652199,1.1698352785,-2.1039,1.3339,-1.7332,3.999999999992898e-05,9.999999999998899e-05,-4.999999999999449e-05,-0.00025467419159164173,-0.0005628281016696324,0.0004544325989639386
150000000000.0,1,0.09491856535,-0.0351274203,-0.040403398,0.002015,0.053208,0.002803,-1.981727832,-9.533044465,1.168364281,-2.1035,1.334,-1.7331,1.0000000000065512e-05,9.999999999998899e-05,-1.0000000000065512e-05,2.227294284740111e-05,0.0002593848298306778,0.00046307182142946157
150000000000.0,1,0.10050835585,-0.023751706299999998,-0.02313388735,0.003087,0.055327,0.00493,-1.9810413664999997,-9.5333386645,1.1670894165,-2.1032,1.3341,-1.7328,9.99999999995449e-06,9.999999999998899e-05,-1.999999999990898e-05,-7.456378045223033e-05,-0.00014129050706301882,0.000324021159375798
150000000000.0,1,0.10651002565,-0.01807365595,-0.0043345393,-0.0001,0.05642,0.00385,-1.9802568344999998,-9.533632864,1.166010685,-2.1029,1.3343,-1.7326,-2.0000000000020002e-05,9.999999999998899e-05,9.99999999995449e-06,-0.00029922367202206424,2.529557954544792e-05,0.0004199064123321383
150000000000.0,1,0.10013570314999999,-0.021045070899999997,0.007462860649999999,0.001993,0.053202,0.007056,-1.9798645684999998,-9.533730930499999,1.1652261529999999,-2.1027,1.3343,-1.7322,-1.999999999990898e-05,4.999999999988347e-05,9.99999999995449e-06,0.00021663741645272516,-0.00020036630998787608,0.0004885436771604468
150000000000.0,1,0.08409202375,-0.015759286549999998,0.017249897349999998,0.004114,0.052117,0.008124,-1.9798645684999998,-9.533828997,1.1649319535,-2.1026,1.3344,-1.7318,-6.0000000000060005e-05,5.0000000000105516e-05,-4.999999999999449e-05,-3.1744798545618735e-05,-0.0008758012430685191,0.0001360501626228583
150000000000.0,1,0.06367457844999999,0.00363826715,0.018897414549999998,0.00515,0.04891,0.009196,-1.9802568344999998,-9.533730930499999,1.1647358205,-2.1025,1.3343,-1.7315,-2.0000000000020002e-05,0.00010000000000021103,6.0000000000060005e-05,-0.00023568825326214515,0.00020701873663342418,0.0005830673144103793
150000000000.0,1,0.053691408749999996,-0.00869849855,0.0244577851,0.000881,0.04788,0.00812,-1.9807471669999999,-9.533730930499999,1.164441621,-2.1023,1.3343,-1.7312,-1.999999999990898e-05,3.333333333332966e-05,1.4999999999987246e-05,-0.0006074842137500092,-0.0002924257248901885,7.473667814861251e-05
150000000000.0,1,0.036225765099999994,-0.00365788045,0.04417895825,0.003006,0.04786,0.010256,-1.9816297655,-9.5335347975,1.164441621,-2.1021,1.3342,-1.731,-8.000000000008001e-05,3.333333333332966e-05,1.4999999999987246e-05,0.00036553555103502333,0.00017446323034753242,0.00043026238176002707
150000000000.0,1,0.00577611685,-0.02986124925,0.0621937743,0.003005,0.046795,0.00919,-1.9829046299999997,-9.5331425315,1.164833887,-2.1019,1.3341,-1.7307,-7.00000000000145e-05,3.333333333332966e-05,9.99999999995449e-06,8.564470725236362e-05,0.00020173962979352922,-0.00018651423124560473
150000000000.0,1,-0.00877695175,-0.0347743809,0.0782962936,0.006175,0.042506,0.009203,-1.9843756275,-9.532750265499999,1.1658145519999998,-2.102,1.3339,-1.7302,-5.999999999994898e-05,3.333333333332966e-05,2.0000000000020002e-05,0.00015982067736119987,-0.00013483608509146094,0.0004435742197598236
150000000000.0,1,-0.0028439284999999996,-0.046218741449999996,0.0819443674,0.008305,0.040359,0.007075,-1.9855524254999999,-9.532357999499999,1.1668932834999999,-2.1021,1.3337,-1.7296,-6.0000000000060005e-05,3.333333333332966e-05,2.0000000000020002e-05,0.00037828069992595914,6.996045990015354e-05,4.9949242262647964e-05
150000000000.0,1,-0.0089632781,-0.07483454614999999,0.07971825785,0.005094,0.039318,0.008139,-1.986631157,-9.5320638,1.167775882,-2.1022,1.3336,-1.7291,-6.999999999990347e-05,3.333333333332966e-05,-4.999999999999449e-05,0.0001804891008494458,-6.351696457329581e-05,-5.1307328057026425e-05
150000000000.0,1,-0.0069234948999999995,-0.09958653075,0.0710393726,0.002975,0.038274,0.003866,-1.9873176224999998,-9.531867666999998,1.1684623475,-2.1023,1.3335,-1.7287,-3.0000000000085514e-05,0.0005499999999998284,2.999999999997449e-05,-0.00024562545651996004,-9.887829298871331e-05,0.000495738807300139
150000000000.0,1,0.006472388999999999,-0.08710266529999999,0.06846022365,-0.002326,0.041515,0.002783,-1.9877098885,-9.531769600499999,1.1684623475,-2.1022,1.3335,-1.7284,-0.0008299999999999974,0.0005500000000000504,-0.0007899999999999574,0.008432503556794702,-0.0037164268896017205,-0.014656149691370968
150000000000.0,1,0.03066539455,-0.044443737799999994,0.0681954441,-0.0023,0.043646,0.001709,-1.9876118219999999,-9.531769600499999,1.168364281,-2.1022,1.3335,-1.7279,-9.99999999995449e-06,-0.0003333333333332966,-9.99999999995449e-06,0.00043566156659791133,-0.0004362787026519488,0.0006034056919910213
150000000000.0,1,0.05905564629999999,-0.0012748644999999999,0.0655476486,-0.003399,0.039392,0.001712,-1.9873176224999998,-9.531867666999998,1.168364281,-2.1023,1.3335,-1.7275,-2.0000000000020002e-05,-0.0003333333333332966,9.99999999995449e-06,-9.625310911198781e-06,4.970292166373014e-05,-0.0006268702623506428
150000000000.0,1,0.08483732915,0.025752262899999996,0.052014471599999994,0.001919,0.03828,0.003853,-1.9867292234999998,-9.5319657335,1.1685604139999999,-2.1025,1.3335,-1.7269,0.0007099999999999884,-0.0003333333333332966,0.0008000000000000229,-0.009159115976186794,0.003403516495729564,0.016380653395601574
150000000000.0,1,0.09854702585,0.037481016299999996,0.0284000584,0.007219,0.035036,0.005998,-1.986238891,-9.5319657335,1.1689526799999999,-2.1028,1.3336,-1.7263,-4.999999999999449e-05,2.4999999999941735e-05,-4.0000000000040004e-05,0.0006553470033887621,-5.6895267913414926e-05,-0.00029415846613134455
150000000000.0,1,0.09472243234999998,0.0339506223,-0.0026870221,0.010394,0.031812,0.006005,-1.9856504919999998,-9.5320638,1.1694430125,-2.103,1.3336,-1.7257,-2.0000000000020002e-05,2.4999999999941735e-05,-9.99999999995449e-06,-0.0002444361587601307,-4.816461979917364e-06,0.0002722835760172737
150000000000.0,1,0.09420267989999999,0.01697531115,-0.012542705349999999,0.012516,0.029664,0.00494,-1.9850620929999998,-9.5321618665,1.1698352785,-2.1033,1.3336,-1.7251,-3.999999999992898e-05,2.500000000016378e-05,-1.0000000000065512e-05,-1.5679797771728232e-05,-0.0001299670883325721,-2.165485240934739e-05
150000000000.0,1,0.07981632435,0.00863965865,-0.01132668075,0.012532,0.031795,0.004932,-1.9845717604999997,-9.5321618665,1.1702275444999999,-2.1036,1.3336,-1.7245,-1.0000000000065512e-05,2.4999999999941735e-05,-2.0000000000020002e-05,-8.998757737188612e-06,-0.0001356216550578715,0.00010741373406653043
150000000000.0,1,0.07388330109999999,-0.01660265845,0.0008629851999999999,0.01039,0.030746,0.004926,-1.9839833614999998,-9.532259932999999,1.1708159434999998,-2.1039,1.3337,-1.7239,-9.99999999995449e-06,-7.1428571428722165e-06,1.0000000000065512e-05,-0.0003350158819590554,0.0001010021015239726,-0.0003674462008788071
150000000000.0,1,0.074922806,-0.036647451049999995,-0.0025987622499999996,0.007217,0.032905,0.002778,-1.983296896,-9.532357999499999,1.1708159434999998,-2.1041,1.3337,-1.7234,-1.0000000000065512e-05,-7.1428571428722165e-06,9.99999999995449e-06,-7.678839245039981e-05,7.328604833922725e-05,0.0007219538589975372
150000000000.0,1,0.08438622324999999,-0.03925601994999999,-0.00410898635,0.002955,0.032941,0.001698,-1.9824142974999999,-9.532652199,1.1704236774999999,-2.1041,1.3338,-1.7231,-2.999999999997449e-05,-7.1428571428722165e-06,-9.99999999995449e-06,-4.695615102612294e-05,-5.221852077608169e-05,3.897062806434981e-05
150000000000.0,1,0.08612200029999999,-0.0416782625,-0.0042855060499999995,0.001874,0.031882,0.002761,-1.9814336325,-9.532848332,1.1698352785,-2.1041,1.334,-1.7228,1.0000000000065512e-05,-7.1428571428722165e-06,-2.0000000000020002e-05,-0.000425767491775364,-0.0003668417116120537,-0.0005710981601363407
150000000000.0,1,0.09161372429999999,-0.0390500803,-0.010414662299999999,0.003979,0.029731,0.004898,-1.9806491005,-9.5331425315,1.1692468795,-2.1041,1.3341,-1.7225,-2.0000000000020002e-05,-7.1428571428722165e-06,5.999999999994898e-05,0.0003082384652608461,0.0005684654223696572,0.0009108866960865214
150000000000.0,1,0.0995963374,-0.04013861845,-0.01726951065,0.003959,0.028663,0.007029,-1.979766502,-9.5333386645,1.1685604139999999,-2.104,1.3342,-1.7223,-2.0000000000020002e-05,-7.1428571428722165e-06,-4.999999999999449e-05,-4.026927450895279e-05,-0.0003518990207196371,-0.0002662530900227056
150000000000.0,1,0.0935946676,-0.047532832549999994,-0.02109410415,0.002905,0.029737,0.005953,-1.9790800364999999,-9.533632864,1.1678739485,-2.1039,1.3343,-1.7221,-2.0000000000020002e-05,-7.1428571428722165e-06,-9.99999999995449e-06,0.00012792425161678445,0.00044991814661154983,4.251200629779017e-05
150000000000.0,1,0.09185889055,-0.03998171205,-0.017455837,0.001806,0.026547,0.007018,-1.9782955045,-9.533828997,1.1672855494999999,-2.1039,1.3344,-1.7219,-5.999999999994898e-05,-7.142857142650172e-06,-9.99999999995449e-06,4.885874002336088e-05,-0.0003292274420578778,0.0001633796524401765
150000000000.0,1,0.08670059264999999,-0.0408348906,-0.0137489233,0.003936,0.025464,0.005951,-1.9777071054999997,-9.53402513,1.1668932834999999,-2.1038,1.3345,-1.7217,-4.999999999999449e-05,-7.1428571428722165e-06,-7.00000000000145e-05,2.992661729206425e-05,-0.00022250142746882418,-0.0004354990667814196
150000000000.0,1,0.06883287635,-0.05728064265,-0.0059232166000000004,0.001793,0.024416,0.005945,-1.9771187065,-9.534221263,1.166402951,-2.1038,1.3345,-1.7215,-2.0000000000020002e-05,-7.1428571428722165e-06,-1.0000000000065512e-05,-0.00041910087231977755,-7.786594937275737e-05,0.0002557430023307772
150000000000.0,1,0.0341075287,-0.054966273249999996,0.004795451849999999,-0.001411,0.023377,0.004872,-1.9771187065,-9.534221263,1.1658145519999998,-2.1036,1.3346,-1.7215,-2.999999999997449e-05,-7.1428571428722165e-06,1.0000000000065512e-05,0.0007582747583412264,0.0008814926557199065,3.536105724211147e-05
150000000000.0,1,0.03141069995,-0.01817172245,0.016141745899999997,0.000707,0.021228,0.004877,-1.9773148395,-9.534221263,1.1657164855,-2.1035,1.3345,-1.7214,-4.999999999999449e-05,-7.1428571428722165e-06,-2.999999999997449e-05,-2.1522081255165304e-05,0.00020029553597922245,0.00024390627296966283
150000000000.0,1,0.0231044674,0.0339506223,0.01379795655,0.000685,0.019096,0.005948,-1.9778051719999998,-9.5341231965,1.1656184189999999,-2.1034,1.3345,-1.7213,-4.999999999999449e-05,-7.1428571428722165e-06,-6.0000000000060005e-05,0.0002136759172064462,6.90844123807377e-05,-9.654590267738072e-05
150000000000.0,1,0.009610516999999999,0.0432277132,0.00467777205,0.00174,0.016957,0.004886,-1.9784916375,-9.53402513,1.1656184189999999,-2.1032,1.3344,-1.7213,-4.0000000000040004e-05,-7.1428571428722165e-06,-2.0000000000020002e-05,-0.00025965231167912606,4.6633530074835505e-05,0.00043135363179180874
150000000000.0,1,-0.014043122799999998,0.032607111249999994,0.018966061099999997,0.003887,0.019069,0.005954,-1.979766502,-9.533730930499999,1.166010685,-2.1031,1.3343,-1.7212,2.0000000000020002e-05,-3.333333333332966e-05,1.0000000000065512e-05,-0.0016248742167224162,-0.0002527378243237788,0.000532933349984277
150000000000.0,1,-0.0117091401,0.0298710559,0.02113333075,0.007055,0.016909,0.009167,-1.9810413664999997,-9.5333386645,1.1666971505,-2.103,1.3342,-1.7211,-4.999999999999449e-05,-3.333333333332966e-05,-3.0000000000085514e-05,-0.0001402008757864781,0.00037144440743674956,0.00016341933074248693
150000000000.0,1,0.00858081875,0.0479152919,0.0319304524,0.008153,0.021161,0.010229,-1.9821200979999998,-9.5329463985,1.1676778154999998,-2.1032,1.334,-1.7208,-3.0000000000085514e-05,-3.333333333332966e-05,-4.999999999999449e-05,-0.0006277815888646732,-0.0003249108503668996,0.00013301849335789484
150000000000.0,1,0.0264387284,0.048454657649999996,0.0461697082,0.009222,0.021152,0.010229,-1.983100763,-9.532652199,1.1690507465,-2.1035,1.3338,-1.7203,-1.999999999990898e-05,-1.666666666655381e-05,-4.999999999999449e-05,0.00012841377689531974,0.0002865913797545083,8.312743268956702e-05
150000000000.0,1,0.0329699573,0.013964669599999998,0.05055328075,0.010335,0.028598,0.013419,-1.9840814279999999,-9.532259932999999,1.170325611,-2.1037,1.3337,-1.7197,-2.0000000000020002e-05,-1.6666666666775853e-05,-9.99999999995449e-06,-0.00028751664834736346,0.000194568893319369,0.00035193319311854765
150000000000.0,1,0.039285439899999997,-0.0077864801,0.06688135299999999,0.009305,0.032868,0.013407,-1.9850620929999998,-9.531867666999998,1.171698542,-2.104,1.3335,-1.7191,-2.0000000000020002e-05,-1.6666666666775853e-05,-4.0000000000040004e-05,6.97796116835292e-05,0.00020856034430938308,7.593344931466905e-05
150000000000.0,1,0.052740163699999995,-0.0037657536,0.05611365129999999,0.012547,0.037104,0.012335,-1.9857485584999999,-9.5315734675,1.1729734065,-2.1044,1.3334,-1.7185,-2.0000000000020002e-05,-1.666666666655381e-05,-2.0000000000020002e-05,0.00012028587933299306,-9.202816790021551e-05,9.48546730470401e-05
150000000000.0,1,0.06957818175,-0.021849216199999997,0.034852834099999994,0.017898,0.040254,0.01447,-1.9863369575,-9.531279267999999,1.1743463374999998,-2.1047,1.3333,-1.7177,-3.3333333333551707e-06,-1.666666666655381e-05,-2.999999999997449e-05,-0.00018045690320178664,0.0001750979374797179,0.00012767538343605445
150000000000.0,1,0.08915225515,-0.053818895199999994,0.01979962635,0.021101,0.042354,0.017669,-1.9867292234999998,-9.531083135,1.1756212019999999,-2.1051,1.3332,-1.7169,-3.3333333332441484e-06,-1.6666666666775853e-05,-9.99999999995449e-06,0.0005545179834154368,0.0002216740051013133,6.052972118275601e-05
150000000000.0,1,0.100420096,-0.06919572239999999,0.0048837117,0.02214,0.040211,0.019803,-1.9872195559999997,-9.5307889355,1.176994133,-2.1055,1.3331,-1.7161,-3.3333333333551707e-06,-7.692307692375167e-06,-3.999999999992898e-05,-0.0002751379547800692,0.00037941028009980116,0.00035311804710036476
150000000000.0,1,0.10021415635,-0.0719023578,-0.0356177528,0.018946,0.041303,0.01979,-1.9877098885,-9.530690868999999,1.177386399,-2.1055,1.333,-1.7156,-3.0000000000085514e-05,-7.692307692153122e-06,-4.0000000000040004e-05,0.0001625970968561763,-0.000770255393040209,-0.0001733160583826665
150000000000.0,1,0.09290820209999999,-0.08911302854999999,-0.04701308009999999,0.015724,0.040261,0.021915,-1.9884944205,-9.530494736,1.1771902659999998,-2.1053,1.3329,-1.7154,1.4999999999987246e-05,-7.692307692375167e-06,-7.00000000000145e-05,-0.0005135813611472084,-2.484106648803497e-05,-0.0003028998781505754
150000000000.0,1,0.08601412715,-0.10470560205,-0.047395539449999996,0.007214,0.042464,0.019756,-1.9892789524999999,-9.530494736,1.1763076675,-2.1048,1.3329,-1.7155,1.5000000000098268e-05,-7.692307692375167e-06,-2.0000000000020002e-05,0.000521612749996736,0.00030522482473704926,0.00025344151922457314
150000000000.0,1,0.07724698205,-0.10209703314999999,-0.05600577815,-0.000235,0.044657,0.018667,-1.9900634844999998,-9.530494736,1.174444404,-2.1039,1.3329,-1.716,5.999999999994898e-05,-7.692307692153122e-06,9.99999999995449e-06,-0.00020357557974848284,0.0008087895226072117,0.0003292822914238158
150000000000.0,1,0.07915927879999998,-0.0837291777,-0.049641262299999996,-0.004522,0.042561,0.018659,-1.99074995,-9.530690868999999,1.1721888745,-2.103,1.333,-1.7165,4.999999999999449e-05,-7.692307692375167e-06,-2.999999999997449e-05,-0.0001207956765252316,4.424339058273219e-05,2.65429237445991e-05
150000000000.0,1,0.10960892704999999,-0.03847148795,-0.05908506625,-0.004555,0.039363,0.019726,-1.9911422159999999,-9.530887001999998,1.1698352785,-2.102,1.3331,-1.7171,4.0000000000040004e-05,-7.692307692375167e-06,-4.0000000000040004e-05,-6.453419760976686e-05,9.783225835358067e-05,0.0001399874960442693
150000000000.0,1,0.12159265335,-0.01760293675,-0.0663321806,-0.001367,0.036143,0.016529,-1.9913383489999998,-9.531083135,1.167775882,-2.1012,1.3332,-1.7175,5.999999999994898e-05,-7.692307692375167e-06,-1.999999999990898e-05,-0.0002756801704832945,0.0005013963332090032,0.00020329815275099694
150000000000.0,1,0.1395290162,0.027213453749999998,-0.08481771585,0.006029,0.027557,0.01655,-1.9911422159999999,-9.531279267999999,1.1663048845,-2.1006,1.3333,-1.7178,6.0000000000060005e-05,-7.692307692153122e-06,-4.0000000000040004e-05,-3.364494857205358e-05,5.1887672363415405e-05,7.766371494666302e-05
150000000000.0,1,0.1374107798,0.02954743645,-0.09446745944999999,0.009234,0.026468,0.013349,-1.9906518835,-9.5315734675,1.1651280865,-2.1003,1.3334,-1.7178,5.999999999994898e-05,-7.692307692375167e-06,-6.0000000000060005e-05,0.00019462776131762283,0.0001595878618880775,-0.00025861480766531386
