Time,placement_label,user_acc_x(m/s^2),user_acc_y(m/s^2),user_acc_z(m/s^2),rotation_rate_x(rad/s),rotation_rate_y(rad/s),rotation_rate_z(rad/s),gravity_x(m/s^2),gravity_y(m/s^2),gravity_z(m/s^2),attitude_roll(rad),attitude_pitch(rad),attitude_yaw(rad),target_delta_x,target_delta_y,target_delta_z,target_delta_roll,target_delta_pitch,target_delta_yaw
150000000000.0,1,0.00779628675,-0.05706489635,-0.03762811605,0.020196,-0.060127,-0.027615,-0.24765713909999998,-9.723881874,1.2473078135,-2.9456,1.4408,1.7717,0.0,0.0,0.0,0.0,0.0,0.0
150000000000.0,1,-0.012954584649999998,-0.07242211024999999,-0.030655587899999996,0.020181,-0.061194,-0.026545,-0.2444209446,-9.7237838075,1.2486807444999999,-2.9483,1.4407,1.7738,-5.999999999994898e-05,-9.999999999998899e-05,4.0000000000040004e-05,-0.0010225352737316395,-0.00011406494850074722,-0.0004433085837585171
150000000000.0,1,-0.0207116448,-0.06846022365,-0.026791767799999998,0.015893,-0.062226,-0.024415,-0.2414593363,-9.723685740999999,1.249955609,-2.9508,1.4406,1.7757,-3.0000000000085514e-05,-5.0000000000105516e-05,2.999999999997449e-05,-0.00014947261608155848,-0.00026213813178777023,-0.0005401444913541997
150000000000.0,1,-0.026115108949999997,-0.061899574799999996,-0.025713036300000002,0.010565,-0.061116,-0.024425,-0.23859579449999999,-9.723685740999999,1.2506420745,-2.9531,1.4406,1.7774,-4.999999999999449e-05,-4.999999999988347e-05,1.0000000000065512e-05,-0.00041639122790915195,-7.91349677700115e-05,-0.0006754105253801157
150000000000.0,1,-0.01372931,-0.04466929075,-0.012160246,0.004161,-0.06,-0.022302,-0.2358695458,-9.723685740999999,1.2510343404999997,-2.9552,1.4406,1.779,2.0000000000020002e-05,-3.333333333332966e-05,2.999999999997449e-05,0.00018648776091256813,-0.000222694287631775,-0.00012416496827039047
150000000000.0,1,-0.0015396440499999998,-0.016337878899999998,-0.019417167,0.004165,-0.056807,-0.018038,-0.23324136359999997,-9.723685740999999,1.2510343404999997,-2.9573,1.4407,1.7805,4.0000000000040004e-05,-3.333333333332966e-05,4.999999999999449e-05,0.00046564612965926955,-0.0003551224655760077,-0.00044545591123679174
150000000000.0,1,0.013925443,0.00438357255,-0.0367945508,0.004156,-0.055745,-0.014839,-0.23075047449999997,-9.7237838075,1.250936274,-2.9592,1.4407,1.7818,2.999999999997449e-05,-3.333333333332966e-05,2.0000000000020002e-05,0.00040141009154903706,0.0005680910498415681,-0.0002344719769358239
150000000000.0,1,0.02181979625,0.010022396299999998,-0.05320107625,0.004153,-0.052555,-0.009509,-0.22862243145,-9.723881874,1.2506420745,-2.9608,1.4408,1.7829,2.999999999997449e-05,-5.0000000000105516e-05,-2.0000000000020002e-05,-0.0007834636235977133,-0.0001271151724500097,-0.00012837475467342152
150000000000.0,1,0.028243152,0.0088063717,-0.06255662035,0.00206,-0.045082,-0.006326,-0.22680820119999998,-9.7239799405,1.249955609,-2.9621,1.4409,1.7837,-1.999999999990898e-05,-4.999999999988347e-05,3.999999999992898e-05,-0.001279757780156876,-0.00019231203080916082,-0.0002831768717717065
150000000000.0,1,0.024183198899999998,-0.0023928226,-0.0691368825,-0.001119,-0.038668,-0.001007,-0.22573927635,-9.724176073499999,1.248778811,-2.9627,1.441,1.784,4.999999999999449e-05,-9.999999999998899e-05,5.0000000000105516e-05,-0.00010191208173937483,0.00010247976447974594,-0.0002538349033667231
150000000000.0,1,0.0404622379,-0.009218250999999998,-0.06812679754999999,-0.00432,-0.034387,0.005381,-0.22496455099999998,-9.7243722065,1.2473078135,-2.9631,1.4412,1.784,1.999999999990898e-05,-0.00020000000000020002,-1.0000000000065512e-05,-0.00018308366946828691,0.00017190877328965293,-0.00043352900919635395
150000000000.0,1,0.04500271685,-0.017142024199999998,-0.0413448364,-0.00537,-0.027993,0.01177,-0.22486648449999996,-9.7245683395,1.246032949,-2.9631,1.4413,1.7836,4.0000000000040004e-05,-9.999999999998899e-05,4.0000000000040004e-05,0.00053245909001709,0.00037877381653328435,-4.2167523926606165e-05
150000000000.0,1,0.0509553534,-0.0204566719,-0.03146953985,-0.006425,-0.023727,0.016026,-0.22513126405,-9.724666405999999,1.2450522839999998,-2.9627,1.4414,1.783,2.999999999997449e-05,-9.999999999998899e-05,-1.0000000000065512e-05,-0.00026108673603286725,0.00021249862393624142,-0.0005646874953770809
150000000000.0,1,0.045306723,-0.00012748645,-0.043767078949999996,-0.006388,-0.016273,0.02028,-0.22606289579999997,-9.724862539,1.243875486,-2.9618,1.4415,1.7819,7.00000000000145e-05,-9.999999999998899e-05,1.0000000000065512e-05,0.00016079783177169737,0.0005143961285107856,-0.00028993725897596967
150000000000.0,1,0.03552949295,-0.00028439285,-0.046130481599999995,-0.006375,-0.01308,0.022407,-0.22736718025,-9.7249606055,1.242502555,-2.9606,1.4416,1.7806,0.00019000000000002348,-9.999999999998899e-05,3.999999999992898e-05,0.0007237443936198851,-0.0009924839292485554,0.0017076845696339937
150000000000.0,1,0.027350746849999996,-0.00834545915,-0.045728408949999994,-0.009558,-0.009858,0.023461,-0.2290637307,-9.725156738499999,1.240933491,-2.9591,1.4418,1.7789,9.00000000000345e-05,-0.00019999999999997797,-9.99999999995449e-06,0.0007863745092990815,-0.00040330389837661684,-0.0004310817646475673
150000000000.0,1,0.0300279623,0.00901231135,-0.038638201,-0.009553,-0.00773,0.02559,-0.23084854099999996,-9.725254805,1.239364427,-2.9574,1.4419,1.7772,3.999999999992898e-05,-9.999999999998899e-05,-2.999999999997449e-05,-0.000679635702834247,0.0003227951742894586,-0.0009624075992564762
150000000000.0,1,0.03443114814999999,0.021368690349999997,-0.022290515449999996,-0.005241,-0.003501,0.023453,-0.23254509145,-9.725352871499998,1.238383762,-2.956,1.442,1.7756,9.999999999998899e-05,-0.00019999999999997797,-2.999999999997449e-05,0.001720917891153917,-0.00011785671653230523,0.00010122956772473657
150000000000.0,1,0.0229867876,0.027291906949999997,-0.008953471449999998,-0.00949,-0.002399,0.021308,-0.23427106185,-9.725450938,1.2373050305,-2.9545,1.442,1.7741,6.0000000000060005e-05,-9.999999999998899e-05,2.999999999997449e-05,-0.00026540376700312507,0.0001870089781144113,-0.00036751651736244284
150000000000.0,1,0.00344213415,0.025271737049999996,-0.00563882375,-0.009476,-0.001332,0.020238,-0.23612451869999998,-9.7255490045,1.236422432,-2.9529,1.4421,1.7725,9.99999999995449e-06,-9.999999999998899e-05,-1.0000000000065512e-05,-0.0003269009723720906,0.000449078556104876,-0.0004895888386018399
150000000000.0,1,-0.0163182656,0.00891424485,-0.012748645,-0.010498,-0.00025,0.012764,-0.23776222924999998,-9.725647071,1.2352456339999998,-2.9514,1.4422,1.771,4.999999999999449e-05,-9.999999999998899e-05,1.0000000000065512e-05,-0.00010390607121157913,-0.00042352852357607773,0.0002643964913491281
150000000000.0,1,-0.03692203725,-0.028390251749999998,0.0022751428,-0.011547,-0.001301,0.007429,-0.23916458019999998,-9.725745137499999,1.2341669024999997,-2.9502,1.4423,1.7697,4.999999999999449e-05,-9.999999999998899e-05,9.99999999995449e-06,7.300544981214685e-05,0.0003732850967048673,-0.00043112313808180147
150000000000.0,1,-0.05023946795,-0.05877125345,0.0275370732,-0.018951,0.001966,-5.8e-05,-0.24021389175,-9.725843203999998,1.232892038,-2.9492,1.4424,1.7687,3.0000000000085514e-05,-9.999999999998899e-05,2.0000000000020002e-05,0.0004563212562380681,0.0001139516576995625,-0.0006361158264114319
150000000000.0,1,-0.047297472949999995,-0.0764134168,0.04949416255,-0.023193,0.00307,-0.003266,-0.24075325749999998,-9.726039337,1.2314210405,-2.9485,1.4425,1.7681,2.999999999997449e-05,-9.999999999998899e-05,2.999999999997449e-05,-0.00022613774450563895,7.576786346330522e-05,-9.430999694748365e-05
150000000000.0,1,-0.03498032055,-0.0829250324,0.05975191845,-0.027417,0.006306,-0.006479,-0.24080229074999998,-9.726235469999999,1.2296558435,-2.9482,1.4427,1.7679,2.999999999997449e-05,-0.00019999999999997797,2.4999999999941735e-05,0.0007607462403715903,-2.4967205872306053e-05,0.0003375049180023293
150000000000.0,1,-0.0231044674,-0.0702548406,0.065116156,-0.028462,0.007383,-0.008616,-0.24041002474999998,-9.7265296695,1.22779258,-2.9482,1.4429,1.768,4.0000000000040004e-05,-9.999999999998899e-05,2.5000000000052758e-05,0.0002623668058976403,-0.0002615755949202381,-0.00023602555943980086
150000000000.0,1,-0.02160404995,-0.04653255425,0.0642531708,-0.025242,0.009488,-0.008613,-0.23996872549999998,-9.726725802499999,1.2261254495,-2.9483,1.4431,1.7681,9.99999999995449e-06,-9.999999999998899e-05,2.0000000000020002e-05,0.0003586668816353278,0.00038917963982010306,-0.00040768085061215764
150000000000.0,1,-0.0238497728,-0.02166288985,0.0501315948,-0.020998,0.006257,-0.008599,-0.23966471934999997,-9.7269219355,1.224654452,-2.9483,1.4432,1.7682,4.0000000000040004e-05,-0.00010000000000021103,6.0000000000060005e-05,0.00015994456077939034,-0.0002597752517765617,-0.00012721361741530046
150000000000.0,1,-0.022270902149999997,-0.010875574849999998,0.030400614999999995,-0.01566,0.007278,-0.007522,-0.23929206664999997,-9.7271180685,1.2233795875,-2.9484,1.4433,1.7684,2.0000000000020002e-05,-9.999999999998899e-05,-2.0000000000020002e-05,2.1508756799626383e-05,4.046915144462204e-05,-0.00017732130154257675
150000000000.0,1,-0.034391921549999996,-0.01028717585,0.022319935399999997,-0.014597,0.007269,-0.006451,-0.23929206664999997,-9.727216134999999,1.2223989224999998,-2.9483,1.4434,1.7683,1.999999999990898e-05,-9.999999999998899e-05,2.999999999997449e-05,0.00023677922689846476,0.0004816602939636816,-0.00031106773538192023
150000000000.0,1,-0.0399915187,-0.00979684335,0.0371083636,-0.010334,0.007233,-0.005373,-0.23953723289999998,-9.727314201499999,1.22190859,-2.948,1.4435,1.7682,3.0000000000085514e-05,-9.999999999998899e-05,1.0000000000065512e-05,0.00012796039935447645,-0.0003103386160665522,0.001108134161015295
150000000000.0,1,-0.039834612299999995,0.0023732093,0.0328915041,-0.009299,0.005091,-0.002163,-0.23997853214999998,-9.727314201499999,1.221516324,-2.9476,1.4435,1.7678,1.999999999990898e-05,-0.0001500000000000945,9.99999999995449e-06,-0.00014572426010217576,0.0005879757302060806,-0.0006314215621163743
150000000000.0,1,-0.0433257797,-0.0063645158499999995,0.05906545294999999,-0.007156,0.007203,-2.5e-05,-0.24068461094999996,-9.727216134999999,1.2218105235,-2.9471,1.4435,1.7674,4.999999999999449e-05,-0.00014999999999987246,-4.0000000000040004e-05,0.00025152619745871796,-0.0007868299198507955,0.0006950708530466532
150000000000.0,1,-0.048346784500000003,-0.025752262899999996,0.0717454514,-0.006135,0.001867,0.001057,-0.24165546929999998,-9.727216134999999,1.222300856,-2.9464,1.4434,1.7667,-5.000000000032756e-06,-5.0000000000105516e-05,-2.500000000016378e-06,-0.00016680265915125503,6.604948571276026e-05,-9.658196131345775e-05
150000000000.0,1,-0.06275275335,-0.02313388735,0.0657241683,-0.008266,0.001886,0.001057,-0.24280284735,-9.7271180685,1.222693122,-2.9456,1.4433,1.7659,-4.999999999921734e-06,-4.999999999988347e-05,-2.4999999999053557e-06,-0.00016680715745964747,6.603307131358704e-05,-9.659191738675688e-05
150000000000.0,1,-0.0612327226,-0.00318716125,0.08138538835,-0.006124,0.00187,-2e-06,-0.24388157884999997,-9.727020002,1.2232815209999999,-2.9448,1.4433,1.7652,2.0000000000020002e-05,-4.999999999988347e-05,-2.500000000016378e-06,0.00021762224860988333,0.00040705032636889626,-0.000166402445387126
150000000000.0,1,-0.04486542375,0.012542705349999999,0.0733341287,-0.003987,0.001854,4e-06,-0.24467591749999998,-9.726823868999999,1.2241641195,-2.9443,1.4431,1.7647,9.99999999995449e-06,-5.0000000000105516e-05,-2.500000000016378e-06,8.42932828901688e-05,-0.000394215753399596,0.00025468633387726314
150000000000.0,1,-0.03881472069999999,0.03782424905,0.05812401455,0.002383,-0.00246,2.6e-05,-0.24534276969999996,-9.726725802499999,1.2253409175,-2.944,1.443,1.7643,-4.999999999999449e-05,-9.999999999998899e-05,-4.999999999999449e-05,-0.0004268674412541973,0.0009305134744796995,-0.0005615248800767692
150000000000.0,1,-0.0264975683,0.04916073645,0.0434042329,0.00769,-0.006765,-0.001023,-0.2456958091,-9.7265296695,1.2267138485,-2.9439,1.4429,1.7642,4.0000000000040004e-05,-3.333333333332966e-05,4.999999999999449e-05,0.0006896702894378937,-0.00026212083184029566,0.00015019914038894022
150000000000.0,1,-0.0391677601,0.0373241099,0.025565936549999998,0.005569,-0.006744,-0.003159,-0.2460488485,-9.726333536499999,1.227988713,-2.9438,1.4427,1.7641,-2.999999999997449e-05,-3.333333333332966e-05,-2.0000000000020002e-05,-0.00041978197098191394,0.00045485525246924396,-0.00045410714538962615
150000000000.0,1,-0.04604222175,-0.00157887065,0.027135000549999996,0.007685,-0.01102,-0.006347,-0.2462057549,-9.726235469999999,1.2290674444999998,-2.9439,1.4426,1.764,1.999999999990898e-05,-3.333333333332966e-05,2.0000000000020002e-05,0.0007785101976258701,-0.00020520678287283545,0.0006089760872654004
150000000000.0,1,-0.05839860075,-0.01579851315,0.05182814524999999,0.003451,-0.007786,-0.007423,-0.24625478815,-9.726039337,1.2302442425,-2.944,1.4425,1.7641,-9.99999999995449e-06,-5.0000000000105516e-05,9.99999999995449e-06,0.0006250561622831441,-0.00031435215911779224,5.234001034892799e-05
150000000000.0,1,-0.0519556317,-0.020044792599999996,0.0738636878,0.004548,-0.00566,-0.009556,-0.24611749505,-9.725843203999998,1.231911373,-2.9444,1.4423,1.7644,-1.4999999999987246e-05,-4.999999999988347e-05,2.0000000000020002e-05,-1.5231630127399143e-05,-5.564739743202374e-05,0.00012408681328457405
150000000000.0,1,-0.034705734349999996,-0.0359315656,0.0671167126,0.009911,-0.002507,-0.009551,-0.24570561575,-9.725647071,1.2333823704999998,-2.945,1.4422,1.7649,-1.4999999999987246e-05,-3.333333333332966e-05,9.99999999995449e-06,-0.0007228945765309636,0.0007225397212335949,-0.0002295559205645059
150000000000.0,1,-0.01218966595,-0.0501315948,0.0520340849,0.013118,-0.002532,-0.010612,-0.2448916638,-9.725352871499998,1.2357359665,-2.946,1.442,1.7659,-0.0002300000000000635,-3.333333333332966e-05,-8.999999999992347e-05,-0.003400558172172774,0.002539405418337193,-0.003669265739893346
150000000000.0,1,-0.005197524499999999,-0.055280086049999996,0.026997707449999995,0.017384,-0.001504,-0.008471,-0.24409732515,-9.725156738499999,1.23759923,-2.9469,1.4418,1.7668,0.00024000000000001798,-3.333333333332966e-05,8.999999999992347e-05,0.003603255784693893,-0.00391044795980755,0.004241641774391347
150000000000.0,1,0.00783551335,-0.04903325,0.0023143694,0.018444,-0.00045,-0.00527,-0.2433618264,-9.7249606055,1.2392663605,-2.9477,1.4417,1.7676,-2.999999999997449e-05,-9.999999999998899e-05,-3.999999999992898e-05,-1.97117910534228e-05,0.00026879796081802354,7.216727837033865e-05
150000000000.0,1,0.014219642499999997,-0.027154613850000002,0.0029910282499999996,0.022723,0.001644,-0.0042,-0.2427145875,-9.7247644725,1.2414238235,-2.9485,1.4415,1.7685,-4.999999999999449e-05,-9.999999999998899e-05,-1.4999999999987246e-05,-0.0010970384312090076,0.0004527310412891783,-0.0005113337186508637
150000000000.0,1,0.016465365349999997,0.011209000949999999,-0.012866324799999999,0.022711,-0.000486,-0.005264,-0.2419692821,-9.724470273,1.24348322,-2.9494,1.4413,1.7694,9.99999999995449e-06,-9.999999999998899e-05,-1.4999999999987246e-05,0.0008538024351105733,-0.0008253458506199962,0.0006892479735287615
150000000000.0,1,0.0,0.03698087715,0.00279489525,0.019493,-0.002591,-0.005266,-0.2415181762,-9.724176073499999,1.245640683,-2.9501,1.441,1.7701,-3.999999999992898e-05,9.999999999998899e-05,-1.0000000000065512e-05,-0.0009386618094757715,0.0008542748792959021,-0.0009300106612455394
150000000000.0,1,-0.02221206225,0.033744682649999996,0.013405690549999998,0.016333,0.001699,-0.006345,-0.24130242989999998,-9.7239799405,1.2476020129999998,-2.9505,1.4409,1.7705,-1.0000000000065512e-05,-9.999999999998899e-05,-2.999999999997449e-05,-5.503287223262987e-05,-0.0004084542758862053,-5.308669555192935e-05
150000000000.0,1,-0.030498681499999996,0.01809326925,0.0052857843499999994,0.018428,-0.002581,-0.005264,-0.24124358999999998,-9.7237838075,1.2494652764999998,-2.9509,1.4407,1.7709,-9.99999999995449e-06,-2.4999999999941735e-05,-6.0000000000060005e-05,-0.0007059022407016613,0.00014418356433965052,0.0003956432256702058
150000000000.0,1,-0.026311241949999998,-0.0023634026499999997,0.0042953127,0.020562,-0.002598,-0.005259,-0.2410866836,-9.723489608,1.2514266065,-2.9513,1.4405,1.7713,9.99999999995449e-06,-2.4999999999941735e-05,4.0000000000040004e-05,0.00042671321647791416,-0.000363315114642937,-0.000413093873449899
150000000000.0,1,-0.0306163613,-0.019819239649999997,-0.018005009399999997,0.023716,-0.009016,-0.006307,-0.24083171069999998,-9.723195408499999,1.2533879365,-2.9518,1.4403,1.7717,-9.99999999995449e-06,-2.500000000016378e-05,-2.5000000000052758e-05,-0.00030328649872646274,0.0001149595084883881,-0.0002533925710743734
150000000000.0,1,-0.033215123549999996,-0.039530606149999994,-0.0178284897,0.023678,-0.012214,-0.004164,-0.24077287079999998,-9.7229992755,1.2554473329999998,-2.9521,1.4401,1.7719,-1.0000000000065512e-05,-2.4999999999941735e-05,-2.4999999999941735e-05,-0.0003033121728575061,0.00011488277249438461,-0.00025342458719768146
150000000000.0,1,-0.0330876371,-0.05310300974999999,-0.01615155255,0.022591,-0.013272,-0.002027,-0.24090035724999997,-9.722705075999999,1.2574086629999999,-2.9523,1.4399,1.772,-9.99999999995449e-06,-5.0000000000105516e-05,-1.333333333330966e-05,5.6676864330862387e-05,1.995166925206071e-05,-5.413535063802932e-05
150000000000.0,1,-0.023702673049999998,-0.0642139442,-0.031646059549999994,0.021495,-0.015395,0.000111,-0.2410082304,-9.722508943,1.258781594,-2.9524,1.4397,1.772,-2.0000000000020002e-05,-4.999999999988347e-05,-1.333333333330966e-05,-0.00027577510050114107,0.00018249680652138167,-0.0005527954268103041
150000000000.0,1,-0.024987344199999997,-0.05451516734999999,-0.0244185585,0.017207,-0.016427,0.002242,-0.24136126979999997,-9.722312809999998,1.260154525,-2.9523,1.4396,1.7717,2.999999999997449e-05,-1.4285714285744433e-05,-1.3333333333420683e-05,0.000943745370443061,-0.00039258658055563167,8.996442626685308e-05
150000000000.0,1,-0.022261095499999998,-0.03433308165,-0.007766866799999999,0.011831,-0.019582,0.005442,-0.24199870205,-9.722214743499999,1.261331323,-2.952,1.4395,1.7712,-9.333333333327865e-05,-1.4285714285744433e-05,-1.333333333330966e-05,0.00013785117555609183,0.000591875673754183,-0.00019966218694444926
150000000000.0,1,-0.0203586054,-0.0196329133,-0.0029812216,0.00753,-0.021681,0.008642,-0.24286168724999999,-9.722116676999999,1.2620177885,-2.9515,1.4394,1.7704,-9.333333333338967e-05,-1.4285714285744433e-05,-1.333333333330966e-05,-0.001684596566214669,0.001984738576137346,-0.0021467038709626074
150000000000.0,1,-0.0190445143,-0.03541181315,-0.010002783,0.005365,-0.024861,0.009713,-0.2438717722,-9.7220186105,1.262311988,-2.9508,1.4393,1.7695,-9.333333333327865e-05,-1.4285714285522388e-05,-1.333333333330966e-05,-0.001688588441648875,0.0019811342488520456,-0.0021496993703369327
150000000000.0,1,-0.016504591949999998,-0.04315906665,-0.01897586775,-0.002121,-0.02693,0.009704,-0.2447543707,-9.7220186105,1.2618216555,-2.95,1.4393,1.7685,0.00019999999999997797,-1.4285714285744433e-05,0.00012000000000000899,0.0032803022912057944,-0.0029451750159923407,0.0029863461467962704
150000000000.0,1,-0.025232510450000002,-0.0360688587,-0.0187895414,-0.003215,-0.030117,0.00971,-0.24576445565,-9.722116676999999,1.2612332565,-2.9491,1.4394,1.7673,-0.00022999999999995246,-1.4285714285744433e-05,-9.999999999998899e-05,-0.003267833284226418,0.002897653221899388,-0.00362573034216207
150000000000.0,1,-0.016131939249999998,-0.03881472069999999,-0.02393803265,-0.004286,-0.031172,0.008644,-0.2464803411,-9.722214743499999,1.2604487245,-2.9485,1.4395,1.7663,-2.999999999997449e-05,-1.4285714285744433e-05,9.99999999995449e-06,-0.00035886524980921486,-0.0002237233632707003,-0.00026620532354404425
150000000000.0,1,-0.005942829899999999,-0.0491705431,-0.0169655045,-0.006424,-0.032219,0.007575,-0.24694125364999997,-9.722312809999998,1.259369993,-2.948,1.4396,1.7655,-2.0000000000020002e-05,-2.4999999999941735e-05,2.0000000000020002e-05,0.00020009944019783177,0.0001928501220942458,-0.00035185601072917905
150000000000.0,1,0.0015494506999999998,-0.05563312545,-0.01420983585,-0.006404,-0.032214,0.003305,-0.24696086695,-9.7224108765,1.2584873945,-2.9478,1.4396,1.765,0.00019999999999997797,-2.500000000016378e-05,0.00010999999999994348,0.0032276695184880744,-0.0032786874290628987,0.0029788504226009316
150000000000.0,1,-0.014886494699999999,-0.04980797535,-0.015533733599999999,-0.00855,-0.034327,0.002239,-0.24698048024999997,-9.722607009499999,1.2574086629999999,-2.9476,1.4398,1.7645,-4.0000000000040004e-05,-2.4999999999941735e-05,2.0000000000020002e-05,-0.00028027536971642064,0.00023546445999222954,-0.0005413696380061062
150000000000.0,1,-0.0204566719,-0.0500727549,-0.020397831999999998,-0.011722,-0.03323,-0.002037,-0.2467941539,-9.7228031425,1.2559376654999999,-2.9476,1.4399,1.7641,-3.999999999992898e-05,-2.4999999999941735e-05,-9.99999999995449e-06,-0.0009384427238958715,-0.0006225482895296786,-0.0005283043825046185
150000000000.0,1,-0.012817291549999998,-0.0373044966,-0.020809711300000002,-0.010654,-0.034302,-0.004167,-0.2462057549,-9.7229992755,1.2545647344999997,-2.9478,1.4401,1.764,-0.00021999999999999797,9.999999999998899e-05,-8.000000000008001e-05,-0.0030353385192818383,0.002408909643845103,-0.0031617236070500265
150000000000.0,1,-0.012817291549999998,-0.0373044966,-0.020809711300000002,-0.010654,-0.034302,-0.004167,-0.2462057549,-9.7229992755,1.2545647344999997,-2.9478,1.4401,1.764,-1.0000000000065512e-05,1.4285714285744433e-05,4.0000000000040004e-05,-0.0002528264112973133,-0.0002440268871664042,-0.0004145334220786445
150000000000.0,1,-0.025830716099999998,-0.01754409685,-0.0058055367999999994,-0.0085,-0.034314,-0.008429,-0.24486224385,-9.723293475,1.2524072714999999,-2.9485,1.4403,1.764,-9.99999999995449e-06,1.4285714285744433e-05,2.0000000000020002e-05,3.17817047594815e-05,-0.00010653180940622953,-0.00039153894590837623
150000000000.0,1,-0.0305182948,-0.05947733225,0.0045698989,-0.007439,-0.034323,-0.007358,-0.24421500495,-9.7233915415,1.2516227395,-2.9489,1.4404,1.7641,-4.0000000000040004e-05,1.4285714285744433e-05,4.500000000007276e-05,-0.0005056875024020968,-0.00035471060106728736,-0.00036879192004635186
150000000000.0,1,-0.0305182948,-0.05947733225,0.0045698989,-0.007439,-0.034323,-0.007358,-0.24421500495,-9.7233915415,1.2516227395,-2.9489,1.4404,1.7641,0.00019000000000002348,1.4285714285522388e-05,4.499999999996174e-05,0.0031780770230454003,-0.003187076711379744,0.0032530454570465217
150000000000.0,1,-0.0330876371,-0.064920023,-0.0027360553499999997,-0.005314,-0.035405,-0.00735,-0.24358737935,-9.723489608,1.2510343404999997,-2.9493,1.4405,1.7641,-9.99999999995449e-06,1.4285714285744433e-05,1.999999999990898e-05,0.00010755846905863287,-0.0002530126867079652,-0.000543739123928022
150000000000.0,1,-0.0333622233,-0.0346370878,-0.009610516999999999,-0.001042,-0.035439,-0.008408,-0.24287149389999999,-9.723489608,1.2507401409999999,-2.9498,1.4405,1.7643,-1.0000000000065512e-05,1.4285714285744433e-05,-3.3333333333551707e-06,0.00010161087995319562,-0.000387529536332476,0.00016033750629018684
150000000000.0,1,-0.037284883299999995,-0.0219865093,-0.02042725195,-0.001029,-0.034371,-0.009475,-0.24208696189999998,-9.7235876745,1.2503478749999999,-2.9503,1.4406,1.7645,-9.00000000000345e-05,1.4285714285744433e-05,-3.3333333332441484e-06,-0.0007123520794976024,-2.8040696484765704e-06,-0.00017394448218821523
150000000000.0,1,-0.036098278649999996,0.00834545915,-0.014808041499999999,-0.006328,-0.031128,-0.011622,-0.24133184984999997,-9.723685740999999,1.2496614094999998,-2.9508,1.4406,1.7647,-4.999999999999449e-05,4.999999999988347e-05,-3.3333333333551707e-06,0.00015914150497553514,0.00010963534977359579,-0.0005328097717642866
150000000000.0,1,-0.04590492865,0.03853032785,0.0007256920999999999,-0.009503,-0.027904,-0.01163,-0.240655191,-9.7237838075,1.2488768774999999,-2.9512,1.4407,1.7648,-0.00026999999999999247,5.0000000000105516e-05,-7.00000000000145e-05,-0.0034302339797891435,0.0032696922924169147,-0.003283544090736168
150000000000.0,1,-0.053936574999999994,0.04865079065,0.02115294405,-0.012663,-0.023613,-0.012707,-0.24009621195,-9.723881874,1.248190412,-2.9516,1.4408,1.7649,-2.999999999997449e-05,5.0000000000105516e-05,-4.0000000000040004e-05,0.0001254409568718362,6.974327691411375e-05,-5.871637326282375e-05
150000000000.0,1,-0.052230217899999994,0.0395011862,0.030537908099999997,-0.01585,-0.021456,-0.011645,-0.23956665284999998,-9.724078007,1.24740588,-2.9518,1.4409,1.765,0.000160000000000049,4.999999999988347e-05,9.00000000000345e-05,0.003093344584647939,-0.003101377184076215,0.003619867776880392
150000000000.0,1,-0.05555467224999999,0.0029714149499999996,0.03515684025,-0.016875,-0.015055,-0.00952,-0.2393803265,-9.724176073499999,1.2463271485,-2.9518,1.441,1.7648,-0.0002500000000000835,9.999999999998899e-05,-9.00000000000345e-05,-0.0036478846868934767,0.003023726335453114,-0.003731817385327574
150000000000.0,1,-0.05880067339999999,-0.030694814499999997,0.0246539181,-0.015801,-0.012934,-0.007383,-0.23942935975,-9.7243722065,1.2451503505,-2.9516,1.4411,1.7645,-9.99999999995449e-06,5.0000000000105516e-05,-9.99999999995449e-06,-0.0005207969367149179,-0.00027292693182379146,6.560114277798235e-06
150000000000.0,1,-0.04023668495,-0.0166516917,0.0196917532,-0.013674,-0.011889,-0.004177,-0.2394391664,-9.724470273,1.2441696855,-2.9515,1.4412,1.7642,-4.0000000000040004e-05,4.999999999988347e-05,-2.0000000000020002e-05,8.516080558784722e-05,0.0002444934499099549,-0.00017312455698004214
150000000000.0,1,-0.033440676499999995,-0.00204958985,0.00877695175,-0.007288,-0.009816,0.002237,-0.23994911219999998,-9.7245683395,1.2433851535,-2.951,1.4413,1.7636,-2.999999999997449e-05,3.333333333332966e-05,-4.999999999999449e-05,0.00026614986909989646,9.918187231594544e-05,-8.040256942565271e-05
150000000000.0,1,-0.016033872749999997,0.0063547092,0.008306232549999999,-0.004089,-0.008779,0.004377,-0.24044925134999998,-9.7245683395,1.2430909540000001,-2.9505,1.4413,1.7631,0.00014999999999998348,3.333333333332966e-05,0.0001100000000000545,0.0024616752521497975,-0.002971279162836016,0.003495321562919651
150000000000.0,1,-0.0188483813,-0.00983606995,0.00030400615,0.001248,-0.007758,0.005453,-0.24121417004999998,-9.7245683395,1.2431890204999998,-2.9499,1.4413,1.7624,-0.00022999999999995246,3.333333333332966e-05,-9.999999999998899e-05,-0.002750155401714638,0.003497495476662227,-0.003746929253438447
150000000000.0,1,-0.01630845895,-0.036647451049999995,-0.007511893899999999,0.002293,-0.00777,0.009726,-0.24227328825,-9.724470273,1.2431890204999998,-2.9491,1.4413,1.7615,0.00024000000000001798,-9.999999999998899e-05,9.999999999998899e-05,0.003603065725074739,-0.002833888058580536,0.004477268128274758
150000000000.0,1,-0.00907115125,-0.07649186999999999,0.019887886199999996,-0.000894,-0.003486,0.013983,-0.24366583255,-9.724470273,1.2431890204999998,-2.948,1.4412,1.7604,-4.999999999999449e-05,-3.333333333332966e-05,-1.0000000000065512e-05,-0.00015125752792588543,0.0009969389378101656,-0.00044404537484821205
150000000000.0,1,0.0244381718,-0.0607620034,0.01797558945,-0.005148,0.000806,0.018235,-0.2448524372,-9.724470273,1.242894821,-2.9471,1.4413,1.7594,2.999999999997449e-05,-3.333333333332966e-05,-9.99999999995449e-06,3.9417654098095056e-05,0.00016401019678302653,6.337938601763682e-05
150000000000.0,1,0.07120608565,-0.061703441799999995,0.02593858925,-0.00197,0.001838,0.024639,-0.2458331022,-9.724470273,1.2429928875,-2.9463,1.4412,1.7587,2.999999999997449e-05,-3.333333333332966e-05,-2.0000000000020002e-05,-0.00026128776310963,1.767265423402442e-05,0.00010207002850859404
150000000000.0,1,0.11761115344999999,-0.0631352127,0.0377556025,0.000139,0.00394,0.03317,-0.2468922204,-9.7243722065,1.24348322,-2.9456,1.4412,1.7579,2.0000000000020002e-05,3.333333333332966e-05,-4.0000000000040004e-05,0.0001424453476484011,0.0006274339221807868,7.400342509455982e-06
150000000000.0,1,0.15718098619999998,-0.029812216,-0.00031381279999999996,0.004385,0.003898,0.037436,-0.24786307874999997,-9.72427414,1.2436793529999999,-2.9449,1.4411,1.7572,9.99999999995449e-06,3.333333333332966e-05,-2.999999999997449e-05,0.0001652338680693255,-0.00020173815739887857,-0.0001112692455560449
150000000000.0,1,0.15692601329999997,0.0111207411,-0.01783829635,0.006536,0.006008,0.037425,-0.24895161689999998,-9.72427414,1.2439735524999997,-2.9441,1.4411,1.7564,-0.00022999999999995246,3.333333333332966e-05,-0.00012000000000000899,-0.0032929026169168374,0.003448115244227612,-0.0038906651360446354
150000000000.0,1,0.138273765,0.06549861535,-0.03990325885,0.011879,0.003836,0.032092,-0.24990286194999997,-9.724176073499999,1.244463885,-2.9434,1.441,1.7558,0.00020999999999993246,-9.999999999998899e-05,2.999999999997449e-05,0.0036178757766627268,-0.004062588329073247,0.0037060478431614197
150000000000.0,1,0.09687989535,0.0999886034,-0.060624710299999995,0.012984,-0.000422,0.017152,-0.25025590135,-9.724078007,1.2450522839999998,-2.9432,1.4409,1.7556,3.0000000000085514e-05,9.999999999998899e-05,2.0000000000020002e-05,0.0005265530238376392,-0.00040486959199848016,-0.00028560299128610467
150000000000.0,1,0.04659139415,0.08326826514999999,-0.02789991925,0.010935,-0.000388,6.7e-05,-0.2499518952,-9.7239799405,1.2459348824999998,-2.9436,1.4408,1.756,-1.0000000000065512e-05,9.999999999998899e-05,-9.99999999995449e-06,-0.0005090234889468803,-0.0009770816235421531,0.00031732494077596485
150000000000.0,1,0.016131939249999998,0.03333280335,0.012013146249999999,0.00782,-0.000345,-0.017018,-0.24837302454999996,-9.723881874,1.2470136139999999,-2.945,1.4408,1.7574,-3.999999999992898e-05,3.333333333332966e-05,-2.0000000000020002e-05,-0.0005175410527220592,-0.0007155225450163893,0.00012257000031068443
150000000000.0,1,0.0042953127,-0.021790376299999997,0.04412992499999999,0.002604,0.002914,-0.035179,-0.24520547659999997,-9.7237838075,1.248190412,-2.9476,1.4407,1.76,-1.0000000000065512e-05,3.333333333332966e-05,4.0000000000040004e-05,7.931902463731433e-07,-0.0005148630204530047,0.0001327267939212895
150000000000.0,1,0.0023045627499999996,-0.07199061765,0.060507030499999996,0.005842,-0.001361,-0.049043,-0.24068461094999996,-9.7237838075,1.249563343,-2.9513,1.4407,1.7637,-2.999999999997449e-05,3.333333333332966e-05,4.999999999999449e-05,-0.0003384372150958548,-0.00047779783895873784,-7.888774205389026e-05
150000000000.0,1,0.01109132115,-0.10506844809999999,0.0519164051,0.005861,-0.002422,-0.054379,-0.23525172684999998,-9.723685740999999,1.2506420745,-2.9557,1.4407,1.7681,-1.333333333330966e-05,-4.999999999988347e-05,9.99999999995449e-06,0.00027536517914805714,-8.415098142866562e-05,-7.870684259314586e-05
150000000000.0,1,0.04649332765,-0.13559654955,0.05475052695,0.004824,-0.000281,-0.056523,-0.22889701765,-9.723685740999999,1.2519169389999998,-2.9607,1.4407,1.7732,-1.3333333333420683e-05,-5.0000000000105516e-05,6.0000000000060005e-05,-0.00038824458036446075,-0.0006435436332843381,-0.00020775334483280616
150000000000.0,1,0.0642727841,-0.14735472289999998,0.016985117799999998,0.00905,-0.003517,-0.053313,-0.22244424194999998,-9.7237838075,1.252505338,-2.9658,1.4407,1.7783,-1.333333333330966e-05,1.0000000000065512e-05,2.999999999997449e-05,-0.0003143468470654387,1.3492906558720819e-06,-0.0007874777419407675
150000000000.0,1,0.07273592305,-0.15179713535,0.0018142302499999999,0.010042,-0.006734,-0.043704,-0.21653083199999998,-9.7237838075,1.2531918034999998,-2.9705,1.4407,1.7829,-5.999999999994898e-05,9.999999999843467e-06,9.00000000000345e-05,-0.0010057402229073364,-0.0007095093057267743,0.0005574153249330305
150000000000.0,1,0.06847983695,-0.14897282015,0.014258869099999998,0.009985,-0.009938,-0.037299,-0.21138234075,-9.7237838075,1.254270535,-2.9746,1.4407,1.787,-0.00026999999999999247,1.0000000000065512e-05,-9.00000000000345e-05,-0.0028069167334352496,0.003179053798714415,-0.004142408780271056
150000000000.0,1,0.027174227149999997,-0.1463348313,0.02021150565,0.010989,-0.013152,-0.029822,-0.20763620045,-9.7237838075,1.2553492665000001,-2.9777,1.4407,1.7899,0.00017000000000000348,1.0000000000065512e-05,0.00017000000000000348,0.0028261974640058085,-0.003743367078111959,0.003573348665477205
150000000000.0,1,-0.006639102049999999,-0.1233284304,0.0263406619,0.004536,-0.016301,-0.02449,-0.20494917834999998,-9.723685740999999,1.256035732,-2.9798,1.4407,1.792,-9.00000000000345e-05,1.0000000000065512e-05,2.999999999997449e-05,-8.853849482437504e-05,-0.0005156920254572039,-0.0004916425858734197
150000000000.0,1,-0.0303025485,-0.08608277369999999,0.04139386965,-0.002984,-0.021568,-0.022357,-0.2029780417,-9.723685740999999,1.256427998,-2.9814,1.4407,1.7934,-9.999999999998899e-05,9.999999999843467e-06,6.0000000000060005e-05,4.327576489426832e-05,-0.0006055550771544294,-0.00038139794731106846
150000000000.0,1,-0.05953617215,-0.0412859965,0.04725824635,-0.011543,-0.024693,-0.022363,-0.201428591,-9.7237838075,1.256231865,-2.9826,1.4407,1.7943,-4.0000000000040004e-05,1.0000000000065512e-05,4.999999999999449e-05,0.0006786022750149279,-0.00022955345732600385,-0.0008807053536656895
150000000000.0,1,-0.09982189035,-0.014258869099999998,0.05086709354999999,-0.013699,-0.031062,-0.027686,-0.20020275975,-9.723881874,1.2557415324999999,-2.9835,1.4408,1.7949,-7.999999999996898e-05,1.0000000000065512e-05,4.999999999999449e-05,0.00033901766005950407,-0.000479015977301378,-0.0003945012604398279
150000000000.0,1,-0.12133768045,-0.01517088755,0.041217349949999996,-0.015851,-0.037429,-0.034074,-0.19858466249999998,-9.7239799405,1.2549570005,-2.9847,1.4409,1.7958,-4.999999999999449e-05,9.999999999843467e-06,-1.0000000000065512e-05,6.804666376636348e-05,-0.0011680232078525865,-0.00043289638350252346
150000000000.0,1,-0.12603506579999998,-0.021103910799999997,0.0361669252,-0.019073,-0.04166,-0.036199,-0.19673120565,-9.724176073499999,1.2536821360000001,-2.9859,1.441,1.7967,-9.99999999995449e-06,1.0000000000065512e-05,-4.999999999921734e-06,-0.0007592465179733221,-0.0006919721189013739,-1.4340606796059419e-05
150000000000.0,1,-0.0953402513,0.0120033396,0.0304398416,-0.018016,-0.041669,-0.034056,-0.19451490274999997,-9.7243722065,1.2526034045,-2.9875,1.4412,1.7979,-4.999999999999449e-05,9.999999999998899e-05,-5.000000000032756e-06,0.000698456858454044,4.1867036008058633e-05,-0.00042356267531928893
150000000000.0,1,-0.04598338184999999,0.0627821733,0.0020593965,-0.012737,-0.045978,-0.029766,-0.1916415543,-9.7245683395,1.2514266065,-2.9896,1.4413,1.7996,-6.0000000000060005e-05,5.0000000000105516e-05,9.99999999995449e-06,0.0004740481860345813,-0.0005629900010115652,-0.0005009865033198668
150000000000.0,1,-0.01032640245,0.10019454305,-0.01713221755,-0.00533,-0.050307,-0.024408,-0.18868975265,-9.7247644725,1.2507401409999999,-2.9919,1.4415,1.8013,-7.999999999996898e-05,4.999999999988347e-05,2.999999999997449e-05,0.0003296570159807555,-0.0007525675657622521,-0.0004539318800846903
150000000000.0,1,-0.024850051099999996,0.1070493914,-0.04168806914999999,-0.001052,-0.048211,-0.023335,-0.18614002365,-9.724862539,1.2501517420000001,-2.9938,1.4416,1.8028,-0.0001100000000000545,4.999999999988347e-05,1.0000000000065512e-05,1.3534162606188005e-05,-0.0007363637656050415,-0.00017558930770045222
150000000000.0,1,-0.0642139442,0.07973787114999999,-0.04439470455,0.003199,-0.051439,-0.025452,-0.1841885003,-9.7249606055,1.2498575425,-2.9953,1.4416,1.8038,-0.00010999999999994348,5.0000000000105516e-05,2.0000000000020002e-05,0.001388206861622221,-0.0006232284775595787,-0.000882689701090511
150000000000.0,1,-0.0988706453,0.016945891199999997,-0.0224964551,2.7e-05,-0.050341,-0.029722,-0.18245272324999998,-9.7249606055,1.2496614094999998,-2.9966,1.4417,1.8046,-0.00012999999999996348,0.00019999999999997797,8.999999999992347e-05,0.0004101219506407183,-6.998556412507462e-05,-0.0002848441496459131
150000000000.0,1,-0.12069044155,-0.048994023399999996,0.012346572349999998,-0.004176,-0.044972,-0.034,-0.18067771959999998,-9.725058672,1.249563343,-2.998,1.4417,1.8056,-0.0001300000000000745,9.999999999998899e-05,1.0000000000065512e-05,0.00016039703149584028,-0.00039035373873463897,6.925819669323374e-06
150000000000.0,1,-0.1375088463,-0.09379080059999999,0.0599186315,-0.01479,-0.039551,-0.036154,-0.17898116914999998,-9.725156738499999,1.2490730105,-2.9993,1.4418,1.8065,-0.000140000000000029,9.999999999998899e-05,5.999999999994898e-05,-0.0005060629666233663,0.0002436787389110684,-0.0007924875305087564
150000000000.0,1,-0.12378934294999999,-0.0961836232,0.08134616174999999,-0.023268,-0.032021,-0.035107,-0.17712771230000002,-9.725254805,1.248190412,-3.0006,1.4419,1.8075,-4.999999999999449e-05,5.0000000000105516e-05,4.999999999999449e-05,0.0007476491943037011,-0.0004416833212963489,0.0004322739839968115
150000000000.0,1,-0.09784094704999999,-0.07927695859999999,0.09244728954999999,-0.024296,-0.025621,-0.031912,-0.17525464215,-9.725450938,1.2472097469999999,-3.002,1.442,1.8087,-0.00010999999999994348,4.999999999988347e-05,7.00000000000145e-05,0.00047252218610616126,-5.386525236228401e-05,-0.0004584049983638039
150000000000.0,1,-0.055937131599999995,-0.0532108829,0.06718535915,-0.021088,-0.020326,-0.02444,-0.1733031188,-9.725647071,1.2461310154999998,-3.0034,1.4421,1.8099,-0.00029000000000001247,9.999999999998899e-05,-4.999999999999449e-05,-0.003196199731492211,0.0038541579480044774,-0.003889664071471177
150000000000.0,1,-0.020329185450000002,-0.02185902285,0.013954862949999999,-0.016818,-0.016105,-0.018035,-0.1714986952,-9.725843203999998,1.244660018,-3.0047,1.4423,1.811,-5.999999999994898e-05,9.999999999998899e-05,6.0000000000060005e-05,-0.00014407439508334896,-8.456613083462905e-05,-0.00021124969784858116
150000000000.0,1,-0.01099325465,0.0015494506999999998,-0.027772432799999996,-0.009351,-0.010847,-0.009491,-0.1705180302,-9.726039337,1.2430909540000001,-3.0053,1.4425,1.8115,-6.0000000000060005e-05,0.00020000000000020002,2.999999999997449e-05,-0.0002883811614224907,0.00038564739391833136,0.0002735274458849357
150000000000.0,1,-0.013915636349999998,0.012356378999999999,-0.049857008599999995,-0.005095,-0.008756,-0.004149,-0.17013557085,-9.726235469999999,1.241718023,-3.0054,1.4426,1.8115,-4.0000000000040004e-05,9.999999999998899e-05,2.0000000000020002e-05,-0.0002673737749274707,0.0001951132026773994,7.743097713674985e-05
150000000000.0,1,-0.031106693799999998,0.0091594111,-0.04918034975,0.001305,-0.00668,-0.000937,-0.1704591903,-9.726333536499999,1.240933491,-3.0051,1.4427,1.8111,-8.999999999992347e-05,9.999999999998899e-05,-1.0000000000065512e-05,-0.0002267069690771173,0.00015478229511112218,0.0003402171540156651
150000000000.0,1,-0.062331067399999995,-0.0001765197,-0.03562755945,-0.002922,-0.001316,-0.000949,-0.1714006287,-9.726431603,1.2400508925,-3.0042,1.4428,1.8102,-9.00000000000345e-05,5.0000000000105516e-05,-9.99999999995449e-06,-0.0003256319788249584,0.0006927424920397662,0.0005568362256274106
150000000000.0,1,-0.06696961285,-9.806649999999999e-06,0.0016082905999999998,-0.003951,0.004021,0.000112,-0.17260684664999998,-9.726431603,1.239756693,-3.0033,1.4428,1.8093,-4.999999999999449e-05,4.999999999988347e-05,-1.0000000000065512e-05,-0.0006089421235084824,0.0002451595070271928,0.00036666954458897116
150000000000.0,1,-0.05937926574999999,0.01868166825,0.0214177236,-0.006035,0.011497,0.002234,-0.17391113109999998,-9.726431603,1.239756693,-3.0022,1.4428,1.8084,-4.999999999999449e-05,9.999999999998899e-05,-9.99999999995449e-06,0.00018731974032837329,0.0007243839675454833,0.00014590458809671247
150000000000.0,1,-0.030410421649999998,0.038736267500000005,0.00848275225,-0.004963,0.014681,0.006502,-0.17504870250000001,-9.726431603,1.2394624935,-3.0013,1.4428,1.8076,-2.0000000000020002e-05,9.999999999998899e-05,-7.999999999996898e-05,-0.0005194332865499085,2.7903464647982545e-05,0.00032961493516969753
150000000000.0,1,0.0035892338999999997,0.0697252815,-0.01328801075,-0.001759,0.017847,0.010771,-0.17611762734999997,-9.726431603,1.2392663605,-3.0004,1.4428,1.8069,-2.0000000000020002e-05,9.999999999998899e-05,9.99999999995449e-06,5.824280911981283e-05,0.0007456770002522983,0.0005646508049468313
150000000000.0,1,0.02007421255,0.0642139442,-0.034597861199999996,0.002523,0.023134,0.016105,-0.17749055835,-9.726431603,1.2388740944999999,-2.9993,1.4428,1.8059,-9.99999999995449e-06,9.999999999998899e-05,-2.999999999997449e-05,-0.000629249329994197,0.00029382321215409846,0.0005268041325099393
150000000000.0,1,0.0480133584,0.06542016214999999,-0.053063783149999995,0.006813,0.027358,0.018237,-0.1787948428,-9.726431603,1.2386779615,-2.9982,1.4428,1.8051,-9.99999999995449e-06,9.999999999998899e-05,-2.0000000000020002e-05,0.00011445105539675815,0.0002647552304420042,0.00035989254832968776
150000000000.0,1,0.06122291595,0.04160961595,-0.06177208835,0.008914,0.02627,0.022509,-0.1801873871,-9.726431603,1.2384818285,-2.9971,1.4428,1.8042,1.999999999990898e-05,9.999999999998899e-05,-9.99999999995449e-06,-0.00015974174123756235,0.0001354316574428971,0.0003684683258244892
150000000000.0,1,0.06638121385,0.008825985,-0.0589771931,0.008957,0.032661,0.023561,-0.18175645109999997,-9.726431603,1.238383762,-2.9959,1.4428,1.8033,-1.999999999990898e-05,4.999999999988347e-05,-1.0000000000065512e-05,-2.3607234153288914e-05,0.0002381811807130596,0.00041508044441807
150000000000.0,1,0.07987516424999999,-0.0362649917,-0.02635046855,0.006837,0.035872,0.025681,-0.18327648185,-9.726431603,1.238579895,-2.9947,1.4428,1.8024,5.000000000032756e-06,5.0000000000105516e-05,-2.0000000000020002e-05,-0.0007774741084050074,-0.00014539685375725142,0.0002790914369594777
150000000000.0,1,0.07755098819999999,-0.0721181041,0.00401091985,0.004755,0.042281,0.025661,-0.18499264559999998,-9.726333536499999,1.2390702274999998,-2.9934,1.4427,1.8015,4.999999999921734e-06,3.333333333332966e-05,1.0000000000065512e-05,0.00042391946424369387,0.00027018422390834296,0.00047557533951292363
150000000000.0,1,0.09414383999999999,-0.0820816605,0.015651413399999998,0.003697,0.043354,0.025651,-0.18647344975,-9.726235469999999,1.2395605600000001,-2.9923,1.4426,1.8008,-2.0000000000020002e-05,3.333333333332966e-05,-4.999999999999449e-05,-0.00042614377389926794,0.0002109062717337018,0.00046873286992465957
150000000000.0,1,0.10541168085,-0.067469752,0.011385520649999998,0.00162,0.049763,0.024562,-0.1877188943,-9.7261374035,1.239756693,-2.9913,1.4426,1.8003,4.0000000000040004e-05,3.333333333332966e-05,-1.0000000000065512e-05,5.754762387444323e-05,-1.8760442613841022e-05,0.0004030962221521772
150000000000.0,1,0.1227008048,-0.034127142,-0.0008335652500000001,0.002658,0.045491,0.023496,-0.18853284624999997,-9.7261374035,1.2398547594999998,-2.9907,1.4426,1.8001,-1.0000000000065512e-05,1.999999999990898e-05,-3.999999999992898e-05,-0.000150865734804162,-2.9467353921397432e-06,0.0005568817638226253
150000000000.0,1,0.1207590881,0.0047856452,-0.01026756255,0.00054,0.04551,0.020282,-0.18914085854999999,-9.7261374035,1.2396586264999998,-2.9902,1.4426,1.8001,-5.000000000032756e-06,2.0000000000131024e-05,-4.999999999999449e-05,0.00013256480743262244,5.4870557689712385e-05,0.00016185104041221976
150000000000.0,1,0.1113054775,0.024889277699999997,-0.025085410699999998,-0.000487,0.046588,0.013866,-0.189268345,-9.726235469999999,1.2392663605,-2.99,1.4426,1.8003,-4.999999999921734e-06,1.999999999990898e-05,-4.999999999999449e-05,-0.00014909898325310422,-0.0003784961849002677,0.00014441965862310724
150000000000.0,1,0.0934769878,0.02209438245,-0.020809711300000002,-0.000482,0.043397,0.007461,-0.1890918253,-9.726235469999999,1.2388740944999999,-2.9901,1.4427,1.8009,9.99999999995449e-06,2.0000000000131024e-05,-1.0000000000065512e-05,-0.00020432328127162336,-6.873914840643813e-05,0.0004084955261198786
150000000000.0,1,0.07634477025,0.012905551399999998,-0.0172793173,-0.002613,0.039158,-1.2e-05,-0.18842497309999998,-9.726333536499999,1.2382856955,-2.9906,1.4427,1.8017,1.0000000000065512e-05,1.999999999990898e-05,-2.0000000000020002e-05,8.72934726066088e-05,-0.00024489557030560327,9.78756289280458e-05
150000000000.0,1,0.07305954249999999,-0.015180694199999997,-0.0009120184499999999,0.00058,0.034874,-0.005341,-0.1872285618,-9.726333536499999,1.2380895625,-2.9915,1.4428,1.803,9.99999999995449e-06,2.4999999999941735e-05,-3.3333333333551707e-06,-0.00012896676409224206,-0.00018874939666724266,0.0001455821773215238
150000000000.0,1,0.06071297015,-0.03564717275,0.01601425945,-0.000516,0.028492,-0.009605,-0.1856594978,-9.726431603,1.2380895625,-2.9927,1.4428,1.8045,-6.666666666710341e-06,2.500000000016378e-05,-3.3333333332441484e-06,-7.517606894835716e-05,-0.00013009666394436792,-0.00010044696589495139
150000000000.0,1,0.0595655921,-0.04504194345,0.0071490478500000005,0.001597,0.02315,-0.013866,-0.1836197146,-9.726431603,1.2380895625,-2.9944,1.4428,1.8064,-6.666666666599319e-06,2.4999999999941735e-05,-3.3333333333551707e-06,-3.824715973932413e-06,-0.00017153575135697707,0.00010587945974704915
150000000000.0,1,0.0535639223,-0.058369180799999996,0.013356657299999998,0.002595,0.012488,-0.017051,-0.18135437845,-9.726431603,1.2384818285,-2.9962,1.4428,1.8084,-6.666666666710341e-06,2.4999999999941735e-05,2.999999999997449e-05,0.00045177616040259494,0.00014530983936178465,0.00014392054694534195
150000000000.0,1,0.03800076875,-0.0737852346,0.014337322299999998,0.002592,0.011423,-0.018119,-0.17910865559999997,-9.726431603,1.2388740944999999,-2.998,1.4428,1.8103,-9.99999999995449e-06,-9.999999999998899e-05,-2.0000000000020002e-05,9.902932873506742e-06,-0.00015580822022132068,-8.588156934385971e-05
150000000000.0,1,0.03678474415,-0.07048039354999999,0.019809433,0.000388,0.003979,-0.015978,-0.1768531261,-9.726431603,1.2390702274999998,-2.9998,1.4428,1.8122,-2.0000000000020002e-05,-1.999999999990898e-05,-1.999999999990898e-05,8.315552578341823e-05,0.00011467988087243697,-0.00024926692759796865
150000000000.0,1,0.04150174279999999,-0.04455161095,0.0328130509,-0.004981,0.000824,-0.01385,-0.1746760498,-9.726431603,1.2390702274999998,-3.0015,1.4428,1.8139,-9.99999999995449e-06,-2.0000000000131024e-05,9.99999999995449e-06,5.620329910005495e-05,7.279161547502078e-05,-0.0002935218817965435
150000000000.0,1,0.045806862149999995,-0.0157887065,0.044022051849999994,-0.008225,-0.003415,-0.011716,-0.17270491315,-9.7265296695,1.239168294,-3.0031,1.4429,1.8155,-2.0000000000020002e-05,-1.999999999990898e-05,-2.0000000000020002e-05,-0.00024885694709708694,-0.0007103142084547986,-0.0003324397915938082
150000000000.0,1,0.0390696936,-0.0030302548499999997,0.04949416255,-0.009362,-0.009804,-0.00744,-0.17119468905,-9.7265296695,1.2390702274999998,-3.0043,1.4429,1.8166,9.99999999995449e-06,-2.0000000000131024e-05,2.0000000000020002e-05,0.0005331445411451696,0.0005457181058496907,1.0178081134792905e-05
150000000000.0,1,0.0179657828,-0.0037657536,0.053044169849999996,-0.008346,-0.015143,-0.005295,-0.1701453775,-9.7265296695,1.2390702274999998,-3.0051,1.4429,1.8173,-2.999999999997449e-05,-1.999999999990898e-05,-4.0000000000040004e-05,-7.513198304187618e-05,-2.9660216006144324e-05,-0.000408988808566102
150000000000.0,1,0.00661948875,-0.01644575205,0.0411683167,-0.009422,-0.015137,-0.003162,-0.1694196854,-9.726627736,1.2388740944999999,-3.0057,1.4429,1.8177,-9.99999999995449e-06,-3.333333333332966e-05,-2.999999999997449e-05,-1.7000556833846048e-05,-8.602127828316597e-05,-0.00032232087393468944
150000000000.0,1,0.00406975975,-0.01726951065,0.031302826799999996,-0.009471,-0.019402,4.7e-05,-0.16896857949999997,-9.726627736,1.238383762,-3.006,1.443,1.8178,-1.0000000000065512e-05,-3.333333333332966e-05,-2.0000000000020002e-05,0.00018435165531105469,0.00025989568021622667,-0.00021292698936337118
150000000000.0,1,0.0215157901,0.020044792599999996,0.02499715085,-0.009497,-0.021536,0.002184,-0.16845863369999997,-9.726725802499999,1.2379914959999998,-3.0063,1.4431,1.8179,-9.99999999995449e-06,-3.333333333332966e-05,-5.999999999994898e-05,-0.00028462168677800825,-0.00012796727962105514,-0.0003845689083472603
150000000000.0,1,0.0293414968,0.05975191845,0.014386355549999999,-0.006324,-0.023696,0.004326,-0.16804675439999997,-9.726823868999999,1.23759923,-3.0066,1.4431,1.818,-2.0000000000020002e-05,-3.333333333332966e-05,-2.0000000000020002e-05,0.00010152525864981499,4.293066809113455e-05,-0.00046229060771985075
150000000000.0,1,0.027488039949999998,0.07083343295,0.016867438,-0.005263,-0.022643,0.007527,-0.16799772115,-9.726823868999999,1.2375011635,-3.0067,1.4431,1.8178,-9.99999999995449e-06,-3.333333333332966e-05,-7.00000000000145e-05,-0.000178726640876814,0.00017392503792579284,-0.00038407297431319876
150000000000.0,1,0.0067469752,0.068254284,0.018416888699999998,-0.002081,-0.025865,0.00647,-0.1682036608,-9.726725802499999,1.2377953629999998,-3.0065,1.4431,1.8174,-1.0000000000065512e-05,-3.333333333332966e-05,-2.999999999997449e-05,0.00012025988991282155,0.0001709207364091192,-0.0003671520307835241
150000000000.0,1,-0.018485535249999997,0.0385401345,0.022584714949999998,0.002165,-0.028031,0.00755,-0.16886070635,-9.726627736,1.238383762,-3.0061,1.443,1.8166,-2.999999999997449e-05,-4.999999999988347e-05,-9.99999999995449e-06,0.00020459804597905418,0.00015306604678366753,-0.00022369425226331785
150000000000.0,1,-0.037461403,0.0047660318999999994,0.02203554255,0.004269,-0.031246,0.00863,-0.16993943784999999,-9.7265296695,1.2390702274999998,-3.0053,1.4429,1.8156,-2.0000000000020002e-05,-5.0000000000105516e-05,-8.000000000008001e-05,4.199244180114192e-05,0.0006847553083662028,-0.00041096277986429897
150000000000.0,1,-0.036951457199999996,-0.03486264075,0.02697809415,0.004262,-0.030183,0.011833,-0.17119468905,-9.726431603,1.2398547594999998,-3.0044,1.4428,1.8143,-2.999999999997449e-05,-5.0000000000105516e-05,-4.999999999999449e-05,0.00011395450015583286,0.00010440662489541452,-0.00045140309537683443
150000000000.0,1,-0.0209666177,-0.0602716709,0.03656899785,0.001019,-0.032292,0.017169,-0.17266568655,-9.726333536499999,1.2406392915,-3.0033,1.4427,1.8129,-2.0000000000020002e-05,-4.999999999988347e-05,-7.999999999996898e-05,-0.00022152248612905545,0.00030741158016067693,-0.0003393495265215929
150000000000.0,1,-0.013395883899999999,-0.0410702502,0.0400307453,-0.002198,-0.031205,0.0225,-0.17454856335,-9.726235469999999,1.241129624,-3.0019,1.4426,1.8112,-2.999999999997449e-05,-2.4999999999941735e-05,-6.0000000000060005e-05,4.1799331728986644e-05,0.00020111025014402095,-0.000597957511490721
150000000000.0,1,-0.0242616521,0.013454723799999999,0.0340094622,-0.002204,-0.030143,0.025702,-0.17700022584999997,-9.7261374035,1.2415218899999998,-3.0,1.4426,1.809,-4.999999999999449e-05,-2.4999999999941735e-05,-9.999999999998899e-05,0.00010232558076639364,0.0005053306613120867,-0.0006450138687874585
150000000000.0,1,-0.035980598849999997,0.06647928035,0.02782146605,-0.00438,-0.03226,0.031042,-0.18024622699999998,-9.726039337,1.2418160894999999,-2.9975,1.4425,1.8061,-2.999999999997449e-05,-2.500000000016378e-05,-8.999999999992347e-05,-0.0003775374960299782,7.504693041004984e-05,-0.0005206986124675073
150000000000.0,1,-0.058624153699999994,0.09391828705,0.0008727918499999999,-0.000141,-0.036555,0.029993,-0.1837962343,-9.7259412705,1.2420122225,-2.9947,1.4424,1.803,0.00017000000000000348,-2.4999999999941735e-05,-3.0000000000085514e-05,0.00303851308688996,-0.0027581475298563696,0.003420674598451079
150000000000.0,1,-0.10107714155,0.0772175621,-0.008973084749999999,-0.000148,-0.038682,0.02787,-0.18786599404999998,-9.725843203999998,1.242110289,-2.9915,1.4423,1.7994,-1.0000000000065512e-05,5.0000000000105516e-05,-2.999999999997449e-05,0.00026959853113250887,-0.00012577907259769816,-0.0001106579249023909
150000000000.0,1,-0.1279571692,0.01760293675,-0.023055434149999998,0.000939,-0.038684,0.023611,-0.19196517374999997,-9.725745137499999,1.2420122225,-2.9882,1.4423,1.7957,-1.666666666666483e-05,4.999999999988347e-05,-7.999999999996898e-05,-0.0003042065527585347,-0.0008526326724322963,-0.0002723824779253814
150000000000.0,1,-0.13353715305,-0.04398282525,-0.00522694445,0.000913,-0.041878,0.023626,-0.19611338669999998,-9.725745137499999,1.2420122225,-2.985,1.4422,1.7921,-1.666666666666483e-05,2.4999999999941735e-05,-9.00000000000345e-05,0.0017069397422508903,0.00011817311657047469,-9.642842219625969e-05
150000000000.0,1,-0.11498297124999998,-0.0599382448,0.0112580342,-0.000145,-0.040801,0.02363,-0.19985952699999998,-9.725647071,1.242110289,-2.9821,1.4422,1.7887,-1.666666666666483e-05,2.4999999999941735e-05,-9.999999999998899e-05,-0.00042874827003736016,0.0004789374419240655,-0.001020420487454654
150000000000.0,1,-0.07361852155,-0.02576206955,0.0037559469499999997,0.000912,-0.038682,0.02897,-0.20336050104999998,-9.7255490045,1.2423064219999997,-2.9793,1.4421,1.7856,-2.999999999997449e-05,2.500000000016378e-05,-9.999999999998899e-05,4.163493473852142e-05,0.0003794065223909904,-0.00082699317934809
150000000000.0,1,-0.055701772,0.0142784824,-0.0159259996,0.001979,-0.036562,0.032175,-0.206920315,-9.725450938,1.2422083555,-2.9765,1.442,1.7824,4.0000000000040004e-05,2.4999999999941735e-05,-5.999999999994898e-05,0.0012051488179269931,0.0004869047915339042,-0.000666523439082134
150000000000.0,1,-0.030469261549999998,0.04160961595,-0.0326365312,0.00306,-0.033376,0.034308,-0.21030360924999997,-9.725450938,1.2420122225,-2.9739,1.442,1.7794,-6.0000000000060005e-05,9.999999999998899e-05,-0.000140000000000029,-0.0008830548246852032,0.0007672660598170289,-0.0011896071731825053
150000000000.0,1,-0.033342609999999995,0.030949787399999998,-0.05161239895,0.004122,-0.03232,0.036446,-0.21401052294999998,-9.725352871499998,1.241718023,-2.9709,1.442,1.7761,-0.00022999999999995246,9.999999999998899e-05,-0.000160000000000049,-0.003268359716062319,0.0032941049406747247,-0.004217640817820945
150000000000.0,1,-0.04777799879999999,0.0035500073,-0.0658418481,0.005219,-0.030193,0.033245,-0.21783511644999998,-9.725352871499998,1.241129624,-2.9678,1.4419,1.7727,-2.0000000000020002e-05,3.333333333332966e-05,-8.999999999992347e-05,0.00030323401308662845,0.0007201915149368521,-0.0001873813365771415
150000000000.0,1,-0.057427742399999995,-0.01569064,-0.052298864449999996,0.008471,-0.024888,0.031111,-0.22164009664999998,-9.725254805,1.241129624,-2.9649,1.4419,1.7694,2.5000000000052758e-05,3.333333333332966e-05,-9.00000000000345e-05,0.00039968870964535164,0.0005577575075554897,9.490845104709322e-06
150000000000.0,1,-0.0510926465,-0.0476995456,-0.04073682409999999,0.011698,-0.020652,0.03218,-0.22528817045,-9.725156738499999,1.2416199565,-2.9621,1.4418,1.7664,2.4999999999941735e-05,3.333333333332966e-05,-0.00012000000000000899,-2.3180594754146355e-05,0.00068022954547442,-7.486542940893237e-05
150000000000.0,1,-0.00610954295,-0.05408367475,-0.03713778355,0.007438,-0.017424,0.03537,-0.22852436495,-9.725058672,1.241718023,-2.9596,1.4417,1.7637,2.999999999997449e-05,-9.999999999998899e-05,-0.0001100000000000545,0.0004484486771887397,0.0007376642030454406,-0.00021342992291595309
150000000000.0,1,0.04105063689999999,-0.026850607699999997,-0.043168873299999994,-0.002107,-0.006695,0.040669,-0.23153500649999997,-9.725058672,1.241129624,-2.9572,1.4417,1.7612,2.999999999997449e-05,-5.0000000000105516e-05,-0.00013999999999991797,0.000210381847189689,0.0009723733870585782,0.0004382622854521845
150000000000.0,1,0.09281994225,0.027252680349999996,-0.046463907699999994,-0.005275,0.002911,0.04918,-0.23452603474999997,-9.725156738499999,1.239952826,-2.9547,1.4418,1.7587,3.0000000000085514e-05,-4.999999999988347e-05,-9.999999999998899e-05,0.0004441710532754328,0.0009259047892662409,4.786044421889457e-05
150000000000.0,1,0.1207787014,0.08031646349999999,-0.0474445727,-0.007433,0.006114,0.058769,-0.2380858487,-9.725156738499999,1.238579895,-2.9517,1.4418,1.7557,4.999999999999449e-05,-9.999999999998899e-05,-0.0001300000000000745,7.909662449256949e-05,0.0007287627471594949,6.127963224522581e-05
150000000000.0,1,0.1416276393,0.08381743755,-0.04649332765,-0.006376,0.010356,0.067294,-0.24218502839999997,-9.725254805,1.2373050305,-2.9483,1.4419,1.7523,4.999999999999449e-05,-9.999999999998899e-05,-0.00012999999999996348,1.801696459535762e-05,0.0006575470460183919,-0.0003731240123769908
150000000000.0,1,0.14747240269999998,0.05004333495,-0.04514000995,-0.006391,0.014606,0.076883,-0.24713738664999998,-9.725352871499998,1.2359320995,-2.9442,1.4419,1.7484,7.00000000000145e-05,-4.999999999988347e-05,-0.000140000000000029,0.0003186801073840062,0.0008788515001354469,0.0002052376477472695
150000000000.0,1,0.12952623319999998,0.0122386992,-0.057741555199999996,-0.006384,0.017797,0.080072,-0.25297234339999997,-9.725352871499998,1.2343630355,-2.9394,1.442,1.7437,5.999999999994898e-05,-5.0000000000105516e-05,-0.00012999999999996348,0.00044974697955235676,0.0011629513501427713,-0.00016264799614673642
150000000000.0,1,0.12060218169999999,-0.017573516799999998,-0.030989014,-0.004267,0.017775,0.08327,-0.2593074393,-9.725352871499998,1.233284304,-2.9344,1.4419,1.7387,9.00000000000345e-05,-9.999999999998899e-05,-0.00012999999999996348,0.00032470256887329185,0.0010184637513186434,0.00011611683629286773
150000000000.0,1,0.1000670566,-0.024820631149999998,-0.02413416565,-0.003196,0.017765,0.082198,-0.26586808814999996,-9.725254805,1.2324997719999997,-2.9291,1.4419,1.7336,5.999999999994898e-05,-9.999999999998899e-05,-8.000000000008001e-05,0.00038103007083156726,0.0006793591185769721,-7.030468687263536e-05
150000000000.0,1,0.08295445234999999,-0.05110245315,-0.02593858925,-0.00212,0.017757,0.08006,-0.27254641679999997,-9.725156738499999,1.2317152399999998,-2.9238,1.4418,1.7284,7.999999999996898e-05,-9.999999999998899e-05,-9.999999999998899e-05,-0.000509307778524537,0.0004220530020064839,0.00040058329949888005
150000000000.0,1,0.0650573161,-0.07979671105,0.00140235095,-0.00421,0.01991,0.074711,-0.27918551885,-9.725058672,1.231126841,-2.9186,1.4417,1.7233,0.00040000000000006697,-9.999999999998899e-05,4.999999999999449e-05,0.0043223493409250135,-0.003050577050463854,0.003959750749470414
150000000000.0,1,0.06281159324999999,-0.09339853459999999,0.0135135637,-0.003162,0.015641,0.071515,-0.28547158149999996,-9.7249606055,1.2307345749999998,-2.9137,1.4416,1.7185,9.999999999998899e-05,-9.999999999998899e-05,-2.999999999997449e-05,0.0001478945656929742,0.0003183032193909696,0.00029613159933705724
150000000000.0,1,0.07178467799999999,-0.1207394748,0.022192448949999995,-0.005237,0.018861,0.065096,-0.2910025321,-9.724862539,1.2302442425,-2.9093,1.4415,1.7143,9.00000000000345e-05,-9.999999999998899e-05,-9.999999999998899e-05,-0.0004350681088569619,-0.00021888493988297952,0.000797460772746339
150000000000.0,1,0.0831015521,-0.14494228699999998,0.0341075287,-0.004169,0.015659,0.059761,-0.29572933739999996,-9.724666405999999,1.2300481095,-2.9056,1.4414,1.7107,9.99999999995449e-06,-0.00020000000000020002,-7.00000000000145e-05,-0.001074435346165581,-1.7559483508122753e-05,-5.158438365060469e-05
150000000000.0,1,0.08415086364999999,-0.16871360659999998,0.048905763549999995,-0.004172,0.012466,0.055492,-0.29993639025,-9.7245683395,1.2300481095,-2.9024,1.4413,1.7076,5.999999999994898e-05,-9.999999999998899e-05,-2.0000000000020002e-05,-0.00047870309987074755,-0.00031412173764588935,0.0003067576196518207
150000000000.0,1,0.08970142755,-0.17678447955,0.05743754905,-0.002004,0.012453,0.049085,-0.30338833104999996,-9.724470273,1.2303423089999999,-2.8998,1.4412,1.7051,4.0000000000040004e-05,-0.00019999999999997797,-7.00000000000145e-05,-0.001301383866232797,0.00023868357370560034,0.0002614364002884173
150000000000.0,1,0.09242767625,-0.16628155739999997,0.0507199938,-0.00095,0.006057,0.041621,-0.30611457975,-9.72427414,1.2306365084999997,-2.8978,1.4411,1.7031,6.0000000000060005e-05,-9.999999999998899e-05,1.0000000000065512e-05,0.0003266246365944969,0.000575861107045883,-0.0005126837181499422
150000000000.0,1,0.1052057412,-0.14169628585,0.045581309199999996,-0.003067,0.003948,0.035209,-0.3079680366,-9.724176073499999,1.2310287745,-2.8964,1.441,1.7017,7.999999999996898e-05,-9.999999999998899e-05,-2.999999999997449e-05,-0.0006687243425258504,-0.0005962886470169959,0.0008333122145163241
150000000000.0,1,0.10282272524999998,-0.0973408079,0.038883367249999995,-0.000941,-0.002456,0.026678,-0.3090271548,-9.724176073499999,1.2314210405,-2.8957,1.441,1.7009,2.999999999997449e-05,-0.00019999999999997797,-5.0000000000105516e-05,-0.00023012997512217304,-0.00020599629642359396,-0.0003351963784867795
150000000000.0,1,0.1012634679,-0.06820525075,0.0399915187,-0.004117,-0.003491,0.020264,-0.30940961415,-9.724078007,1.2316171735,-2.8955,1.4409,1.7006,-2.999999999997449e-05,-0.00019999999999997797,-4.999999999999449e-05,-0.0004763668388823028,0.0005835059813761312,-0.0011032088948339513
150000000000.0,1,0.10134192109999998,-0.03968751255,0.05577041855,-0.005228,-0.012004,0.016001,-0.30918406119999997,-9.7239799405,1.2322055725,-2.8957,1.4409,1.7008,2.0000000000020002e-05,-0.00019999999999997797,-4.999999999999449e-05,0.0005385727607174484,-0.0003053476436429836,2.7084668612564755e-05
150000000000.0,1,0.10869690859999999,-0.00962032365,0.04610106165,-0.00417,-0.017335,0.009601,-0.3081641696,-9.7239799405,1.2324997719999997,-2.8966,1.4409,1.7015,2.999999999997449e-05,-9.999999999998899e-05,-9.99999999995449e-06,0.00035273203951913246,0.0008917130553791619,-0.0011241469881766442
150000000000.0,1,0.09701718845,0.006943108199999999,0.051445685899999996,-0.004185,-0.021596,0.0064,-0.30695795165,-9.7239799405,1.2331862375,-2.8976,1.4408,1.7023,5.999999999994898e-05,-9.999999999998899e-05,-2.4999999999941735e-05,-0.000299765980164457,0.00019401560482257274,-0.000996440111297181
150000000000.0,1,0.0761192173,0.0232025339,0.05099458,-0.00318,-0.032257,0.002146,-0.30566347385,-9.723881874,1.2339707695,-2.8988,1.4408,1.7031,7.00000000000145e-05,-0.00019999999999997797,-2.5000000000052758e-05,7.264960887187755e-05,-0.0003768982560321543,-0.0004443326792249458
150000000000.0,1,0.07006851425,0.06324308584999999,0.040246491599999996,-9e-06,-0.03761,2.2e-05,-0.30409440984999997,-9.723881874,1.234853368,-2.9001,1.4408,1.7041,4.999999999999449e-05,-9.999999999998899e-05,-7.999999999996898e-05,-0.00085892307461366,0.0005457919699694003,-0.000863032764802707
150000000000.0,1,0.057623875399999996,0.0738636878,0.05099458,0.00526,-0.046179,4.3e-05,-0.30258418575,-9.723685740999999,1.2363243654999998,-2.9016,1.4406,1.7051,-0.00012000000000000899,-9.999999999998899e-05,-0.0001500000000000945,-0.002030799644969772,0.0028071526944464242,-0.0040758844189157095
150000000000.0,1,0.035696206,0.0491509298,0.047405346099999995,0.008433,-0.052595,-0.004212,-0.30100531509999995,-9.723489608,1.2380895625,-2.9031,1.4405,1.7061,0.0001100000000000545,-9.999999999998899e-05,1.0000000000065512e-05,-0.00013361399068867463,0.00035587494271105413,-0.0003320456493443036
150000000000.0,1,0.020407638649999997,0.012395605599999998,0.04127618985,0.014816,-0.055843,-0.005264,-0.29948528435,-9.723293475,1.240345092,-2.9047,1.4403,1.7071,0.00024000000000001798,-0.00020000000000020002,2.999999999997449e-05,0.0027788209839076927,-0.002077160813483969,0.002111877913614446
150000000000.0,1,-0.0015494506999999998,-0.00016671305,0.029047297299999997,0.021192,-0.06122,-0.008445,-0.2980240935,-9.7229992755,1.2429928875,-2.9063,1.4401,1.7081,4.999999999999449e-05,-9.999999999998899e-05,-9.99999999995449e-06,-7.365436763806521e-05,7.753246816566417e-06,-0.00013891585316749833
150000000000.0,1,-0.02054493175,-0.022064962499999997,0.033528936349999997,0.024329,-0.068706,-0.007357,-0.29683748885,-9.722607009499999,1.246032949,-2.9077,1.4398,1.7089,-2.4999999999941735e-05,-0.00019999999999997797,-4.0000000000040004e-05,-9.583476014141112e-05,0.00014734623259693436,-0.0007597208591527682
150000000000.0,1,-0.03582369245,-0.0624095206,0.0432080999,0.025385,-0.070843,-0.008417,-0.29576856399999996,-9.722214743499999,1.24936721,-2.9091,1.4395,1.7096,-2.5000000000052758e-05,-0.00029999999999996696,-0.00010999999999994348,-0.000648557603585509,-0.00041176673697806976,-0.0009497115201355655
150000000000.0,1,-0.06325289249999999,-0.08466080945,0.04963145565,0.024303,-0.072964,-0.00841,-0.29513113175,-9.721822477499998,1.252701471,-2.9102,1.4392,1.71,-0.00019000000000002348,-0.00019999999999997797,-0.0001300000000000745,-0.0026690759121086316,0.0022657743213547743,-0.0037739380816965706
150000000000.0,1,-0.06820525075,-0.07857087979999999,0.055829258449999995,0.016835,-0.071838,-0.006286,-0.29467021919999997,-9.721528278,1.2554473329999998,-2.9111,1.4389,1.7101,0.000260000000000038,-9.999999999998899e-05,0.00014999999999998348,0.0024874284170932626,-0.003930809273775093,0.003731763453269199
150000000000.0,1,-0.07054904009999999,-0.0715493184,0.0744520868,0.009359,-0.071777,-0.004159,-0.2944152463,-9.721136012,1.2578989955,-2.9117,1.4387,1.71,9.99999999995449e-06,-0.00019999999999997797,-3.999999999992898e-05,-0.0008264618337603391,-0.00013332210633398844,-0.0005425147960675947
150000000000.0,1,-0.0721377174,-0.06102678295,0.08286619249999999,0.004025,-0.070668,-0.00203,-0.2944740862,-9.720939879,1.2598603255,-2.912,1.4385,1.7096,-5.000000000032756e-06,-9.999999999998899e-05,2.999999999997449e-05,0.0012854104785435805,0.0005406201809474709,-0.0009769819752494247
150000000000.0,1,-0.0659595279,-0.0255169033,0.0844940964,0.005113,-0.068544,-0.002027,-0.2945133128,-9.7206456795,1.2618216555,-2.9123,1.4383,1.7093,-4.999999999921734e-06,-9.999999999998899e-05,-2.0000000000020002e-05,-0.0006547249682176126,-0.00016570461022369365,-0.0005051527346047191
150000000000.0,1,-0.0756877247,-0.0148276548,0.051239746249999996,0.007257,-0.067494,-0.00202,-0.29481731894999996,-9.7204495465,1.263488786,-2.9124,1.4381,1.7087,-3.0000000000085514e-05,-9.999999999998899e-05,-5.999999999994898e-05,-0.0007213234599523499,5.576723678890616e-05,-0.0004340640874158641
150000000000.0,1,-0.09370254075,-0.016514398599999997,0.020142859099999997,0.008333,-0.066435,-0.002013,-0.2953566847,-9.7202534135,1.2647636505,-2.9122,1.438,1.7078,-1.999999999990898e-05,-0.00019999999999997797,-4.999999999999449e-05,-0.0007648687619488115,-0.0002961220828385791,-0.00019726424709620716
150000000000.0,1,-0.1049899949,-0.017897136249999997,0.004118793,0.012611,-0.066466,-0.004133,-0.2958862438,-9.720057280499999,1.2661365814999999,-2.912,1.4378,1.707,-5.0000000000105516e-05,-9.999999999998899e-05,-4.999999999999449e-05,-0.00014526462206476687,0.0005308379148125653,-0.0010563885774945714
150000000000.0,1,-0.10378377695,-0.023751706299999998,-0.009267284249999999,0.012622,-0.064334,-0.003062,-0.29649425609999996,-9.7198611475,1.2673133795,-2.9118,1.4377,1.7061,8.000000000008001e-05,-0.00019999999999997797,-1.0000000000065512e-05,2.3956715978101784e-05,-0.0009069969452939475,0.0006911570224912289
150000000000.0,1,-0.0977134606,-0.03607866535,-0.0026379888499999996,0.014779,-0.060089,-0.000924,-0.2971807216,-9.719665014499999,1.2686863105000001,-2.9115,1.4375,1.7053,-2.999999999997449e-05,-0.00010000000000021103,-4.999999999999449e-05,-0.0008951706655337954,0.00033046085677046477,-0.0011033816660084295
150000000000.0,1,-0.0829838723,-0.0327345977,-0.007178467799999999,0.01798,-0.057986,0.002286,-0.29799467355,-9.7194688815,1.2704515075,-2.9112,1.4373,1.7044,3.999999999992898e-05,-9.999999999998899e-05,2.0000000000020002e-05,-0.00032799351246382,-7.479939156951332e-05,-0.0002240398857655812
150000000000.0,1,-0.059016419699999996,-0.006688135299999999,-0.0045306723,0.020138,-0.051615,0.007619,-0.29891649865,-9.719174681999998,1.2724128375,-2.9109,1.4371,1.7035,-2.5000000000052758e-05,-9.999999999998899e-05,-2.0000000000020002e-05,-0.0004321989880782251,9.239685366413397e-05,-0.000522471651642098
150000000000.0,1,-0.05619210449999999,-0.012729031699999999,-0.009433997299999998,0.0244,-0.049522,0.011896,-0.3002403964,-9.718782416,1.2747664335,-2.9103,1.4369,1.7024,-2.4999999999941735e-05,-9.999999999998899e-05,-3.999999999992898e-05,-0.0001691070543383688,0.00017105818509222104,-0.0006078003711849078
150000000000.0,1,-0.07817861379999999,-0.025193283849999998,-0.03066539455,0.027616,-0.047415,0.011904,-0.30205462665,-9.718488216499999,1.277021963,-2.9093,1.4366,1.701,-0.000140000000000029,-9.999999999998899e-05,-3.500000000000725e-05,-0.00027781568968987536,-0.00021680314086713892,-0.0001712277399306128
150000000000.0,1,-0.1038328102,-0.06880345639999999,-0.029567049749999998,0.027637,-0.045281,0.01084,-0.30437880269999995,-9.7180959505,1.279179426,-2.908,1.4363,1.6992,-0.00013999999999991797,-4.999999999988347e-05,-3.500000000000725e-05,-0.003354654816848379,0.004044775932297906,-0.005001301951640835
150000000000.0,1,-0.1266823047,-0.11132509079999998,-0.019348520449999997,0.023438,-0.037782,0.008693,-0.3068108519,-9.717801751,1.2811407559999999,-2.9065,1.4361,1.6974,-3.0000000000085514e-05,-5.0000000000105516e-05,-1.0000000000065512e-05,8.043352551756477e-05,3.905773915202637e-05,-0.0003273301890265312
150000000000.0,1,-0.1284867283,-0.10876555515,-0.0216334699,0.02027,-0.033491,0.008688,-0.30935077424999996,-9.717507551499999,1.2826117535,-2.9049,1.4358,1.6954,-2.999999999997449e-05,-0.00019999999999997797,-9.99999999995449e-06,0.0001944041065324864,3.1161662280565494e-05,-0.00040511779670349135
150000000000.0,1,-0.114737805,-0.0749031927,-0.00130428445,0.01176,-0.030222,0.008676,-0.31172398355000003,-9.717213352,1.2839846844999998,-2.9034,1.4357,1.6936,-5.999999999994898e-05,-9.999999999998899e-05,2.0000000000020002e-05,0.0004947732203324229,0.00017238296967359013,-0.0003224502381122818
150000000000.0,1,-0.09427132645,-0.0336171962,0.0030106415499999996,0.005419,-0.020581,0.011856,-0.3140873862,-9.7171152855,1.2846711499999999,-2.9018,1.4355,1.6918,-3.0000000000085514e-05,-9.999999999998899e-05,1.999999999990898e-05,0.0014647178917432946,-0.0016328490769945692,0.0017011571622465027
150000000000.0,1,-0.07552101165,-0.01362143685,-0.0109638347,8.2e-05,-0.019472,0.013985,-0.31637233564999995,-9.717017218999999,1.284475017,-2.9001,1.4355,1.6899,0.00017000000000000348,-9.999999999998899e-05,9.00000000000345e-05,0.002483322364202012,-0.001975210058048349,0.0024249817062111934
150000000000.0,1,-0.07063729995,-0.00761976705,-0.017063571,-0.006275,-0.013025,0.015035,-0.3188730314,-9.717017218999999,1.2837885514999998,-2.8981,1.4355,1.6877,-0.00023999999999990695,9.999999999998899e-05,5.500000000002725e-05,-0.003138932154484131,0.0041182237507368935,-0.004494762541918718
150000000000.0,1,-0.078845466,-0.05905564629999999,-0.006717555249999999,-0.008418,-0.014071,0.015039,-0.32143256705,-9.7171152855,1.2828078865,-2.8961,1.4355,1.6855,0.00020999999999993246,-0.00019999999999997797,5.500000000002725e-05,0.0036828694700976605,-0.003461481706813263,0.004021036215068996
150000000000.0,1,-0.10101830164999999,-0.11927828395,-0.006678328649999999,-0.010515,-0.008725,0.0161,-0.32455108174999997,-9.7171152855,1.2814349555,-2.8935,1.4356,1.6829,-0.00022999999999995246,9.999999999998899e-05,1.999999999990898e-05,-0.0032098029574132436,0.004064742770321539,-0.004257850033156041
150000000000.0,1,-0.08980930069999998,-0.1498259987,-0.0045502856,-0.011544,-0.004451,0.015029,-0.32738520359999995,-9.7173114185,1.279767825,-2.8911,1.4357,1.6804,4.999999999999449e-05,-9.999999999998899e-05,5.0000000000105516e-05,-6.093980568921964e-05,0.00043966035295306405,-0.0001457201286614307
150000000000.0,1,-0.09581097049999998,-0.1774219118,-0.0018044235999999999,-0.010483,-0.002331,0.019303,-0.33066062469999996,-9.717409485,1.278198761,-2.8885,1.4358,1.6777,7.00000000000145e-05,-9.999999999998899e-05,3.999999999992898e-05,-7.358283117264719e-06,0.0004398974261574651,-0.00021856143139031836
150000000000.0,1,-0.06185054155,-0.19439722295,-0.0131997509,-0.007279,0.002964,0.026775,-0.33393604579999997,-9.717409485,1.2767277634999998,-2.8858,1.4358,1.675,0.00027999999999994696,-9.999999999998899e-05,0.0001100000000000545,0.002307419378294373,-0.0024468618160387035,0.0033752203745343046
150000000000.0,1,-9.80665e-05,-0.1688901263,-0.03243059155,-0.004108,0.006124,0.037449,-0.33732914669999997,-9.717507551499999,1.2753548325,-2.883,1.4359,1.6723,0.00021999999999999797,-5.0000000000105516e-05,7.999999999996898e-05,4.600105040020175e-05,0.00018605159585360909,0.0007482322466085822
150000000000.0,1,0.0666656067,-0.0761780572,-0.07626631704999999,0.001169,0.006068,0.048128,-0.34065360105,-9.717605618,1.2737857685,-2.8803,1.4359,1.6696,9.00000000000345e-05,-4.999999999988347e-05,4.0000000000040004e-05,0.00015669722085265292,0.0006446201184979738,-1.0179023620882077e-05
150000000000.0,1,0.11571846999999999,0.019809433,-0.10093984845,0.00116,0.011385,0.057718,-0.34421341499999997,-9.7177036845,1.2723147709999998,-2.8774,1.436,1.6668,0.000140000000000029,-9.999999999998899e-05,-4.0000000000040004e-05,-0.0012272801617838613,0.00033895514142523453,0.00029351036300195865
150000000000.0,1,0.12680979115,0.0712747322,-0.10113598144999998,0.007533,0.010262,0.060926,-0.34812626835,-9.7177036845,1.271334106,-2.8743,1.436,1.6638,-0.0001100000000000545,-9.999999999998899e-05,-0.0001100000000000545,-0.003831266130557953,0.003902161069838872,-0.0036871957239732467
150000000000.0,1,0.11647358205,0.10993254649999999,-0.1057549136,0.013972,0.013407,0.057722,-0.35214699485,-9.717507551499999,1.2709418399999999,-2.8713,1.4359,1.6608,0.00043000000000004146,-9.999999999998899e-05,-5.500000000002725e-05,0.003848991777489097,-0.004642634696437664,0.005181062434207906
150000000000.0,1,0.1010477216,0.14055871444999998,-0.0852590151,0.017193,0.01232,0.051319,-0.3558833285,-9.7173114185,1.2714321724999997,-2.8687,1.4358,1.6583,-0.00021000000000004349,9.999999999998899e-05,-5.499999999991623e-05,-0.003911207626908997,0.004441172144528327,-0.00512073723874229
150000000000.0,1,0.0981645665,0.15863237039999997,-0.08761261109999999,0.018339,0.016582,0.041701,-0.35883513014999996,-9.717213352,1.2720205715,-2.8666,1.4356,1.6564,0.00012999999999996348,-9.999999999998899e-05,-9.99999999995449e-06,0.00020127122516999663,0.0003248153919692687,0.0007564737535767918
150000000000.0,1,0.07349103509999999,0.16770352165,-0.07282418289999999,0.019485,0.018716,0.028887,-0.3611004663,-9.717017218999999,1.27290317,-2.8652,1.4355,1.6551,0.000300000000000078,-9.999999999998899e-05,5.999999999994898e-05,0.0020425447966618826,-0.0032329930339072277,0.003030911541507031
150000000000.0,1,0.04413973164999999,0.11150161049999999,-0.05023946795,0.022764,0.018705,0.012879,-0.3622772643,-9.7167230195,1.2743741675,-2.8646,1.4353,1.6547,4.999999999999449e-05,-3.333333333332966e-05,2.0000000000020002e-05,0.00036427821925366644,-2.9475252081301306e-06,0.0007028335054592993
150000000000.0,1,0.00648219565,0.022525875049999998,-0.019505426849999997,0.021765,0.018728,-0.000999,-0.36262049705,-9.716526886499999,1.2761393644999999,-2.8647,1.4351,1.655,9.999999999998899e-05,-3.333333333332966e-05,5.999999999994898e-05,0.0006667287590875759,-0.00045967035764715725,0.000797369292430794
150000000000.0,1,-0.00505042475,-0.08419989689999999,-0.00061781895,0.018614,0.017701,-0.012744,-0.36185557835,-9.7163307535,1.2778064949999999,-2.8656,1.435,1.6561,5.999999999994898e-05,-3.333333333332966e-05,6.0000000000060005e-05,0.0010226930132859469,-0.0010473825643875223,0.0012731673122423626
150000000000.0,1,-0.0053250109499999995,-0.16285903655,0.0336760361,0.008004,0.020991,-0.019173,-0.36039438749999997,-9.716232687,1.278983293,-2.8669,1.4349,1.6576,3.0000000000085514e-05,-5.0000000000105516e-05,5.999999999994898e-05,-0.0001708262354354062,0.0006163633231743848,-0.0002291918841219598
150000000000.0,1,-0.00426589275,-0.18843477974999998,0.06429239739999999,-0.003669,0.025355,-0.024538,-0.35830557105,-9.716232687,1.2794736254999999,-2.8685,1.4349,1.6595,1.999999999990898e-05,-5.0000000000105516e-05,9.999999999998899e-05,0.000902483949932309,-0.0008113567272718392,0.0011249002609459158
150000000000.0,1,-0.0010198916,-0.2001341132,0.08826965665,-0.01644,0.029722,-0.023501,-0.35616772134999997,-9.7163307535,1.2790813595,-2.87,1.435,1.6613,-1.999999999990898e-05,-9.999999999998899e-05,0.00012000000000000899,0.0006211134182290134,5.451934472766595e-05,0.0005689231378898096
150000000000.0,1,0.01203275955,-0.19704501845,0.1036759038,-0.029216,0.034087,-0.021398,-0.35410832485,-9.716624953,1.2778064949999999,-2.8713,1.4352,1.6628,-4.999999999999449e-05,-9.999999999998899e-05,6.0000000000060005e-05,0.0007970665942547139,-0.0002089847625978969,0.0007488662491474951
150000000000.0,1,0.0016671305000000001,-0.18201142399999998,0.11826819899999999,-0.040936,0.036313,-0.020355,-0.3524117744,-9.717017218999999,1.275452899,-2.872,1.4354,1.664,-9.00000000000345e-05,-9.999999999998899e-05,0.00013999999999991797,0.00060959328134369,0.0002937931330908583,2.6558922307406974e-05
150000000000.0,1,-0.012650578499999999,-0.15834797755000002,0.11932731719999999,-0.050552,0.037452,-0.015037,-0.35142130274999994,-9.717409485,1.272118638,-2.8721,1.4358,1.6644,2.0000000000020002e-05,-9.999999999998899e-05,0.000140000000000029,0.0015537383017332207,5.068097681082406e-05,0.0007624797455882959
150000000000.0,1,-0.0196329133,-0.13141891665,0.10338170429999999,-0.060166,0.037528,-0.01185,-0.35087213035,-9.717997883999999,1.267803712,-2.8716,1.4363,1.6643,-4.999999999999449e-05,-9.999999999998899e-05,7.00000000000145e-05,0.00043739063236003517,0.0006447739288759635,-0.0002616826271926165
150000000000.0,1,-0.0030400615,-0.08989756054999999,0.09409480674999998,-0.065515,0.038632,-0.006525,-0.35055831755,-9.718684349499998,1.262704254,-2.8708,1.4368,1.6638,-8.000000000008001e-05,-0.00019999999999997797,2.0000000000020002e-05,-0.0001796370882964915,0.0001674815738699209,-0.0005266941745092346
150000000000.0,1,0.00734518085,-0.033450483149999995,0.09244728954999999,-0.063418,0.037542,-0.000115,-0.3507642572,-9.719370815,1.2577028625,-2.8696,1.4373,1.663,-1.999999999990898e-05,-9.999999999998899e-05,2.0000000000020002e-05,-0.0003422544784412729,0.0005319476400056367,0.00018618476212317603
150000000000.0,1,0.03904027365,0.046885593649999995,0.07161796494999999,-0.054918,0.035336,0.00417,-0.350881937,-9.719959214,1.25328987,-2.8686,1.4377,1.6624,5.999999999994898e-05,-9.999999999998899e-05,-1.0000000000065512e-05,-0.0008864598022433334,-0.0007259670907444615,0.000883498532571636
150000000000.0,1,0.04366901245,0.12118077405,0.0395011862,-0.047522,0.029939,0.010594,-0.35147033599999994,-9.7204495465,1.2490730105,-2.8673,1.4381,1.6614,-3.3333333333551707e-06,-0.00019999999999997797,-3.999999999992898e-05,6.605861233599519e-05,0.0006045494241280203,-0.00011503844815652364
150000000000.0,1,0.045502855999999994,0.15301315995,0.016671304999999997,-0.03801,0.022394,0.017026,-0.3525588741499999,-9.7208418125,1.2455426165,-2.8658,1.4384,1.66,-3.3333333332441484e-06,-9.999999999998899e-05,-3.0000000000085514e-05,-0.00025457388686800364,0.0002859632659237832,-0.0006082899967385647
150000000000.0,1,0.06898978274999999,0.18368836115,0.0032067745499999994,-0.027391,0.015912,0.017051,-0.35330417955,-9.721136012,1.2429928875,-2.8647,1.4386,1.6591,-3.3333333333551707e-06,-0.00019999999999997797,-7.00000000000145e-05,0.00042715526108838553,0.000333655119394205,-0.00029286126216265806
150000000000.0,1,0.051573172349999995,0.20179143705,0.0032950343999999998,-0.017845,0.009438,0.018144,-0.35443194429999997,-9.721332145,1.2415218899999998,-2.8635,1.4388,1.658,1.999999999990898e-05,-9.999999999998899e-05,-0.00011999999999989797,9.950035552108716e-05,-0.0004830841815020026,0.0007024359834870708
150000000000.0,1,0.0303417751,0.19475026235,0.02458527155,-0.009362,0.001909,0.017103,-0.3558048753,-9.7212340785,1.2412276904999997,-2.8624,1.4387,1.657,-2.999999999997449e-05,-0.00029999999999996696,-7.00000000000145e-05,-0.00041491111687652626,-1.9379011479303543e-05,-0.000790687994427719
150000000000.0,1,0.023124080699999997,0.1894840913,0.053367789299999996,-0.001942,-0.004546,0.017126,-0.35725625949999995,-9.721136012,1.2422083555,-2.8615,1.4386,1.6561,2.999999999997449e-05,-9.999999999998899e-05,-0.00014999999999998348,-0.000966018315888606,0.00046158799423889896,-0.0006351915279172449
150000000000.0,1,0.02093719775,0.18961157775,0.0753346853,0.006552,-0.011009,0.016084,-0.35852131735,-9.720743746,1.2443658185,-2.8611,1.4384,1.6555,1.0000000000065512e-05,-0.00020000000000020002,-9.00000000000345e-05,-0.0005426463301649864,0.0003314140516046393,0.00010169605130339043
150000000000.0,1,0.022310128749999998,0.19427954314999998,0.07522681214999999,0.013929,-0.021728,0.018249,-0.3597471486,-9.72035148,1.2473078135,-2.8608,1.438,1.655,-0.00021000000000004349,-9.999999999998899e-05,-0.000160000000000049,-0.003127892775828922,0.0037061353942131614,-0.005135321502182766
150000000000.0,1,0.0272428737,0.17223419394999998,0.07295166935,0.021357,-0.029246,0.015071,-0.36048264734999996,-9.7198611475,1.250936274,-2.861,1.4377,1.6549,-2.999999999997449e-05,-9.999999999998899e-05,-3.999999999992898e-05,-0.000622760809708911,-7.715589160883773e-05,-0.0009011562081120417
150000000000.0,1,-0.0003530394,0.09023098665,0.07698220249999999,0.027703,-0.036757,0.015096,-0.36162021874999994,-9.7192727485,1.2552512,-2.8611,1.4372,1.6546,-9.99999999995449e-06,-0.00019999999999997797,-3.0000000000085514e-05,-0.0005937595221412462,9.266024825871355e-05,-0.00048610102010981926
150000000000.0,1,-0.0184953419,-0.00189268345,0.08615142024999999,0.037254,-0.044294,0.01406,-0.3627872101,-9.718586282999999,1.2602525915,-2.8613,1.4367,1.6544,-3.0000000000085514e-05,-0.00019999999999997797,5.000000000032756e-06,-0.000721681745730951,-0.000111987968621996,-0.0008256321980741888
150000000000.0,1,-0.035666786049999996,-0.09593845695,0.0986156724,0.04683,-0.050761,0.009821,-0.36386594159999996,-9.717801751,1.266234648,-2.8618,1.436,1.6544,-2.999999999997449e-05,-9.999999999998899e-05,5.000000000032756e-06,-0.0006208976303352376,-0.00019940224945447227,-0.0008770876553041429
150000000000.0,1,-0.043345393,-0.16774274825,0.09193734375,0.05423,-0.06041,0.008786,-0.36470931349999997,-9.716821086,1.2728051034999999,-2.8625,1.4354,1.6546,-4.0000000000040004e-05,-9.999999999998899e-05,2.0000000000020002e-05,-0.00054871827021441,2.5332071625250308e-05,-0.00098111001862633
150000000000.0,1,-0.05938907239999999,-0.2177468566,0.09609536335,0.05524,-0.067877,0.008804,-0.36558210534999996,-9.715938487499999,1.279571692,-2.8633,1.4347,1.6547,-8.999999999992347e-05,-0.00019999999999997797,-3.0000000000085514e-05,-0.000589172043720998,-0.00025262221139943364,-0.0009383821758468525
150000000000.0,1,-0.0544857474,-0.2394391664,0.10544110079999999,0.049883,-0.071029,0.008804,-0.36629799080000003,-9.715055888999999,1.286044081,-2.8641,1.434,1.6548,-0.0001100000000000545,-0.00029999999999996696,-9.99999999995449e-06,0.00023137212037527277,5.973137529924344e-05,-0.0012536526812092497
150000000000.0,1,-0.046091255,-0.19386766384999998,0.09546773775,0.044516,-0.074183,0.010937,-0.3670629095,-9.714271357,1.2919280709999998,-2.8648,1.4334,1.6547,-9.999999999998899e-05,-9.999999999998899e-05,5.999999999994898e-05,-0.0005747190954263903,-0.0009928593646892914,-0.0010795881693670406
150000000000.0,1,-0.014837461449999999,-0.11257053534999999,0.0798849709,0.037008,-0.079449,0.010934,-0.36733749569999996,-9.713486825,1.297223662,-2.8656,1.4329,1.6548,-0.000140000000000029,-0.00019999999999997797,-9.99999999995449e-06,-0.0006028250559291237,-0.0003896103277045704,-0.0009695155849329673
150000000000.0,1,-0.0097478101,-0.05547621904999999,0.07911024554999999,0.034849,-0.083692,0.009871,-0.36733749569999996,-9.712898425999999,1.3022250534999997,-2.8666,1.4324,1.655,-9.999999999998899e-05,-9.999999999998899e-05,-9.99999999995449e-06,7.587524389807143e-05,-0.0003504781739347429,-0.0008482895022305925
150000000000.0,1,-0.0292630436,-0.035147033599999995,0.06794047119999999,0.033777,-0.08794,0.004542,-0.36727865579999996,-9.7122119605,1.3068341789999998,-2.8676,1.4319,1.6551,-0.00012000000000000899,-0.00020000000000020002,5.999999999994898e-05,0.00033234236960200114,4.321649124805482e-05,-0.001027599573997895
150000000000.0,1,-0.05726102934999999,-0.05659417715,0.04586570204999999,0.027358,-0.094272,-0.001859,-0.366964843,-9.711721628,1.310560706,-2.8686,1.4316,1.6552,-0.00010999999999994348,-9.999999999998899e-05,2.0000000000020002e-05,0.0006538775772728656,0.0002551022417125459,-0.0012309126250964475
150000000000.0,1,-0.0480133584,-0.0626841068,0.021309850449999997,0.027334,-0.10066,-0.007181,-0.36587630485,-9.711329362,1.3138949669999997,-2.87,1.4313,1.6556,-7.999999999996898e-05,-0.00019999999999997797,2.0000000000020002e-05,0.0004901465627245027,4.700070046492755e-05,-0.001183504233121413
150000000000.0,1,-0.04169787579999999,-0.05404444815,0.00385401345,0.026244,-0.10491,-0.009308,-0.36426801424999994,-9.711035162499998,1.316836962,-2.8717,1.431,1.6563,-7.00000000000145e-05,-0.00019999999999997797,-1.0000000000065512e-05,-1.1883041995508492e-05,7.420010480929662e-06,-0.0011524804456806148
150000000000.0,1,-0.014837461449999999,-0.058820286699999995,-0.0031577413,0.026218,-0.10811,-0.009301,-0.36210074459999997,-9.710740963,1.3194847575,-2.8738,1.4308,1.6573,-1.0000000000065512e-05,-9.999999999998899e-05,7.00000000000145e-05,0.00040825772547758987,0.0003729878902627437,-0.0015175361895538586
150000000000.0,1,0.01972117315,-0.07775692785,-0.0168478247,0.026208,-0.10917,-0.009301,-0.35940391585,-9.7104467635,1.3220344865,-2.8761,1.4306,1.6586,0.000140000000000029,-0.00029999999999996696,0.0001100000000000545,0.0026981863846053944,-0.0038558232047471996,0.002688544133837789
150000000000.0,1,0.029694536199999996,-0.06275275335,-0.030792880999999998,0.02828,-0.11346,-0.003955,-0.3568051536,-9.7102506305,1.3245842154999998,-2.8785,1.4305,1.6598,-2.999999999997449e-05,-0.00029999999999996696,2.0000000000020002e-05,0.00038223138779835963,-0.0008638324980665413,-0.0011468172379869301
150000000000.0,1,0.043168873299999994,-0.06145827555,-0.044512384349999996,0.02825,-0.11559,-0.00182,-0.35426523125,-9.7100544975,1.3267416785,-2.8807,1.4303,1.6608,-4.999999999999449e-05,-9.999999999998899e-05,9.99999999995449e-06,3.3651656861311e-05,-2.1417964514824916e-05,-0.0013146962768300074
150000000000.0,1,0.04033475145,-0.05054347409999999,-0.07485415945,0.028227,-0.11666,0.000314,-0.35202931504999996,-9.709858364499999,1.3285068755,-2.8826,1.4302,1.6616,9.99999999995449e-06,-9.999999999998899e-05,4.0000000000040004e-05,8.477149575347731e-05,-0.00033229701896941854,0.00046379987040467974
150000000000.0,1,0.033666229449999995,-0.03378390925,-0.085513988,0.028215,-0.11773,0.000313,-0.34985223875,-9.7096622315,1.330174006,-2.8844,1.4301,1.6622,-9.99999999995449e-06,-0.00019999999999997797,5.999999999994898e-05,0.0006520439523476362,-0.00012539547133227913,-0.0005280560159204306
150000000000.0,1,0.020662611549999998,-0.04168806914999999,-0.08781855074999999,0.025024,-0.11663,-0.000763,-0.3479203287,-9.709564165,1.3316450034999998,-2.886,1.43,1.6627,-1.0000000000065512e-05,-9.999999999998899e-05,7.00000000000145e-05,-0.00034971692735408233,-0.0004883339376360318,-0.0007434693987613539
150000000000.0,1,0.004648352099999999,-0.0401288118,-0.0841214437,0.021833,-0.11554,-0.001839,-0.34611590509999995,-9.7094660985,1.3327237349999999,-2.8875,1.4299,1.663,-7.999999999996898e-05,-0.00019999999999997797,4.999999999999449e-05,-0.00014625702658044304,-7.721433263907507e-05,-0.0005978008528564338
150000000000.0,1,0.00730595425,-0.04896460345,-0.0767664562,0.014403,-0.11228,-0.00506,-0.3439976687,-9.7094660985,1.3333121339999998,-2.8891,1.4299,1.6635,-0.00010999999999994348,-0.00010000000000021103,5.999999999994898e-05,-0.0005915104823757122,-0.000325009642273999,-0.001144250518169132
150000000000.0,1,0.00031381279999999996,-0.058290727599999995,-0.07240249694999999,0.004812,-0.11113,-0.006147,-0.34179117245,-9.709564165,1.333116001,-2.8906,1.43,1.6639,-0.00019000000000002348,-9.999999999998899e-05,1.0000000000065512e-05,-0.002455363477728012,0.00047355044313213135,-0.0028829845828048928
150000000000.0,1,-0.00812971285,-0.061978028,-0.06402761785,-0.002604,-0.10681,-0.010436,-0.33947680305,-9.709858364499999,1.3322334025,-2.8921,1.4301,1.6643,-0.0003300000000000525,-9.999999999998899e-05,-4.0000000000040004e-05,-0.0032434300210648637,0.0026937417885830595,-0.0047983531127875345
150000000000.0,1,-0.01626923235,-0.0414821295,-0.06532209565,-0.008993,-0.10675,-0.013649,-0.33702514055,-9.710152564,1.3306643384999999,-2.8935,1.4304,1.6647,0.0001300000000000745,-0.00019999999999997797,0.00014999999999998348,0.002957853741631933,-0.0035522593973393857,0.0028565230478116987
150000000000.0,1,-0.02678196115,-0.02701732075,-0.05935965245,-0.017466,-0.10135,-0.017941,-0.3344459916,-9.71054483,1.328408809,-2.895,1.4306,1.6651,-9.00000000000345e-05,-9.999999999998899e-05,9.00000000000345e-05,-4.87924029290987e-05,-0.0002377550926428995,-0.0014455504659829366
150000000000.0,1,-0.0518771785,-0.0020299765499999997,-0.0574473557,-0.020631,-0.099183,-0.022216,-0.3319354892,-9.710937096,1.3257610135,-2.8963,1.431,1.6654,-9.999999999998899e-05,-0.00019999999999997797,4.999999999999449e-05,-3.046859548394565e-05,-0.0008150907363488891,-0.0006815207277841573
150000000000.0,1,-0.0695487618,-0.00601147645,-0.0714904785,-0.022725,-0.097027,-0.027556,-0.32922885379999994,-9.711427428499999,1.3227209519999998,-2.8977,1.4313,1.6658,-0.00024000000000001798,-9.999999999998899e-05,-4.999999999999449e-05,-0.002749599490501353,0.0021980140232087386,-0.004442966674858884
150000000000.0,1,-0.0830819388,-0.01071866845,-0.06844061035,-0.022704,-0.095957,-0.030755,-0.3264829918,-9.712015827499998,1.319582824,-2.899,1.4317,1.6663,-2.999999999997449e-05,-9.999999999998899e-05,4.999999999999449e-05,-0.0005676678455062145,-0.0006250008560104714,-0.0007061114697823889
150000000000.0,1,-0.08646523304999999,-0.00330484105,-0.07330470874999999,-0.02376,-0.094879,-0.03182,-0.3235409968,-9.712506159999998,1.3163466294999997,-2.9006,1.4321,1.6669,-4.999999999999449e-05,-9.999999999998899e-05,2.0000000000020002e-05,-5.4356775630148846e-05,-0.0003119891282410414,-0.0008447004113161238
150000000000.0,1,-0.09213347675,-0.0112972608,-0.08813236355,-0.020542,-0.092772,-0.03288,-0.32071668159999994,-9.713094559,1.3131104349999998,-2.902,1.4325,1.6675,-1.0000000000065512e-05,-9.999999999998899e-05,7.999999999996898e-05,-2.399767584981838e-05,-0.0005685219660849228,-0.0004884599740344608
150000000000.0,1,-0.0948695321,-0.01573967325,-0.08201301395,-0.018403,-0.091722,-0.032872,-0.31798062625,-9.7135848915,1.3100703734999999,-2.9035,1.4329,1.668,0.000160000000000049,-9.999999999998899e-05,2.0000000000020002e-05,0.002629858641042926,-0.0027548478505960983,0.002732558270743368
150000000000.0,1,-0.08620045349999998,0.005246557749999999,-0.09010350019999999,-0.017326,-0.088534,-0.030735,-0.31527399084999996,-9.714075224,1.3071283784999999,-2.9049,1.4333,1.6686,-0.000180000000000069,-3.333333333332966e-05,1.4999999999987246e-05,-0.002227692964333894,0.002877613320654504,-0.003917032331089754
150000000000.0,1,-0.08644561975,0.02750765325,-0.07834532685,-0.015181,-0.085355,-0.028597,-0.3127929084,-9.71446749,1.3045786495,-2.9063,1.4336,1.6691,-9.99999999995449e-06,-3.333333333332966e-05,1.4999999999987246e-05,-0.00012699942114191565,-0.0003403328114726101,-0.00042461427852669154
150000000000.0,1,-0.0865731062,0.041001603649999996,-0.0676070451,-0.011979,-0.082188,-0.024321,-0.3107138985999999,-9.7147616895,1.302715386,-2.9075,1.4338,1.6695,-9.99999999995449e-06,-3.333333333332966e-05,4.0000000000040004e-05,0.0003964765329131925,6.760049009235658e-06,-0.0007241054193476426
150000000000.0,1,-0.07153951174999999,0.02529135035,-0.07893372585,-0.008786,-0.080086,-0.020045,-0.30884082845,-9.715055888999999,1.3008521224999998,-2.9085,1.434,1.6697,0.00013999999999991797,-9.999999999998899e-05,0.00012999999999996348,0.0026488096481742662,-0.002840225689286102,0.0025720623165825796
150000000000.0,1,-0.0860435471,-0.000784532,-0.062340874049999995,-0.008776,-0.075826,-0.015777,-0.30765422379999996,-9.7153500885,1.2992830585,-2.9091,1.4342,1.6696,3.0000000000085514e-05,-9.999999999998899e-05,7.00000000000145e-05,0.0004919761655586274,-0.00024579151719938963,8.163196025146036e-06
150000000000.0,1,-0.096889702,-0.0631155994,-0.0342448218,-0.008755,-0.071564,-0.013644,-0.30698737159999995,-9.715546221499999,1.2978120610000001,-2.9093,1.4344,1.6691,-5.000000000032756e-06,-1.666666666655381e-05,0.000160000000000049,0.00024858136748795445,0.00019349677990843084,-0.0002320227227117222
150000000000.0,1,-0.11457109195,-0.1565729739,-0.013846989799999999,-0.01192,-0.066209,-0.012585,-0.30666375214999997,-9.7157423545,1.2962429969999998,-2.9093,1.4345,1.6684,-5.000000000032756e-06,-1.6666666666775853e-05,0.00012999999999996348,-0.0001614998260277556,5.7483322732032605e-05,-0.0004909949264157998
150000000000.0,1,-0.12439735525,-0.26491684309999997,0.02197670265,-0.010807,-0.057696,-0.008321,-0.30685007849999996,-9.715938487499999,1.2951642654999997,-2.909,1.4347,1.6675,-1.0000000000065512e-05,-1.6666666666775853e-05,0.000160000000000049,0.00043934322440009055,0.00015160622303866944,-0.00011661589812961282
150000000000.0,1,-0.10552936064999999,-0.3260514992,0.0459147353,-0.008639,-0.051322,-0.00512,-0.30701679155,-9.715938487499999,1.2945758664999998,-2.9087,1.4347,1.6667,-9.99999999995449e-06,-1.666666666655381e-05,0.00014999999999998348,0.0004448823956717529,0.00023888041835795626,-0.00021044999217978422
150000000000.0,1,-0.09266303585,-0.32054016189999995,0.025565936549999998,-0.010707,-0.041716,-0.003001,-0.30746789744999997,-9.7161346205,1.2934971349999997,-2.9082,1.4348,1.6658,-3.999999999992898e-05,-1.666666666655381e-05,0.00017000000000000348,0.0009546888062177405,0.00041517714286110063,-0.000242327911197604
150000000000.0,1,-0.0692741756,-0.2809212959,0.008306232549999999,-0.020253,-0.033113,-0.000894,-0.30781113019999995,-9.7163307535,1.2914377385,-2.9076,1.435,1.6648,-4.0000000000040004e-05,-1.6666666666775853e-05,0.00012000000000000899,0.0011794270528591166,5.2654330116030934e-05,-0.00024759220930348214
150000000000.0,1,-0.04523807645,-0.16964523834999998,0.01213082605,-0.035132,-0.024467,0.001202,-0.3082033962,-9.7167230195,1.2883976769999999,-2.9068,1.4353,1.6637,-0.00022999999999995246,-4.999999999988347e-05,4.999999999999449e-05,-0.0018578128882524858,0.002939375628600027,-0.003372543850075793
150000000000.0,1,-0.0226337482,-0.0769233626,0.020888164499999997,-0.049956,-0.008364,0.004351,-0.30882121514999994,-9.7173114185,1.284082751,-2.9056,1.4357,1.6624,-4.0000000000040004e-05,-5.0000000000105516e-05,7.999999999996898e-05,0.0008047009473877154,0.00042152253909089055,-5.354105661181663e-05
150000000000.0,1,0.0042756994,0.007198081099999999,0.04088392385,-0.059463,0.006626,0.009645,-0.30968420035,-9.7178998175,1.279179426,-2.9041,1.4362,1.6609,0.00019999999999997797,-9.999999999998899e-05,0.00017999999999995797,0.003067558596773212,-0.0024168218192672786,0.0031589067268289472
150000000000.0,1,0.0376967626,0.0786101064,0.054005221549999996,-0.06258,0.019434,0.013884,-0.310478539,-9.718586282999999,1.2741780344999998,-2.9026,1.4367,1.6595,0.00036000000000002697,0.00019999999999997797,-9.99999999995449e-06,0.006708594265457446,0.0023565897928394808,0.0047712861324442635
150000000000.0,1,0.06687154635,0.1536505922,0.035980598849999997,-0.064615,0.032235,0.014921,-0.3112238444,-9.7192727485,1.2688824435,-2.9011,1.4372,1.6583,-0.0003300000000000525,-0.00039999999999995595,9.99999999995449e-06,-0.006392053366946593,-0.0020936395324333557,-0.0036139515437547676
150000000000.0,1,0.08057143639999999,0.20675360195,0.005011198149999999,-0.063491,0.041811,0.019171,-0.31221431604999994,-9.719959214,1.2629984534999998,-2.8993,1.4377,1.6568,5.0000000000105516e-05,-0.00010000000000021103,5.000000000032756e-06,0.00024030314973488842,-9.364727641414383e-05,0.0006788897163478858
150000000000.0,1,0.1034797708,0.23476139434999996,-0.032283491799999994,-0.060252,0.049237,0.023427,-0.31327343425,-9.720743746,1.2567221974999998,-2.8973,1.4383,1.6553,5.999999999994898e-05,-9.999999999998899e-05,5.000000000032756e-06,8.14553790478012e-05,0.0002909746660901824,-5.490503372107547e-05
150000000000.0,1,0.11031500585,0.25218781139999996,-0.0415213561,-0.049558,0.052344,0.023434,-0.31442081229999996,-9.7214302115,1.2513285399999998,-2.8954,1.4388,1.6539,7.00000000000145e-05,-9.999999999998899e-05,2.999999999997449e-05,0.0005781181454820317,7.17425965601759e-05,0.0006091367108107537
150000000000.0,1,0.11056997874999999,0.22097324445,-0.0463658412,-0.03677,0.051171,0.024519,-0.3157152901,-9.721920544,1.2471116805,-2.8936,1.4392,1.6526,0.0005100000000000104,0.00019999999999997797,2.999999999997449e-05,0.008247301085927417,0.001508489874565866,0.0054256637737075675
150000000000.0,1,0.0840037639,0.13900926375,-0.029576856399999997,-0.025013,0.053205,0.023463,-0.3172843541,-9.722214743499999,1.2440716189999999,-2.8919,1.4395,1.6514,-0.0003500000000000725,-0.00039999999999995595,2.999999999997449e-05,-0.007311801441717725,-0.0015404858858583115,-0.004294854223840128
150000000000.0,1,0.0446006442,0.038147868499999994,0.0030400615,-0.013275,0.052044,0.021348,-0.31933394395,-9.7224108765,1.2424044884999998,-2.89,1.4396,1.65,0.0006900000000000794,0.00029999999999996696,4.0000000000040004e-05,0.00916125605822371,0.0004984954426239252,0.0077643186507292405
150000000000.0,1,0.0119248864,-0.045797055499999996,0.02009382585,-0.002596,0.049831,0.016032,-0.32137372715,-9.7224108765,1.2418160894999999,-2.8884,1.4396,1.6488,-0.00046000000000001595,-0.00039999999999995595,9.99999999995449e-06,-0.008302904251706877,-0.0007211094588341904,-0.0061488783745358155
150000000000.0,1,0.0030106415499999996,-0.08411163705,0.02923362365,0.010198,0.046532,0.012858,-0.32323699064999994,-9.722214743499999,1.242502555,-2.8871,1.4395,1.6481,4.999999999999449e-05,-5.0000000000105516e-05,-9.99999999995449e-06,-0.0022768314727390493,0.0009025256005501525,-0.0001333197574922007
150000000000.0,1,-0.0013533177,-0.07962019135,0.0363434449,0.019806,0.046453,0.011807,-0.32501199429999994,-9.721920544,1.2443658185,-2.8861,1.4393,1.6475,4.999999999999449e-05,-4.999999999988347e-05,9.99999999995449e-06,0.000782971374720276,-0.000983531620194933,0.0014642743530299818
150000000000.0,1,0.007198081099999999,-0.037069136999999995,0.0172793173,0.030426,0.038909,0.009704,-0.32637511864999996,-9.721528278,1.2471116805,-2.8856,1.439,1.6475,4.999999999999449e-05,-9.999999999998899e-05,6.666666666710341e-06,-9.527097562189724e-05,-0.00016563083970111414,0.00024061558719123965
150000000000.0,1,0.0033931009,-0.01162088025,0.008600432049999999,0.031484,0.035707,0.006509,-0.32751269005,-9.721136012,1.2503478749999999,-2.8854,1.4386,1.6476,-2.0000000000020002e-05,-9.999999999998899e-05,6.666666666599319e-06,-0.0008461420351397742,-4.809394682614432e-05,-0.00040040249704986763
150000000000.0,1,-0.00051975245,0.011022674599999999,0.00326561445,0.027196,0.032546,0.005439,-0.32853258165,-9.720743746,1.253093737,-2.8852,1.4383,1.6477,7.00000000000145e-05,-3.333333333332966e-05,6.666666666710341e-06,-3.1391898211996505e-05,-8.480381710107565e-05,0.00044864621564411067
150000000000.0,1,-0.012160246,0.024408751849999997,0.016337878899999998,0.025076,0.031503,0.001169,-0.32931711365,-9.72035148,1.255839599,-2.8851,1.438,1.648,6.0000000000060005e-05,-3.333333333332966e-05,2.999999999997449e-05,0.0005810771513867774,-0.00019911442110354116,-3.9612209113082386e-05
150000000000.0,1,-0.00954187045,0.024320492,0.0421489817,0.02187,0.027272,-0.004166,-0.3295426666,-9.719959214,1.258781594,-2.8855,1.4377,1.6487,-1.5000000000098268e-05,-3.333333333332966e-05,2.999999999997449e-05,-0.00015417145499285745,-0.0005244057816604641,4.807919631955038e-05
150000000000.0,1,-0.018044235999999998,-0.0034127142,0.056907989949999994,0.019723,0.021968,-0.009496,-0.32925827375,-9.719566947999999,1.261527456,-2.8863,1.4374,1.6497,-1.4999999999987246e-05,-9.999999999998899e-05,3.0000000000085514e-05,-0.0013391014834971404,-0.00033876842345814673,-0.0004333884910570074
150000000000.0,1,-0.028919810849999995,-0.0432277132,0.062134934399999994,0.017584,0.017729,-0.014828,-0.3285620016,-9.7192727485,1.2640771849999999,-2.8873,1.4372,1.6509,-2.0000000000020002e-05,-4.999999999988347e-05,2.0000000000020002e-05,-0.000389951548309897,0.00013934556420225341,-0.00011897772474411816
150000000000.0,1,-0.0242028122,-0.07458937989999999,0.049621649,0.016503,0.012415,-0.020156,-0.32714984399999997,-9.719076615499999,1.266234648,-2.8888,1.437,1.6525,6.0000000000060005e-05,-5.0000000000105516e-05,2.999999999997449e-05,0.0004065838593441118,-0.0008259306017568413,0.0005991941029235281
150000000000.0,1,-0.01344491715,-0.10021415635,0.038049802,0.0133,0.009249,-0.024425,-0.325188514,-9.7188804825,1.2682940445,-2.8906,1.4369,1.6544,-2.0000000000020002e-05,-9.999999999998899e-05,2.0000000000020002e-05,-0.0014081882528482748,-0.00023206321863744606,-0.00015856702983385595
150000000000.0,1,0.0009610516999999999,-0.1001651231,0.0209666177,0.013252,0.003921,-0.023349,-0.32283491799999997,-9.718782416,1.2696669754999999,-2.8926,1.4368,1.6565,1.0000000000065512e-05,-9.999999999998899e-05,-2.999999999997449e-05,-0.00028424631784784715,-1.4668287543706526e-05,-0.0001882038557121657
150000000000.0,1,0.027703786249999997,-0.06344902549999999,0.0171812508,0.013213,-0.000343,-0.022276,-0.32009886265000004,-9.718684349499998,1.2710399065,-2.8949,1.4367,1.6588,9.99999999995449e-06,-9.999999999998899e-05,-6.666666666710341e-06,-0.00014505207255655073,-0.00014915661636183408,0.0001230556032278951
150000000000.0,1,0.03893240049999999,-0.017681389949999998,0.021966895999999996,0.017435,-0.00358,-0.017996,-0.3175589403,-9.718488216499999,1.2730012365,-2.8971,1.4366,1.661,-2.0000000000020002e-05,-9.999999999998899e-05,-6.666666666599319e-06,-0.0005018216483516635,0.00015458578283622515,-0.0003579419885191282
150000000000.0,1,0.04417895825,0.024791211199999996,-0.00522694445,0.019518,-0.007864,-0.014786,-0.31516611769999997,-9.7182920835,1.2748645,-2.8992,1.4365,1.6631,5.000000000032756e-06,-5.0000000000105516e-05,-6.666666666710341e-06,-0.0004168731042981655,0.00011138317940928566,-0.0004994133733848827
150000000000.0,1,0.045404789499999994,0.07116685905,-0.0258699427,0.0205,-0.0164,-0.01157,-0.31310672119999994,-9.718194016999998,1.2767277634999998,-2.9011,1.4363,1.6648,5.000000000032756e-06,-4.999999999988347e-05,-1.0000000000065512e-05,-0.000827882813143388,-3.659953486723211e-05,-0.00038491069765522745
150000000000.0,1,0.0289100042,0.08569050769999999,-0.039520799499999995,0.018293,-0.022781,-0.007294,-0.3115768838,-9.717997883999999,1.2781006945,-2.9025,1.4362,1.666,2.999999999997449e-05,-0.00019999999999997797,-3.999999999992898e-05,-0.00011438996303447801,-0.00017958810374008038,0.0004762388602033152
150000000000.0,1,0.01909354755,0.09993957015,-0.0356569794,0.015064,-0.024888,-0.005162,-0.31043931239999994,-9.7178998175,1.2792774925000001,-2.9035,1.4362,1.6668,9.99999999995449e-06,-4.999999999988347e-05,-6.0000000000060005e-05,-0.00022508041002455847,4.629667849997965e-05,-0.00046545797137720335
150000000000.0,1,-0.0014415775499999998,0.09046634625,-0.00167693715,0.01503,-0.02915,-0.005155,-0.3096547804,-9.7177036845,1.2809446230000001,-2.9044,1.436,1.6674,1.0000000000065512e-05,-5.0000000000105516e-05,-4.499999999996174e-05,0.00019963602287109694,-0.000343952741794773,3.0356180028778823e-05
150000000000.0,1,-0.03866762095,0.0673716855,0.0078649333,0.009679,-0.031236,-0.005158,-0.30954690725,-9.717507551499999,1.282513687,-2.9048,1.4359,1.6675,2.999999999997449e-05,-0.00020000000000020002,-4.499999999996174e-05,0.0002959601399616929,-0.0008992278287316413,0.00048139386530010597
150000000000.0,1,-0.049503969200000005,0.034921480649999996,0.0112580342,0.004315,-0.034389,-0.004091,-0.30962536044999994,-9.717409485,1.2833962854999998,-2.9049,1.4358,1.6672,-3.0000000000085514e-05,-9.999999999998899e-05,-2.0000000000020002e-05,-0.00010577668864097944,9.841208026317716e-05,-0.000253697328419733
150000000000.0,1,-0.044855617099999995,0.00043149259999999994,0.014778621550000001,-4e-06,-0.037555,0.001247,-0.3099293666,-9.7173114185,1.283886618,-2.9047,1.4357,1.6667,-2.999999999997449e-05,-9.999999999998899e-05,-2.999999999997449e-05,-0.0008162003954397257,0.0010733125919559772,-0.0015184898616737996
150000000000.0,1,-0.036225765099999994,-0.024310685349999996,0.019917306149999998,-0.002187,-0.041802,0.004456,-0.3103412459,-9.717213352,1.2841808175,-2.9045,1.4357,1.6661,-4.999999999999449e-05,-9.999999999998899e-05,-9.99999999995449e-06,-0.0002330264730907583,0.001026319823862698,-0.001181495896179774
150000000000.0,1,-0.01521011415,-0.026291628649999996,0.017377383799999997,-0.003299,-0.042866,0.011928,-0.31099829144999996,-9.717213352,1.284278884,-2.904,1.4356,1.6652,-9.99999999995449e-06,-9.999999999998899e-05,-1.0000000000065512e-05,0.00011697814347777502,0.0004822310225034432,-0.0002676616391086295
150000000000.0,1,-0.0052857843499999994,-0.0070019481,0.006943108199999999,-0.004415,-0.044995,0.018335,-0.31209663624999995,-9.717213352,1.2841808175,-2.9032,1.4356,1.6639,-1.0000000000065512e-05,-9.999999999998899e-05,-8.000000000008001e-05,-0.00035636858138832217,3.156198770315477e-05,-0.0005107455447321829
150000000000.0,1,-0.0054426907500000005,0.005668243699999999,0.004540478949999999,-0.00445,-0.046065,0.023674,-0.31373434679999995,-9.7171152855,1.2841808175,-2.902,1.4356,1.6622,5.000000000032756e-06,-9.999999999998899e-05,-4.999999999999449e-05,-0.0001857604922190781,0.0004876103255611053,-0.0007175996862534006
150000000000.0,1,-0.006452775699999999,0.0370299104,-0.000784532,-0.004474,-0.047134,0.026879,-0.31586238985,-9.7171152855,1.284082751,-2.9004,1.4355,1.6601,5.000000000032756e-06,-9.999999999998899e-05,-4.999999999999449e-05,0.0004232863539175291,0.00041339986286548225,-0.000560808559616266
150000000000.0,1,-0.0058251501,0.04862137069999999,0.00189268345,-0.003443,-0.050341,0.029022,-0.31814733929999994,-9.717017218999999,1.284082751,-2.8987,1.4355,1.6579,9.99999999995449e-06,-9.999999999998899e-05,-0.00010999999999994348,0.0003946543436312844,-0.0003554805860135346,0.0002883045545685192
150000000000.0,1,-0.02021150565,0.0373437232,-0.00255953565,-0.004507,-0.049268,0.030087,-0.3208147481,-9.7169191525,1.283886618,-2.8967,1.4354,1.6554,9.99999999995449e-06,-9.999999999998899e-05,-7.00000000000145e-05,-4.762237469035924e-06,0.00026980590595604426,-0.00045384240186652214
150000000000.0,1,-0.05647649735,0.0282627653,0.01154242705,-0.004499,-0.050329,0.02689,-0.3238940362,-9.716821086,1.283886618,-2.8945,1.4354,1.6526,1.0000000000065512e-05,-5.0000000000105516e-05,-4.999999999999449e-05,0.0003199745260389353,0.00010088149657550005,-0.0003107923596463724
150000000000.0,1,-0.06946050194999999,0.02276123465,0.021780569649999998,-0.004491,-0.05139,0.023694,-0.32692429105,-9.7167230195,1.2839846844999998,-2.8923,1.4353,1.6499,2.0000000000020002e-05,-4.999999999988347e-05,-6.0000000000060005e-05,0.0001636035213039566,0.00015378690274570062,-0.0009435187439776893
150000000000.0,1,-0.06932320885,0.0063154826,0.020240925599999997,-0.000197,-0.048227,0.023701,-0.3297584129,-9.716624953,1.284278884,-2.8903,1.4352,1.6474,4.999999999999449e-05,-9.999999999998899e-05,-3.999999999992898e-05,0.00011407601595592176,0.0002542975184327556,-0.0004579884077828833
150000000000.0,1,-0.0672343924,-0.0169066646,0.01887780125,0.003041,-0.045054,0.021571,-0.33245524165,-9.716428819999999,1.2849653495,-2.8884,1.435,1.6451,4.999999999999449e-05,-5.0000000000105516e-05,-4.999999999999449e-05,0.0003330928298692637,5.6520649777791476e-05,-5.754011066394504e-05
150000000000.0,1,-0.06642044044999999,-0.0354020065,-0.0020005566,0.013707,-0.044077,0.023726,-0.33520110365,-9.7161346205,1.286044081,-2.8866,1.4349,1.6428,5.999999999994898e-05,-4.999999999988347e-05,-1.0000000000065512e-05,0.00026022105872791634,-0.00027114647886739007,0.00016029665118577618
150000000000.0,1,-0.047081726649999996,-0.05588809835,-0.0169655045,0.019051,-0.044118,0.021604,-0.33748605309999996,-9.715938487499999,1.2875150784999998,-2.8852,1.4346,1.641,3.0000000000085514e-05,1.0000000000065512e-05,-4.999999999921734e-06,-0.0006659663552148753,0.0004329500005082476,-0.0005520311355693419
150000000000.0,1,-0.0365591912,-0.09703680174999998,-0.030096608849999998,0.024419,-0.040962,0.019475,-0.33947680305,-9.715644288,1.2892802755,-2.8841,1.4344,1.6395,2.0000000000020002e-05,9.999999999843467e-06,-5.000000000032756e-06,-0.0001501883361640921,-0.00031554994010019044,-5.1385750500454463e-05
150000000000.0,1,-0.025203090499999997,-0.14670748399999997,-0.027007514099999998,0.022334,-0.034551,0.019462,-0.3412518067,-9.7153500885,1.2910454724999998,-2.8832,1.4342,1.6381,2.999999999997449e-05,1.0000000000065512e-05,2.999999999997449e-05,0.000260459175783323,-3.462575318069483e-05,-5.152315392753515e-05
150000000000.0,1,-0.0232417605,-0.1705180302,-0.00344213415,0.02349,-0.02603,0.015181,-0.34277183744999995,-9.714957822499999,1.2930068024999999,-2.8825,1.434,1.6371,-1.0000000000065512e-05,1.0000000000065512e-05,2.999999999997449e-05,-0.00016564634325288985,-0.00011313577795424301,8.948668506225665e-05
150000000000.0,1,-0.03725546335,-0.1902882366,0.01220927925,0.022478,-0.021754,0.010904,-0.34416438174999997,-9.714663622999998,1.295066199,-2.8818,1.4337,1.6363,-9.99999999995449e-06,9.999999999843467e-06,1.0000000000065512e-05,9.637008503848854e-05,-0.00021437003339053184,-0.0001834389285984006
150000000000.0,1,-0.03433308165,-0.17049841689999998,0.013758729949999998,0.017268,-0.012111,0.001273,-0.3448410406,-9.71446749,1.2967333294999999,-2.8817,1.4335,1.636,-4.0000000000040004e-05,1.0000000000065512e-05,9.99999999995449e-06,-0.00045445832994284174,-0.00022342055731239263,2.8562635032702843e-05
150000000000.0,1,-0.0391873734,-0.11435534564999998,0.010895188149999999,0.008837,-0.005636,-0.009425,-0.34479200735,-9.714271357,1.2977139945,-2.8819,1.4334,1.6362,-9.99999999995449e-06,1.0000000000065512e-05,-2.999999999997449e-05,-0.0004847609443539014,7.197999367969388e-05,-1.1472216175700822e-05
150000000000.0,1,-0.026360275199999998,-0.0521125381,0.004707192,0.002572,0.006147,-0.017994,-0.34369366255,-9.714271357,1.298008194,-2.8828,1.4334,1.6371,4.999999999999449e-05,1.0000000000065512e-05,2.999999999997449e-05,0.0003251594283812942,-0.0004573143000299318,0.0006399831552719171
150000000000.0,1,-0.0075315072,-0.0005295590999999999,-0.004971971549999999,-0.002651,0.016852,-0.023358,-0.34186962565,-9.714369423499999,1.2977139945,-2.884,1.4335,1.6385,2.0000000000020002e-05,9.999999999843467e-06,-7.00000000000145e-05,-0.00023439459876550828,0.00012002003724220778,-4.5612202725475726e-05
150000000000.0,1,0.016896857949999997,0.05543699245,-0.009296704199999999,-0.003634,0.025388,-0.026578,-0.33935912324999995,-9.7145655565,1.297223662,-2.8857,1.4336,1.6404,8.999999999992347e-05,1.0000000000065512e-05,-4.999999999999449e-05,-0.000652982786032652,-0.00018431759422443683,0.0005025784362726604
150000000000.0,1,0.0485233042,0.07685471605,-0.026683894649999998,0.001776,0.032805,-0.029787,-0.33612292875,-9.714663622999998,1.296831396,-2.888,1.4338,1.643,9.00000000000345e-05,3.333333333332966e-05,-3.999999999992898e-05,-0.00010964166444193957,-9.539415343140512e-05,0.00037048405047168664
150000000000.0,1,0.07291244274999999,0.07534449195,-0.0690780426,0.012487,0.039108,-0.028717,-0.33253369485,-9.714859756,1.2967333294999999,-2.8906,1.4339,1.646,0.00012999999999996348,3.333333333332966e-05,-8.000000000008001e-05,-0.00010499896458937563,-0.0005328813596843229,0.0009858137479727969
150000000000.0,1,0.07882585269999999,0.08394492399999999,-0.08740667145,0.019981,0.043307,-0.027649,-0.3290131075,-9.714957822499999,1.2970275289999997,-2.8932,1.4339,1.649,7.00000000000145e-05,3.333333333332966e-05,-5.999999999994898e-05,-0.0011169864789177808,0.0007352942889771175,-0.00017062638559961485
150000000000.0,1,0.06630276064999999,0.070804013,-0.10703958474999999,0.025354,0.04859,-0.027653,-0.325776913,-9.714957822499999,1.2977139945,-2.8956,1.4339,1.652,0.00014999999999998348,4.999999999988347e-05,-4.999999999999449e-05,0.0002685582665782338,-0.0003449723127260107,0.0010920381243082478
150000000000.0,1,0.04282564055,0.0321854253,-0.09972382384999999,0.02644,0.052841,-0.025526,-0.32324679729999994,-9.714957822499999,1.2984985265,-2.8976,1.4339,1.6545,-8.999999999992347e-05,5.0000000000105516e-05,-0.000180000000000069,-0.0031044740115437897,0.002671086354012475,-0.003313160115599789
150000000000.0,1,0.011159967699999999,0.009433997299999998,-0.0667244466,0.029664,0.058139,-0.022328,-0.32151102025,-9.7147616895,1.3000675904999999,-2.8992,1.4338,1.6566,7.00000000000145e-05,-9.999999999998899e-05,-9.999999999998899e-05,0.0005174064046531424,0.00015585175549737151,0.0006371093301040798
150000000000.0,1,-0.00946341725,0.000392266,-0.03658861115,0.026477,0.06136,-0.020204,-0.32033422224999997,-9.7145655565,1.3019308539999999,-2.9003,1.4336,1.6585,0.00010999999999994348,9.999999999998899e-05,-8.999999999992347e-05,-1.667666482729757e-05,8.245890657176957e-05,0.0006236558889218813
150000000000.0,1,-0.027448813349999997,-0.01599464615,-0.01728912395,0.023287,0.063517,-0.019144,-0.31971640329999995,-9.714369423499999,1.303696051,-2.9011,1.4335,1.6599,9.00000000000345e-05,-5.0000000000105516e-05,-8.000000000008001e-05,-0.00036709082532837556,-0.0001855535736174918,0.0009107089451751982
150000000000.0,1,-0.04435547795,-0.0220257359,-0.0155925735,0.019014,0.06568,-0.014883,-0.31971640329999995,-9.7141732905,1.3051670485,-2.9014,1.4333,1.6608,0.00039000000000000146,-4.999999999988347e-05,7.00000000000145e-05,0.0038063523843132607,-0.002946968603163569,0.004769931297720298
150000000000.0,1,-0.03933447314999999,-0.00942419065,-0.0168478247,0.012603,0.067859,-0.009558,-0.3202459624,-9.7139771575,1.3059515805,-2.9011,1.4332,1.6613,4.999999999999449e-05,-4.999999999988347e-05,-9.999999999998899e-05,0.0010334315913140824,0.0012095607979372147,0.0004096338990631221
150000000000.0,1,-0.0335583563,-0.0102577559,-0.00789435325,0.005114,0.070045,-0.002101,-0.3213835338,-9.7139771575,1.3063438465,-2.9004,1.4332,1.6612,0.00012999999999996348,-5.0000000000105516e-05,-7.999999999996898e-05,0.0012154892841673703,0.0004239673890640283,0.0009882495482662623
150000000000.0,1,-0.02307504745,-0.013307624049999998,-0.007992419749999998,0.004007,0.07111,0.007503,-0.32318795739999995,-9.713879090999999,1.30624578,-2.899,1.4331,1.6606,0.000160000000000049,-9.999999999998899e-05,-6.0000000000060005e-05,0.0009816155856903208,0.0005679927689339337,0.0007747858506799155
150000000000.0,1,-0.0051386846,-0.01721067075,-0.011032481249999998,-0.001369,0.073274,0.019232,-0.32586517285,-9.713879090999999,1.305657381,-2.897,1.4331,1.6593,2.999999999997449e-05,-4.999999999988347e-05,-8.999999999992347e-05,-0.0013433887304303838,0.0007158800977855595,-0.00031398134674676115
150000000000.0,1,0.00899269805,-0.005952636549999999,-0.023692866400000002,-0.003543,0.074347,0.028833,-0.32936614689999993,-9.713879090999999,1.3045786495,-2.8943,1.4332,1.6573,0.00017000000000000348,-5.0000000000105516e-05,-7.00000000000145e-05,0.0008129766517135373,0.00016028270498691377,0.00199073129702132
150000000000.0,1,0.02181979625,0.0105323421,-0.026742734549999998,-0.006768,0.07756,0.038427,-0.33351435984999994,-9.7139771575,1.3033037849999998,-2.8911,1.4332,1.6548,0.00012999999999996348,-9.999999999998899e-05,-7.00000000000145e-05,0.0004243175760387796,0.0006455981563808777,0.0008740540061886737
150000000000.0,1,0.03231291175,0.01493552795,-0.022359162,-0.012149,0.076531,0.04589,-0.33831961835,-9.7139771575,1.3016366544999998,-2.8873,1.4332,1.6518,0.0001100000000000545,-4.999999999988347e-05,-5.999999999994898e-05,0.0002843315291198856,0.0009392117175268666,-9.883635093421717e-05
150000000000.0,1,0.028929617499999997,0.0284981249,-0.0284588983,-0.016444,0.076561,0.051218,-0.3437623091,-9.714075224,1.2994791915,-2.883,1.4333,1.6482,0.000140000000000029,-5.0000000000105516e-05,-7.00000000000145e-05,-5.35079938426275e-05,0.0005846294221467652,5.058073540875618e-05
150000000000.0,1,0.032489431449999995,0.026193562150000002,-0.00401091985,-0.019638,0.078716,0.053341,-0.34942074615,-9.7141732905,1.2973217284999998,-2.8785,1.4334,1.6445,7.999999999996898e-05,-2.4999999999941735e-05,-9.00000000000345e-05,-0.0014925960898486412,0.0012609312938554051,-3.7215588349015505e-05
150000000000.0,1,0.0361473119,0.02399687255,0.013817569850000001,-0.02071,0.078723,0.054405,-0.3551772497,-9.714271357,1.2953603985,-2.874,1.4334,1.6407,-2.999999999997449e-05,-2.500000000016378e-05,-0.00014999999999998348,-0.0032770662039827148,0.0038925094260384707,-0.002727019345660553
150000000000.0,1,0.0367945508,0.01921122735,0.024977537549999998,-0.017513,0.078695,0.055476,-0.3609043333,-9.714271357,1.2937913344999998,-2.8696,1.4334,1.637,0.00040999999999991044,-2.4999999999941735e-05,0.00012999999999996348,0.0042574542173337004,-0.0024482730719148638,0.0048114943537351795
150000000000.0,1,0.049866815249999995,-0.028959037449999996,0.022270902149999997,-0.017532,0.075499,0.054411,-0.3663568307,-9.714271357,1.2921242039999998,-2.8653,1.4334,1.6335,0.000160000000000049,-2.4999999999941735e-05,2.0000000000020002e-05,-0.0001037461635986503,0.0005264830635984818,0.0006006331763184214
150000000000.0,1,0.0620564812,-0.10246968584999999,0.012944777999999999,-0.007973,0.070091,0.054433,-0.37150532194999997,-9.7141732905,1.2910454724999998,-2.8614,1.4334,1.6302,0.00019000000000002348,-0.00019999999999997797,-4.0000000000040004e-05,-0.0006177451743483164,-6.1029730214823275e-05,0.0004293608680694394
150000000000.0,1,0.06475330995,-0.1621431511,0.0083748791,0.002682,0.065744,0.050186,-0.37615367405,-9.714075224,1.2904570735,-2.858,1.4333,1.6274,7.999999999996898e-05,-0.00020000000000020002,4.0000000000040004e-05,0.0003005016767014812,0.0005613179284689185,0.0003638248592079396
150000000000.0,1,0.0588399,-0.21577571995,0.000588399,0.012259,0.061404,0.048071,-0.3805568599,-9.713879090999999,1.2907512729999997,-2.8549,1.4331,1.6249,0.000160000000000049,-5.0000000000105516e-05,4.999999999999449e-05,-0.00037388122399106827,0.00045287870892085635,-0.00043796191417722063
150000000000.0,1,0.07771770125,-0.26214156115,-0.008786758399999999,0.020791,0.059205,0.044883,-0.38433242014999996,-9.7135848915,1.2918300045,-2.8524,1.4329,1.623,0.00014999999999998348,-4.999999999988347e-05,9.999999999998899e-05,0.000654565091514181,0.00013829282795074782,0.0005240988834052107
150000000000.0,1,0.082964259,-0.2499518952,-0.022270902149999997,0.017581,0.054973,0.039542,-0.3874803548,-9.713388758499999,1.29251647,-2.8503,1.4328,1.6215,0.00010999999999994348,-9.999999999998899e-05,2.999999999997449e-05,-0.0002580017539519641,-0.0001572199053414547,0.00034020287794755966
150000000000.0,1,0.0810421556,-0.22764176645,-0.005275977699999999,0.008022,0.053996,0.028848,-0.38973588429999995,-9.7131926255,1.292908736,-2.8488,1.4327,1.6205,4.999999999999449e-05,-0.00019999999999997797,9.999999999998899e-05,-1.550625571633546e-05,-8.439471033683255e-05,0.000841706506939488
150000000000.0,1,0.06840138375,-0.21064684199999997,0.037902702249999996,-0.001546,0.05089,0.017091,-0.39116765519999996,-9.7131926255,1.2930068024999999,-2.8478,1.4326,1.62,-0.00017000000000000348,-5.0000000000105516e-05,3.0000000000085514e-05,-0.0034826793451876448,0.0036764376918241304,-0.004058088575634056
150000000000.0,1,0.0560351981,-0.1436085826,0.07202003759999999,-0.011095,0.049914,0.005331,-0.391677601,-9.7131926255,1.2928106695,-2.8474,1.4326,1.6201,0.000280000000000058,-4.999999999988347e-05,0.00012000000000000899,0.003169854692302909,-0.0034449177608832926,0.003597024659450998
150000000000.0,1,0.06515538259999999,-0.0466012008,0.0795907714,-0.01212,0.046738,-0.007478,-0.39076558255,-9.7131926255,1.2927126029999998,-2.848,1.4326,1.6212,-9.00000000000345e-05,-9.999999999998899e-05,-4.999999999999449e-05,-0.002583138388322137,0.002478724981288094,-0.002874938891505252
150000000000.0,1,0.053583535599999996,0.0168282114,0.05616268455,-0.01103,0.041413,-0.020279,-0.38877483259999995,-9.713290692,1.2924184035,-2.8494,1.4327,1.6229,0.00029999999999996696,-9.999999999998899e-05,7.999999999996898e-05,0.0031053592947207775,-0.003675929293399438,0.0038112265144207846
150000000000.0,1,0.050621927299999994,0.0390500803,0.030400614999999995,-0.013163,0.033983,-0.032014,-0.38550921814999994,-9.7135848915,1.2916338714999998,-2.8515,1.4329,1.6254,0.000140000000000029,-9.999999999998899e-05,-2.0000000000020002e-05,0.0011041945419150156,-0.0009368799387290405,0.0011718118673880173
