Time,placement_label,user_acc_x(m/s^2),user_acc_y(m/s^2),user_acc_z(m/s^2),rotation_rate_x(rad/s),rotation_rate_y(rad/s),rotation_rate_z(rad/s),gravity_x(m/s^2),gravity_y(m/s^2),gravity_z(m/s^2),attitude_roll(rad),attitude_pitch(rad),attitude_yaw(rad),target_delta_x,target_delta_y,target_delta_z,target_delta_roll,target_delta_pitch,target_delta_yaw
149610000000.0,2,-0.00055897905,-0.6683231975,-0.13616533525,-0.26824,0.1458,-0.16334,-0.12394624934999998,-2.8622669355,-9.378883927,-0.013214,0.29618,1.4552,0.0,0.0,0.0,0.0,0.0,0.0
149610000000.0,2,0.027125193899999997,-0.6662441876999999,-0.178284897,-0.22434,0.005888,-0.20465,-0.11466915845,-2.8402019729999997,-9.3856505155,-0.012217,0.29383,1.4531,0.0006699999999999484,0.00019999999999997797,-0.00019999999999997797,0.00036301444241082503,-0.0006764058952999363,-0.00211357021991615
149610000000.0,2,-0.028811937699999998,-0.6229674412499999,-0.20931313759999998,-0.16537,-0.09795,-0.21504,-0.11559098355,-2.823530668,-9.390651906999999,-0.012309,0.29205,1.4509,0.00045000000000000595,0.00010000000000021103,-0.00010000000000021103,-0.0006916302472319558,0.0015466923008586875,-0.0019561943585571784
149610000000.0,2,-0.08684769239999998,-0.5236653033499999,-0.23051511489999998,-0.10301,-0.1667,-0.19988,-0.12773161624999999,-2.8277475274999997,-9.389278975999998,-0.013603,0.29251,1.4488,0.00037000000000003697,-0.00010000000000021103,-9.999999999998899e-05,-0.0018996981014951508,0.00102870369456598,-0.0034288985157731877
149610000000.0,2,-0.11996474945,-0.44512384349999995,-0.3085956622,-0.053232,-0.1991,-0.17732,-0.1407058142,-2.8220596705000003,-9.3907499735,-0.014982,0.2919,1.4469,0.0005499999999999949,-9.999999999998899e-05,9.999999999998899e-05,0.0010596942158972444,0.0017536029627458483,-0.002515679730217796
149610000000.0,2,-0.1531406464,-0.3462728115,-0.41523317429999995,-0.012649,-0.18027,-0.15487,-0.15391537175,-2.820196407,-9.391142239499999,-0.016388,0.2917,1.4452,0.0007699999999999929,-0.0011999999999998678,0.0012000000000000899,-0.007542107997615788,-0.00916952616305755,-0.01046793545364616
149610000000.0,2,-0.22765157309999998,-0.22343471359999997,-0.47057210024999996,0.028334,-0.11669,-0.14103,-0.1624569639,-2.8221577369999995,-9.3903577075,-0.017299,0.29191,1.4437,0.00030000000000002247,9.999999999998899e-05,0.00029999999999996696,0.0010195804470732317,0.0007588009678973773,-0.000176162409215308
149610000000.0,2,-0.2720756976,-0.0943791996,-0.41961674685,0.053376,-0.049801,-0.13471,-0.17489179609999997,-2.8260803969999997,-9.3889847765,-0.018625,0.29233,1.4426,0.00046999999999997044,9.999999999998899e-05,0.00029999999999996696,-0.00017044990396969384,0.001155181503138758,-0.0009189911323839173
149610000000.0,2,-0.2609549565,-0.012778064949999998,-0.45823533454999993,0.06767,0.001234,-0.13798,-0.1719498011,-2.8322585865,-9.387121512999999,-0.018315,0.29299,1.4412,0.00025999999999998247,0.0004999999999999449,-0.00029999999999996696,-8.982893438769235e-05,-0.0020877967117372,-0.0011806286866250515
149610000000.0,2,-0.17880464945,-0.0031185146999999996,-0.50913184805,0.078625,0.03631,-0.13909,-0.16521263255,-2.8397116404999996,-9.3850621165,-0.017602,0.29378,1.4398,-0.00013999999999997348,0.0015000000000000568,-0.00029999999999996696,0.0033491017913288568,0.008882593157605312,0.010323299828714022
149610000000.0,2,-0.07393233434999999,-0.0310282406,-0.44933089634999995,0.10527,0.042468,-0.12411,-0.15756344555000001,-2.849224091,-9.3823162545,-0.016792,0.29479,1.4384,0.00041999999999997595,-0.001100000000000101,0.0015000000000000568,-0.003697440986562106,-0.01305165309764078,-0.012188786165744675
149610000000.0,2,-0.030890947499999998,-0.05842802069999999,-0.37549662849999993,0.13611,0.039,-0.10911,-0.15136564275,-2.85961914,-9.379276192999999,-0.016137,0.2959,1.4373,0.00021999999999999797,0.000500000000000167,0.00029999999999996696,-0.004783838115861194,-0.0003164187184885314,-0.0011996527669168588
149610000000.0,2,0.05147510585,-0.0635667053,-0.2691533159,0.1829,0.029009,-0.094064,-0.14559933255,-2.8758001125,-9.374372868,-0.01553,0.29762,1.4363,0.00021000000000004349,0.00019999999999997797,0.0005999999999999339,-0.0021441685995566284,-0.0009057525523494814,-0.0012554378422033885
149610000000.0,2,0.1694981386,-0.06162498859999999,-0.08203262724999999,0.22529,0.007324,-0.071537,-0.1421179718,-2.8960998780000002,-9.368194678499998,-0.015169,0.29979,1.4356,9.999999999998899e-05,0.00039999999999995595,0.000600000000000156,-0.0017102292528894392,-0.000931560758992811,-0.0008559787365854388
149610000000.0,2,0.23380034265,-0.0750404858,0.06521422249999999,0.2568,-0.036656,-0.041517,-0.14297115035,-2.9196358379999996,-9.360839691,-0.015272,0.30231,1.4351,0.00018000000000001348,0.00039999999999995595,0.0004999999999999449,7.245846742270912e-05,-0.00023072158199721748,0.00017945174384798035
149610000000.0,2,0.29734743464999996,-0.118856598,0.15838720415,0.27766,-0.081578,-0.014713,-0.13738135985,-2.9515074505,-9.3509349745,-0.014691,0.30572,1.4345,0.00031999999999998696,0.0005999999999999339,0.00029999999999996696,-0.0007261621220839842,0.0017096067295649942,-0.00044892525354223167
149610000000.0,2,0.34762612919999997,-0.17346002519999998,0.25776779525,0.28263,-0.11893,-0.00183,-0.14756066255,-2.9778873389999996,-9.342403188999999,-0.015793,0.30853,1.4345,0.00015999999999999348,0.000500000000000167,0.00029999999999996696,-0.005315341201756696,0.001882951276885425,0.0002468419045174586
149610000000.0,2,0.36414052779999995,-0.18457095965,0.36698445629999993,0.26752,-0.14011,-0.001819,-0.1603387275,-3.0034826955,-9.3340675365,-0.017176,0.31127,1.4346,0.00025999999999998247,0.0005999999999999339,0.00029999999999996696,-0.0028423893433329184,0.0011121038425763174,0.0012924165629613071
149610000000.0,2,0.33657403464999996,-0.1816779979,0.37592812109999996,0.24003,-0.12707,-0.030709,-0.1719694144,-3.026528323,-9.326320283,-0.018437,0.31375,1.4344,-0.00023999999999996247,0.0017000000000000348,-0.0008999999999999009,-0.0028223381580769202,0.015343615726534976,0.010555968762308104
149610000000.0,2,0.27943068509999996,-0.16048582725,0.40943744415,0.20853,-0.087322,-0.063923,-0.1688508997,-3.0575173369999997,-9.316317499999998,-0.018122,0.31706,1.4335,0.0006899999999999684,-0.0009000000000001229,0.0015000000000000568,-0.003982149860602302,-0.014205973668698135,-0.01160865621261456
149610000000.0,2,0.2585817472,-0.15503332984999998,0.47995706429999996,0.16306,-0.051756,-0.089683,-0.17179289469999998,-3.073992509,-9.310825776,-0.018449,0.31883,1.4326,0.00029000000000001247,0.000600000000000156,9.999999999998899e-05,-0.0007720235602589054,-0.00040220532587986746,-0.0011447072819942283
149610000000.0,2,0.2664859071,-0.18907221199999996,0.44075988424999996,0.11742,-0.026864,-0.097277,-0.1717732814,-3.0861527549999996,-9.3068050495,-0.018454,0.32015,1.4316,0.00023000000000000798,0.00039999999999995595,9.999999999998899e-05,-0.00013560115781929838,-0.0014532709005738997,-0.0010481220611618935
149610000000.0,2,0.2825099732,-0.21921785409999997,0.40116063155,0.080132,-0.011653,-0.083492,-0.17042977034999998,-3.0946845405,-9.303961121,-0.018316,0.32105,1.4307,0.00028999999999995696,0.0004999999999999449,9.999999999998899e-05,0.0001026476272069643,-0.00031837208624807545,-0.00019658108145917397
149610000000.0,2,0.27647888345,-0.19986933364999998,0.38474429944999994,0.057679,-0.002945,-0.054728,-0.1582597177,-3.1122384439999995,-9.298371330499998,-0.017019,0.32294,1.4297,0.000270000000000048,0.0006999999999999229,-9.999999999998899e-05,-6.60102680701824e-05,-0.0030264879436092684,-0.002501457143072122
149610000000.0,2,0.2541687547,-0.20380180029999997,0.40267085565,0.044682,-0.003942,-0.017389,-0.15780861179999997,-3.1168475695,-9.2968022665,-0.016973,0.32343,1.4294,0.00020999999999998797,0.000400000000000178,5.0000000000105516e-05,-0.0006910530178282359,0.0020033873135132385,0.001498577061250922
149610000000.0,2,0.1953288547,-0.23653639799999998,0.38412648050000003,0.029493,-0.013444,0.017825,-0.15896579649999998,-3.1198876309999997,-9.2958216015,-0.017099,0.32376,1.4296,0.00032999999999999696,0.0004999999999999449,4.999999999988347e-05,-0.0007395391743338364,0.0010390059453173617,0.0006754751650774049
149610000000.0,2,0.13930346325,-0.26127857595,0.29789660705,0.025047,-0.025146,0.034917,-0.16189798484999998,-3.1220450939999997,-9.2950370695,-0.017416,0.324,1.4299,0.00024000000000001798,0.0004999999999999449,-0.0005999999999999339,-0.0019411768360317327,0.0016346649730687446,0.0023975361525103156
149610000000.0,2,0.09425171314999999,-0.255953565,0.22981884275,0.037798,-0.033772,0.037085,-0.16263348360000002,-3.1366570025000002,-9.290035678,-0.017504,0.32557,1.4302,-0.000150000000000039,0.0017000000000000348,-0.000600000000000156,0.001831792759994899,0.013232785414313941,0.010257528959489559
149610000000.0,2,0.037059330349999996,-0.2116471203,0.2328490976,0.0591,-0.045656,0.025402,-0.16738970884999999,-3.1415603275,-9.2883685475,-0.01802,0.3261,1.4305,0.00010999999999999899,0.0004999999999999449,9.999999999998899e-05,-0.001400244551917118,0.0009515447264536459,0.0002817867981805833
149610000000.0,2,-0.0081787461,-0.16582064485,0.1611232595,0.078383,-0.051118,0.000894,-0.17258723334999998,-3.148523049,-9.285916884999999,-0.018584,0.32685,1.4306,0.00010999999999999899,0.000700000000000145,-0.00019999999999997797,-0.001641087003497077,-0.002473292881056244,-0.0016483718109431278
149610000000.0,2,-0.015808319799999998,-0.14850210095,0.10107714155,0.097898,-0.031001,-0.028994,-0.17543116185,-3.1572509675,-9.2828768235,-0.018896,0.32779,1.4304,0.0005200000000000204,-0.000500000000000167,0.0013000000000000789,-0.00013109447402381846,-0.014573973555440434,-0.011464264414178638
149610000000.0,2,-0.04206072185,-0.1483550012,0.13901907039999997,0.08988,0.017036,-0.052579,-0.17520560889999998,-3.1728435409999998,-9.2775812325,-0.018883,0.32947,1.43,-0.00029000000000001247,0.0018000000000000238,-0.0013000000000000789,-0.0013185328140581931,0.012831303974875086,0.010922909673974801
149610000000.0,2,-0.0652730624,-0.1920730469,0.15298373999999998,0.04559,0.074955,-0.064499,-0.16756622855,-3.178335265,-9.2758160355,-0.018063,0.33006,1.4293,0.00042000000000003146,-0.0007999999999999119,0.0013000000000000789,0.0011597051746567444,-0.015032741255165405,-0.011629083303795668
149610000000.0,2,-0.031067467199999997,-0.2829218525,0.11888601794999999,-0.023297,0.12773,-0.067918,-0.15567076209999997,-3.1885341809999996,-9.2724817745,-0.016787,0.33116,1.4286,7.999999999996898e-05,0.00039999999999995595,9.999999999998899e-05,0.0019612737311901496,-0.00226037122595546,0.0002890825865865254
149610000000.0,2,0.028713871199999998,-0.36581746495,0.10239123265,-0.085921,0.16661,-0.064898,-0.13764613939999998,-3.1947123705,-9.2707165775,-0.014847,0.33182,1.4279,9.00000000000345e-05,0.0004999999999999449,-9.999999999998899e-05,0.0012487751502512356,-0.0028390195734544488,-0.00039560254080653334
149610000000.0,2,0.07303012254999999,-0.3883531466499999,0.12020010905,-0.12627,0.18826,-0.062877,-0.11567924339999998,-3.1967717669999995,-9.270226245,-0.012478,0.33205,1.4271,2.999999999997449e-05,0.000600000000000156,-0.00029999999999996696,0.0014205586724472807,-0.0017726573932208556,-0.00010691749744717871
149610000000.0,2,0.15804397139999998,-0.3635521288,0.14139227969999998,-0.13061,0.18084,-0.055406,-0.09100571199999999,-3.1968698334999996,-9.270520444499999,-0.009817,0.33206,1.4263,3.999999999998449e-05,0.0005999999999999339,-0.00010000000000021103,0.001299913860751123,0.0017179206356914278,0.002671756098061223
149610000000.0,2,0.23740918985,-0.33369087955,0.19552498769999999,-0.12033,0.14026,-0.036111,-0.06742071875,-3.1971640329999995,-9.270618510999999,-0.007273,0.33209,1.4255,-0.00026999999999999247,0.0018000000000000238,-0.0012999999999998568,0.0005642997175091535,0.01182258146990911,0.01056873067604458
149610000000.0,2,0.28673663935,-0.30786997009999995,0.16009356125,-0.092142,0.075017,-0.011405,-0.048807697049999994,-3.198340831,-9.2703243115,-0.005265,0.33221,1.425,0.00042000000000003146,-0.000700000000000145,0.0011999999999998678,0.001635078505327514,-0.011046660888893722,-0.008241887392971298
149610000000.0,2,0.3499601119,-0.29722975484999997,0.13351753975,-0.058718,-0.00092,0.015463,-0.03631402495,-3.2017731585,-9.269147513499998,-0.003918,0.33259,1.4247,0.00019999999999997797,0.000400000000000178,9.999999999998899e-05,0.002433083204451847,-0.0010715309712769905,-0.001008772924719764
149610000000.0,2,0.35374547879999996,-0.27185014464999996,0.1213082605,-0.025239,-0.073655,0.03592,-0.031724512749999996,-3.2072648825,-9.26728425,-0.003423,0.33318,1.4247,0.00012000000000000899,0.0005999999999999339,-9.999999999998899e-05,-0.002407992426715133,-0.00037452713423991035,-0.0024183611133276883
149610000000.0,2,0.32510025415,-0.2394391664,0.058271114299999996,0.02127,-0.13156,0.03396,-0.0342055952,-3.2151102024999996,-9.264538388,-0.003692,0.33403,1.4247,0.00023000000000000798,0.0006999999999999229,-4.999999999988347e-05,-0.001200532039461688,0.0016015845754060454,-0.0013112878943406792
149610000000.0,2,0.33029777865,-0.21044090235,0.04731708625,0.073273,-0.17458,0.023443,-0.040893730499999996,-3.2267801159999996,-9.2605176615,-0.004416,0.33528,1.4246,0.00017999999999995797,0.0009000000000001229,-5.0000000000105516e-05,-0.003272059040820674,0.004475198992404339,0.0019533762276074396
149610000000.0,2,0.29191455055,-0.13306643385,0.03550987965,0.12753,-0.20058,0.015035,-0.05129858615,-3.2410978249999998,-9.2554182035,-0.005542,0.33684,1.4245,6.0000000000004494e-05,0.0005999999999999339,9.999999999998899e-05,-0.003258990817193108,0.0017546778936581298,0.0002722499672498102
149610000000.0,2,0.26614267435,-0.09826263299999999,0.055927324949999996,0.17234,-0.19987,0.017239,-0.06323327919999999,-3.2594362605,-9.248945814499999,-0.006837,0.33882,1.4245,0.00019000000000002348,0.00029999999999996696,0.000400000000000178,-0.0006728942389500614,0.0003959529152608443,-0.0009737683157629295
149610000000.0,2,0.23372188945,-0.11828781229999999,0.11132509079999998,0.1779,-0.16794,0.026793,-0.07420692055,-3.280324425,-9.2414927605,-0.00803,0.34107,1.4245,0.00020999999999998797,0.000700000000000145,-6.666666666665932e-05,-0.00022867459071823637,-0.0010762853230665836,-0.0005166731855774653
149610000000.0,2,0.20742045415,-0.1658500648,0.12199472599999998,0.13457,-0.11004,0.038354,-0.0815717147,-3.2993493259999997,-9.234628105499999,-0.008833,0.34313,1.4247,0.00019000000000002348,0.0006999999999999229,-6.666666666665932e-05,-0.0017008700745372307,0.0008634786275434347,0.0004520133322025166
149610000000.0,2,0.20843053909999998,-0.24334221309999998,0.1095206672,0.072052,-0.04666,0.056278,-0.08348401144999999,-3.314451567,-9.229234448,-0.009045,0.34477,1.425,0.00019999999999997797,0.0007999999999999119,-6.666666666665932e-05,-0.0023795133945841984,0.0013018066914369797,0.0011002343616383914
149610000000.0,2,0.2247488047,-0.30374137045,0.1211709674,0.009447,0.003938,0.072091,-0.0806498896,-3.3249446825,-9.225409854499999,-0.008742,0.34591,1.4255,0.000250000000000028,0.0004999999999999449,-3.333333333332966e-05,0.0003483443709814127,-0.0008062993018196352,-3.3456325720493396e-05
149610000000.0,2,0.23091718754999996,-0.32298201774999996,0.159652262,-0.043606,0.042745,0.079401,-0.07409904739999999,-3.3308286725,-9.223350458,-0.008034,0.34655,1.4261,0.00036999999999998145,0.000600000000000156,-3.333333333355171e-05,0.0027968978442880488,-0.0018805589878601037,0.0004950978779405257
149610000000.0,2,0.24115533014999996,-0.28876661589999997,0.23948819965,-0.079636,0.072892,0.082487,-0.06428259075,-3.3328880689999996,-9.2226639925,-0.00697,0.34677,1.4268,0.00030000000000002247,0.0005999999999999339,-3.333333333332966e-05,0.003165812958878189,-0.0010425594227576607,0.0005395518838150204
149610000000.0,2,0.24845147774999998,-0.26788825805,0.29546455785,-0.10525,0.073113,0.087777,-0.05376986195,-3.3322016034999997,-9.222958192,-0.00583,0.3467,1.4274,7.999999999996898e-05,0.0006999999999999229,-0.00029999999999996696,-0.0017481471667386561,0.002541622714528735,0.0034520911442842417
149610000000.0,2,0.20906797135,-0.2903749065,0.2714872986,-0.11602,0.063617,0.097382,-0.0456597624,-3.3304364065,-9.223742724,-0.00495,0.3465,1.4283,0.00031999999999998696,0.000700000000000145,-0.00019999999999997797,0.0014071269091209815,-3.857165655274386e-05,0.0019225959809091864
149610000000.0,2,0.1665757569,-0.3079876499,0.2534234493,-0.10859,0.062493,0.10808,-0.0393835064,-3.3290634755,-9.2242330565,-0.00427,0.34636,1.4292,0.00047000000000002595,0.0004999999999999449,9.999999999998899e-05,0.0007532158339646489,-0.00041272987623752755,0.0009526639231005329
149610000000.0,2,0.11433573234999998,-0.2761944906,0.25419817465,-0.091511,0.067681,0.11771,-0.03427424175,-3.3282789435,-9.224527256,-0.003716,0.34627,1.4303,0.00031999999999998696,0.00039999999999995595,9.999999999998899e-05,0.0020539843534295166,-0.001749215079448696,0.0002122686748236291
149610000000.0,2,0.056133264599999996,-0.23417299535,0.24729429304999997,-0.073308,0.071806,0.11454,-0.030253515249999998,-3.3279847439999997,-9.2246253225,-0.003279,0.34623,1.4315,0.00031999999999998696,0.000600000000000156,-0.00019999999999997797,-0.0004127837548526525,0.0005567970431576974,0.00228591712634324
149610000000.0,2,0.08271909274999999,-0.244381718,0.20812653294999997,-0.058396,0.06211,0.10711,-0.026007235799999997,-3.329161542,-9.2242330565,-0.002819,0.34636,1.4326,0.000250000000000028,0.0006999999999999229,-0.00039999999999995595,-8.34552813798739e-05,0.002671419146890175,0.003672773036325294
149610000000.0,2,0.10346996415,-0.2527173705,0.16458500694999997,-0.052008,0.052486,0.097538,-0.02191786275,-3.3308286725,-9.2236446575,-0.002376,0.34654,1.4336,0.00035000000000001696,0.0006999999999999229,-0.00019999999999997797,0.0010908765133844645,-0.00025224106703714,0.0002420773184624858
149610000000.0,2,0.09648762934999999,-0.23719344355,0.16052505385000002,-0.054153,0.043996,0.089013,-0.018534568499999998,-3.332103537,-9.223154325,-0.002009,0.34668,1.4345,0.00034999999999996145,0.0004999999999999449,-4.999999999988347e-05,0.0018577805314455298,-0.0014486908914876917,6.417308233780394e-05
149610000000.0,2,0.10941279405,-0.23662465785,0.16028969424999998,-0.065964,0.030254,0.084749,-0.015886773,-3.3323977365,-9.2230562585,-0.001723,0.34671,1.4353,0.00035000000000001696,0.000400000000000178,-5.0000000000105516e-05,0.001419735965177693,-0.00019900245355763957,0.0003403427478972654
149610000000.0,2,0.0905349928,-0.27455678005,0.14396162199999998,-0.080902,0.028254,0.084731,-0.014219642499999997,-3.3320054705,-9.223252391499999,-0.001542,0.34667,1.4361,0.00034000000000000696,0.00039999999999995595,-0.00019999999999997797,-5.9314111850061746e-05,0.0015422849592583443,0.0020474641837094076
149610000000.0,2,0.0363630582,-0.27745954845,0.14073523414999997,-0.089337,0.03686,0.081507,-0.01317033095,-3.3306325395,-9.223742724,-0.001427,0.34652,1.437,0.00021999999999999797,0.0004999999999999449,-0.00019999999999997797,-0.001877489538673116,0.0004893909177499101,0.0021020677125562215
149610000000.0,2,-0.006913688249999999,-0.25945453905,0.12810426895,-0.084948,0.051747,0.083634,-0.0117875933,-3.3286712095,-9.224429189499999,-0.001278,0.34631,1.4379,0.00023000000000000798,0.0005999999999999339,-0.00029999999999996696,0.001442809019616298,0.00016350538380116575,0.0018720850820759805
149610000000.0,2,-0.060928716449999996,-0.2594055058,0.11595382959999999,-0.075231,0.067651,0.088973,-0.0104538889,-3.3275924779999997,-9.224821455499999,-0.001133,0.34619,1.4389,0.00020999999999998797,0.000500000000000167,-0.00020000000000020002,0.0012750612732281286,-0.00013584941122690708,0.0011943634819731597
149610000000.0,2,-0.0866123328,-0.26121973605,0.07669780964999999,-0.054944,0.076001,0.10182,-0.009002504699999999,-3.3276905445,-9.224821455499999,-0.000976,0.3462,1.44,0.00035000000000001696,0.0004999999999999449,-9.999999999998899e-05,-0.001289500723830772,6.432910133757908e-05,0.001044809237562061
149610000000.0,2,-0.09116261839999999,-0.2496576957,0.0565451439,-0.036819,0.082234,0.1168,-0.007453054,-3.3292596085,-9.2242330565,-0.000808,0.34637,1.4413,0.00021999999999999797,0.00039999999999995595,-9.999999999998899e-05,-0.0016986143724533886,-3.5846655216609236e-05,0.001514713523533856
149610000000.0,2,-0.10289137179999999,-0.22571966305,0.06693038625,-0.015564,0.075661,0.1254,-0.006943108199999999,-3.3323977365,-9.2230562585,-0.000753,0.34671,1.4427,0.00015999999999999348,0.0005999999999999339,-9.999999999998899e-05,-0.0022211636596523032,0.001200680277759325,0.0026694151145991996
149610000000.0,2,-0.0843175767,-0.21752130364999997,0.0829446457,-0.013636,0.047944,0.1244,-0.0080022264,-3.3361242635,-9.221781393999999,-0.000868,0.34711,1.4441,-1.0000000000010001e-05,0.0016000000000000458,-0.0011999999999998678,0.004362286002875138,0.011768876162054465,0.011492472336996823
149610000000.0,2,-0.04061914429999999,-0.21263759195,0.04413973164999999,-0.026723,0.003314,0.11165,-0.01160126695,-3.3382817264999995,-9.220996862,-0.001258,0.34735,1.4454,0.00017000000000000348,0.0004999999999999449,-0.00019999999999997797,0.0020196901654909727,-0.00012661603097052776,0.0002491053711089486
149610000000.0,2,0.00344213415,-0.2232581939,-0.014013702849999999,-0.026836,-0.023303,0.093557,-0.016612465099999998,-3.3397527239999993,-9.220408462999998,-0.001801,0.34751,1.4464,0.00014999999999998348,0.000400000000000178,0.0005999999999999339,0.00012143472124925836,0.0007381184585184553,0.0011341224214148904
149610000000.0,2,-0.010728475099999999,-0.20949946395,0.030204481999999998,-0.017118,-0.023357,0.072232,-0.02189824945,-3.3420082534999995,-9.219623931,-0.002375,0.34776,1.4472,0.0005300000000000304,-0.0009000000000001229,0.0005999999999999339,-0.002403723609061048,-0.01020088653240725,-0.008624845459901165
149610000000.0,2,-0.04541459614999999,-0.1941520567,0.0899073672,-0.002004,-0.006422,0.065833,-0.026262208699999998,-3.345636714,-9.218250999999999,-0.002849,0.34815,1.448,0.00012999999999996348,0.00029999999999996696,-9.999999999998899e-05,0.00016182752997273564,-0.00024188220832455087,-9.168180173799167e-05
149610000000.0,2,-0.10273446539999999,-0.19809432999999999,0.12335785034999999,-0.002881,0.018094,0.069003,-0.02999854235,-3.34995164,-9.216681935999999,-0.003255,0.34862,1.4488,0.000140000000000029,0.000400000000000178,-9.999999999998899e-05,8.048921821657284e-05,0.0008307316890392435,0.0018571204602635116
149610000000.0,2,-0.1208767679,-0.21693290464999998,0.1353906099,-0.01551,0.043767,0.07749,-0.03190103245,-3.3538743,-9.2152109385,-0.003462,0.34904,1.4497,0.00018000000000001348,0.00039999999999995595,-9.999999999998899e-05,-0.0006377200424725338,-0.0001997298435929551,0.0017034838822129472
149610000000.0,2,-0.09669356900000001,-0.26408327785,0.14141189299999998,-0.045231,0.065321,0.083818,-0.031400893299999996,-3.3562278959999996,-9.2144264065,-0.003408,0.3493,1.4507,-0.000160000000000049,0.0016000000000000458,-0.0013000000000000789,0.0026966007250732726,0.008811318372276444,0.010170108829264835
149610000000.0,2,-0.0635667053,-0.30663433219999997,0.13292914074999998,-0.084579,0.079503,0.083736,-0.0287530978,-3.3557375635,-9.214622539499999,-0.003121,0.34925,1.4516,0.00018000000000001348,0.00029999999999996696,-0.00019999999999997797,0.0013738977466145053,-0.0005653794974183057,0.0014777103486644794
149610000000.0,2,-0.032361944999999996,-0.32717926394999997,0.12692747094999998,-0.11971,0.087256,0.083669,-0.024497011699999998,-3.352109103,-9.215897404,-0.002658,0.34885,1.4525,0.0005600000000000049,-0.0009000000000001229,0.0009000000000001229,0.0024926332404441864,-0.011740826924022896,-0.008303571697957896
149610000000.0,2,-0.03362700285,-0.30855643559999996,0.14354974269999998,-0.13353,0.089509,0.079379,-0.019789819699999996,-3.3463231794999997,-9.218054867,-0.002147,0.34823,1.4534,0.00019999999999997797,9.999999999998899e-05,-9.999999999998899e-05,0.003329811169433705,-0.0015677536495737332,0.00010970736961743444
149610000000.0,2,-0.04302177355,-0.2956508842,0.18916047184999998,-0.12915,0.094815,0.069779,-0.01458248855,-3.3406353225,-9.2201142635,-0.001582,0.34761,1.4542,0.000160000000000049,0.00019999999999997797,-9.999999999998899e-05,0.002756213050427503,-0.0015798685567938175,-0.0003703597585231755
149610000000.0,2,-0.0574081291,-0.2544433409,0.24969692229999996,-0.11939,0.10647,0.05911,-0.008433719,-3.3355358644999997,-9.221977527,-0.000915,0.34705,1.4549,9.999999999998899e-05,3.333333333332966e-05,-5.0000000000105516e-05,0.00019457623884366892,2.980307665323423e-06,0.0009429501155100439
149610000000.0,2,-0.0797672911,-0.24498973029999999,0.2705262469,-0.11608,0.11392,0.050575,-0.0016377105499999999,-3.330926739,-9.2236446575,-0.000178,0.34655,1.4556,1.0000000000010001e-05,3.333333333332966e-05,-4.999999999988347e-05,-0.0013096967196637999,-0.0007544976982203355,0.0005174191570154474
149610000000.0,2,-0.09387906045,-0.2604450107,0.24580368225,-0.1085,0.11494,0.033519,0.0055897905,-3.3268079459999997,-9.225115655,0.000606,0.34611,1.456,6.999999999995898e-05,3.333333333332966e-05,-0.00020000000000020002,-0.00033736495527564303,-0.0006840360191231465,0.00022946013165123236
149610000000.0,2,-0.10724552439999999,-0.24533296305,0.22051233189999997,-0.098811,0.10743,0.006877,0.012974197949999999,-3.3230814189999998,-9.226488586,0.001406,0.3457,1.4563,-0.00036999999999998145,0.0014000000000000679,-0.0013999999999998458,0.003070510724977993,0.011543046149369518,0.011689516563550217
149610000000.0,2,-0.07971825785,-0.23500656059999997,0.20326243454999998,-0.086031,0.084983,-0.021872,0.020309572149999996,-3.3202374905,-9.227469250999999,0.002201,0.3454,1.4562,-1.0000000000010001e-05,-4.999999999988347e-05,-9.999999999998899e-05,0.0016438011665968477,-0.0003861619476515088,-0.00048111139250478496
149610000000.0,2,-0.03454882795,-0.22714162729999998,0.1844238599,-0.075441,0.058283,-0.046352,0.026909447599999997,-3.3180800274999998,-9.228253783,0.002917,0.34516,1.4558,-2.999999999997449e-05,-5.0000000000105516e-05,-0.00019999999999997797,0.0011210492500003388,-0.0006567045917265091,-0.0008861807360108775
149610000000.0,2,0.02207476915,-0.2273377603,0.1276041298,-0.067081,0.033709,-0.048429,0.032685564449999996,-3.316216764,-9.228842182,0.003542,0.34496,1.4552,0.00032999999999999696,-0.0010999999999998789,0.0007999999999999119,-0.0063347043206283815,-0.008765586443502116,-0.007549231155456748
149610000000.0,2,0.00495235825,-0.23325117025,0.105519554,-0.07049,0.015608,-0.033458,0.03590214565,-3.3143535004999998,-9.2295286475,0.00389,0.34476,1.4548,-1.0000000000010001e-05,-0.00010000000000021103,-0.00019999999999997797,0.0007959873032288844,-0.00010318850763790799,-0.00035113889592047753
149610000000.0,2,0.0090417313,-0.21834506225,0.06108562285,-0.083534,-0.007739,-0.020629,0.0365984178,-3.3110192394999998,-9.2307054455,0.003965,0.3444,1.4546,1.0000000000010001e-05,-9.999999999998899e-05,-9.999999999998899e-05,8.993866515771831e-05,-0.00021347658826953442,-0.00021993996840982688
149610000000.0,2,0.06496905624999999,-0.1928575789,-0.06769530495,-0.084755,-0.020528,-0.008872,0.03649054465,-3.305821715,-9.232568708999999,0.003952,0.34383,1.4544,4.999999999999449e-05,-9.999999999998899e-05,-9.999999999998899e-05,0.0013717277026068508,-5.8594368476105885e-05,-0.0003662546570790959
149610000000.0,2,0.03237175165,-0.14069600755,-0.09686028205,-0.074114,-0.020621,-0.00245,0.035264713399999995,-3.300329991,-9.234530039,0.003819,0.34325,1.4543,-3.999999999998449e-05,-9.999999999998899e-05,-9.999999999998899e-05,0.0003212422506334578,7.657355483492445e-05,0.0003410420180075535
149610000000.0,2,-0.041442902899999995,-0.05641765745,-0.0932024016,-0.053665,-0.00054,-0.005648,0.033960428949999996,-3.2951324664999997,-9.2363933025,0.003677,0.34268,1.4543,-9.00000000000345e-05,-9.999999999998899e-05,-9.999999999998899e-05,-0.0007465210452824445,-0.000742701061230866,-0.0004829358590168753
149610000000.0,2,-0.06560648849999999,0.0055897905,-0.11872911154999999,-0.028821,0.031235,-0.01633,0.035235293449999996,-3.2912098065,-9.237864299999998,0.003814,0.34225,1.4542,-6.0000000000004494e-05,-4.999999999988347e-05,-0.00018333333333342416,0.0002740603482504489,-0.0002716805644893405,0.00043958265134530494
149610000000.0,2,-0.06344902549999999,0.033548549649999995,-0.11808187264999999,-0.007237,0.060897,-0.018475,0.03965809259999999,-3.2889542769999998,-9.238648831999999,0.004292,0.342,1.4541,-0.00012000000000000899,-5.0000000000105516e-05,-0.00018333333333320212,-0.0005512754343789394,-0.0006488253977998681,0.0003124463813775069
149610000000.0,2,-0.056260751049999995,0.028056825649999995,-0.12159265335,0.001345,0.070411,-0.013136,0.045483242699999996,-3.287777479,-9.239041098,0.004923,0.34188,1.4539,-0.00010999999999999899,-5.0000000000105516e-05,-0.00018333333333342416,-0.0004196114878065038,-0.0006544293842078996,0.00030063877558200724
149610000000.0,2,-0.045179236549999995,0.0122190859,-0.15307199984999997,-0.001936,0.064039,-0.00779,0.0511710997,-3.286600681,-9.2393352975,0.005538,0.34175,1.4539,-0.00015999999999999348,-4.999999999988347e-05,-0.00018333333333342416,-0.0006326911147842007,0.0001120609083025137,0.0009816426547551715
149610000000.0,2,0.027801852749999998,-0.026105302299999997,-0.16998847109999998,-0.003171,0.045929,-0.003493,0.05659417715,-3.2857180825,-9.239629497,0.006125,0.34165,1.4538,-6.999999999995898e-05,9.999999999998899e-05,-0.00018333333333320212,-0.0003400227730405714,-0.001178484493513432,-0.0005407770803486645
149610000000.0,2,0.08589644734999999,-0.0460324151,-0.15464106384999998,0.008178,0.002138,0.004069,0.0599970847,-3.285816149,-9.239629497,0.006493,0.34167,1.4538,-0.00040000000000001146,0.001100000000000101,-0.00018333333333342416,0.007800774476037831,0.009649114826857597,0.008109910153480476
149610000000.0,2,0.1226811915,-0.08858346945,0.07098053269999999,-0.001917,-0.071286,-0.013973,0.0579376882,-3.2884639445,-9.238648831999999,0.006271,0.34195,1.4536,0.00023000000000000798,-0.0013000000000000789,0.001000000000000112,-0.009368054416250549,-0.008165309943554577,-0.009278183741442847
149610000000.0,2,0.20338011435,-0.23867424769999998,0.3221288392,-0.026936,-0.14246,-0.028848,0.05130839279999999,-3.2921904715,-9.237373967499998,0.005554,0.34236,1.4532,-8.00000000000245e-05,-9.999999999998899e-05,-5.0000000000105516e-05,0.00046679058608900537,0.0017973663849968347,-0.0003942033500121678
149610000000.0,2,0.24755907259999999,-0.07934560514999998,0.10108694819999998,-0.022918,-0.16701,-0.017074,0.04168806914999999,-3.291504006,-9.237668167,0.004513,0.34229,1.4528,1.0000000000010001e-05,0.0005500000000000504,-4.999999999988347e-05,0.0002828308008394065,0.0004101348276592809,-0.0005905596951240599
149610000000.0,2,0.23542824655,-0.10039067604999999,0.1175425069,-0.01104,-0.1341,0.00849,0.03272479105,-3.2924846709999995,-9.237373967499998,0.003542,0.34239,1.4526,-0.00034000000000000696,0.0005500000000000504,-0.001000000000000112,0.008613089091405679,0.01021744763549326,0.008789389752303173
149610000000.0,2,0.06563590845,-0.054211161199999996,0.0019221033999999998,-0.010529,-0.063789,0.019037,0.025791489499999997,-3.2924846709999995,-9.237373967499998,0.002792,0.34238,1.4527,-0.00012000000000000899,-0.00019999999999997797,2.4999999999941735e-05,0.0010600494613882128,0.0010725684273629188,0.000906920739515954
149610000000.0,2,-0.007453054,0.014866881399999999,-0.0628998531,-0.017571,-0.008323,0.022129,0.02301620755,-3.2904252744999996,-9.238158499499999,0.002492,0.34217,1.453,-3.999999999998449e-05,-5.0000000000105516e-05,2.500000000016378e-05,-0.0007542900627038329,-0.0005133443196752019,0.0003631599256461171
149610000000.0,2,0.019917306149999998,-0.01652420525,-0.13204654224999998,-0.022585,0.033274,0.02418,0.024820631149999998,-3.2878755455,-9.239041098,0.002687,0.3419,1.4532,-8.999999999997899e-05,-5.0000000000105516e-05,2.4999999999941735e-05,0.0005015341435499199,-0.0012491796650373477,0.00016419757633634458
149610000000.0,2,0.05451516734999999,-0.072373077,-0.13032057184999998,-0.020219,0.064154,0.027328,0.0303221618,-3.2864045479999997,-9.2395314305,0.003282,0.34173,1.4535,-2.0000000000020002e-05,-0.0007500000000000284,2.4999999999941735e-05,0.0009447258316284124,-0.00015735834354169143,0.000622881803965164
149610000000.0,2,0.0891228352,-0.07846300664999999,-0.0481898781,-0.019062,0.073737,0.025173,0.0380694153,-3.2855219494999996,-9.23982563,0.00412,0.34164,1.4537,0.00029000000000001247,-0.0007499999999998064,0.0013000000000000789,-0.001990344120952503,-0.012335237766039953,-0.00969059087849758
149610000000.0,2,0.149453346,-0.11005022629999998,-0.027674366299999996,-0.012849,0.047052,0.020952,0.04521846314999999,-3.285816149,-9.239727563499999,0.004894,0.34167,1.4538,6.999999999995898e-05,0.0005999999999999339,9.999999999998899e-05,0.0012859446734510005,-0.0009482921085188778,0.00019631339188608266
149610000000.0,2,0.21726633075,-0.1369596739,-0.0170243444,-0.004583,0.00863,0.014616,0.0505827007,-3.287385213,-9.2391391645,0.005475,0.34183,1.4538,-0.00034999999999996145,0.0005999999999999339,-0.001100000000000101,0.0008696794127774354,0.01344362612184602,0.010704279440808928
149610000000.0,2,0.26085688999999995,-0.1496102524,-0.02593858925,0.004723,-0.029806,0.013616,0.05308339645,-3.2896407425,-9.238256565999999,0.005746,0.34208,1.4538,-1.0000000000010001e-05,-9.999999999998899e-05,5.0000000000105516e-05,0.00023630383016842726,0.0007684472360418582,5.719396513498287e-05
149610000000.0,2,0.24455823769999996,-0.15191481515,-0.03362700285,0.01942,-0.056572,0.020079,0.05231847775,-3.2931711365,-9.2369817015,0.005664,0.34247,1.4538,2.999999999997449e-05,-9.999999999998899e-05,4.999999999988347e-05,-0.0010991532612030785,-3.636945766016808e-05,-0.00010753515653957879
149610000000.0,2,0.21987489964999998,-0.13014405215,-0.02593858925,0.043904,-0.062104,0.023321,0.04992565515,-3.2984667274999997,-9.235118437999999,0.005405,0.34304,1.4539,2.0000000000020002e-05,-9.999999999998899e-05,0.00020000000000020002,-0.0007313840921611692,0.0005385343986248348,0.0003522819840060254
149610000000.0,2,0.20436077935,-0.07761963475,-0.03902066035,0.07702,-0.052793,0.030821,0.0474837993,-3.305821715,-9.232568708999999,0.005143,0.34384,1.4541,-2.999999999997449e-05,-9.999999999998899e-05,0.00029999999999996696,-0.0016178922743525503,0.001213322632912961,0.0010258220967035714
149610000000.0,2,0.18119747205,-0.0197702064,0.01362143685,0.11233,-0.033912,0.040444,0.04610106165,-3.3159225644999997,-9.228940248499999,0.004996,0.34493,1.4543,-6.0000000000004494e-05,-0.00019999999999997797,0.00019999999999997797,-0.001656563433194147,0.0016653668294177582,0.0011977988301497822
149610000000.0,2,0.16117229275,0.0160044528,0.0655280353,0.13266,-0.024494,0.044722,0.045179236549999995,-3.3280828104999998,-9.224527256,0.004898,0.34625,1.4547,0.00010999999999999899,-9.999999999998899e-05,0.00019999999999997797,-0.0016452674579459647,0.0007596132311487036,0.0011482976914505005
149610000000.0,2,0.1930733252,0.02287891445,0.05227925115,0.12627,-0.027631,0.038299,0.04500271685,-3.3399488569999995,-9.220310396499999,0.00488,0.34753,1.455,0.00028999999999995696,-0.0014000000000000679,0.0012999999999998568,-0.009267778025099704,-0.006530529497581261,-0.006519352143455809
149610000000.0,2,0.23018168879999998,0.0226141349,0.01065982855,0.11136,-0.036012,0.01906,0.045306723,-3.3502458395,-9.216485803,0.004915,0.34865,1.4551,2.0000000000020002e-05,-0.00019999999999997797,0.000300000000000189,0.00019543105137675987,-0.0012809487976885858,-0.0018854810062982341
149610000000.0,2,0.24391099879999997,0.031136113749999996,0.02999854235,0.09002,-0.046474,0.001947,0.045483242699999996,-3.358777625,-9.2134457415,0.004937,0.34958,1.455,3.0000000000030003e-05,-9.999999999998899e-05,0.00014999999999987246,-0.0019094255231618673,-5.449961433123818e-05,0.00032446508727521084
149610000000.0,2,0.25228587789999996,0.0310870805,0.04011900515,0.054877,-0.048299,-0.014138,0.046091255,-3.3642693489999997,-9.211386345,0.005004,0.35017,1.4547,0.00011999999999995348,-9.999999999998899e-05,0.0001500000000000945,0.001484301287077383,-0.002874785109764577,-0.002316671820330629
149610000000.0,2,0.23737976989999998,0.01442558215,-0.08108138219999998,0.03914,-0.01939,-0.021703,0.048572337449999996,-3.3671132774999997,-9.21040568,0.005274,0.35048,1.4543,4.999999999999449e-05,9.999999999998899e-05,4.999999999988347e-05,-0.0005209726319628794,0.0003008826255346264,0.0012830265030407129
149610000000.0,2,0.14017625509999998,0.06271352675,-0.08513152865,0.058775,0.040112,-0.013246,0.0540542548,-3.3703494719999996,-9.209130815499998,0.00587,0.35083,1.454,0.000140000000000029,9.999999999998899e-05,5.0000000000105516e-05,0.001478026019030576,-0.002219388108048559,0.0005104806703221387
149610000000.0,2,0.0521125381,0.11506142444999999,0.045179236549999995,0.07724,0.090027,0.000569,0.0626644935,-3.3755469965,-9.2071694855,0.006805,0.35139,1.4539,9.999999999998899e-05,9.999999999998899e-05,0.00019999999999997797,-0.000821907306919889,-0.0008670310087974809,0.0012582408777587206
149610000000.0,2,0.04510078334999999,0.1033424777,0.0058251501,0.074095,0.10602,0.014406,0.07281437624999999,-3.3810387205,-9.205110089,0.00791,0.35199,1.454,0.00024000000000001798,0.0005999999999999339,0.00019999999999997797,0.00010161416375259469,-0.0010980443438031173,0.0004226056032455294
149610000000.0,2,0.08579838085,0.05571157865,-0.12673133795,0.065489,0.099694,0.017597,0.08328787845,-3.385647846,-9.203344891999999,0.009049,0.35249,1.4541,-0.00023000000000000798,0.000600000000000156,-0.0008999999999999009,0.003165539636604875,0.009781540183601889,0.009536587183938378
149610000000.0,2,0.11602247614999998,0.0419920753,-0.18110921219999998,0.067529,0.08902,0.018678,0.09317298165,-3.3899627719999996,-9.201579695,0.010125,0.35297,1.4542,0.00013999999999997348,-0.0006500000000000394,0.00029999999999996696,-0.001798990644720666,8.593192125228022e-05,0.001226540605009041
149610000000.0,2,0.09678182884999999,0.050621927299999994,-0.1194646103,0.070636,0.073017,0.011232,0.10163612059999999,-3.3950622299999997,-9.199618365,0.011047,0.35351,1.4543,0.00036000000000002697,-0.0006500000000000394,0.0013999999999998458,-0.006239018978352995,-0.010532990100792228,-0.008585553938429386
149610000000.0,2,0.11163890359999999,0.04147232285,-0.1014203743,0.068359,0.052794,0.006987,0.10877536179999998,-3.4002597544999995,-9.197657034999999,0.011826,0.35408,1.4543,0.00018000000000001348,9.999999999998899e-05,0.000300000000000189,0.00015431319877390326,-0.001677387592078361,-0.0010205481048590759
149610000000.0,2,0.13587113574999998,0.0002549729,-0.1053626476,0.068159,0.032542,0.014486,0.1143259257,-3.4058495449999997,-9.195499572,0.012432,0.35469,1.4543,0.00028000000000000247,-9.999999999998899e-05,0.00029999999999996696,0.0001451805891068969,-0.0012328214980024121,-0.0006594430129940876
149610000000.0,2,0.1202687556,-0.0202801522,-0.0336760361,0.079647,0.010057,0.028416,0.1172090808,-3.4130083995,-9.1928517765,0.012749,0.35547,1.4545,0.00023000000000000798,9.999999999998899e-05,0.00039999999999995595,0.0017321583731517154,-0.001280095318028085,-0.00010286833660849704
149610000000.0,2,0.10835367585,-0.029214010349999996,0.08387627745,0.089016,-0.013471,0.038077,0.1171502409,-3.4220305174999996,-9.189517515499999,0.012748,0.35645,1.4548,0.00019999999999997797,0.00019999999999997797,4.999999999988347e-05,0.0012414418802103588,0.00048681199926781105,0.00023102514414252706
149610000000.0,2,0.13417458529999998,-0.03388197575,0.14825693469999998,0.092013,-0.038003,0.040257,0.11512026434999999,-3.4320333004999997,-9.185790988499999,0.012532,0.35754,1.4551,0.00019999999999997797,9.999999999998899e-05,5.0000000000105516e-05,0.0009831931174416608,0.0003270777806123615,0.0008053229731421752
149610000000.0,2,0.1304088317,-0.019848659600000002,0.21053896884999998,0.089877,-0.04011,0.038118,0.1123057558,-3.4420360835,-9.1820644615,0.01223,0.35863,1.4554,0.00021000000000004349,-9.999999999998899e-05,0.00029999999999996696,-0.0009536566493996701,0.000839617844996976,0.0010313200818144463
149610000000.0,2,0.0697252815,-0.01750487025,0.27891093265,0.080532,-0.014445,0.02845,0.11043268565,-3.4516466004999997,-9.178436001,0.012031,0.35968,1.4557,0.00024999999999997247,-9.999999999998899e-05,9.999999999998899e-05,-0.0014148919055960163,0.0004245830192322053,0.0014525095914090236
149610000000.0,2,0.031106693799999998,-0.06264488019999999,0.33761353954999995,0.05204,0.022028,0.025138,0.11135451075,-3.4602764524999996,-9.1751998065,0.012136,0.36062,1.4559,0.00030999999999997696,-0.00019999999999997797,0.00019999999999997797,-0.0014264194619528214,-0.001001730454563754,0.0004654855649011691
149610000000.0,2,0.03433308165,-0.14177473905,0.330287972,0.01488,0.048972,0.033571,0.11485548479999999,-3.466846908,-9.1726500775,0.012521,0.36134,1.4562,0.00041000000000002146,-9.999999999998899e-05,9.999999999998899e-05,-0.0009248700537486942,-0.0021880946641235077,-0.0008093807136333175
149610000000.0,2,0.0696076017,-0.2347515877,0.31712744769999995,-0.010731,0.060889,0.055927,0.11969016325,-3.4722405655,-9.170590680999998,0.01305,0.36192,1.4567,0.00036000000000002697,9.999999999998899e-05,-9.999999999998899e-05,-0.0011463807176443908,-0.00041337496393789586,9.979740391555247e-05
149610000000.0,2,0.1077162436,-0.28269629955,0.30411402314999997,-0.020494,0.055624,0.082609,0.12422083554999999,-3.4767516245,-9.168825484,0.013547,0.36242,1.4574,0.00035999999999997145,-0.00019999999999997797,1.666666666655381e-05,8.589161248950816e-05,0.0003609640516821777,0.001325337558383155
149610000000.0,2,0.13400787225,-0.25037358115,0.29562146425,-0.005816,0.035236,0.10188,0.1247209747,-3.4758690259999994,-9.1691196835,0.013601,0.36232,1.4585,0.000250000000000028,-5.0000000000105516e-05,1.6666666666775853e-05,-0.0002043561105727898,5.814034737428031e-05,0.0006972655971537456
149610000000.0,2,0.1546704838,-0.159652262,0.2968669088,0.021625,0.003034,0.11053,0.1220143393,-3.47743809,-9.1685312845,0.013307,0.36249,1.4596,0.00033999999999995145,-4.999999999988347e-05,1.6666666666775853e-05,0.0002501048398483863,0.0006747115070089293,0.0011722826688957688
149610000000.0,2,0.15289548014999998,-0.09470281905,0.26078824344999996,0.050139,-0.03556,0.10744,0.1158557631,-3.4816549494999998,-9.167060287,0.012638,0.36294,1.4608,0.00030000000000002247,-9.999999999998899e-05,1.666666666655381e-05,0.0001969464103177554,0.000740236483711465,0.0005901862699705385
149610000000.0,2,0.10394068335000001,-0.0564078508,0.18364913454999998,0.064843,-0.074024,0.093658,0.10824580269999999,-3.489598336,-9.164118292,0.011811,0.36381,1.4618,0.000250000000000028,-9.999999999998899e-05,1.666666666655381e-05,-7.079217233152413e-05,0.0015836911670330522,0.0013657494400977077
149610000000.0,2,0.06694019289999999,-0.05214195804999999,0.10508806139999999,0.064832,-0.089984,0.070203,0.09750752095,-3.4957765254999997,-9.1618627625,0.010642,0.36449,1.4626,0.00033999999999995145,-0.00019999999999997797,1.6666666666775853e-05,-0.0006138152160956034,0.001698466978134583,-8.89174801932402e-05
149610000000.0,2,0.00279489525,-0.0423255014,0.04119773665,0.055364,-0.092004,0.040304,0.087279185,-3.5022489145,-9.1595091665,0.009529,0.3652,1.4631,0.00032999999999999696,-0.00019999999999997797,4.999999999988347e-05,-0.0006261602756296725,0.0007565950702148605,-0.00026228028320218755
149610000000.0,2,-0.05394638164999999,-0.06556726189999999,-0.00758054045,0.037523,-0.070519,0.01569,0.07834532685,-3.5071522395,-9.1577439695,0.008554,0.36573,1.4634,0.00034000000000000696,-0.00029999999999996696,5.0000000000105516e-05,-0.001220752593887653,0.0011961831478475293,0.0010204771688167025
149610000000.0,2,-0.10011608984999999,-0.09762520075,-0.047179793149999996,0.014447,-0.031949,-0.001489,0.0724319169,-3.5102903674999997,-9.156567171499999,0.00791,0.36607,1.4635,0.00019000000000002348,-0.000400000000000178,9.999999999998899e-05,-0.001580656688933424,-0.001388320725620007,-0.0008950275923768902
149610000000.0,2,-0.13306643385,-0.08532766165,-0.05565273875,-0.004349,0.01297,-0.011199,0.0703725204,-3.5113690989999995,-9.156174905499999,0.007685,0.36619,1.4635,0.00028000000000000247,-0.00029999999999996696,0.00020000000000020002,0.0019077914458031087,0.0010231548870232032,0.0015838734626920925
149610000000.0,2,-0.15676910689999998,-0.06817583079999999,-0.0489744101,-0.020018,0.049338,-0.01982,0.07177487134999999,-3.5106826334999996,-9.156469105,0.007838,0.36612,1.4634,0.00023000000000000798,-0.00029999999999996696,-0.0003666666666666263,9.222558335375552e-05,-0.00035541999416865977,5.2754747247057976e-05
149610000000.0,2,-0.14838442115,-0.02986124925,-0.0441103117,-0.029488,0.063272,-0.024123,0.075511205,-3.508427104,-9.157253637,0.008245,0.36587,1.4633,0.00017999999999995797,-9.999999999998899e-05,-0.00036666666666684833,0.0013931286682558608,4.87721982289635e-06,0.0013356147018472597
149610000000.0,2,-0.10427410945,0.0011081514499999999,-0.05257345065,-0.02845,0.059,-0.025176,0.08017917039999999,-3.505485109,-9.1583323685,0.008755,0.36555,1.4631,-0.00014999999999998348,0.001100000000000101,-0.0003666666666666263,0.003557731970987965,0.00766783490068601,0.008830662752842056
149610000000.0,2,-0.07992419749999999,0.018377662099999997,-0.0476799323,-0.014735,0.041833,-0.021916,0.08381743755,-3.5031315129999996,-9.159214967,0.009151,0.36529,1.4629,0.00018000000000001348,-0.00019999999999997797,3.333333333332966e-05,-0.0005079639811916281,-0.0005471984004785657,-0.0006629642654126244
149610000000.0,2,-0.07916908545,0.032754211,0.0029812216,-0.003171,0.020424,-0.021855,0.08545514809999999,-3.502150848,-9.159607233,0.00933,0.36518,1.4627,0.00019999999999997797,-0.000300000000000189,3.333333333332966e-05,0.000120703623461893,-0.00029658327146364627,-0.0008715870242203549
149610000000.0,2,-0.039324666499999994,0.0230456275,0.04302177355,0.00299,-0.011592,-0.024988,0.08526882174999999,-3.5022489145,-9.1595091665,0.009309,0.3652,1.4625,0.00024000000000001798,-0.00019999999999997797,3.333333333332966e-05,0.0003937107750922042,7.331977578228788e-05,-0.0005964468503325548
149610000000.0,2,-0.0140823494,0.034499794699999996,0.037814442399999995,-0.009984,-0.038117,-0.033503,0.08320942525,-3.5014643824999996,-9.1599014325,0.009084,0.36511,1.4622,0.00012000000000000899,-0.00019999999999997797,0.000500000000000167,-0.00027497503305412563,-0.0007882042277600476,-0.0010570367670448833
149610000000.0,2,0.001176798,0.03870684755,-0.0163771055,-0.017509,-0.047641,-0.03777,0.08022820365,-3.499208853,-9.160784030999999,0.008758,0.36486,1.4618,0.00031999999999998696,-0.0015000000000000568,0.0004999999999999449,-0.002369738797943499,-0.0077350052573268435,-0.009261211751853404
149610000000.0,2,-0.005678050349999999,0.047846645349999994,0.01266038515,-0.022837,-0.046532,-0.037781,0.07720775545,-3.4965610574999997,-9.161764695999999,0.008427,0.36457,1.4614,0.00015999999999999348,-0.00029999999999996696,0.00019999999999997797,0.000326280903897469,-0.00018405257065712277,-0.0010630408736858332
149610000000.0,2,-0.020123245799999998,0.05610384465,0.0001176798,-0.028086,-0.036897,-0.039942,0.07474628629999999,-3.492932597,-9.163137627,0.008157,0.36418,1.4609,0.00012000000000000899,-0.00029999999999996696,5.0000000000105516e-05,-0.0013308133745264517,-0.0002842130043183566,-0.00015165890671467452
149610000000.0,2,-0.0210254576,0.06901920269999999,-0.03831458155,-0.02164,-0.026304,-0.032478,0.07295166935,-3.489402203,-9.164510558,0.00796,0.36379,1.4606,3.999999999998449e-05,-0.00029999999999996696,4.999999999988347e-05,-0.0010650996754882902,-9.930787668421814e-05,0.00037906250150643306
149610000000.0,2,-0.03405849545,0.0891816751,-0.042806027249999996,-0.006645,-0.012586,-0.02287,0.07176506469999999,-3.4867544074999994,-9.1655892895,0.00783,0.3635,1.4604,-1.999999999996449e-05,-0.00029999999999996696,9.999999999998899e-05,-0.0010435543069678976,-9.30169983142104e-05,-0.0001740004032159126
149610000000.0,2,-0.0381086419,0.0943791996,-0.0537796686,0.001995,0.002257,-0.020746,0.07162777159999999,-3.484891144,-9.166275755,0.007814,0.3633,1.4601,6.0000000000004494e-05,-0.00019999999999997797,9.999999999998899e-05,-0.0006744097079525724,-0.0009646487703016682,-0.0009752078255262364
149610000000.0,2,-0.01228773245,0.09097629205,-0.06795027785,0.007336,0.009661,-0.011144,0.0727457297,-3.4835182129999995,-9.1667660875,0.007935,0.36315,1.46,0.00020999999999998797,-0.00019999999999997797,0.00019999999999997797,9.898044734391043e-07,0.0002811328238794264,0.00018485881629076717
149610000000.0,2,-0.0044326057999999995,0.0635274787,-0.06582223479999999,0.009394,0.008564,0.001669,0.0735694883,-3.4830278804999995,-9.166962220499999,0.008025,0.3631,1.46,0.00013999999999997348,-9.999999999998899e-05,9.999999999998899e-05,0.0005197995901667363,0.0006987034122425406,0.0011099086631733424
149610000000.0,2,-0.01399408955,0.024369525249999996,-0.09211386345,0.01033,0.001082,0.01556,0.07310857574999999,-3.4829298139999993,-9.167060287,0.007975,0.36309,1.4601,0.000140000000000029,-0.00020000000000020002,9.999999999998899e-05,0.00038495383454634213,0.0007581608811726426,0.0010860741186700662
149610000000.0,2,-0.0058839899999999995,0.021260817199999997,-0.1014399876,0.024174,0.002026,0.021986,0.07247114349999999,-3.483910479,-9.166668021,0.007906,0.36319,1.4603,8.999999999997899e-05,-0.00019999999999997797,0.00019999999999997797,-0.0004581998927786768,0.00041296282243186155,0.000883749988747129
149610000000.0,2,0.0015396440499999998,0.015474893699999999,-0.0508376736,0.048665,-0.004568,0.020973,0.0714904785,-3.4873428064999996,-9.1653931565,0.007799,0.36357,1.4606,0.00012000000000000899,-0.00029999999999996696,0.00019999999999997797,-0.0023996277555583534,-0.0011571602199647035,-0.000712318183798244
149610000000.0,2,0.0221434157,0.0040991797,-0.006717555249999999,0.069937,-0.017523,0.01356,0.0700390943,-3.493324863,-9.1630395605,0.007643,0.36422,1.4607,0.00013999999999997348,-0.00019999999999997797,0.00029999999999996696,-0.00032418519684512814,0.0007190173998385951,0.0003314292395412699
149610000000.0,2,0.0421489817,-0.012248505849999999,0.006648908699999999,0.074113,-0.03566,0.002924,0.06783259805,-3.5003856509999998,-9.160391765,0.007405,0.36499,1.4607,0.00019000000000002348,-9.999999999998899e-05,9.999999999998899e-05,0.00063911095558844,0.0009082566766787092,0.001250104430233101
149610000000.0,2,0.053691408749999996,-0.02064299825,0.000980665,0.06018,-0.053642,-0.013081,0.06451795034999999,-3.5065638404999997,-9.158038169,0.007045,0.36567,1.4606,4.999999999999449e-05,-9.999999999998899e-05,9.999999999998899e-05,-0.0007345949067792956,-0.0002919907402505473,-0.0002924051230600855
149610000000.0,2,0.0812971285,-0.03923640665,-0.0181423025,0.04419,-0.056697,-0.020578,0.06145827555,-3.5116632985,-9.156174905499999,0.006712,0.36622,1.4603,0.00010999999999999899,-9.999999999998899e-05,9.999999999998899e-05,-0.0017201570801264054,-0.000569087983266714,-0.00033553442585096405
149610000000.0,2,0.0410702502,-0.0179853961,0.0130428445,0.025157,-0.037355,-0.023848,0.05918313275,-3.51470336,-9.154998107499999,0.006465,0.36655,1.46,1.0000000000010001e-05,-0.00019999999999997797,-0.0002666666666666373,0.00029850415019361254,0.0008403389039470799,0.0004106762111535378
149610000000.0,2,-0.01162088025,0.0067371685499999995,0.04064856425,0.01046,-0.007398,-0.023926,0.05845744065,-3.516076291,-9.154507774999999,0.006386,0.3667,1.4598,0.00010999999999999899,-9.999999999998899e-05,-0.0002666666666666373,-0.0006195890596181197,-0.00047995874459361154,-4.234333716532368e-05
149610000000.0,2,-0.00907115125,0.0261445289,0.038442067999999996,0.00318,0.023552,-0.012252,0.06024225095,-3.516272424,-9.1544097085,0.006581,0.36673,1.4596,-8.999999999997899e-05,0.0009999999999998899,-0.0002666666666666373,0.005400224519605645,0.008788587025357453,0.010187681854021857
149610000000.0,2,-0.030430034949999997,0.04619912815,0.058937966499999994,-0.001941,0.057681,-0.000578,0.0643904639,-3.515880158,-9.154507774999999,0.007034,0.36668,1.4596,3.999999999998449e-05,-9.999999999998899e-05,9.999999999998899e-05,0.0002777404855018317,-0.000468920027882902,0.0005237896511606499
149610000000.0,2,-0.048905763549999995,0.059124292849999996,0.06535151559999999,-0.002841,0.085381,0.010046,0.07060788,-3.5149975595000003,-9.1548019745,0.007712,0.36659,1.4597,-1.0000000000010001e-05,-0.00019999999999997797,9.999999999998899e-05,0.0006129598917573587,0.00033515216650026325,0.0010845140416594345
149610000000.0,2,-0.026477955,0.06383148485,0.058820286699999995,0.000391,0.092808,0.015376,0.0781001606,-3.514311094,-9.154998107499999,0.008531,0.36651,1.4599,-1.0000000000010001e-05,-0.00019999999999997797,0.00019999999999997797,-0.0006021809913792087,-0.0010105153534181177,7.569927486250627e-05
149610000000.0,2,0.0016180972499999998,0.0700390943,0.062370294,0.008868,0.086343,0.016469,0.0857689609,-3.5142130275,-9.154900041,0.009369,0.3665,1.4601,0.000250000000000028,-9.999999999998899e-05,9.999999999998899e-05,0.00046438721081465406,-0.0009666960647658485,5.3147793011243394e-05
149610000000.0,2,0.042099948449999994,0.05449555405,0.06820525075,0.012945,0.058611,0.010119,0.09227076985,-3.514899493,-9.154605841499999,0.010079,0.36657,1.4602,0.00023999999999996247,-0.0014000000000000679,0.0012000000000000899,-0.0033421281593222774,-0.01006455867686129,-0.010401027729928985
149610000000.0,2,0.07685471605,0.05237731765,0.0633705723,0.020131,0.014879,-0.003671,0.09612478329999999,-3.516076291,-9.154115508999999,0.0105,0.3667,1.4601,6.0000000000004494e-05,-0.00029999999999996696,9.999999999998899e-05,7.906972019866565e-05,0.0007643396200940344,0.0005826236512969374
149610000000.0,2,0.10430352939999998,0.06271352675,0.06177208835,0.029499,-0.02567,-0.021732,0.0971054483,-3.5178414879999997,-9.1534290435,0.010608,0.3669,1.4599,4.999999999999449e-05,-0.00029999999999996696,0.00019999999999997797,-0.001661268698549212,5.1182774194691305e-05,-0.0012451939742337548
149610000000.0,2,0.12273022474999999,0.07672722959999999,0.11268821514999999,0.035759,-0.054471,-0.039821,0.0961836232,-3.5204892834999995,-9.152448378499999,0.010509,0.36718,1.4594,5.0000000000050004e-05,-9.999999999998899e-05,3.333333333332966e-05,-0.0018586604615096203,0.0003341044753180089,-0.000710013394647796
149610000000.0,2,0.1121684627,0.0879852638,0.14355954934999998,0.02931,-0.068254,-0.05262,0.09388886709999998,-3.5227448129999996,-9.15156578,0.010259,0.36743,1.4588,-1.0000000000010001e-05,-9.999999999998899e-05,3.333333333332966e-05,-0.0011525758542653697,-3.862773195306701e-06,-0.00086221171380646
149610000000.0,2,0.08781855074999999,0.0930651085,0.12223008559999998,0.014434,-0.061734,-0.054795,0.09144701124999999,-3.5238235444999995,-9.1512715805,0.009992,0.36755,1.4581,4.999999999999449e-05,-0.00019999999999997797,3.333333333332966e-05,-0.0005939146764499803,0.0006688575229691907,-0.0007819659812162705
149610000000.0,2,0.05491724,0.0980665,0.16417312764999997,-0.009965,-0.043418,-0.053805,0.08993678715,-3.522940946,-9.15156578,0.009827,0.36746,1.4575,-3.0000000000030003e-05,-0.00019999999999997797,1.4285714285744433e-05,0.0008800121869945721,0.00071654506363239,0.0002487489116925201
149610000000.0,2,0.02028995885,0.09272187574999999,0.13847970464999998,-0.04394,-0.019699,-0.049637,0.08970142755,-3.5190182859999997,-9.153134843999998,0.009799,0.36702,1.4569,6.0000000000004494e-05,-9.999999999998899e-05,1.4285714285744433e-05,0.00031656551967162994,-0.0011382174665646172,-0.0011790897370781428
149610000000.0,2,0.01303303785,0.06502789615,0.055819451799999996,-0.061846,0.013476,-0.043323,0.09201579695,-3.5128400964999997,-9.1553903735,0.01005,0.36635,1.4565,4.0000000000040004e-05,-9.999999999998899e-05,1.4285714285744433e-05,0.0004316569213764221,-3.214156316078132e-05,0.0003876117650323807
149610000000.0,2,0.013327237349999998,0.0536423755,0.07054904009999999,-0.060623,0.041158,-0.030562,0.0966543424,-3.506661907,-9.1577439695,0.010554,0.36568,1.4561,9.999999999998899e-05,-0.00019999999999997797,1.4285714285522388e-05,0.0010267128331153397,-8.281233414564326e-07,0.0003723367000348643
149610000000.0,2,-0.0038442067999999996,0.0903976997,0.082571993,-0.047896,0.043165,-0.012398,0.1012634679,-3.5009740499999995,-9.1599014325,0.011054,0.36505,1.4559,6.0000000000004494e-05,-0.00010000000000021103,1.4285714285744433e-05,0.0007428967217304461,-0.00013521608707045552,0.000498807721909994
149610000000.0,2,0.0167497582,0.1013811477,0.05085728689999999,-0.02784,0.025935,0.002609,0.10460753554999999,-3.4965610574999997,-9.161568563,0.011417,0.36457,1.4559,4.999999999999449e-05,-5.0000000000105516e-05,1.4285714285744433e-05,-2.339527572969846e-05,0.0001831980945505851,0.0005864931817264607
149610000000.0,2,0.05354430899999999,0.11660106849999999,0.02654660155,-0.003564,0.00015,0.013368,0.10582356015,-3.4939132619999995,-9.162549228,0.011549,0.36428,1.456,2.999999999997449e-05,-4.999999999988347e-05,1.4285714285744433e-05,-4.0102900030536404e-05,0.0003380027018486942,0.00039953833443592823
149610000000.0,2,0.0507592204,0.1314287233,0.04141348295,0.013211,-0.033027,0.01879,0.10382300354999999,-3.4930306635,-9.1628434275,0.01133,0.36419,1.4561,4.0000000000040004e-05,-1.999999999990898e-05,-9.999999999998899e-05,-0.0001644365298955619,0.00040633437287751484,2.5800705972744975e-05
149610000000.0,2,0.06218396765,0.1312718169,0.050621927299999994,0.012981,-0.063922,0.014572,0.0991256182,-3.492540331,-9.163137627,0.010817,0.36414,1.4562,3.999999999998449e-05,-2.0000000000131024e-05,-4.999999999988347e-05,1.9822013274495287e-05,0.000523441789284762,-0.00016036654624190794
149610000000.0,2,0.069234949,0.0989490985,0.047532832549999994,0.001091,-0.086195,0.009252,0.09236883635,-3.4918538655,-9.163431826499998,0.01008,0.36406,1.4563,1.0000000000010001e-05,-1.999999999990898e-05,-5.0000000000105516e-05,-1.1372416391375317e-05,6.558397591649445e-05,-0.0005856356331300772
149610000000.0,2,0.057211996099999995,0.0477583855,0.04489484369999999,-0.015999,-0.090311,0.006026,0.08479810254999999,-3.4902848014999996,-9.164118292,0.009252,0.36389,1.4563,9.999999999998899e-05,-2.0000000000131024e-05,-9.999999999998899e-05,0.00019820016592081435,0.0003668989136873524,-0.00046332202800242195
149610000000.0,2,0.01915238745,0.029086523899999998,0.09217270334999998,-0.038348,-0.082669,0.007041,0.0770606557,-3.4873428064999996,-9.165295089999999,0.008408,0.36357,1.4564,7.999999999996898e-05,-1.999999999990898e-05,-9.999999999998899e-05,0.0007718239602643728,0.000779114072158249,2.7015183371642548e-05
149610000000.0,2,0.010571568699999999,0.02299659425,0.08028704354999999,-0.060557,-0.054785,0.01229,0.07112763244999999,-3.482145282,-9.167354486499999,0.007759,0.363,1.4565,3.0000000000030003e-05,-3.333333333332966e-05,-5.0000000000105516e-05,0.00038472179902965253,7.684794776618986e-05,0.00033511188021187466
149610000000.0,2,-0.0187503148,0.01979962635,0.05727083599999999,-0.069845,-0.012091,0.017536,0.06812679754999999,-3.4758690259999994,-9.1697080825,0.00743,0.36231,1.4567,1.999999999996449e-05,-3.333333333332966e-05,-4.999999999988347e-05,0.0007162936234779704,-8.593086674224537e-06,0.0005220608859277109
149610000000.0,2,-0.05715315619999999,0.024663724749999998,0.0752954587,-0.072723,0.031615,0.022792,0.06837196379999999,-3.4692985704999995,-9.1722578115,0.007455,0.3616,1.457,-1.999999999996449e-05,-3.333333333332966e-05,-0.0003500000000000725,0.0006203792195864644,0.0001574248115585597,0.0012868783690962726
149610000000.0,2,-0.07239269029999999,0.02189824945,0.0474445727,-0.083133,0.064731,0.023785,0.0716473849,-3.4617474499999994,-9.1750036735,0.007809,0.36078,1.4573,-0.00018000000000001348,0.000400000000000178,-0.00034999999999985043,-0.0028402100519588913,0.006138714757455199,0.004612381691706302
149610000000.0,2,-0.04916073645,-0.0034715540999999996,-0.02689964095,-0.080847,0.081764,0.020557,0.0774333084,-3.4540982629999997,-9.1779456685,0.008437,0.35994,1.4576,0.00031999999999998696,-0.000400000000000178,0.0004999999999999449,0.004500914013937041,-0.006371308842811896,-0.003219857731301956
149610000000.0,2,-0.012650578499999999,-0.01897586775,-0.0151218543,-0.073373,0.081703,0.019503,0.08432738335000001,-3.447233608,-9.180397331,0.009185,0.35919,1.4578,-9.999999999998899e-05,4.999999999988347e-05,-9.999999999998899e-05,0.0008967498556872733,-0.0012242407076847872,0.000479052000574659
149610000000.0,2,0.0253403836,-0.0102185293,-0.03611789195,-0.055444,0.057045,0.021712,0.09003485365,-3.4416438174999997,-9.1824567275,0.009804,0.35858,1.458,9.999999999998899e-05,5.0000000000105516e-05,5.0000000000105516e-05,0.0012594294457737853,-0.0005217850492538201,0.000303349240153572
149610000000.0,2,0.07992419749999999,-0.020947004399999997,-0.08007129724999999,-0.029065,0.024855,0.029285,0.09350640774999999,-3.43821149,-9.183731591999999,0.010182,0.35821,1.4582,4.0000000000040004e-05,3.333333333332966e-05,4.999999999988347e-05,-0.0009514974563170076,0.0007258731851358391,0.0007340038137870208
149610000000.0,2,0.08820101009999999,-0.014866881399999999,-0.0572904493,0.001587,-0.005241,0.038996,0.0939084804,-3.4377211574999995,-9.1838296585,0.010225,0.35816,1.4585,4.999999999999449e-05,3.333333333332966e-05,4.999999999988347e-05,0.00010190820866434747,0.0005333662578252962,0.00048246693334555446
149610000000.0,2,0.09099590535,-0.0049915848499999995,-0.05976172509999999,0.017414,-0.024554,0.043325,0.0921628967,-3.438799889,-9.183535459,0.010035,0.35827,1.4589,6.0000000000004494e-05,3.333333333332966e-05,5.0000000000105516e-05,-0.0006680259790168841,0.0004532046932190781,3.820902685944261e-05
149610000000.0,2,0.05665301705,0.0030792880999999995,-0.07934560514999998,0.022725,-0.032048,0.035874,0.08879921575,-3.440368953,-9.18294706,0.009669,0.35845,1.4593,-1.0000000000010001e-05,3.333333333332966e-05,9.999999999998899e-05,-0.000989732727160908,0.00011941036200679989,1.377571974420233e-05
149610000000.0,2,0.023330020349999998,0.0016082905999999998,-0.0879656505,0.02076,-0.018166,0.024104,0.08621026015,-3.441938017,-9.182358660999999,0.009388,0.35862,1.4596,-1.0000000000010001e-05,3.333333333332966e-05,9.999999999998899e-05,-0.0004731524478474025,-8.942589368565734e-05,0.00039856702120810716
149610000000.0,2,-0.0114149406,0.0018632635,-0.06622430745,0.008173,-0.000997,0.008041,0.08504326879999999,-3.4426244824999994,-9.182162528,0.009261,0.35869,1.4597,-4.999999999999449e-05,3.333333333355171e-05,9.999999999998899e-05,0.0003997755010899384,-0.00030390571877725314,-7.32319903000711e-05
149610000000.0,2,-0.0378928956,-0.007247114349999999,-0.0637236117,-0.002337,0.00976,-0.006939,0.08518056189999999,-3.442330283,-9.182260594499999,0.009277,0.35866,1.4597,2.0000000000020002e-05,3.333333333332966e-05,9.999999999998899e-05,0.0002272391049193967,-0.0010128075520401403,-0.00024230589719720363
149610000000.0,2,-0.0380694153,-0.0373044966,-0.06873480985,-0.015072,0.016261,-0.010174,0.08624948675,-3.441349618,-9.1826528605,0.009392,0.35855,1.4596,-4.0000000000040004e-05,3.333333333332966e-05,5.0000000000105516e-05,0.0002321739548771795,-0.00023685823145802587,0.00022712738007701905
149610000000.0,2,-0.044198571549999996,-0.04317867994999999,-0.06853867685,-0.017149,0.025862,-0.005924,0.08804410369999999,-3.4399766869999997,-9.183143193,0.009587,0.3584,1.4596,3.0000000000030003e-05,3.333333333332966e-05,4.999999999988347e-05,-3.154588601705921e-05,-0.0005815706054395076,-0.0002729390678370136
149610000000.0,2,-0.05641765745,-0.025409030149999998,-0.025114830649999996,-0.009558,0.0471,0.003659,0.09097629205,-3.4389960219999995,-9.1834373925,0.009907,0.3583,1.4596,-3.0000000000030003e-05,9.999999999998899e-05,9.999999999998899e-05,0.00047611989938040056,-0.00042950624284343597,0.0008208235432812516
149610000000.0,2,-0.065312289,-0.014043122799999998,0.00834545915,0.006475,0.058674,0.016477,0.09464397914999999,-3.4394863544999996,-9.183241259499999,0.010305,0.35835,1.4598,-7.999999999996898e-05,4.999999999988347e-05,9.999999999998899e-05,0.00032975201810503396,-0.00057666073413154,0.0004229868207143994
149610000000.0,2,-0.09648762934999999,0.0111991943,0.044620257499999996,0.020357,0.062815,0.020765,0.09798804679999999,-3.4411534849999996,-9.182554794,0.01067,0.35854,1.4601,-0.00032999999999999696,5.0000000000105516e-05,0.00019999999999997797,0.0018459820472758737,-0.0015125881603965663,0.0007860094940080331
149610000000.0,2,-0.09094687209999999,0.01809326925,0.05755522885,0.022473,0.053216,0.009046,0.10127327454999999,-3.4433109479999997,-9.1816721955,0.011029,0.35877,1.4603,-0.0001000000000000445,5.0000000000105516e-05,9.999999999998899e-05,9.582281675546422e-05,-0.0002993151214196743,0.000178215358660333
149610000000.0,2,-0.07681548945,0.014719781649999998,0.036519964599999996,0.023486,0.035109,-0.009065,0.10374455034999999,-3.445468411,-9.180887663499998,0.0113,0.359,1.4603,-4.999999999999449e-05,4.999999999988347e-05,5.0000000000105516e-05,-7.794964093194023e-05,-0.0008688689034856978,-4.189821417924233e-05
149610000000.0,2,-0.07304973584999999,0.00446202575,0.030528101449999998,0.030922,0.019081,-0.028235,0.10537245424999998,-3.4482142729999996,-9.179808932,0.011478,0.3593,1.4601,-0.00010999999999999899,4.999999999988347e-05,4.999999999988347e-05,-0.0007735751462390472,-0.0004995263427616248,-4.102893367580185e-06
149610000000.0,2,-0.054976079899999995,-0.0075315072,0.06677347985,0.051247,0.018923,-0.038873,0.10750049729999998,-3.4528233985,-9.178043735,0.011712,0.3598,1.4597,-6.999999999995898e-05,5.0000000000105516e-05,9.999999999998899e-05,0.00021907305686008627,-0.00018620105443933888,0.00012673063364290749
149610000000.0,2,-0.0446006442,-0.01925045395,0.14626618474999997,0.06618,0.018798,-0.037778,0.1099913864,-3.45978612,-9.1753959395,0.011987,0.36057,1.4593,-0.0001000000000000445,-3.333333333332966e-05,0.00010000000000021103,-0.0009543735235200135,-0.0005068422051144328,8.995560896329913e-05
149610000000.0,2,0.005021004799999999,-0.05610384465,0.18129553855,0.068294,0.017713,-0.034569,0.11304125455,-3.468023706,-9.1722578115,0.012324,0.36146,1.4589,-7.999999999996898e-05,-3.333333333332966e-05,9.999999999998899e-05,-0.000503619979613068,-7.530757022222723e-05,0.00013371603194795023
149610000000.0,2,0.05212234475,-0.10210683979999999,0.18437482664999996,0.047929,0.007224,-0.031384,0.11607150939999998,-3.4755748265,-9.169413882999999,0.012658,0.36228,1.4585,-9.00000000000345e-05,-3.333333333332966e-05,9.999999999998899e-05,-0.000870536104218389,-3.0842207050518766e-05,-0.00024775446676850166
149610000000.0,2,0.11184484324999999,-0.15271896045,0.16817424085,0.005109,-0.011599,-0.031426,0.11844471869999999,-3.4803800849999997,-9.1675506195,0.01292,0.3628,1.4581,-7.999999999996898e-05,-4.999999999988347e-05,2.4999999999941735e-05,0.0005407332399646747,0.0001613917854890179,-0.0003558714622876047
149610000000.0,2,0.13883274404999998,-0.16601677785,0.1002828029,-0.034449,-0.024053,-0.033609,0.12003339599999999,-3.480968484,-9.16725642,0.013093,0.36287,1.4577,-7.00000000000145e-05,-5.0000000000105516e-05,2.500000000016378e-05,9.074951494675298e-05,7.523367929462843e-05,-9.203298085902478e-06
149610000000.0,2,0.10224413289999999,-0.13434129835,0.06986257459999999,-0.054632,-0.014291,-0.03473,0.12131806715,-3.4787129544999997,-9.1681390185,0.013231,0.36262,1.4572,-4.999999999999449e-05,-9.999999999998899e-05,2.4999999999941735e-05,0.000423599895292448,-0.000300135922181477,-0.00023367347297625907
149610000000.0,2,0.028311798549999996,-0.0848667491,0.08732821824999999,-0.056575,0.007042,-0.037973,0.12326959049999998,-3.4751825605,-9.169413882999999,0.013443,0.36224,1.4568,-8.999999999997899e-05,-9.999999999998899e-05,2.4999999999941735e-05,-0.00024972838098108463,-0.0002621362000689853,-0.000382823190565984
149610000000.0,2,-0.004501252349999999,-0.053828701849999994,0.06716574585,-0.045769,0.025067,-0.03585,0.126309652,-3.471750233,-9.1706887475,0.013772,0.36187,1.4565,-8.00000000000245e-05,-0.00010000000000021103,9.999999999998899e-05,-0.0003379631340743594,-0.000791611755817101,3.168204964307253e-05
149610000000.0,2,-0.0196133,-0.027174227149999997,0.0618015083,-0.020113,0.03444,-0.030485,0.13020289205,-3.4699850359999997,-9.1712771465,0.014196,0.36168,1.4561,-7.999999999996898e-05,-9.999999999998899e-05,9.999999999998899e-05,-0.0004771843963050082,6.204200663595394e-05,0.000319422638713901
149610000000.0,2,-0.0336760361,-0.0028341218499999994,0.08161094129999999,8.4e-05,0.028938,-0.024035,0.1334881198,-3.4700831025,-9.17117908,0.014554,0.36169,1.4559,-5.0000000000050004e-05,-4.999999999988347e-05,9.999999999998899e-05,-0.00031164191267690766,-0.00026190721894958635,2.8256817204419526e-06
149610000000.0,2,-0.009532063799999999,0.01038524235,0.025909169299999996,0.012749,0.009656,-0.027181,0.1356848094,-3.4708676345,-9.1708848805,0.014794,0.36177,1.4556,-3.999999999998449e-05,-5.0000000000105516e-05,5.0000000000105516e-05,0.00023280412397036487,-4.9789148299117514e-05,0.0001428341990489801
149610000000.0,2,0.02503637745,-0.00195152335,-0.02246703515,0.027685,0.004215,-0.035685,0.13777362585,-3.4729270309999998,-9.1701003485,0.015023,0.362,1.4552,-4.999999999999449e-05,-3.333333333332966e-05,4.999999999988347e-05,-0.0004524132920661894,0.00023178157766268193,0.00015760171570006198
149610000000.0,2,0.0381086419,-0.01013026945,0.05108283985,0.038373,0.003068,-0.041002,0.1402547083,-3.4765554914999997,-9.168629351,0.015296,0.36239,1.4548,-2.999999999997449e-05,-3.333333333332966e-05,4.999999999988347e-05,0.0006064948649854296,0.0004219443812443213,0.0002734595400266937
149610000000.0,2,0.05757484215,-0.00022555294999999998,0.0933396947,0.039432,-0.000132,-0.044198,0.1429417304,-3.4806742845,-9.167060287,0.015592,0.36284,1.4543,-4.0000000000040004e-05,-3.333333333332966e-05,5.0000000000105516e-05,0.0007274987139839206,-0.0002819680151933124,-0.0005572800653589338
149610000000.0,2,0.11493393799999999,-0.022261095499999998,0.1023421994,0.034007,-0.009677,-0.040991,0.14572681899999998,-3.4847930775,-9.1653931565,0.015899,0.36329,1.4537,-1.999999999996449e-05,-3.333333333332966e-05,-6.666666666710341e-06,-0.0006961755550059512,-0.0007769293583752557,-0.0009709345973996919
149610000000.0,2,0.14124517995,-0.052200797949999996,0.10504883479999999,0.018931,-0.020216,-0.029259,0.1477077623,-3.488225405,-9.164118292,0.016117,0.36366,1.4533,-2.0000000000020002e-05,-3.333333333332966e-05,-6.666666666710341e-06,0.00033341467793429613,4.027661090533208e-05,-8.156261851904878e-05
149610000000.0,2,0.1483157746,-0.06787182465,0.11355120035,-0.003529,-0.022166,-0.020758,0.14901204675,-3.4901867349999995,-9.163333759999999,0.01626,0.36388,1.4529,1.0000000000010001e-05,-3.333333333332966e-05,-6.666666666488297e-06,0.0007781492056994632,0.00018565150641514094,-7.294461588108758e-05
149610000000.0,2,0.12953603985,-0.08697517885,0.09200599029999999,-0.025814,-0.004932,-0.01656,0.15087531024999998,-3.4900886684999994,-9.163333759999999,0.016464,0.36387,1.4527,-2.0000000000020002e-05,-3.333333333332966e-05,-6.666666666710341e-06,-0.0003010651019496047,-0.0002195659743782219,0.0003042425585099151
149610000000.0,2,0.10550974734999999,-0.06688135299999999,0.08644561975,-0.029842,0.023878,-0.017687,0.15485681015,-3.488813804,-9.163726025999999,0.016898,0.36373,1.4524,1.0000000000010001e-05,-3.333333333332966e-05,-6.666666666710341e-06,0.0009647451225316961,-0.0003329136142844469,-3.291980639333336e-05
149610000000.0,2,0.06993122115,-0.022712201399999996,0.10674538525,-0.030736,0.0452,-0.017727,0.1605152472,-3.4867544074999994,-9.164412491499998,0.017513,0.3635,1.4522,-2.999999999997449e-05,-3.333333333332966e-05,-6.666666666710341e-06,0.0007990077001839291,-0.0006738809254016598,0.0001656591309018851
149610000000.0,2,0.05585867839999999,0.00909076455,0.05327952945,-0.022129,0.051529,-0.021994,0.1669484096,-3.4845969445,-9.1651970235,0.018213,0.36326,1.4519,4.999999999999449e-05,-2.4999999999941735e-05,-6.666666666710341e-06,0.0001929388411567312,-0.00030500445044867597,0.0002729495724655695
149610000000.0,2,0.08237586,0.0362453784,0.023771319599999997,-0.005079,0.045004,-0.02836,0.1736561582,-3.4831259469999996,-9.1655892895,0.018944,0.36311,1.4516,2.999999999997449e-05,-2.4999999999941735e-05,-6.666666666488297e-06,-0.0006565180923569502,-0.0008125101360390019,-0.00039776847276534744
149610000000.0,2,0.09586981039999999,0.054574007249999994,0.05406406144999999,0.008656,0.028908,-0.027243,0.17931459525,-3.4831259469999996,-9.165491223,0.019561,0.3631,1.4512,-1.0000000000010001e-05,-2.500000000016378e-05,-6.666666666710341e-06,0.00014615398683953673,-2.469424274575971e-05,-0.0001305990392407863
149610000000.0,2,0.1024402659,0.05458381389999999,0.046650234049999996,0.021289,0.006432,-0.02932,0.18336474169999997,-3.484302745,-9.1650008905,0.020004,0.36323,1.4508,2.0000000000020002e-05,-2.4999999999941735e-05,-6.666666666710341e-06,0.0003812138201747528,-0.00012559263695610667,-0.00016518711527047092
149610000000.0,2,0.1167972015,0.04470851735,0.04264912084999999,0.018969,-0.018052,-0.031419,0.1854633648,-3.4856756759999996,-9.164412491499998,0.020235,0.36338,1.4504,4.999999999999449e-05,9.999999999998899e-05,-6.666666666710341e-06,-2.938732530538557e-05,0.0001429514155146805,-0.00035161100106415044
149610000000.0,2,0.12094541445,0.030361388399999995,0.0166320784,0.003921,-0.031778,-0.031424,0.18596350395,-3.4859698755,-9.164314424999999,0.020289,0.36341,1.45,6.0000000000004494e-05,-9.999999999998899e-05,-6.666666666710341e-06,0.00014463092721700432,4.296033428530244e-05,-0.0004596336460218897
149610000000.0,2,0.10465656879999999,0.02650737495,0.00730595425,-0.01626,-0.020951,-0.032548,0.18639499655,-3.484498878,-9.164804757499999,0.020335,0.36325,1.4496,6.0000000000004494e-05,3.333333333332966e-05,-6.666666666488297e-06,0.0006415068170008142,0.00029979578825112263,0.0005908876641871341
149610000000.0,2,0.07007832089999999,0.0087279185,0.01803442935,-0.035134,0.019701,-0.033721,0.18954293120000001,-3.4816549494999998,-9.165883489,0.020676,0.36295,1.4492,2.999999999997449e-05,3.333333333332966e-05,-6.666666666710341e-06,0.00013378997934548886,-0.0008357420892681766,4.944495430397877e-05
149610000000.0,2,0.017995202749999998,0.007727640199999999,0.05514279295,-0.052877,0.065674,-0.03917,0.196133,-3.4773400235,-9.167354486499999,0.021392,0.36248,1.4488,4.0000000000040004e-05,3.333333333332966e-05,-6.666666666710341e-06,0.00034082004145402633,-0.0014444004456701798,-0.00017320026483508277
149610000000.0,2,-0.01215043935,0.009934136449999999,0.04754263919999999,-0.060036,0.10303,-0.041383,0.20622404284999998,-3.471946366,-9.1691196835,0.022488,0.36189,1.4484,0.00012999999999996348,9.999999999998899e-05,-9.999999999998899e-05,0.00011183207551679342,-0.0014742236286851007,-5.6436514536017945e-05
149610000000.0,2,-0.0012160246,-0.014974754549999999,0.0441887649,-0.062083,0.11583,-0.038207,0.21818815585,-3.4666507749999997,-9.1708848805,0.023787,0.36131,1.4479,4.0000000000040004e-05,-0.00019999999999997797,9.999999999998899e-05,0.0008466729749306845,-8.365637812213222e-05,0.0008561749163825683
149610000000.0,2,0.056584370499999995,-0.0449536836,0.02164327655,-0.059085,0.095555,-0.029628,0.22967174299999998,-3.4618455164999995,-9.172453944499999,0.025034,0.36078,1.4476,8.999999999997899e-05,9.999999999998899e-05,2.4999999999941735e-05,0.0005043473456474712,-0.0008070422310040293,1.5569949488619672e-05
149610000000.0,2,0.09017214675,-0.05214195804999999,-0.028664837949999997,-0.045599,0.056006,-0.01566,0.23797797555,-3.4577267235,-9.173728808999998,0.025936,0.36034,1.4473,7.00000000000145e-05,4.999999999988347e-05,2.4999999999941735e-05,2.5161585600563807e-05,-0.00039575492902987897,-0.00012804876956487576
149610000000.0,2,0.09995918345,-0.034313468349999994,-0.041560582699999994,-0.020353,0.017428,-0.004876,0.24241058135,-3.4555692605,-9.174513340999999,0.026416,0.3601,1.4472,7.999999999996898e-05,5.0000000000105516e-05,2.500000000016378e-05,-2.630423830068951e-05,0.00012592962258528573,-0.00025037603122141094
149610000000.0,2,0.08876979579999998,-9.806649999999999e-06,-0.019338713799999997,0.011301,-0.025456,-0.002613,0.2426753609,-3.4557653934999997,-9.1744152745,0.026445,0.36012,1.4471,7.00000000000145e-05,5.0000000000105516e-05,2.4999999999941735e-05,0.0006853742657086381,0.00046926493483701037,-0.00032881911769971905
149610000000.0,2,0.0733341287,0.020407638649999997,-0.030008348999999997,0.036699,-0.053366,-0.005724,0.2397137526,-3.458020923,-9.1736307425,0.026125,0.36037,1.447,8.00000000000245e-05,4.999999999988347e-05,3.333333333332966e-05,-0.001301753209890899,-1.2139592836524216e-05,-0.0005858221547718756
149610000000.0,2,0.0042855060499999995,0.0322050386,-0.04439470455,0.056877,-0.069508,-0.013133,0.23408473549999997,-3.4620416494999997,-9.1722578115,0.025516,0.36081,1.4468,3.999999999998449e-05,9.999999999998899e-05,3.333333333332966e-05,-0.0008328618191709714,-0.0005096904863040042,-0.0008673161977659216
149610000000.0,2,-0.02864522465,0.03092036745,-0.010542148749999999,0.065463,-0.066378,-0.01846,0.22796538589999998,-3.4675333735,-9.1702964815,0.024854,0.3614,1.4467,3.999999999998449e-05,6.666666666665932e-05,3.333333333332966e-05,-0.0011499091120923954,0.0007483858704795399,0.00013222391912134923
149610000000.0,2,-0.06905842929999999,0.01928968055,-0.01069905515,0.056006,-0.051379,-0.023839,0.22243443529999998,-3.4726328314999995,-9.1685312845,0.024256,0.36196,1.4465,6.0000000000004494e-05,6.666666666665932e-05,9.999999999998899e-05,-4.916460261050748e-05,0.00019660585279801523,-0.00025129828526107567
149610000000.0,2,-0.1272510904,0.011944499699999998,-0.0379517355,0.036078,-0.014977,-0.034609,0.21898249449999999,-3.4760651589999996,-9.167354486499999,0.023883,0.36234,1.4462,2.0000000000020002e-05,6.666666666665932e-05,5.0000000000105516e-05,-0.00011130944743298343,0.00012343230315892129,0.0005674010433462662
149610000000.0,2,-0.1476293091,-0.01144436055,-0.0502688879,0.019418,0.033113,-0.040057,0.21975721984999996,-3.4781245554999995,-9.166471888,0.023969,0.36256,1.4459,1.999999999996449e-05,5.0000000000105516e-05,4.999999999988347e-05,-0.0011618335732531127,-0.0005345672949901292,0.00045744552028290086
149610000000.0,2,-0.1599660748,-0.042806027249999996,-0.03478418755,0.004796,0.073719,-0.038015,0.22416040569999998,-3.479203287,-9.1659815555,0.02445,0.36268,1.4456,0.00012000000000000899,5.0000000000105516e-05,4.999999999988347e-05,-0.0005062609899044168,-0.0007379506359277421,-0.000481607386695726
149610000000.0,2,-0.14276521069999998,-0.0668028998,-0.04504194345,-0.002541,0.091887,-0.034854,0.2312015804,-3.4797916859999996,-9.1655892895,0.02522,0.36274,1.4453,-8.999999999997899e-05,-0.00010000000000021103,5.0000000000105516e-05,0.0013446297490670722,-0.0016841477765294766,9.901018829377994e-05
149610000000.0,2,-0.0725888233,-0.08210127379999999,-0.0365003513,0.002684,0.08118,-0.029487,0.2389880605,-3.4807723509999997,-9.1650008905,0.02607,0.36285,1.445,1.0000000000010001e-05,0.00010000000000021103,9.999999999998899e-05,-0.0001393032757537327,-0.00021559287672823224,0.0007569948168155705
149610000000.0,2,0.0023830159499999997,-0.06436104395,-0.025105024,0.016272,0.049095,-0.02407,0.2452643165,-3.4826356145,-9.164118292,0.026757,0.36305,1.4447,9.99999999995449e-06,9.999999999998899e-05,9.999999999998899e-05,0.0018934863581000494,0.000717471405054404,0.0004612198565325798
149610000000.0,2,0.051023999949999996,-0.0547995602,-0.016867438,0.032973,0.005266,-0.019694,0.24839263785,-3.4859698755,-9.1628434275,0.027103,0.36341,1.4444,7.00000000000145e-05,9.999999999998899e-05,5.0000000000105516e-05,0.0005370477639838889,0.0007135346355253702,0.00024119597915939206
149610000000.0,2,0.06636160055,-0.0376771493,0.006325289249999999,0.043307,-0.039568,-0.023868,0.24757868589999998,-3.4902848014999996,-9.161176296999999,0.027019,0.36389,1.4442,-1.999999999996449e-05,5.0000000000105516e-05,4.999999999988347e-05,-0.00044550194491627115,0.0004870523265401161,-0.00024240096200439654
149610000000.0,2,0.06004611795,0.00114737805,0.0052171378,0.044178,-0.069401,-0.032354,0.24371486579999999,-3.494305528,-9.1597052995,0.026601,0.36433,1.4438,4.999999999999449e-05,4.999999999988347e-05,0.00019999999999997797,-0.0011488383814228231,0.0010146612929442522,-0.00022112000908131035
149610000000.0,2,0.0137685366,0.020593965,-0.019309293849999996,0.042118,-0.064049,-0.038772,0.2389684472,-3.4977378554999996,-9.1585285015,0.026086,0.3647,1.4433,-7.00000000000145e-05,-6.666666666665932e-05,9.999999999998899e-05,0.00011747181289578634,0.0007623927351989579,-0.0003341445563680434
149610000000.0,2,-0.053691408749999996,0.028772711099999997,0.0091790244,0.03909,-0.041649,-0.037749,0.23490849409999998,-3.5009740499999995,-9.15744977,0.025646,0.36505,1.443,1.0000000000010001e-05,-6.666666666665932e-05,9.999999999998899e-05,-0.0008702520133649916,-0.0005652582310007315,-0.0005596394831186569
149610000000.0,2,-0.11988629625,0.038363614799999994,0.02797837245,0.027623,-0.008524,-0.038892,0.2327118045,-3.5032295794999997,-9.156567171499999,0.025409,0.3653,1.4426,-0.00010999999999999899,-6.666666666665932e-05,0.00020000000000020002,-0.00104723680190566,-0.0007895427845310277,-0.001345939970256227
149610000000.0,2,-0.13049709155,0.02038802535,0.0028635417999999997,0.011929,0.031027,-0.037919,0.23389840915,-3.5042102444999994,-9.156174905499999,0.02554,0.36541,1.4423,-4.999999999999449e-05,2.4999999999941735e-05,0.00019999999999997797,-0.0005778093586599753,-0.0008720395818582194,-0.00015694825261874934
149610000000.0,2,-0.11056997874999999,-0.0049229383,-0.0016377105499999999,-0.001702,0.064164,-0.032662,0.2383604349,-3.5044063774999996,-9.156076839,0.026028,0.36543,1.442,-3.0000000000030003e-05,2.4999999999941735e-05,9.999999999998899e-05,-1.6268195008217745e-05,-0.0010926306443548306,6.4967944242155795e-06
149610000000.0,2,-0.0947518523,-0.015474893699999999,0.0077472535,-0.000535,0.078002,-0.030547,0.24469553079999998,-3.5044063774999996,-9.155880706,0.026719,0.36543,1.4417,-8.999999999997899e-05,2.500000000016378e-05,9.999999999998899e-05,-0.00017847359435135823,-0.0007342767438058839,3.096588587775395e-05
149610000000.0,2,-0.05908506625,0.00783551335,0.028125472199999998,0.009064,0.076856,-0.031595,0.25196225845,-3.5049947765,-9.1553903735,0.027514,0.3655,1.4414,-4.999999999999449e-05,2.4999999999941735e-05,9.999999999998899e-05,0.0003248929588193783,-0.0002711236947590123,0.00027105903868859804
149610000000.0,2,-0.00214765635,0.033744682649999996,0.05288726345,0.025979,0.055408,-0.03473,0.2587778802,-3.506661907,-9.154605841499999,0.02826,0.36568,1.441,-0.000150000000000039,-9.999999999998899e-05,0.00019999999999997797,-0.0006475068757745839,0.0005694684781840653,0.0007647593040258915
149610000000.0,2,0.04270796075,0.04617951484999999,0.05680992345,0.036343,0.018027,-0.03358,0.26329874585,-3.509407769,-9.1534290435,0.028757,0.36597,1.4406,-4.999999999999449e-05,4.999999999988347e-05,9.999999999998899e-05,-0.001435970398550368,-0.0004543191228965071,-0.00045007245561712317
149610000000.0,2,0.07153951174999999,0.04310022674999999,0.0548780134,0.041365,-0.018246,-0.029239,0.2647010968,-3.51274203,-9.1520561125,0.028914,0.36634,1.4403,-6.0000000000004494e-05,5.0000000000105516e-05,5.0000000000105516e-05,-0.0006458424121114636,4.55101965313176e-06,0.0002860628089823847
149610000000.0,2,0.0637236117,0.012248505849999999,0.056133264599999996,0.041124,-0.043824,-0.021724,0.26308299955,-3.5166646899999994,-9.1506831815,0.028743,0.36676,1.4399,-6.0000000000004494e-05,9.999999999998899e-05,4.999999999988347e-05,-0.00026374722283134533,0.00029367094123733395,-0.0002448606823387822
149610000000.0,2,0.0328915041,-0.009237864299999999,0.07310857574999999,0.035757,-0.048041,-0.021726,0.25994487154999996,-3.5205873499999996,-9.149212184,0.028404,0.36719,1.4397,-6.999999999995898e-05,2.4999999999941735e-05,9.999999999998899e-05,-1.654407705287131e-05,-0.00018074477703833303,-0.0005396966514427115
149610000000.0,2,-0.02397725925,-0.006982334799999999,0.0847490693,0.023155,-0.027684,-0.029255,0.2574049492,-3.523529345,-9.1481334525,0.02813,0.36752,1.4394,-7.00000000000145e-05,2.4999999999941735e-05,9.999999999998899e-05,-0.0001760222528161548,-0.0005492323935440968,-0.0005527999254545113
149610000000.0,2,-0.03070462115,-0.02001537265,0.07866894629999999,0.00848,0.00015,-0.0368,0.2575618556,-3.5253926084999994,-9.147446987,0.028149,0.36772,1.439,-6.0000000000004494e-05,2.500000000016378e-05,9.999999999998899e-05,-0.0001576663963672731,-0.0005161032319547232,-0.0002476044288041712
149610000000.0,2,-0.04492426365,-0.0414036763,0.08144422825,-0.002055,0.017284,-0.03578,0.25935647255,-3.5265694064999997,-9.146956654499999,0.028347,0.36785,1.4387,-6.0000000000004494e-05,2.4999999999941735e-05,9.999999999998899e-05,0.0005501030009363861,-7.215795809889514e-05,0.0001487786125043411
149610000000.0,2,-0.056790310149999995,-0.050916126799999996,0.0629194664,-0.006238,0.026908,-0.03687,0.26210233455,-3.527059739,-9.146662455,0.028647,0.3679,1.4383,-3.999999999998449e-05,3.333333333332966e-05,4.999999999988347e-05,0.00018668101417307348,-0.00012089142036786349,9.092584467176867e-05
149610000000.0,2,-0.03066539455,-0.045296916349999994,0.04651294095,-0.003053,0.027942,-0.031528,0.2654464022,-3.527452005,-9.146466321999998,0.029013,0.36795,1.438,-7.00000000000145e-05,3.333333333332966e-05,5.0000000000105516e-05,-6.10204364137612e-06,-0.00029769769650633826,5.467873499542808e-05
149610000000.0,2,-0.01230734575,-0.0074040207499999995,0.0591733261,6e-05,0.016195,-0.032569,0.26818245755,-3.5277462044999996,-9.1461721225,0.029314,0.36798,1.4376,-3.999999999998449e-05,3.333333333332966e-05,9.999999999998899e-05,-0.0009387053990729255,-0.00018854698293435668,-0.0002024663270908389
149610000000.0,2,-0.0071000146,0.0157494799,0.0346370878,0.005258,-0.000897,-0.03253,0.2695651952,-3.528040404,-9.146074056,0.029465,0.36801,1.4373,-3.999999999998449e-05,4.999999999988347e-05,4.999999999988347e-05,1.763688328604296e-06,0.0003510849817995876,0.00021370717468535694
149610000000.0,2,0.0202213123,0.00784532,0.026046462399999998,0.012569,-0.018011,-0.028218,0.26963384175,-3.5289230025,-9.14568179,0.029473,0.36811,1.437,-2.0000000000020002e-05,5.0000000000105516e-05,5.0000000000105516e-05,-2.2110909534189815e-05,-6.784072466659019e-05,-0.00045145510946428824
149610000000.0,2,0.02750765325,-0.00030400615,0.03686319735,0.026295,-0.03411,-0.024964,0.2681726509,-3.5312765985,-9.144897258,0.029317,0.36837,1.4367,-4.999999999999449e-05,1.1111111111183902e-05,5.0000000000105516e-05,-0.00025451698742257056,0.000521111279904396,0.0001249722785106322
149610000000.0,2,0.03902066035,-0.0024320492,0.0816501679,0.034733,-0.043773,-0.020663,0.26578963494999996,-3.5348069924999996,-9.143524327,0.029061,0.36876,1.4364,-4.999999999999449e-05,1.1111111110961858e-05,4.999999999988347e-05,-0.0004421439320480558,9.88125614187485e-05,-0.0003691064233497243
149610000000.0,2,0.046679654,-0.02303582085,0.11080533834999999,0.038954,-0.045944,-0.014249,0.2629162865,-3.539416118,-9.1418571965,0.028752,0.36925,1.4362,-4.0000000000040004e-05,1.1111111111183902e-05,9.999999999998899e-05,-0.00038103011301288126,0.00022274093867014066,-0.00010381333216016864
149610000000.0,2,0.0387951074,-0.03486264075,0.13812666525,0.034679,-0.045909,-0.012122,0.25988603164999996,-3.5440252434999997,-9.140190065999999,0.028426,0.36976,1.436,-6.999999999995898e-05,1.1111111111183902e-05,3.333333333332966e-05,6.766636652316693e-05,-0.00022821952253448963,-0.0006264964753095736
149610000000.0,2,0.0253403836,-0.05237731765,0.1475508559,0.012379,-0.037193,-0.01858,0.25732649599999996,-3.5472614379999996,-9.139013268,0.028149,0.37012,1.4358,-4.0000000000040004e-05,1.1111111110961858e-05,3.333333333332966e-05,0.00028337311804688126,0.0006293192073623111,0.00018951298712224784
149610000000.0,2,0.0179657828,-0.06198783465,0.0910645519,-0.008781,-0.01996,-0.026119,0.25631641104999997,-3.5483401695,-9.138621002,0.028041,0.37023,1.4355,-3.999999999998449e-05,1.1111111111183902e-05,3.333333333332966e-05,-0.00011488898701800254,-7.025821068995519e-05,6.416462067346251e-05
149610000000.0,2,0.004903325,-0.0482879446,0.06400800455,-0.018187,0.003563,-0.027242,0.25725784944999996,-3.547849837,-9.138817134999998,0.028143,0.37017,1.4352,-3.500000000000725e-05,1.1111111111183902e-05,-9.999999999998899e-05,0.0011287155225929157,-0.0003923456576069295,-0.0001699937457870504
149610000000.0,2,-0.031302826799999996,-0.020848937899999996,0.10707881135,-0.019145,0.01955,-0.023002,0.25919956615,-3.5469672384999997,-9.139013268,0.028354,0.37008,1.435,-3.500000000000725e-05,1.1111111110961858e-05,9.999999999998899e-05,-0.00045521652246022226,-0.0002840254248521745,5.425261104252677e-07
149610000000.0,2,-0.0100812362,0.00295180165,0.10677480519999999,-0.022359,0.021701,-0.016606,0.26176890845,-3.5455943074999996,-9.1395036005,0.028634,0.36993,1.4348,-3.999999999998449e-05,1.1111111111183902e-05,-9.999999999998899e-05,0.0012880963077817609,0.0004544769221397349,0.0005000186225364023
149610000000.0,2,-6.864654999999999e-05,0.02042725195,0.057535615549999995,-0.026748,0.007882,-0.014455,0.26343603895,-3.5432407115,-9.140386199,0.028813,0.36967,1.4346,-7.00000000000145e-05,-9.999999999998899e-05,-2.4999999999941735e-05,-0.00038230603096856,-0.00011261940923978919,-0.0003231549612694451
149610000000.0,2,0.0214373369,0.01750487025,0.02609549565,-0.020458,-0.006022,-0.01442,0.26407347119999997,-3.5408871155,-9.1412687975,0.02888,0.36941,1.4345,-3.999999999998449e-05,9.999999999998899e-05,-2.500000000016378e-05,0.0003644551602399182,6.601718017673619e-05,0.00020659344246315436
149610000000.0,2,0.033117057049999996,0.019868272899999997,0.06322347254999999,-0.004587,-0.020008,-0.010099,0.26361255865,-3.5401025834999995,-9.141562997,0.028829,0.36933,1.4343,-7.00000000000145e-05,-9.999999999998899e-05,-2.4999999999941735e-05,-0.00019253408373470782,2.9604700301666398e-05,-0.00021622782560287712
149610000000.0,2,0.011336487399999998,0.03166567285,0.09560503085,-0.000397,-0.026442,-0.004743,0.26174929515,-3.5401025834999995,-9.141661063499999,0.028625,0.36933,1.4343,-3.999999999998449e-05,9.999999999998899e-05,-2.4999999999941735e-05,0.0006657773114535082,0.00016714865791689348,8.734911136148993e-05
149610000000.0,2,-0.00640374245,-0.00246146915,0.0409525704,0.001735,-0.025396,-0.002606,0.25929763265,-3.540396783,-9.141661063499999,0.028357,0.36936,1.4343,-7.00000000000145e-05,-4.999999999988347e-05,3.333333333332966e-05,0.00019943004532907427,0.0003504135543797027,5.59267780692041e-05
149610000000.0,2,-0.02266316815,-0.00779628675,0.04862137069999999,0.00608,-0.015842,-0.002615,0.25729707604999996,-3.5411813149999998,-9.141366864,0.028139,0.36945,1.4342,-4.999999999999449e-05,-5.0000000000105516e-05,3.333333333332966e-05,0.00010725108908909986,-3.001626315057848e-05,9.152553709818045e-05
149610000000.0,2,-0.022261095499999998,-0.012297539099999998,0.08438622324999999,0.012558,-0.008433,-0.005818,0.2562869911,-3.542750379,-9.140778465,0.028031,0.36962,1.4342,-7.00000000000145e-05,9.999999999998899e-05,3.333333333332966e-05,0.000719809934554283,0.0004680799045242434,-0.00016926426108093695
149610000000.0,2,-0.042756994,0.0115522337,0.10210683979999999,0.00402,-0.016876,-0.018626,0.2547963803,-3.5439271769999996,-9.140386199,0.027869,0.36974,1.4341,-9.999999999998899e-05,-2.4999999999941735e-05,-9.999999999998899e-05,0.00037138943146958203,0.00024501613121663546,-0.0004515199214759069
149610000000.0,2,-0.0518771785,0.014327515649999999,0.018583601749999998,-0.010875,-0.029512,-0.047448,0.2528350503,-3.542946512,-9.140778465,0.027653,0.36964,1.4337,-9.999999999998899e-05,-2.4999999999941735e-05,-4.999999999988347e-05,0.0006984495309296235,-3.111574814673723e-05,-0.0006178829996264235
149610000000.0,2,0.0007747253499999999,-0.0213981103,-0.04906266994999999,-0.01507,-0.028398,-0.060266,0.2521093582,-3.5414755144999996,-9.141366864,0.027572,0.36948,1.4331,-0.00013999999999997348,-2.500000000016378e-05,-5.0000000000105516e-05,0.0005445546425734138,-0.00031044739215313477,-0.0006172794730847642
149610000000.0,2,-0.03989345219999999,-0.027478233299999995,-0.0028439284999999996,-0.010721,-0.01778,-0.059209,0.25162883235,-3.540789049,-9.141661063499999,0.027519,0.3694,1.4324,-0.000160000000000049,-2.4999999999941735e-05,1.4285714285744433e-05,0.0009052895605404787,-0.0005010911642879812,-0.0008323285336391539
149610000000.0,2,-0.05084748025,-0.01748525695,0.04631680795,-0.006483,-0.010377,-0.041068,0.25136405279999996,-3.540592916,-9.14175913,0.027489,0.36938,1.432,-9.999999999998899e-05,-5.0000000000105516e-05,1.4285714285744433e-05,0.00028922821141108557,0.0001749120943792537,-0.00013955920376296227
149610000000.0,2,-0.014258869099999998,-0.02180018295,0.0118072066,-0.02146,-0.008135,-0.029356,0.25144250599999995,-3.5393180515,-9.142249462499999,0.027496,0.36924,1.4316,-0.00010999999999999899,-4.999999999988347e-05,1.4285714285744433e-05,0.0008847934312831152,-0.001099032914900322,-0.0009260176199954173
149610000000.0,2,-0.0149845612,-0.01615155255,-0.09431055305,-0.018202,0.002489,-0.024031,0.2520112917,-3.5369644554999997,-9.143132061,0.027556,0.36899,1.4314,-3.999999999998449e-05,9.999999999998899e-05,1.4285714285522388e-05,-0.0013794887672357037,0.0003323801779193669,0.0006229826012496831
149610000000.0,2,0.002157463,0.0033146476999999994,-0.06761685175,0.003286,0.022556,-0.021895,0.2544629542,-3.5362779899999994,-9.143328193999999,0.027824,0.36891,1.4312,-6.0000000000004494e-05,9.999999999998899e-05,1.4285714285744433e-05,0.00017337916678084042,-0.0004099385736791028,0.00058824945133229
149610000000.0,2,0.012444638849999998,0.0274978466,0.027429200049999998,0.032099,0.028704,-0.013317,0.25780702185,-3.5383373865,-9.1424455955,0.028191,0.36913,1.431,-0.00010999999999999899,-1.2499999999970868e-05,1.4285714285744433e-05,-0.0005117339251557995,-0.0003469639418642867,0.00014380681445605448
149610000000.0,2,0.02662505475,0.02529135035,0.08730860495,0.047942,0.012584,-0.006857,0.2602292644,-3.5426523125,-9.140680398499999,0.028461,0.36961,1.4308,-4.999999999999449e-05,-1.2499999999970868e-05,1.4285714285744433e-05,-0.0005112753354773458,-0.00012152413974297893,-0.00023106530331779007
149610000000.0,2,0.03992287215,0.00561921045,0.08148345485,0.033852,-0.022451,-0.018562,0.2604057841,-3.546476906,-9.139209400999999,0.028485,0.37003,1.4306,-8.999999999997899e-05,-1.2499999999970868e-05,1.6666666666775853e-05,-7.162085028189491e-05,9.637846937771144e-05,-0.0005061306374767038
149610000000.0,2,0.08185610755,-0.029616082999999998,-0.0513280061,0.016677,-0.046797,-0.036696,0.2590132398,-3.5483401695,-9.1385229355,0.028336,0.37023,1.4302,-6.0000000000004494e-05,-1.2499999999970868e-05,1.666666666655381e-05,-0.00025931575067961177,0.00016756014674057518,-0.00016762531162861638
149610000000.0,2,0.12452484169999999,-0.0563293976,-0.03003776895,0.025274,-0.042596,-0.042028,0.25839542085,-3.5509879649999996,-9.1375422705,0.028271,0.37052,1.4297,-0.0001000000000000445,-1.2500000000192912e-05,1.666666666655381e-05,-0.00019191622538161646,6.341699894285568e-05,-0.00011693144303748237
149610000000.0,2,0.053044169849999996,-0.04449277105,0.1304088317,0.031759,-0.026673,-0.032439,0.25774818195,-3.5552048245,-9.13587514,0.028205,0.37098,1.4293,-1.999999999996449e-05,-1.2499999999970868e-05,1.6666666666775853e-05,-0.00014901617320978167,0.0002156244947690844,0.00018458683158689704
149610000000.0,2,0.03666706435,-0.0494059027,0.1775199783,0.018982,-0.015923,-0.019672,0.25751282235,-3.5591274844999994,-9.1344041425,0.028185,0.37141,1.429,-3.999999999998449e-05,-1.2499999999970868e-05,1.6666666666775853e-05,-0.00040171167181918266,-0.00025792339833885514,-0.00026075915203233047
149610000000.0,2,0.0723142371,-0.06685193304999999,0.07602115079999999,0.007363,0.002284,-0.013321,0.25898381984999996,-3.5613830139999996,-9.1334234775,0.028348,0.37166,1.4288,-3.0000000000030003e-05,-1.2499999999970868e-05,1.666666666655381e-05,-0.0007346207265219729,-0.0004421597559733925,0.0003228962037978844
149610000000.0,2,0.041844975549999996,-0.046091255,0.05588809835,0.012879,0.024618,-0.013351,0.2619160082,-3.563344344,-9.1326389455,0.028671,0.37187,1.4286,-7.00000000000145e-05,-5.0000000000105516e-05,-9.999999999998899e-05,0.00014205313128512476,-0.0010184334006888562,-0.0005401889032699836
149610000000.0,2,0.0303810017,-0.018475728599999998,0.15249340749999998,0.007576,0.028924,-0.012301,0.26576021499999997,-3.565501807,-9.1316582805,0.029095,0.37211,1.4285,-4.999999999999449e-05,-4.999999999988347e-05,9.999999999998899e-05,0.0005689770608577338,-0.00017626567436335172,-0.00038562673872064024
149610000000.0,2,0.0378732823,0.00405014645,0.10918724109999998,-0.026809,-0.007013,-0.020837,0.26738811889999997,-3.5644230755,-9.132050546499999,0.029271,0.37199,1.4282,-7.00000000000145e-05,-4.999999999988347e-05,-2.4999999999941735e-05,0.0002080888624984567,-0.0001880498932089747,-0.0005126536559725281
149610000000.0,2,0.08342517155,-0.011866046499999998,-0.0990275517,-0.046173,-0.033479,-0.0315,0.2671723726,-3.560010083,-9.133717677,0.029243,0.3715,1.4279,-1.999999999996449e-05,-5.0000000000105516e-05,-2.500000000016378e-05,0.0001918326734836051,8.655801227375193e-05,-0.00037845369525027484
149610000000.0,2,0.11190368314999999,-0.028233345349999998,-0.10204799989999999,-0.033323,-0.028253,-0.032557,0.26742734549999997,-3.5561854895,-9.135188674499998,0.029266,0.37109,1.4275,-2.0000000000020002e-05,2.4999999999941735e-05,-2.4999999999941735e-05,-0.0004880542902006013,-0.0001893530685792566,-3.1759034038181255e-06
149610000000.0,2,0.047081726649999996,0.021584436649999997,0.0545642006,-0.012975,-0.011381,-0.020811,0.26790787135,-3.5544202924999997,-9.1359732065,0.029316,0.37089,1.4272,-1.999999999996449e-05,2.500000000016378e-05,-2.4999999999941735e-05,0.0003348028101339273,0.00042628198948646556,0.00027716234734512235
149610000000.0,2,0.027291906949999997,0.0364611247,0.10297963164999999,-0.010916,-0.011413,-0.005864,0.2677999982,-3.5534396275,-9.136267406,0.029303,0.37078,1.427,-2.0000000000020002e-05,2.4999999999941735e-05,4.999999999988347e-05,-2.1218341357320814e-05,-0.00029884047551997917,-2.1034055784380223e-05
149610000000.0,2,0.0460324151,0.007119627899999999,-0.02387919275,-0.003323,0.005574,-0.003747,0.26865317675,-3.5524589625,-9.136659671999999,0.029395,0.37068,1.427,-2.0000000000020002e-05,2.4999999999941735e-05,5.0000000000105516e-05,-0.0005326887327369301,-8.48744703154658e-05,0.0005795723273773479
149610000000.0,2,0.041776328999999994,0.0488567303,-0.02884135765,0.034251,0.039357,0.003729,0.27216395745,-3.5538318934999995,-9.1359732065,0.029781,0.37083,1.427,-4.999999999999449e-05,-9.999999999998899e-05,-5.0000000000105516e-05,-0.0011543518412370224,-0.0007456101146203764,-0.00014230839512399673
149610000000.0,2,0.023928225999999997,0.0838272442,0.1628296166,0.063106,0.050833,0.012297,0.27698882924999996,-3.558833285,-9.13391381,0.030316,0.37138,1.427,2.0000000000020002e-05,9.999999999998899e-05,-4.999999999988347e-05,-0.0001396988553019618,5.396509588107001e-05,0.0005364603515954358
149610000000.0,2,0.05563312545,0.053191269599999993,0.1765000867,0.047813,0.011525,0.020878,0.27954836489999996,-3.564325009,-9.1316582805,0.030604,0.37198,1.4272,1.999999999996449e-05,9.999999999998899e-05,-4.999999999988347e-05,0.0001657241007003707,0.0007907527363257838,0.00026932432978540866
149610000000.0,2,0.1207590881,-0.0223787753,0.05398560825,0.002561,-0.047765,0.014497,0.2778812344,-3.5661882724999994,-9.130971815,0.030423,0.37219,1.4273,6.0000000000004494e-05,9.999999999998899e-05,-5.0000000000105516e-05,0.001170785870443225,0.0011493042269914433,0.00033038675737090406
149610000000.0,2,0.16305516955,-0.06472388999999999,-0.04970990884999999,-0.025369,-0.078421,0.003826,0.27343882195,-3.5650114745,-9.131560213999999,0.029935,0.37206,1.4273,4.0000000000040004e-05,-9.999999999998899e-05,-3.333333333332966e-05,0.00023153322704366763,0.0005314031070005054,-0.00021722490679382256
149610000000.0,2,0.10617659954999999,-0.039609059349999996,0.06003631129999999,-0.024117,-0.063495,-0.009009,0.26911408929999997,-3.5636385434999998,-9.1322466795,0.02946,0.37191,1.4271,1.999999999996449e-05,-1.999999999990898e-05,-3.333333333332966e-05,0.00032847540374214557,-2.069570538587584e-05,-0.00011475992122667034
149610000000.0,2,0.021084297499999998,-0.0028831550999999997,0.1814818649,-0.026024,-0.036836,-0.011193,0.2659171214,-3.5625598119999995,-9.1328350785,0.029109,0.37178,1.427,-1.999999999996449e-05,-2.0000000000131024e-05,-3.333333333332966e-05,-0.0007361667220544543,0.0008787613377896353,0.0007290408409220406
149610000000.0,2,-0.02574245625,-0.0101793027,0.18487496579999999,-0.045159,-0.02709,-0.009108,0.26322029264999997,-3.5602062159999996,-9.1338157435,0.02881,0.37152,1.4269,3.999999999998449e-05,-1.999999999990898e-05,-9.999999999998899e-05,0.0007613683847885744,0.0004160080999386917,-8.004090056101809e-05
149610000000.0,2,-0.020790097999999996,-0.04670907395,0.0475622525,-0.046136,-0.01749,-0.01126,0.26125896265,-3.556675822,-9.135188674499998,0.028591,0.37115,1.4268,2.999999999997449e-05,-2.0000000000131024e-05,-5.0000000000105516e-05,0.000422293502166049,-3.5393409882455984e-05,1.883085141343721e-05
149610000000.0,2,-0.00756092715,-0.030753654399999997,0.02099603765,-0.022441,0.012149,-0.008069,0.26194542815,-3.554518359,-9.1359732065,0.028663,0.37091,1.4267,-1.4999999999987246e-05,-1.999999999990898e-05,-4.999999999988347e-05,-0.0003028680627651936,-0.0005155628303974424,-0.00034980823230751357
149610000000.0,2,-0.0191033542,0.014994367849999999,0.1271922505,0.003149,0.011934,-0.004821,0.26316145274999997,-3.5550086915,-9.1357770735,0.028797,0.37096,1.4267,-1.4999999999987246e-05,-9.999999999998899e-05,-4.999999999988347e-05,-0.0003754703346963706,9.479121657163248e-06,-0.00024596091176748436
149610000000.0,2,0.02939053005,-0.0073549875,0.10505864144999999,-0.008904,-0.025266,-0.000507,0.26239653404999996,-3.5554009575,-9.135679006999998,0.028714,0.371,1.4266,7.00000000000145e-05,-1.666666666655381e-05,-5.0000000000105516e-05,0.00029247460519510327,0.0004284254298858592,-0.0005260755145773122
149610000000.0,2,0.09941981769999998,-0.07563869145,-0.05707470299999999,-0.044446,-0.06972,-0.004761,0.25851310065,-3.5527531619999997,-9.136855805,0.028286,0.37072,1.4266,4.999999999999449e-05,-1.6666666666775853e-05,-5.0000000000105516e-05,-0.0002816230492072025,0.0004121133202270588,-0.0003880318422619933
149610000000.0,2,0.11341390725,-0.10005724995,-0.1932106183,-0.048649,-0.066477,-0.012248,0.25394320175,-3.5484382359999995,-9.138621002,0.027781,0.37024,1.4264,1.999999999996449e-05,-1.6666666666775853e-05,-4.999999999988347e-05,0.0003550910064366031,-2.7032954333261472e-05,8.183900950980982e-05
149610000000.0,2,-0.0040403398,-0.0230848541,-0.09642878945,-0.025772,-0.013376,-0.021909,0.2519916784,-3.5452020414999996,-9.139993933,0.027564,0.36988,1.4262,-4.999999999977245e-06,-1.666666666655381e-05,2.4999999999941735e-05,-0.00018878861817195336,-0.0009092865320330379,-0.00030451539805032013
149610000000.0,2,-0.08756357784999999,0.0421293684,0.019387747049999998,-0.008294,0.037626,-0.021967,0.25381571529999997,-3.5435349109999996,-9.140582332,0.027761,0.3697,1.426,-4.999999999977245e-06,-1.666666666655381e-05,2.4999999999941735e-05,0.001153692876942558,6.434351511952485e-05,0.0004930256472372441
149610000000.0,2,-0.09454591265,0.026046462399999998,-0.03541181315,-0.013562,0.05151,-0.01346,0.25735591594999996,-3.5417697139999995,-9.1410726645,0.028146,0.36951,1.4259,4.999999999999449e-05,-1.6666666666775853e-05,2.500000000016378e-05,-0.0004196907732896271,-0.0006860562230468492,3.088533349451805e-05
149610000000.0,2,-0.046758107199999996,-0.027233067049999997,-0.12131806715,-0.020151,0.033438,-0.004899,0.26029791095,-3.5397103174999995,-9.1418571965,0.028465,0.36928,1.4259,-2.0000000000020002e-05,4.999999999988347e-05,2.4999999999941735e-05,0.00010089743945751461,0.00018384844573371417,0.0001845021356575438
149610000000.0,2,0.02689964095,-0.051023999949999996,-0.1399212822,-0.018236,0.006782,-0.003782,0.26204349465,-3.5377489875,-9.142543662,0.028655,0.36907,1.4259,4.999999999999449e-05,5.0000000000105516e-05,2.4999999999941735e-05,0.0005055805814119796,0.00022154327711221278,2.067771403499452e-05
149610000000.0,2,0.0429923536,-0.03170489945,-0.0851021087,-0.01195,-0.010313,-0.008011,0.26242595399999996,-3.5363760564999995,-9.1430339945,0.028694,0.36893,1.4258,3.999999999998449e-05,-1.666666666655381e-05,2.500000000016378e-05,0.00014393932869488646,0.000654279025719795,0.00014221194148528182
149610000000.0,2,0.027958759149999995,-0.028213732049999996,-0.029665116249999998,-0.010992,-0.027364,-0.013317,0.26114128285,-3.5355915245,-9.1434262605,0.028553,0.36883,1.4256,-1.999999999996449e-05,-1.6666666666775853e-05,2.4999999999941735e-05,0.0001975326901122454,-0.00023189855151639627,-0.0004398755027480161
149610000000.0,2,0.00962032365,-0.0379909621,-0.06846022365,-0.010922,-0.025222,-0.023995,0.2594251191,-3.5346108594999994,-9.143818526499999,0.028364,0.36873,1.4254,1.999999999996449e-05,-1.6666666666775853e-05,2.4999999999941735e-05,-0.00023158863472155788,0.00026179463300213257,0.0003466326392857211
149610000000.0,2,-0.008168939449999999,-0.017857909649999996,-0.07094130609999999,0.01061,-0.003019,-0.027198,0.25941531245,-3.5348069924999996,-9.143720459999999,0.028363,0.36875,1.4251,2.0000000000020002e-05,-1.666666666655381e-05,9.999999999998899e-05,0.00028350908676427755,-0.0012046552209381556,-0.0009329412834136463
149610000000.0,2,-0.04974913545,0.018858187949999997,0.05227925115,0.0299,0.014924,-0.015454,0.26043520405,-3.537258655,-9.142739794999999,0.028478,0.36902,1.4249,-2.999999999997449e-05,-1.666666666655381e-05,5.0000000000105516e-05,-0.0003174997453628814,0.00028384997030372894,0.0004098414057496502
149610000000.0,2,-0.0720592642,0.012542705349999999,0.07059807335,0.016891,-0.004163,-0.004767,0.25969970529999997,-3.5395141844999993,-9.141955263,0.0284,0.36926,1.4249,-5.000000000032756e-06,-1.6666666666775853e-05,4.999999999988347e-05,-1.1972916414193513e-05,0.00047162012128376674,0.00044325391808527903
149610000000.0,2,-0.03339164325,-0.0168282114,-0.07137279869999999,-0.005627,-0.018896,-0.005847,0.2576991487,-3.5391219185,-9.142151396,0.028181,0.36923,1.4249,-4.999999999977245e-06,4.999999999988347e-05,0.00019999999999997797,5.38569701173941e-05,0.0009031174167795086,0.0004690126866037092
149610000000.0,2,-0.03109688715,-0.0077864801,-0.14242197794999997,-0.001214,-0.007201,-0.016534,0.25644389749999996,-3.5380431869999995,-9.1426417285,0.028042,0.3691,1.4248,-1.5000000000042757e-05,5.0000000000105516e-05,3.333333333332966e-05,0.0009329518258030522,-2.095843121940888e-06,0.0005528914083802738
149610000000.0,2,-0.09097629205,0.050278694549999996,-0.007286340949999999,0.022462,0.01392,-0.024,0.25648312409999996,-3.5387296525,-9.142249462499999,0.028047,0.36918,1.4246,-1.4999999999987246e-05,9.999999999998899e-05,3.333333333332966e-05,-0.0004099990266267506,0.0002445014831209402,0.0006455262009705809
149610000000.0,2,-0.12687843769999999,0.08860308274999999,0.06583204145,0.039567,0.019102,-0.02291,0.2569146167,-3.5411813149999998,-9.141366864,0.028098,0.36945,1.4244,-6.0000000000004494e-05,9.999999999998899e-05,3.333333333332966e-05,-0.0004439240310920578,-0.0004103364598841974,-0.00014039807794319348
149610000000.0,2,-0.09882161204999998,0.06183092824999999,0.04873905049999999,0.042672,0.007351,-0.022882,0.25714016965,-3.544319443,-9.1400919995,0.028125,0.36979,1.4242,-6.0000000000004494e-05,-5.0000000000105516e-05,9.999999999998899e-05,-0.0007412988458181391,-7.914248007612201e-05,-1.830891674153845e-05
149610000000.0,2,-0.01983885295,0.011875853149999999,0.027958759149999995,0.047868,-0.008679,-0.02071,0.2570126832,-3.5485363024999996,-9.1385229355,0.028117,0.37025,1.424,-0.00010999999999999899,-4.999999999988347e-05,0.00010000000000021103,-0.001932582051485554,-0.0003852906334631534,-0.00012960311411697178
149610000000.0,2,0.0033244543499999996,0.01717144415,0.0872007318,0.047798,-0.018267,-0.02176,0.25645370415,-3.5532434944999998,-9.136659671999999,0.028061,0.37077,1.4237,-5.999999999994898e-05,-1.4285714285744433e-05,9.999999999998899e-05,-0.00022886532683802363,0.00033792048797320895,-5.94311472593978e-05
149610000000.0,2,0.0031577413,0.02021150565,0.14242197794999997,0.032783,-0.028798,-0.022835,0.25497289999999995,-3.5571661545,-9.135188674499998,0.027904,0.3712,1.4235,-6.0000000000004494e-05,-1.4285714285744433e-05,9.999999999998899e-05,-0.00010861844058668302,0.000163215917242443,-0.00024602811703230976
149610000000.0,2,0.012415218899999999,-0.0012160246,0.13222306195,-0.00133,-0.032767,-0.034629,0.2533449961,-3.5585390855,-9.134698342,0.027727,0.37134,1.4231,-4.999999999999449e-05,-1.4285714285744433e-05,-3.333333333332966e-05,0.00019096345763808253,-0.0004985887291653057,-0.0005785035975785502
149610000000.0,2,-0.0032361944999999997,-0.00512887795,0.07858068644999999,-0.022373,-0.005937,-0.050723,0.25372745545,-3.5571661545,-9.135286741,0.027767,0.37119,1.4226,-9.00000000000345e-05,-1.4285714285522388e-05,-3.333333333332966e-05,-0.0003141528236035307,-0.0008504945142924214,-0.0008802579602206761
149610000000.0,2,-0.044100505049999995,0.0078845466,0.11819955244999998,-0.027351,0.032475,-0.060405,0.25732649599999996,-3.5550086915,-9.1359732065,0.028159,0.37096,1.422,-9.999999999998899e-05,-1.4285714285744433e-05,-3.333333333332966e-05,0.0006211589314904509,-0.0015790918254714459,-0.00105494520899313
149610000000.0,2,-0.0662733407,0.022290515449999996,0.18401198059999999,-0.038922,0.054942,-0.057261,0.26319087269999997,-3.5523608959999997,-9.136855805,0.028798,0.37067,1.4215,-7.00000000000145e-05,-1.4285714285744433e-05,-1.666666666655381e-05,0.0005776414545294317,-0.00038261468994038594,-0.00013724263222536504
149610000000.0,2,-0.0351862602,-0.010473502199999998,0.10544110079999999,-0.052883,0.048654,-0.048735,0.26906505605,-3.5485363024999996,-9.1381306695,0.029436,0.37025,1.4209,-3.999999999998449e-05,-1.4285714285744433e-05,-1.6666666666775853e-05,-0.00027453809441491117,-0.0007316512559072397,-9.365101349412264e-05
149610000000.0,2,0.01230734575,-0.027262487,0.0253207703,-0.046646,0.032612,-0.041224,0.2740958675,-3.5444175094999997,-9.139601666999999,0.029981,0.3698,1.4205,-8.999999999997899e-05,2.4999999999941735e-05,-1.6666666666775853e-05,0.0002550785464922045,-0.00039328486686440733,-0.00021112139365561666
149610000000.0,2,0.03692203725,0.00130428445,0.04382591885,-0.027627,0.013269,-0.034753,0.27761645484999997,-3.5415735809999997,-9.140582332,0.030363,0.36949,1.4201,-2.0000000000020002e-05,2.500000000016378e-05,-1.666666666655381e-05,-2.1308130840891337e-05,-8.5638198944471e-05,-0.00017535046031497137
149610000000.0,2,0.04382591885,0.03894220715,0.07624670374999999,-0.00966,-0.006062,-0.031487,0.27953855824999996,-3.540004517,-9.141170730999999,0.030571,0.36932,1.4197,-4.999999999999449e-05,2.4999999999941735e-05,-1.666666666655381e-05,7.033991537641615e-05,0.00028758411782137117,-2.1384182402467422e-05
149610000000.0,2,0.0514849125,0.03499993385,0.0738048479,-0.003404,-0.024226,-0.031445,0.2796660447,-3.5393180515,-9.141366864,0.030583,0.36925,1.4194,-4.999999999999449e-05,2.4999999999941735e-05,-1.6666666666775853e-05,-0.00045020232107284563,-0.0003081898326471322,-0.00021759470485446797
149610000000.0,2,0.060938523099999996,0.0059036033,0.031302826799999996,-0.003384,-0.021029,-0.030384,0.27963662474999995,-3.5390238519999997,-9.141562997,0.030581,0.36921,1.419,-4.999999999999449e-05,3.333333333332966e-05,-5.0000000000105516e-05,-8.522791529430584e-05,-0.00016652375085834947,-0.00023288259294343416
149610000000.0,2,0.0479545185,0.0030204482,0.08640639314999998,-0.002305,-0.015714,-0.023988,0.27975430455,-3.539219985,-9.1414649305,0.030593,0.36924,1.4187,-1.0000000000010001e-05,3.333333333332966e-05,-5.0000000000105516e-05,5.140908862388827e-06,-0.0002844622279003506,-0.00032812543905424985
149610000000.0,2,0.021005844299999996,-0.006246836049999999,0.13438052495,-0.021517,-0.015557,-0.021887,0.27961701145,-3.5386315859999997,-9.141661063499999,0.030578,0.36917,1.4184,-4.999999999999449e-05,3.333333333332966e-05,-4.999999999988347e-05,0.0007247860800960737,-2.4033138662060693e-05,-0.00032454308034990387
149610000000.0,2,0.0211235241,-0.028066632299999998,0.06051683715,-0.050241,-0.009984,-0.029419,0.27995043755,-3.5353953915,-9.142935928,0.03061,0.36882,1.4181,-2.0000000000020002e-05,-9.999999999998899e-05,-5.0000000000105516e-05,0.0011036837415837608,0.0005296029858155027,0.0003092950518913673
149610000000.0,2,0.0284981249,-0.0472484397,-0.0082179727,-0.056475,0.006061,-0.03693,0.28185292765,-3.5306881995,-9.144701125,0.030812,0.36831,1.4178,-3.999999999998449e-05,3.333333333332966e-05,-5.0000000000105516e-05,0.0004958421074973685,-0.00039958176981103044,-0.00020949689903632107
149610000000.0,2,0.0050013915,-0.023222147199999998,0.054005221549999996,-0.047774,0.0273,-0.035885,0.28529506179999997,-3.526667473,-9.1461721225,0.031182,0.36786,1.4174,-2.0000000000020002e-05,3.333333333332966e-05,-4.999999999988347e-05,0.0008813591223781336,-0.00019656194502415403,-5.221931430415827e-05
149610000000.0,2,-0.0036480737999999998,-0.01026756255,0.07489338605,-0.044566,0.032594,-0.028417,0.28930598165,-3.522940946,-9.147446987,0.031617,0.36746,1.4171,-3.999999999998449e-05,3.333333333332966e-05,-9.999999999998899e-05,0.0006352958632689365,-0.00045286795645949063,-0.00017833007162615377
149610000000.0,2,0.03782424905,-0.016416332099999997,0.028066632299999998,-0.039343,0.021891,-0.023052,0.29317960839999996,-3.5195086184999997,-9.148623785,0.032035,0.36708,1.4168,2.999999999997449e-05,3.333333333332966e-05,-3.333333333332966e-05,0.0014329411904515088,0.0007554699327196879,0.0006385304443788375
149610000000.0,2,0.09163333759999999,-0.041011410299999995,0.0026183755499999996,-0.025682,0.001526,-0.013388,0.2959254704,-3.5173511554999997,-9.149408316999999,0.032332,0.36684,1.4166,-9.99999999995449e-06,3.333333333332966e-05,-3.333333333332966e-05,-0.00016051001994110692,-0.00010180862327668905,-0.00015518690478677488
149610000000.0,2,0.1083634825,-0.0423058881,0.011915079749999998,-0.013148,-0.026289,-0.003712,0.2962588965,-3.5165666235,-9.1497025165,0.032367,0.36675,1.4164,3.999999999998449e-05,3.333333333332966e-05,-3.333333333332966e-05,0.00013068614497252495,0.00024054681211715945,-0.00015282542515732134
149610000000.0,2,0.116895268,-0.044012245199999994,0.014445195449999998,-0.002719,-0.051953,0.003821,0.29385626724999997,-3.5167627564999995,-9.1497025165,0.032106,0.36678,1.4164,-1.0000000000010001e-05,2.4999999999941735e-05,-2.4999999999941735e-05,0.00020361430580850826,0.0011404637435603604,0.00036814208273105997
149610000000.0,2,0.11134470409999998,-0.05673147025,0.00565843705,0.00242,-0.075437,0.006004,0.28909023535,-3.5178414879999997,-9.149408316999999,0.031586,0.36689,1.4164,4.999999999999449e-05,2.4999999999941735e-05,-2.4999999999941735e-05,-0.00011715515666949061,0.0005585304783999323,-9.941391527351628e-05
149610000000.0,2,0.0846902294,-0.0702548406,0.004834678449999999,0.000213,-0.088197,0.000685,0.28251977985,-3.5189202194999996,-9.149212184,0.030869,0.36702,1.4163,1.0000000000010001e-05,2.500000000016378e-05,-2.500000000016378e-05,0.0001975359851337788,0.0007426679985151896,-7.801510717903026e-05
149610000000.0,2,0.05227925115,-0.0808852492,0.006894074949999999,0.001453,-0.072212,-0.007881,0.27647888345,-3.5202931504999997,-9.148819918,0.030211,0.36716,1.4163,1.0000000000010001e-05,2.4999999999941735e-05,-2.4999999999941735e-05,-0.0003222667458649964,0.0003296148354348105,-0.0003089217705134484
149610000000.0,2,-0.0008237585999999999,-0.059771531749999995,0.0534070159,-0.001526,-0.050866,-0.01753,0.27167362494999997,-3.5214699485,-9.1485257185,0.029687,0.3673,1.4161,1.0000000000010001e-05,-5.0000000000105516e-05,2.4999999999941735e-05,-9.924134508132454e-05,-7.671278988530261e-05,-0.000139327781566001
149610000000.0,2,-0.05671185694999999,-0.034715541,0.0454440161,-0.011958,-0.024137,-0.021863,0.26875124325,-3.521371882,-9.148623785,0.029368,0.36729,1.4159,-2.0000000000020002e-05,-4.999999999988347e-05,2.500000000016378e-05,0.00017851714931493845,-4.9506305006774554e-05,-5.712858024919942e-05
149610000000.0,2,-0.0864358131,-0.03478418755,-0.00171616375,-0.021347,0.00045,-0.025123,0.2676430918,-3.519998951,-9.149212184,0.029245,0.36713,1.4157,-2.0000000000020002e-05,-4.999999999988347e-05,2.4999999999941735e-05,0.0004795548464862076,-0.00042725196051418557,-0.00031526667757897364
149610000000.0,2,-0.091986377,-0.033636809499999996,0.0044129925,-0.027581,0.018618,-0.029433,0.26840801049999996,-3.518037621,-9.149996715999999,0.029326,0.36691,1.4155,1.0000000000010001e-05,-5.0000000000105516e-05,2.4999999999941735e-05,0.00046615814877221107,0.0006165680158389808,0.0005995567820201164
149610000000.0,2,-0.0538581218,-0.018642441649999997,-0.023055434149999998,-0.028594,0.023955,-0.031578,0.2706831533,-3.5152917589999997,-9.150977380999999,0.029571,0.36662,1.4152,-2.999999999997449e-05,-3.333333333332966e-05,1.999999999990898e-05,0.00021454280184662888,-0.000846400223364574,-0.0003465661199495429
149610000000.0,2,-0.021005844299999996,0.0012944778,-0.0471895998,-0.017869,0.032388,-0.029439,0.27418412735,-3.5128400964999997,-9.151761913,0.029951,0.36635,1.4149,1.999999999996449e-05,-3.333333333332966e-05,2.0000000000131024e-05,-0.0005832457203824304,-4.027012323315482e-05,0.00014264345788511656
149610000000.0,2,-0.02091758445,0.00954187045,0.00065704555,0.000255,0.0333,-0.025139,0.27784200779999996,-3.5122516975,-9.1518599795,0.03035,0.36629,1.4146,-1.0000000000010001e-05,-3.333333333332966e-05,1.999999999990898e-05,-1.5975248996491498e-05,-0.000564968824677381,-0.0001079408801037407
149610000000.0,2,0.0011375714,0.0206920315,0.0413056098,0.010805,0.020422,-0.021896,0.28093110255,-3.512938163,-9.15156578,0.030688,0.36636,1.4143,-9.99999999995449e-06,-1.4285714285744433e-05,2.0000000000131024e-05,-0.00034072648788036064,-3.126910350426115e-05,-8.968660153146901e-05
149610000000.0,2,0.04062895095,0.02976318275,0.0490724766,0.020272,0.002233,-0.023983,0.28303953229999995,-3.5144091605,-9.150977380999999,0.03092,0.36652,1.4141,-2.0000000000020002e-05,-1.4285714285744433e-05,1.999999999990898e-05,8.289260718363778e-05,-0.0002812446386903922,-0.00027097847723001056
149610000000.0,2,0.06139943565,0.023408473549999996,0.07816880715,0.01689,-0.021179,-0.025016,0.28366715789999997,-3.516076291,-9.1502909155,0.030991,0.36671,1.4137,-1.0000000000010001e-05,-1.4285714285744433e-05,-5.0000000000105516e-05,1.7951826924322845e-05,0.0005440319952367823,-3.413377514169258e-05
149610000000.0,2,0.08262102625,0.015553346899999999,0.09368292745,0.003938,-0.039185,-0.02394,0.28279436605,-3.517056956,-9.149898649499999,0.030897,0.36681,1.4134,4.999999999999449e-05,-1.4285714285522388e-05,-4.999999999988347e-05,-2.354649637581474e-05,0.00046671624914296217,-0.0002317928500218669
149610000000.0,2,0.0922021233,-0.01877973475,0.08033607679999999,-0.014228,-0.04223,-0.0229,0.2812939486,-3.5168608229999996,-9.149996715999999,0.030732,0.36679,1.4131,2.4999999999997247e-05,-1.4285714285744433e-05,-4.999999999988347e-05,0.0005946906575006183,0.0004906874846695164,0.00018126981836250056
149610000000.0,2,0.08393511735,-0.046140288249999994,0.11184484324999999,-0.02596,-0.036811,-0.014392,0.27983275775,-3.5159782245,-9.150388981999999,0.030572,0.36669,1.4129,2.4999999999997247e-05,-1.4285714285744433e-05,-5.0000000000105516e-05,0.0007454661500709836,-2.9292761025700997e-06,-0.0003033053159351151
149610000000.0,2,0.0606835502,-0.0484056244,0.14873746054999998,-0.037659,-0.026067,-0.003758,0.27854808659999997,-3.514311094,-9.1510754475,0.030429,0.36651,1.4128,1.0000000000010001e-05,-1.4285714285744433e-05,-9.999999999998899e-05,-0.00030335002850273574,0.0002055192959176111,-1.4852974665247043e-05
149610000000.0,2,0.0374221764,-0.048366397799999995,0.1368616074,-0.054724,-0.023796,-0.00059,0.27696921595,-3.5110748995,-9.152350312,0.030252,0.36616,1.4128,2.0000000000020002e-05,-9.999999999998899e-05,-6.666666666665932e-05,0.000729132393646359,0.00028429422184883535,-0.00014002788987699244
