Time,placement_label,user_acc_x(m/s^2),user_acc_y(m/s^2),user_acc_z(m/s^2),rotation_rate_x(rad/s),rotation_rate_y(rad/s),rotation_rate_z(rad/s),gravity_x(m/s^2),gravity_y(m/s^2),gravity_z(m/s^2),attitude_roll(rad),attitude_pitch(rad),attitude_yaw(rad),target_delta_x,target_delta_y,target_delta_z,target_delta_roll,target_delta_pitch,target_delta_yaw
149570000000.0,2,-0.03195987235,-0.013278204099999998,-0.022574908299999998,-0.1846,0.24607,-0.049179,-0.041658649199999995,-3.827339362,-9.0288845885,-0.004614,0.40093,-1.8887,0.0,0.0,0.0,0.0,0.0,0.0
149570000000.0,2,0.00367749375,-0.014062736099999999,-0.0882206234,-0.10815,0.20175,-0.045765,-0.019985952699999997,-3.8149829829999997,-9.0341801795,-0.002212,0.39957,-1.8893,-0.00039999999999995595,0.00029999999999996696,-9.999999999998899e-05,-0.0011576826153510966,-0.001504588371493254,-1.8952156346035975e-05
149570000000.0,2,0.023271180449999998,0.02307504745,-0.1052841944,-0.031775,0.15316,-0.034871,-0.0027752819499999998,-3.8090989929999997,-9.036631841999998,-0.000307,0.39891,-1.8897,-0.000400000000000178,0.00039999999999995595,9.999999999998899e-05,-0.0005113974137226363,-0.0012243540836269773,-0.0010690698156191891
149570000000.0,2,0.017475450299999997,0.0023830159499999997,-0.1215240068,0.019123,0.11544,-0.03258,0.0103558224,-3.80890286,-9.0367299085,0.001146,0.39889,-1.8901,-0.0004999999999999449,0.00029999999999996696,5.0000000000105516e-05,0.0008782157503425259,-0.0018822864282843632,-0.0005611866387462694
149570000000.0,2,0.00410898635,-0.0551918262,-0.15436647765,0.041193,0.066256,-0.044196,0.01923084065,-3.8122371209999995,-9.0353569775,0.002129,0.39926,-1.8906,-0.0004999999999999449,0.000500000000000167,4.999999999988347e-05,0.0012746768951427123,-0.00018823962713554465,-0.00048454440978160096
149570000000.0,2,0.0242224255,-0.06489060305,-0.19365191755,0.045129,0.010836,-0.066507,0.02366344645,-3.8162578474999997,-9.0335917805,0.002619,0.39971,-1.8912,-0.0005999999999999339,0.00039999999999995595,0.00019999999999997797,-0.0012228606161538425,7.812615439695136e-06,-0.0006631461609161171
149570000000.0,2,0.05963423864999999,-0.08777932415,-0.2465980209,0.047052,-0.027522,-0.08565,0.02505599075,-3.820474707,-9.0318265835,0.002774,0.40017,-1.8921,-0.000500000000000167,0.0004999999999999449,9.999999999998899e-05,-0.0015976838141440464,-0.0004915059659391652,-0.0006662332625490264
149570000000.0,2,0.074922806,-0.10496057495,-0.2506972006,0.050231,-0.038191,-0.098434,0.0253403836,-3.8247896329999995,-9.029963319999998,0.002806,0.40066,-1.8932,-0.0005999999999999339,0.00039999999999995595,9.999999999998899e-05,0.0002787170513492421,0.0014717680033022873,-0.0006441375638351621
149570000000.0,2,0.06198783465,-0.11158987035,-0.18021680705,0.054549,-0.032894,-0.099505,0.027350746849999996,-3.83047749,-9.027609724,0.003029,0.40128,-1.8943,-0.00039999999999995595,0.00029999999999996696,9.999999999998899e-05,-0.0007508328271700337,-0.0001405338716486959,-0.0011394288082172688
149570000000.0,2,0.044826197150000004,-0.10254813904999999,-0.10672577194999999,0.053579,-0.014781,-0.089932,0.029253236949999997,-3.8352827484999996,-9.0255503275,0.003241,0.40182,-1.8953,-0.0004999999999999449,0.00029999999999996696,9.999999999998899e-05,-0.0005579107518882687,-0.000400129420557338,-0.0009856824149212517
149570000000.0,2,0.05577041855,-0.14299076365,-0.07106879255,0.046284,0.016166,-0.075056,0.03296015065,-3.8397938075,-9.0235889975,0.003653,0.40231,-1.8962,-0.000500000000000167,0.000300000000000189,0.00019999999999997797,0.0004302752661881626,-0.0006089827041568796,-0.00038951034505399496
149570000000.0,2,0.08059104969999999,-0.20091864519999997,-0.05014140145,0.041075,0.043895,-0.055901,0.038677427599999994,-3.843618401,-9.021921867,0.004287,0.40274,-1.8968,-0.0004999999999999449,0.00029999999999996696,9.999999999998899e-05,-0.0005994444631403084,-0.0021263043901438294,-0.0004534132309118033
149570000000.0,2,0.07060788,-0.20874435189999999,0.0233006004,0.024077,0.060008,-0.042091,0.0473072796,-3.8505811225,-9.0188818055,0.005246,0.40352,-1.8974,-0.0004999999999999449,0.00029999999999996696,9.999999999998899e-05,-0.00019071696277944694,-0.002095015204149009,0.0005689792321265374
149570000000.0,2,0.1026560122,-0.2234543269,0.07587405104999999,0.003764,0.060166,-0.033587,0.05416212795,-3.8514637209999996,-9.018489539499999,0.006005,0.40361,-1.8978,-0.00039999999999995595,0.00019999999999997797,0.00019999999999997797,0.00017520274361004784,0.00016717734245252913,-8.908894256393074e-05
149570000000.0,2,0.15437628429999997,-0.24643130784999998,0.063154826,-0.017733,0.044353,-0.027192,0.0596048187,-3.8503849894999997,-9.018979872,0.006609,0.40348,-1.8981,-0.000400000000000178,0.00029999999999996696,9.999999999998899e-05,0.0003540023534395753,-0.0007350961473355788,-7.349218292229676e-05
149570000000.0,2,0.16928239229999997,-0.22277766805,0.08834810985,-0.032864,0.019974,-0.023984,0.06698922615,-3.8529347185,-9.017803074,0.007429,0.40377,-1.8986,-0.00039999999999995595,0.00029999999999996696,9.999999999998899e-05,0.000643653959767454,0.0008984632166395556,-0.00017824548360029224
149570000000.0,2,0.1930733252,-0.1811680521,0.07970845119999999,-0.03204,-0.011991,-0.023936,0.0720788775,-3.8541115165,-9.0173127415,0.007994,0.4039,-1.899,-0.00039999999999995595,0.00019999999999997797,9.999999999998899e-05,-6.78804974293401e-05,-0.0008897414827160333,-0.0007845249941575427
149570000000.0,2,0.20649862905,-0.1258193195,0.07483454614999999,-0.015051,-0.028096,-0.031358,0.07571714465,-3.8552883144999996,-9.0167243425,0.008397,0.40403,-1.8995,-0.0004999999999999449,0.00019999999999997797,0.00019999999999997797,0.00028833000853706325,0.0022949760120560825,-0.0009707432922026193
149570000000.0,2,0.17752978495,-0.059653851949999996,0.12351475675,0.020238,-0.028361,-0.046247,0.07879643275,-3.8586225754999997,-9.015253345,0.00874,0.4044,-1.9002,-0.0004999999999999449,0.000300000000000189,0.00010000000000021103,-0.0010375392718126042,-0.00014319195815981622,-0.0005077828681567254
149570000000.0,2,0.1369204473,-0.024506818349999997,0.16928239229999997,0.039562,-0.018915,-0.053708,0.08215030705,-3.8638201,-9.0129978155,0.009115,0.40498,-1.9009,-0.000400000000000178,0.00019999999999997797,9.999999999998899e-05,-0.00043220978464808546,-0.00036768864153491343,-0.0004822316965093776
149570000000.0,2,0.12067082824999999,-0.0253403836,0.23670311104999997,0.040695,-0.008267,-0.048393,0.0859847072,-3.8701944224999996,-9.0102519535,0.009542,0.40569,-1.9016,-0.00029999999999996696,0.00019999999999997797,9.999999999998899e-05,-0.0005710019511711018,-0.000577009737678047,-0.00031816823055305643
149570000000.0,2,0.09352602104999999,-0.07737446849999999,0.24239096805,0.023692,0.006782,-0.035646,0.09007408025,-3.876372612,-9.007604158,0.01,0.40637,-1.9021,-0.00039999999999995595,9.999999999998899e-05,2.4999999999941735e-05,-0.000725464282249233,-0.0008665571144816919,-0.0002287320535445947
149570000000.0,2,0.09685047539999998,-0.1204845019,0.23939013314999996,-0.000865,0.012302,-0.020762,0.0943791996,-3.8810798039999996,-9.005446695,0.01048,0.4069,-1.9025,-0.00029999999999996696,9.999999999998899e-05,2.500000000016378e-05,0.0006621301997226658,-0.00016673460294902576,2.20642134080018e-06
149570000000.0,2,0.09776249384999999,-0.13394903235,0.2282595854,-0.021271,0.001805,-0.007976,0.09766442735,-3.8839237325,-9.0041718305,0.010846,0.40722,-1.9027,-0.00029999999999996696,0.00019999999999997797,2.4999999999941735e-05,0.00033850194915285847,0.0007278275134443568,0.00019274586166534435
149570000000.0,2,0.1243287087,-0.140038962,0.19424031655000001,-0.035304,-0.016195,-0.001572,0.09952769084999999,-3.8851005305,-9.003681498,0.011054,0.40734,-1.9029,-0.00039999999999995595,9.999999999998899e-05,2.4999999999941735e-05,0.0004076993213870117,0.0006241839476039956,-7.882877820664103e-06
149570000000.0,2,0.16146649224999998,-0.10854000219999999,0.142196425,-0.032311,-0.040725,0.002739,0.09980227705,-3.885002464,-9.0037795645,0.011084,0.40733,-1.903,-0.000300000000000189,9.999999999998899e-05,-9.999999999998899e-05,0.00012028990090590108,0.00010371641982342972,-0.0005534769276369922
149570000000.0,2,0.18963119104999998,-0.059987278049999995,0.12302442425,-0.018562,-0.054686,0.005982,0.09901774505,-3.8851005305,-9.003681498,0.010997,0.40734,-1.9031,-0.00029999999999996696,9.999999999998899e-05,9.999999999998899e-05,0.0009074917240138314,0.0009378271938116356,-0.0002801028168283315
149570000000.0,2,0.16705628275,-0.015425860449999999,0.1226419649,-0.002499,-0.050543,0.001726,0.09765462069999999,-3.885590863,-9.003485365,0.010845,0.4074,-1.9032,-0.00029999999999996696,0.00019999999999997797,9.999999999998899e-05,0.0007259181809892157,0.0012750926991875744,0.0005459607257112531
149570000000.0,2,0.11775825319999998,0.0509553534,0.08026743025,0.022171,-0.040074,-0.00786,0.09636994955,-3.886767661,-9.0029950325,0.010704,0.40753,-1.9034,-0.00039999999999995595,0.00019999999999997797,2.4999999999941735e-05,-0.0010770060277722204,-0.00017685141555556783,4.645470247499617e-05
149570000000.0,2,0.0992040714,0.07521700549999999,0.05888893325,0.043747,-0.016792,-0.018541,0.09697796185,-3.8895135229999993,-9.0018182345,0.010772,0.40783,-1.9037,-0.00029999999999996696,9.999999999998899e-05,2.500000000016378e-05,-0.0013696546778832475,-0.0010552901134583959,-0.0006390577095417571
149570000000.0,2,0.050298307849999994,0.108069283,0.08085582925,0.057806,0.00122,-0.028156,0.09889025859999999,-3.8933381164999994,-9.000151104,0.010987,0.40825,-1.904,-0.00039999999999995595,0.00020000000000020002,2.4999999999941735e-05,-0.0006275901607457612,-0.00019811839507255513,-6.404477540908338e-05
149570000000.0,2,0.0440318585,0.10949124724999999,0.1078535367,0.053492,-0.006198,-0.031354,0.10082216865,-3.8972607764999996,-8.998385907,0.011204,0.40869,-1.9044,-0.000300000000000189,9.999999999998899e-05,2.4999999999941735e-05,-0.0002555217001303789,0.001438850409615,-0.00012712920322863197
149570000000.0,2,0.1064413791,0.055927324949999996,0.08955432779999999,0.031976,-0.026265,-0.028157,0.10245007255,-3.9003989044999994,-8.997012976,0.011386,0.40904,-1.9048,-0.00029999999999996696,9.999999999998899e-05,-2.4999999999941735e-05,0.00020298158064596672,0.0016291663229821562,-3.5405756357631546e-05
149570000000.0,2,0.17455837,-0.025654196399999996,0.047199406449999995,0.006069,-0.062277,-0.024942,0.10227355285,-3.9021641014999995,-8.996228444,0.011368,0.40924,-1.9053,-0.00019999999999997797,9.999999999998899e-05,-2.4999999999941735e-05,0.0005050970954691425,0.0007517778392067687,-0.0005817367293119435
149570000000.0,2,0.21045070899999999,-0.04672868725,0.03315628365,-0.01008,-0.08557,-0.032407,0.10034164279999999,-3.902458301,-8.9961303775,0.011153,0.40928,-1.9058,-0.00019999999999997797,9.999999999998899e-05,-2.500000000016378e-05,0.0011127918086631938,0.0013945568102777806,-0.0008312387964881096
149570000000.0,2,0.22583734284999998,-0.059251779299999995,0.0362453784,-0.010079,-0.097262,-0.05054,0.0978311404,-3.9027525004999997,-8.9961303775,0.010874,0.4093,-1.9065,-0.00029999999999996696,9.999999999998899e-05,-2.4999999999941735e-05,0.00028948889523899846,0.00026919854876017446,-0.0013755446809185778
149570000000.0,2,0.21787434305,-0.03447037475,0.0750012592,-0.005674,-0.091941,-0.068694,0.09621304315,-3.9031447664999996,-8.995934244499999,0.010695,0.40934,-1.9074,-0.00019999999999997797,4.999999999988347e-05,-5.0000000000105516e-05,-1.721797603604358e-06,-0.00035536264317204136,-0.000955644561070057
149570000000.0,2,0.2065672756,0.01999575935,0.12051392184999998,-0.001206,-0.073842,-0.079399,0.0961443966,-3.903438966,-8.995836178,0.010687,0.40937,-1.9084,-0.00019999999999997797,5.0000000000105516e-05,-4.999999999988347e-05,-0.00025574362974079,-0.00029172683763145635,-0.0009294805705108156
149570000000.0,2,0.17123391564999998,0.0422274349,0.12209279249999999,9.2e-05,-0.045073,-0.079454,0.09811553325,-3.903438966,-8.9957381115,0.010907,0.40938,-1.9094,-0.00019999999999997797,9.999999999998899e-05,-2.4999999999941735e-05,-0.00014105510673551036,-6.523225617272033e-05,-0.0007104169689152728
149570000000.0,2,0.14514822665,0.05084748025,0.1107170785,-0.000832,-0.020561,-0.068829,0.10160670064999999,-3.903438966,-8.9957381115,0.011294,0.40938,-1.9103,-9.999999999998899e-05,9.999999999998899e-05,-2.4999999999941735e-05,-4.40411023205356e-05,2.0253743860276785e-05,-0.0005260662978004427
149570000000.0,2,0.1258193195,0.07116685905,0.11844471869999999,0.002402,-0.00568,-0.051776,0.10566665374999999,-3.9030467,-8.995836178,0.011746,0.40934,-1.9111,-0.00020000000000020002,9.999999999998899e-05,-2.500000000016378e-05,-0.00034883849366762476,-0.00044735535340723054,-0.00015455026977584385
149570000000.0,2,0.13059515805,0.07161796494999999,0.0687053899,0.009847,0.004898,-0.030438,0.1098737066,-3.9030467,-8.9957381115,0.012213,0.40934,-1.9116,-4.999999999988347e-05,9.999999999998899e-05,-2.4999999999941735e-05,-0.0005786581571711746,-0.0008795216383929993,-5.277609489315327e-05
149570000000.0,2,0.15773996524999997,0.07150028515,0.0663910205,0.022553,0.005843,-0.009072,0.11400230624999999,-3.9042234979999995,-8.995247779,0.012673,0.40946,-1.9119,-5.0000000000105516e-05,9.999999999998899e-05,-5.0000000000105516e-05,-0.000710946392716183,-8.436583357585015e-05,3.360790078954512e-06
149570000000.0,2,0.15181674865,0.06524364245,0.08289561245,0.021395,0.005841,0.009067,0.11753270025,-3.9056944954999997,-8.994561313499998,0.013066,0.40963,-1.912,-9.999999999998899e-05,9.999999999998899e-05,-4.999999999988347e-05,-0.0005863763478578532,-0.00021098393986052066,-0.00018148193093819875
149570000000.0,2,0.15566095545,0.05586848504999999,0.07607018404999999,0.010664,0.00486,0.019719,0.12041585534999999,-3.9064790274999996,-8.9941690475,0.013388,0.40972,-1.9119,1.6666666666775853e-05,9.999999999998899e-05,-9.999999999998899e-05,-0.00030999914172646914,-0.0008844606448754622,0.00025259012839967676
149570000000.0,2,0.14699187685,0.051377039349999994,0.052975523299999994,4.1e-05,0.013475,0.02395,0.12340688359999999,-3.9061848279999998,-8.994267114,0.013719,0.40969,-1.9118,1.666666666655381e-05,9.999999999998899e-05,-5.0000000000105516e-05,-7.556138427328163e-05,-8.104716510914933e-05,0.0002916914685203442
149570000000.0,2,0.1417845457,0.018524761849999998,0.06834254384999999,-0.008387,0.027403,0.024974,0.12741780344999998,-3.905792562,-8.9943651805,0.014165,0.40964,-1.9116,1.666666666655381e-05,9.999999999998899e-05,-5.0000000000105516e-05,6.0411599883403166e-05,-6.345237282090466e-05,0.00033569628858226563
149570000000.0,2,0.13507679709999998,0.011130547749999999,0.13337043999999998,-0.013608,0.041305,0.024937,0.1326251346,-3.9054983624999995,-8.994463246999999,0.014744,0.4096,-1.9115,1.6666666666775853e-05,4.999999999988347e-05,-9.999999999998899e-05,0.00013847740129335762,0.00012794184209297121,0.00016150363372349763
149570000000.0,2,0.11280589494999999,0.011159967699999999,0.1386071911,-0.020014,0.042426,0.028123,0.13753826624999999,-3.904615764,-8.9947574465,0.01529,0.40951,-1.9113,1.6666666666775853e-05,5.0000000000105516e-05,-9.999999999998899e-05,0.0002593596330297543,8.600795974245123e-05,0.00044153402442140277
149570000000.0,2,0.10003763665,0.01179739995,0.13177195604999997,-0.022141,0.045641,0.032381,0.14237294469999998,-3.9032428329999997,-8.995247779,0.015826,0.40936,-1.911,1.666666666655381e-05,9.999999999998899e-05,-9.999999999998899e-05,-2.6909259479401815e-05,-0.00028164761473759015,0.0003907528976884178
149570000000.0,2,0.0739225277,-0.0059918631499999995,0.11302164125,-0.030673,0.047843,0.035562,0.1467859372,-3.901477636,-8.995934244499999,0.016316,0.40916,-1.9107,5.0000000000105516e-05,9.999999999998899e-05,-9.999999999998899e-05,0.00036999274351123823,-0.00011442611763845534,0.0004137814757418645
149570000000.0,2,0.0405799177,-0.010600988649999999,0.116503002,-0.043509,0.042624,0.034481,0.15035555779999998,-3.8988298404999995,-8.997012976,0.01671,0.40887,-1.9103,4.999999999988347e-05,5.0000000000105516e-05,-9.999999999998899e-05,0.001179954363948521,-0.00031360088802045993,0.0007663408386963944
149570000000.0,2,0.037902702249999996,-0.009129991149999999,0.0748051262,-0.059568,0.034235,0.032333,0.15318967965,-3.8945149144999998,-8.9988762395,0.017021,0.40838,-1.91,0.00010000000000021103,4.999999999988347e-05,-0.00019999999999997797,0.001140981384780193,2.7778394680044727e-05,0.0004526843048850704
149570000000.0,2,0.0381086419,-0.03358777625,0.0436395925,-0.082117,0.017371,0.034458,0.15462145054999998,-3.8882386584999997,-9.001524035,0.017176,0.40769,-1.9097,4.999999999988347e-05,0.00010000000000021103,-0.00019999999999997797,0.0020096952401537083,-0.0001828806535002503,0.0012643731152883753
149570000000.0,2,0.0369906838,-0.0618407349,0.0063154826,-0.096125,0.000438,0.03553,0.1543958976,-3.8807856045,-9.004760229499999,0.017144,0.40686,-1.9093,5.0000000000105516e-05,3.333333333332966e-05,-9.999999999998899e-05,0.000618250596286396,-0.00011236513342538501,0.000282180798693743
149570000000.0,2,0.05686876335,-0.06481214985,-0.0355981395,-0.093052,-0.012378,0.040894,0.15307199984999997,-3.8729402845,-9.008192557,0.016991,0.40599,-1.9089,0.00019999999999997797,3.333333333332966e-05,-0.00019999999999997797,-0.00020911426157166346,0.00013978261493097222,-6.520677419638576e-05
149570000000.0,2,0.03892259385,-0.03696126385,-0.01995653275,-0.071782,-0.015757,0.049475,0.15052227085,-3.8661736959999997,-9.011134552,0.016702,0.40524,-1.9084,9.999999999998899e-05,3.333333333332966e-05,-9.999999999998899e-05,0.0007090532126138305,0.0006971599157850061,0.0009922555906435593
149570000000.0,2,0.0236536398,0.0048444850999999995,-0.039001047049999994,-0.04408,-0.011736,0.063392,0.1475312426,-3.8611723045,-9.013292015,0.016367,0.40468,-1.9077,-0.0022999999999999687,0.0014999999999998348,0.0029999999999998916,0.00322775317106494,0.014171896566670616,-0.0006542561438766248
149570000000.0,2,-0.00042168595,0.05863396034999999,-0.0757661779,-0.005609,0.00179,0.071972,0.14452060105,-3.8584264425,-9.0145668795,0.016031,0.40438,-1.907,0.00029999999999996696,9.999999999998899e-05,-0.00029999999999996696,-0.002401498109607547,-0.0015715670528562153,0.0011447841610340015
149570000000.0,2,-0.0669794195,0.0944968794,-0.0968308621,0.024401,0.022846,0.077324,0.14195125875,-3.8580341764999995,-9.0147630125,0.015745,0.40434,-1.9061,0.0021999999999999797,-0.0012999999999998568,-0.0026999999999999247,-0.0026410997064503228,-0.011739579554325807,0.0016305975002890993
149570000000.0,2,-0.09185889055,0.09651704929999999,-0.10190090014999999,0.040562,0.041891,0.075185,0.1406469743,-3.8594071075,-9.0141746135,0.015601,0.40449,-1.9052,4.999999999988347e-05,0.00019999999999997797,-2.4999999999941735e-05,-0.0004852370869853351,-0.00011165569147020271,0.0007904553267768788
149570000000.0,2,-0.1064021525,0.07779615445,-0.12466213479999999,0.038569,0.058955,0.073018,0.14081368735,-3.8612703709999994,-9.013390081499999,0.015621,0.40469,-1.9043,5.0000000000105516e-05,9.999999999998899e-05,-2.4999999999941735e-05,-3.368731426300897e-05,-0.0002489541231414094,0.0008997342665440777
149570000000.0,2,-0.08544534145,0.0385793611,-0.1421571984,0.030114,0.067549,0.069787,0.1424513979,-3.8628394349999997,-9.012703616,0.015805,0.40487,-1.9035,9.999999999998899e-05,9.999999999998899e-05,-2.500000000016378e-05,-0.0007519043552333127,-0.0001445375287973949,0.00041920614122248345
149570000000.0,2,-0.049866815249999995,0.0042855060499999995,-0.10149882749999999,0.00666,0.068808,0.06761,0.1450403535,-3.8636239669999997,-9.01231135,0.016092,0.40495,-1.9027,9.999999999998899e-05,9.999999999998899e-05,-2.4999999999941735e-05,0.0003178097026257931,0.0002502174126939316,0.0007512531745915985
149570000000.0,2,-0.0073353742,-0.06501808949999999,-0.06336076565,-0.024366,0.057342,0.06651,0.1478450554,-3.8628394349999997,-9.0126055495,0.016403,0.40487,-1.902,9.999999999998899e-05,9.999999999998899e-05,-2.4999999999941735e-05,0.0010039876206541787,-0.0001366562284075279,0.0011285758344102836
149570000000.0,2,0.03784386235,-0.11483587149999999,-0.0432865531,-0.064001,0.03636,0.065411,0.14979657875,-3.859505174,-9.0139784805,0.016617,0.40451,-1.9013,9.999999999998899e-05,4.999999999988347e-05,-2.500000000016378e-05,0.0010315831694358568,0.0003155772268621515,0.0005754014179978617
149570000000.0,2,0.0620564812,-0.14564836579999998,-0.028811937699999998,-0.088657,0.018455,0.06113,0.15043401099999998,-3.85401345,-9.0163320765,0.016683,0.40389,-1.9006,9.999999999998899e-05,5.0000000000105516e-05,-2.4999999999941735e-05,0.0005980799228850753,-0.00016534427898795556,0.000523790125209006
149570000000.0,2,0.0510926465,-0.15024768465,-0.027135000549999996,-0.092856,0.019569,0.050446,0.15092434349999997,-3.8476391274999995,-9.019077938499999,0.016732,0.40318,-1.9001,4.999999999988347e-05,9.999999999998899e-05,-2.4999999999941735e-05,0.0009853115606978102,-0.00010597504699427773,0.00042720475289259596
149570000000.0,2,-0.013837183149999998,-0.11243324224999998,0.0317343194,-0.086142,0.044046,0.028001,0.15269934715,-3.841460938,-9.0216276675,0.016925,0.4025,-1.8997,5.0000000000105516e-05,4.999999999988347e-05,4.999999999988347e-05,0.0009795792422261362,-0.0005987173537542745,0.00038251768779121176
149570000000.0,2,-0.1278394894,-0.05671185694999999,0.10651983229999999,-0.086893,0.071772,0.009809,0.15582766850000002,-3.8350866154999994,-9.024275463,0.017265,0.40179,-1.8994,-9.999999999998899e-05,5.0000000000105516e-05,5.0000000000105516e-05,0.0007176099619609633,-0.0007972538987608413,0.00015684243316585467
149570000000.0,2,-0.19431876974999998,-0.011365907350000001,0.0922021233,-0.087757,0.085643,-0.008356,0.16005433465,-3.827731628,-9.027315524499999,0.017728,0.40098,-1.8993,-0.0009500000000000064,0.0006500000000000394,9.999999999998899e-05,0.0012500422860395877,-0.00013609668643232986,0.0003087115137533625
149570000000.0,2,-0.23301581065,-0.0129840046,0.0184561153,-0.075875,0.097268,-0.019023,0.16523224585,-3.8207689064999997,-9.0302575195,0.018296,0.4002,-1.8993,-0.0009500000000000064,0.0006500000000000394,0.0023999999999999577,0.001237441849308074,0.008619219927069821,-0.0014623089583091498
149570000000.0,2,-0.2254352702,-0.0004903325,-0.0299691224,-0.0482,0.090635,-0.016822,0.1705180302,-3.815375249,-9.0324149825,0.018876,0.39962,-1.8993,0.0018000000000000238,-0.001100000000000101,-0.0022999999999999687,-9.057289520925105e-05,-0.010558070796410579,0.0019393395748579234
149570000000.0,2,-0.19182788064999998,0.0355392996,-0.01315071765,-0.011109,0.064738,-0.008168,0.17401900425,-3.813021653,-9.033297581,0.019262,0.39935,-1.8993,-3.333333333332966e-05,9.999999999998899e-05,9.999999999998899e-05,0.00017438112737111489,-0.0003467708441267092,0.0002475737124797983
149570000000.0,2,-0.15148332255,0.03543142645,-0.0321854253,0.018568,0.041043,-0.007003,0.1758724611,-3.8133158524999997,-9.0331995145,0.019467,0.39938,-1.8992,-3.333333333332966e-05,9.999999999998899e-05,4.999999999988347e-05,-0.0004564843210986824,-0.001046496410267217,-0.00012894268828306243
149570000000.0,2,-0.13411574539999999,0.044826197150000004,-0.03454882795,0.039785,0.024881,-0.009069,0.17646086009999998,-3.8156694484999996,-9.032120782999998,0.019535,0.39965,-1.8992,-3.333333333332966e-05,9.999999999998899e-05,5.0000000000105516e-05,-0.0006666279076299464,-0.00021803250007046415,-7.331255527459613e-05
149570000000.0,2,-0.12241641194999998,0.08197378735,-0.009914523149999998,0.049216,0.004551,-0.007945,0.17553903499999998,-3.81870951,-9.030845918499999,0.019435,0.39998,-1.8992,-9.999999999998899e-05,9.999999999998899e-05,5.0000000000105516e-05,-0.0011640134231115096,-0.000547071379741082,-0.0001811585672031879
149570000000.0,2,-0.0880833303,0.09222173659999999,-0.0226533615,0.059752,-0.006205,0.000634,0.1736757715,-3.8223379705,-9.029374920999999,0.019232,0.40039,-1.8992,-2.4999999999941735e-05,0.00020000000000020002,4.999999999988347e-05,-0.0010707587480789926,0.00023050940897073602,-9.362512100929976e-05
149570000000.0,2,-0.06057567705,0.0769233626,0.004609125499999999,0.074528,-0.018064,0.013491,0.17086126295,-3.827731628,-9.0271193915,0.018925,0.40098,-1.8991,-2.500000000016378e-05,9.999999999998899e-05,4.999999999988347e-05,-0.0012598995772503674,-0.0008185541069052338,-0.00022285543859695833
149570000000.0,2,-0.04294332035,0.08283677254999999,0.09278071565,0.08077,-0.029852,0.026332,0.16669343669999998,-3.8345962829999998,-9.0243735295,0.01847,0.40173,-1.8988,-2.4999999999941735e-05,5.0000000000105516e-05,5.0000000000105516e-05,0.00012756970813315727,-0.0001481983359483685,0.0002773456249335615
149570000000.0,2,-0.02582090945,0.05020024135,0.15407227815,0.070032,-0.037226,0.028462,0.16183914494999999,-3.8415590045,-9.0214315345,0.017938,0.40251,-1.8985,-2.4999999999941735e-05,4.999999999988347e-05,-3.333333333332966e-05,-0.00010855191140424214,-0.001013657129458112,-0.00039836158303829805
149570000000.0,2,-0.015249340749999998,0.0062174160999999995,0.1433339964,0.046706,-0.028494,0.013463,0.1580047448,-3.8472468614999995,-9.019077938499999,0.017517,0.40314,-1.8983,-4.999999999988347e-05,-2.4999999999941735e-05,-3.333333333332966e-05,-0.0001342644366281731,-0.00022659281904058304,-0.00023473452269592854
149570000000.0,2,-0.057094316299999996,0.0016867438,0.1514931292,0.021439,-0.003751,-0.014375,0.15629838769999999,-3.850679189,-9.0177050075,0.017331,0.40352,-1.8983,-5.0000000000105516e-05,-2.4999999999941735e-05,-3.333333333332966e-05,-0.00032988298842745456,-0.0004281304126938501,-0.0006418516841342481
149570000000.0,2,-0.08934838814999999,-0.0012454445499999998,0.1682232741,-0.001698,0.025229,-0.034745,0.15758305884999999,-3.8520521199999997,-9.017018541999999,0.017474,0.40368,-1.8986,-5.0000000000105516e-05,-2.500000000016378e-05,-2.4999999999941735e-05,-0.0006567487218785972,-0.0010037822091550908,-0.000748145615056317
149570000000.0,2,-0.11056017209999999,-0.01354298365,0.17492121604999997,-0.018648,0.039218,-0.035864,0.16039756739999997,-3.8520521199999997,-9.017018541999999,0.017786,0.40367,-1.8989,-4.999999999988347e-05,-2.4999999999941735e-05,-2.4999999999941735e-05,8.178084775245509e-05,-0.0011488746944186001,-0.0003525848707359447
149570000000.0,2,-0.10869690859999999,-0.05135742605,0.13404709885,-0.017559,0.048783,-0.024135,0.1639083481,-3.8519540534999996,-9.017018541999999,0.018176,0.40366,-1.8991,-4.999999999988347e-05,5.0000000000105516e-05,-2.500000000016378e-05,0.0011031080953844974,-0.0006278073790368932,0.00022187095512946065
149570000000.0,2,-0.10601969314999998,-0.05639804415,0.08883844234999999,-0.015461,0.053008,-0.009193,0.16737009555,-3.851855987,-9.017018541999999,0.01856,0.40365,-1.8992,-5.0000000000105516e-05,4.999999999988347e-05,-2.4999999999941735e-05,0.0004114564159644063,-0.0014178521606480476,0.00033467817916521536
149570000000.0,2,-0.06206628785,-0.024604884849999998,0.08681827245,-0.017695,0.050875,0.007887,0.17099855605,-3.8511695214999997,-9.017214675,0.018961,0.40358,-1.8991,-9.999999999998899e-05,4.999999999988347e-05,-1.999999999990898e-05,0.0015594303642242902,0.0007722105263778811,0.0012525264053188379
149570000000.0,2,-0.02737036015,-0.023634026499999995,0.040805470649999995,-0.028483,0.042427,0.018558,0.17401900425,-3.8494043244999996,-9.0179011405,0.019295,0.40338,-1.8989,-9.999999999998899e-05,5.0000000000105516e-05,-2.0000000000131024e-05,-0.00019487881848423427,-0.0015225272378176502,-0.00015339952783605115
149570000000.0,2,-0.0366964843,-0.0420705285,-0.012160246,-0.038206,0.026523,0.017503,0.17556845494999998,-3.8465603959999997,-9.019077938499999,0.019463,0.40307,-1.8986,-9.999999999998899e-05,-9.999999999998899e-05,-1.999999999990898e-05,-0.0005957048663985942,-0.002154104414259006,-0.0008968361889767351
149570000000.0,2,-0.0357354326,-0.05131819945,-0.029155170449999997,-0.037278,0.003081,0.00794,0.17549980839999998,-3.843618401,-9.020352803,0.019453,0.40274,-1.8985,-9.999999999998899e-05,-9.999999999998899e-05,-2.0000000000131024e-05,-0.0037131753539292878,-0.000589308551851575,-0.0030049818684524665
149570000000.0,2,-0.0303025485,-0.04168806914999999,-0.009002504699999999,-0.022482,-0.024732,-0.007996,0.17349925179999998,-3.8417551375,-9.021137335,0.01923,0.40253,-1.8985,-0.00020000000000020002,9.999999999998899e-05,-1.999999999990898e-05,-0.0010586790688685843,0.0006602355765443768,-0.0008797771521558695
149570000000.0,2,-0.021201977299999997,-0.0055309506,0.02478140455,-0.001144,-0.040866,-0.033547,0.1706945499,-3.8411667384999997,-9.0214315345,0.018918,0.40247,-1.8988,-0.00039999999999995595,0.0004999999999999449,-0.00029999999999996696,0.005242665959258264,0.008238174215390748,0.005444699470617209
149570000000.0,2,-0.02756649315,0.041001603649999996,0.028409865049999997,0.022528,-0.0357,-0.065537,0.16883128639999997,-3.8422454699999995,-9.0210392685,0.018713,0.40259,-1.8994,-0.0017000000000000348,0.005300000000000082,9.999999999998899e-05,0.011239752575556428,0.004344498176397593,-0.0029280255022935686
149570000000.0,2,-0.05851628055,0.0923394164,0.04053088445,0.043152,-0.003883,-0.085835,0.16985117799999996,-3.844599066,-9.019960537,0.018828,0.40285,-1.9002,-9.999999999998899e-05,9.999999999998899e-05,9.999999999998899e-05,0.001768798572496566,-0.0006007254220474767,-0.003718138052691472
149570000000.0,2,-0.0887894091,0.1252701471,0.06347844544999999,0.044387,0.016352,-0.088001,0.17288143285,-3.8472468614999995,-9.0188818055,0.019167,0.40314,-1.9011,-9.999999999998899e-05,9.999999999998899e-05,-5.0000000000105516e-05,0.0001766398360542598,-0.00024400896166554276,-0.0013214274470262077
149570000000.0,2,-0.0806302763,0.06251739375,0.06436104395,0.028325,0.018597,-0.073086,0.17625492045,-3.8495023909999997,-9.017803074,0.019542,0.4034,-1.9019,-0.00029999999999996696,-9.999999999998899e-05,-4.999999999988347e-05,-0.0016018603188160396,-0.0005442358363170197,0.0026961731055358262
149570000000.0,2,-0.08497462225,-0.016612465099999998,0.0106107953,0.007897,0.004899,-0.063489,0.1782064438,-3.8509733884999995,-9.0171166085,0.01976,0.40355,-1.9026,-0.00019999999999997797,-9.999999999998899e-05,-9.999999999998899e-05,-0.0006649695925735055,-0.0002694299404537581,2.508388414618201e-06
149570000000.0,2,-0.06675386655,-0.0446987107,-0.014808041499999999,-0.000766,-0.009953,-0.061341,0.1788340694,-3.8515617874999997,-9.016822409,0.019831,0.40362,-1.9032,-9.999999999998899e-05,5.0000000000105516e-05,9.999999999998899e-05,-0.0002324556027388791,-0.0002663416734731694,-0.0011261965684748465
149570000000.0,2,-0.024183198899999998,-0.0381870951,0.0184953419,-0.000934,-0.034456,-0.066635,0.17816721719999998,-3.8520521199999997,-9.016626276,0.019757,0.40368,-1.9039,-0.00019999999999997797,4.999999999988347e-05,1.2499999999970868e-05,-9.479384579402783e-05,-0.0001191151419874803,-0.0005881488228743903
149570000000.0,2,-0.023339827,0.010120462799999999,0.03896182045,0.003381,-0.03661,-0.079432,0.1773238453,-3.852248253,-9.016626276,0.019663,0.40369,-1.9047,-9.999999999998899e-05,-9.999999999998899e-05,1.2499999999970868e-05,-0.0011879836955566714,-0.001047680989247013,0.0006625993378226724
149570000000.0,2,-0.034284048399999996,0.07863952635,-0.015710253299999997,0.023872,-0.013329,-0.086908,0.17823586375,-3.8526405189999995,-9.016430143,0.019765,0.40374,-1.9056,-0.00029999999999996696,5.0000000000105516e-05,1.2499999999970868e-05,-0.000471520307905704,-0.001562158555116877,-0.0004963385268451082
149570000000.0,2,-0.0598794049,0.14413814169999997,0.019701559849999998,0.036951,0.018534,-0.092275,0.1816779979,-3.8536211839999996,-9.015939810499999,0.020148,0.40385,-1.9066,-0.00039999999999995595,4.999999999988347e-05,1.2499999999970868e-05,0.00040881301015566196,-0.0005041326322512418,-0.0015907884028024677
149570000000.0,2,-0.07562888479999999,0.1438243289,0.0605854837,0.030807,0.04736,-0.098738,0.18785618739999999,-3.8546999154999995,-9.0153514115,0.020834,0.40397,-1.9076,-0.000300000000000189,3.333333333332966e-05,1.2500000000192912e-05,0.0001957666157900717,-0.001138818316520629,-0.0005623881495270544
149570000000.0,2,-0.054015028199999995,0.11131528415,-0.008953471449999998,0.015008,0.067745,-0.10841,0.19677043225,-3.8545037824999997,-9.015253345,0.021823,0.40395,-1.9087,-0.00019999999999997797,3.333333333332966e-05,1.2499999999970868e-05,0.00021074090223327513,-0.0013711096717021753,0.00020034708894772768
149570000000.0,2,-0.058055367999999996,0.0671755525,-0.053711022049999994,0.001204,0.073191,-0.11377,0.2069399283,-3.8533269844999998,-9.015547544499999,0.02295,0.40381,-1.9099,-0.00039999999999995595,3.333333333332966e-05,1.2499999999970868e-05,-7.151234791480388e-05,-0.0012696804963319153,-0.0005221430036818075
149570000000.0,2,-0.051582978999999994,0.037794829099999996,-0.07646245004999999,-0.013778,0.065857,-0.11699,0.21693290464999998,-3.8509733884999995,-9.01623401,0.024055,0.40356,-1.9111,-0.00029999999999996696,9.999999999998899e-05,1.2499999999970868e-05,0.0006164644968537081,-0.00040225109084279786,-0.0018294882311131744
149570000000.0,2,-0.0338133292,-0.0080022264,-0.1258389328,-0.012865,0.045604,-0.11908,0.22565101649999997,-3.8487178589999997,-9.017018541999999,0.02502,0.40331,-1.9124,-0.00029999999999996696,9.999999999998899e-05,-9.999999999998899e-05,-0.0021346900489326304,-0.00108291331105681,0.0015296342548823672
149570000000.0,2,-0.023486926749999998,-0.025212897149999997,-0.15728885935,0.003991,0.020952,-0.11581,0.23237837839999997,-3.8477371939999996,-9.0173127415,0.025765,0.40319,-1.9137,-0.00019999999999997797,9.999999999998899e-05,9.999999999998899e-05,0.001075730003113451,0.0005765013134861885,-0.0023100185862862666
149570000000.0,2,0.0030596748,-0.01611232595,-0.1343118784,0.032397,-0.0283,-0.11461,0.23531056674999998,-3.8497965904999996,-9.0163320765,0.026092,0.40342,-1.9149,-0.00029999999999996696,9.999999999998899e-05,3.333333333332966e-05,-0.0004090365199444501,-0.00015908896281069396,-0.0015881852739635938
149570000000.0,2,0.0348724474,-0.014945334599999999,0.1778337911,0.011704,-0.078217,-0.10922,0.23432009509999996,-3.852248253,-9.015253345,0.025986,0.4037,-1.9162,-0.000300000000000189,9.999999999998899e-05,3.333333333332966e-05,0.00019348783191397434,0.0005157118984917552,-0.0017893922200019619
149570000000.0,2,0.1406469743,-0.00114737805,0.058192661099999994,0.02017,-0.080423,-0.098528,0.23314329709999998,-3.8539153835,-9.0145668795,0.025857,0.40389,-1.9174,-0.00029999999999996696,9.999999999998899e-05,3.333333333332966e-05,7.033945280471299e-05,3.931408748969467e-05,-0.0014066902566007011
149570000000.0,2,0.07446189345,0.0703332938,-0.044335864649999994,0.033216,-0.044306,-0.090031,0.2330452306,-3.8553863809999998,-9.0139784805,0.025848,0.40405,-1.9184,-9.999999999998899e-05,5.0000000000105516e-05,3.333333333332966e-05,-0.0008597607706717358,-0.0011374457237902647,0.0009146366117270266
149570000000.0,2,-0.03095959405,0.0673128456,0.0701763874,0.015442,0.002724,-0.08801,0.23551650639999996,-3.8565631789999997,-9.013390081499999,0.026123,0.40418,-1.9194,-0.00029999999999996696,4.999999999988347e-05,3.333333333332966e-05,0.0011941709427458758,-0.0004994706570202734,-0.0014074230736285664
149570000000.0,2,-0.03709855695,0.06726381235,0.0700390943,-0.001356,0.034834,-0.091298,0.24165546929999998,-3.8565631789999997,-9.013292015,0.026804,0.40417,-1.9204,-9.999999999998899e-05,0.00019999999999997797,3.333333333332966e-05,0.00041083597967789265,-0.0010413667064272936,-0.00023885015004901367
149570000000.0,2,-0.08977988075,0.0308321076,-0.0645865969,-0.027897,0.051035,-0.092437,0.24779443219999997,-3.8539153835,-9.0141746135,0.027483,0.40388,-1.9213,-0.00019999999999997797,-0.00019999999999997797,-9.999999999998899e-05,-0.0026010049980795813,-0.0021571698674658357,0.001718486625279514
149570000000.0,2,-0.0610169763,-0.04198226865,-0.045061556749999995,-0.040833,0.038345,-0.086032,0.25405107489999995,-3.8505811225,-9.015449477999999,0.028172,0.40351,-1.9222,-0.0004999999999999449,0.00019999999999997797,4.999999999988347e-05,0.0011535534387794866,0.000286729143804898,-0.0024997506455498864
149570000000.0,2,-0.028125472199999998,-0.09843915269999999,-0.0529166834,-0.044201,0.022379,-0.07747,0.2593074393,-3.8472468614999995,-9.016822409,0.028751,0.40314,-1.923,-0.00019999999999997797,9.999999999998899e-05,5.0000000000105516e-05,0.0006651064544443419,-9.207510815567588e-06,-0.0012042795891929747
149570000000.0,2,-0.028135278849999997,-0.1377834325,-0.0175342902,-0.046418,0.015994,-0.069991,0.26335758575,-3.8446971325,-9.0177050075,0.029197,0.40286,-1.9238,-0.00020000000000020002,-9.999999999998899e-05,-9.999999999998899e-05,-0.0005404343650830534,-0.0006104767622914231,0.001486237237475957
149570000000.0,2,-0.0080806796,-0.15201288165,0.0546818804,-0.041156,0.010615,-0.062502,0.26694681964999994,-3.8431280685,-9.0182934065,0.029592,0.40269,-1.9245,-0.00029999999999996696,0.00019999999999997797,9.999999999998899e-05,0.001226089804171604,0.0003454176719701607,-0.001841959688054784
149570000000.0,2,0.01568083335,-0.13236035505,0.087671451,-0.026246,0.008358,-0.059272,0.27028108064999995,-3.8427358024999996,-9.0182934065,0.029961,0.40264,-1.9251,-0.00029999999999996696,3.333333333332966e-05,9.999999999998899e-05,-0.0005184279635021549,-0.0006527231439290571,-0.0005495189620402796
149570000000.0,2,0.019073934249999997,-0.0994982709,0.11410037274999998,-0.000584,0.014541,-0.05924,0.2739193478,-3.8440106669999996,-9.0177050075,0.030366,0.40279,-1.9258,-9.999999999998899e-05,3.333333333332966e-05,9.999999999998899e-05,-0.0012751556395841912,-0.0011142542764428498,-0.0005156441116591359
149570000000.0,2,0.034911674,-0.03986403225,0.0797280645,0.036858,0.023829,-0.063463,0.27902861245,-3.8474429944999997,-9.0161359435,0.030938,0.40316,-1.9265,-9.999999999998899e-05,3.333333333332966e-05,9.999999999998899e-05,7.632476621560746e-05,0.00024789710157024913,-0.0007226422975322444
149570000000.0,2,0.032783630949999996,0.03072423445,0.10188128685,0.068938,0.032092,-0.064491,0.2851969953,-3.8529347185,-9.0135862145,0.03163,0.40377,-1.9272,-0.00019999999999997797,0.00019999999999997797,9.999999999998899e-05,-0.0007011956523282348,0.0004803235109980264,-0.0020996968454191356
149570000000.0,2,0.05590771165,0.05302455655,0.08385666415,0.093373,0.022298,-0.059096,0.2908063991,-3.8606819719999996,-9.0100558205,0.032264,0.40463,-1.928,-0.00019999999999997797,9.999999999998899e-05,9.999999999998899e-05,-0.0007523527699524468,5.832005930472839e-05,-0.00015286593214103306
149570000000.0,2,0.1083438692,0.026948674199999998,0.05204389155,0.10598,0.005137,-0.047306,0.29582740389999995,-3.869900223,-9.0059370275,0.032836,0.40566,-1.9287,-0.00019999999999997797,-0.0024500000000000632,9.999999999998899e-05,-0.0010283082045754455,-0.00015479367307835723,-0.0007283897470640732
149570000000.0,2,0.14173551245,-0.0061389629,0.05480936685,0.090884,-0.011788,-0.04197,0.2993970245,-3.878922341,-9.001916301,0.033247,0.40665,-1.9293,0.0006999999999999229,-0.002449999999999841,0.0008000000000001339,-0.018576200011262034,-0.005640856760432245,-0.00374551831752018
149570000000.0,2,0.15703388645,-0.0268309944,0.0496020357,0.074614,-0.044682,-0.040877,0.30085821535,-3.8863753949999995,-8.9986801065,0.033422,0.40748,-1.9299,-0.0005999999999999339,0.0009999999999998899,-0.00019999999999997797,-0.009068907135465765,-0.00422364279557752,-0.008852377365798941
149570000000.0,2,0.17496044265,-0.05022966129999999,0.0405014645,0.024406,-0.054914,-0.044154,0.3008876353,-3.8907883875,-8.996718776499998,0.033432,0.40797,-1.9305,0.00019999999999997797,-0.0007999999999999119,-0.00020000000000020002,0.007104247280646125,0.0027475630141118312,0.005582678086844928
149570000000.0,2,0.20458633229999998,-0.0699410278,0.04970990884999999,-0.004628,-0.079184,-0.036695,0.29909301834999996,-3.892455518,-8.9961303775,0.033234,0.40816,-1.9311,0.0007999999999999119,-0.0006999999999999229,-0.00019999999999997797,0.009881344441071693,0.004766319467508495,0.0033451585984612675
149570000000.0,2,0.2180410561,-0.0883186899,0.026477955,-0.028238,-0.087521,-0.021784,0.29596469699999994,-3.8917690524999995,-8.9965226435,0.032886,0.40808,-1.9315,-9.999999999998899e-05,-9.999999999998899e-05,5.0000000000105516e-05,0.0007878276910333604,0.0002201972415192266,-0.0002862350941228997
149570000000.0,2,0.18555162465,-0.07814919384999999,0.03861858769999999,-0.03466,-0.08002,-0.004736,0.2919439705,-3.8899057889999997,-8.997405242,0.032436,0.40788,-1.9318,-9.999999999998899e-05,9.999999999998899e-05,4.999999999988347e-05,9.590399822989593e-05,-0.0001804018410325181,-0.0001260727127158634
149570000000.0,2,0.1475704692,-0.038736267500000005,0.04007977855,-0.01955,-0.051379,0.006977,0.28892352229999996,-3.8885328579999996,-8.998091707499999,0.032099,0.40772,-1.9318,-9.999999999998899e-05,4.999999999988347e-05,0.00020000000000020002,0.00013874988173406821,0.00038290994174006165,0.00027654935170814965
149570000000.0,2,0.05839860075,0.03945215294999999,0.016239812399999998,0.016998,-0.011195,0.016574,0.28756039795,-3.888728991,-8.998091707499999,0.031947,0.40775,-1.9317,-9.999999999998899e-05,5.0000000000105516e-05,9.999999999998899e-05,-0.0005478928925170545,-0.0001353897719047481,0.00046697552289881594
149570000000.0,2,-0.0316362529,0.15091453685,0.07620747715,0.053455,0.014074,0.019795,0.2872171652,-3.8912787199999994,-8.997012976,0.031913,0.40803,-1.9315,-4.999999999988347e-05,-1.1111111111183902e-05,-3.333333333332966e-05,-0.0005234843097724484,0.0006955491776323708,0.00012472434465440885
149570000000.0,2,-0.0778059611,0.20471381875,0.12277925799999999,0.06832,0.00117,0.012374,0.28595210735,-3.8951033134999995,-8.9953458455,0.031778,0.40845,-1.9313,-5.0000000000105516e-05,-1.1111111110961858e-05,-3.333333333332966e-05,-0.0011050643294727713,0.0013262841064267672,-5.339576027940662e-05
149570000000.0,2,-0.05267151714999999,0.18669900269999998,0.10787314999999999,0.067999,-0.043576,0.003914,0.28206867394999996,-3.8993201729999996,-8.993678715,0.031353,0.40893,-1.9312,-1.999999999990898e-05,-1.1111111111183902e-05,-3.333333333332966e-05,-0.0009182695292764831,0.0009958927773745518,-0.0006064740617562625
149570000000.0,2,0.0391481468,0.12663327145,0.08595528725,0.061225,-0.093596,-0.002415,0.2755472517,-3.9038312319999995,-8.991913517999999,0.030634,0.40942,-1.9313,-2.0000000000131024e-05,-1.1111111111183902e-05,-5.0000000000105516e-05,-0.0006136569187394358,0.0017596250153681936,-0.0004692826885085155
149570000000.0,2,0.10870671524999999,0.051896791799999994,0.09563445079999999,0.047004,-0.13823,-0.003431,0.26598576795,-3.908342291,-8.9902463875,0.029578,0.40993,-1.9314,-1.999999999990898e-05,-1.1111111110961858e-05,-5.0000000000105516e-05,-0.00030026027758589535,0.0017490209330304207,-0.0006750701791753133
149570000000.0,2,0.16558528525,-0.032156005349999996,0.17131236884999998,0.012552,-0.17098,0.007237,0.25384513524999996,-3.9119707514999997,-8.988971523,0.028232,0.41033,-1.9315,-2.0000000000131024e-05,-1.1111111111183902e-05,-9.999999999998899e-05,0.0003073389759613576,0.002201365298743818,-0.0003454369683130454
149570000000.0,2,0.18959196444999998,-0.10243045925,0.18604195714999996,-0.020627,-0.17498,0.023193,0.24031195824999999,-3.9133436825,-8.988775389999999,0.026729,0.41049,-1.9314,-1.999999999990898e-05,-1.1111111111183902e-05,-4.999999999988347e-05,0.00026639751642343334,0.0029804452090267386,0.0003481918896303393
149570000000.0,2,0.13292914074999998,-0.13543964314999998,0.11649319535,-0.027902,-0.14509,0.033799,0.2272396938,-3.9137359485,-8.988971523,0.025275,0.41053,-1.9312,3.333333333332966e-05,-1.1111111110961858e-05,-5.0000000000105516e-05,0.0008951015851896837,0.0009553516724669642,0.0006299713705872623
149570000000.0,2,0.03205793885,-0.1040681698,0.1462956047,-0.018987,-0.09615,0.038002,0.21649160539999998,-3.9143243475,-8.988971523,0.02408,0.41059,-1.9308,3.333333333332966e-05,-1.1111111111183902e-05,-9.999999999998899e-05,-0.00010332750256969447,0.000448505081483086,0.0005393951530432983
149570000000.0,2,-0.039089306899999995,-0.048582144099999995,0.2233562604,-0.004803,-0.053651,0.044358,0.20847957234999998,-3.915795345,-8.988579257,0.02319,0.41075,-1.9303,3.333333333332966e-05,-9.999999999998899e-05,-9.999999999998899e-05,-0.0003833638841017617,0.0002840080812833712,0.0003403888155815715
149570000000.0,2,-0.0508376736,0.007423634049999999,0.20434116605,0.002814,-0.030281,0.052872,0.20241906264999998,-3.917168276,-8.9880889245,0.022517,0.4109,-1.9297,5.0000000000105516e-05,-9.999999999998899e-05,-9.999999999998899e-05,0.00012676503074016132,0.0003209561886738932,0.0005712261170509603
149570000000.0,2,-0.053691408749999996,0.01903470765,0.19912402825,0.00604,-0.020731,0.063537,0.1971921182,-3.91873734,-8.9875005255,0.021937,0.41108,-1.929,4.999999999988347e-05,-9.999999999998899e-05,-0.00019999999999997797,0.00010863296123664323,-0.00014370234093030732,0.0003796170120241582
149570000000.0,2,0.0016573238499999997,-0.010944221399999999,0.17048861025,0.0017,-0.024966,0.072076,0.19226917989999998,-3.920502537,-8.986814059999999,0.021391,0.41128,-1.9282,9.999999999998899e-05,-9.999999999998899e-05,-9.999999999998899e-05,0.00039471678965619095,0.0007064841272572675,0.0005906897225849139
149570000000.0,2,0.052740163699999995,-0.0337152627,0.1659481313,-0.010039,-0.025933,0.072056,0.1878758007,-3.921483202,-8.9865198605,0.020903,0.41139,-1.9275,5.0000000000105516e-05,-0.00010000000000021103,-9.999999999998899e-05,0.000528894478157127,0.0014380823017259292,0.0005911988881952268
149570000000.0,2,0.08569050769999999,-0.05067096054999999,0.13124239695,-0.019509,-0.015186,0.063479,0.18500245224999998,-3.9215812685,-8.9865198605,0.020584,0.4114,-1.9268,4.999999999988347e-05,-0.00019999999999997797,-9.999999999998899e-05,0.0004345775396458751,0.0002442193166938278,0.0004859705956181959
149570000000.0,2,0.09837050615,-0.04531652965,0.09005446695,-0.025652,0.009389,0.051681,0.18474747935,-3.9206986699999997,-8.986912126499998,0.020554,0.4113,-1.9263,9.999999999998899e-05,-9.999999999998899e-05,-9.999999999998899e-05,0.00027819760150760153,-0.00024490472486382586,0.00042718351242812536
149570000000.0,2,0.0872595717,-0.032705177749999995,0.09646801605,-0.02961,0.04034,0.039875,0.18747372804999998,-3.9192276725,-8.9875005255,0.020857,0.41113,-1.9259,0.00019999999999997797,-9.999999999998899e-05,-0.00019999999999997797,0.00010987134064677218,-0.0010370823633627513,0.000575161413415598
149570000000.0,2,0.0791396655,-0.01411176935,0.04564995575,-0.024105,0.059482,0.036646,0.19245550625,-3.9174624755,-8.988186991,0.021408,0.41094,-1.9255,9.999999999998899e-05,-0.00019999999999997797,-9.999999999998899e-05,-0.00017172683543248413,-0.0008023572033379889,0.00047069235291904987
149570000000.0,2,0.10688267835,0.0060703163499999995,0.019005287699999998,-0.022033,0.053074,0.038792,0.19792761695,-3.9155011455,-8.9888734565,0.022016,0.41072,-1.9252,0.00020000000000020002,-9.999999999998899e-05,-9.999999999998899e-05,-0.0005339951706197499,-0.0008345383924153182,0.00033432391058244026
149570000000.0,2,0.10979525339999999,0.0032165811999999997,-0.00709020795,-0.021188,0.028557,0.04417,0.2014482043,-3.913441749,-8.989756054999999,0.022405,0.41049,-1.9248,9.999999999998899e-05,-9.999999999998899e-05,-9.999999999998899e-05,-0.0003595406782235244,0.0006722408223516219,0.0005013564869894571
149570000000.0,2,0.13640069484999998,-0.00442279915,-0.07807074064999998,-0.01621,-0.004532,0.062377,0.2017816304,-3.9114804189999997,-8.990540587,0.02244,0.41027,-1.9243,0.00029999999999996696,-9.999999999998899e-05,-9.999999999998899e-05,-0.0002036400287066531,0.001008824773037098,0.0005934323642744765
149570000000.0,2,0.14402046189999998,0.023967452599999998,-0.1293497135,-0.001558,-0.029174,0.079519,0.19894750854999999,-3.9097152219999995,-8.991325118999999,0.022123,0.41008,-1.9236,0.00019999999999997797,-9.999999999998899e-05,-4.999999999988347e-05,-0.0008391463170678293,0.0007804503283321829,0.0005829960213024343
149570000000.0,2,0.1095991204,0.07915927879999998,-0.15386633849999998,0.02179,-0.034706,0.094508,0.19385785719999998,-3.9093229559999996,-8.991717385,0.021557,0.41003,-1.9226,0.00019999999999997797,-1.999999999990898e-05,-5.0000000000105516e-05,1.1524056742151512e-05,0.0011045685414439177,0.0011794045364977024
149570000000.0,2,0.0347351543,0.14077446075,-0.13381173924999998,0.050597,-0.03175,0.097752,0.18763063445,-3.9105978205,-8.9912270525,0.020865,0.41018,-1.9216,9.999999999998899e-05,-2.0000000000131024e-05,-5.0000000000105516e-05,-0.00041632726393930897,0.0010735113067414925,0.0010324950236007824
149570000000.0,2,-0.053152043,0.1804619733,-0.05008256155,0.064402,-0.040389,0.093521,0.1789909758,-3.910499754,-8.991521252,0.019904,0.41016,-1.9205,0.00019999999999997797,-1.999999999990898e-05,-4.999999999988347e-05,-0.00043564638241022635,0.00011216229336463712,0.0002630219768484099
149570000000.0,2,-0.0453851762,0.18678726255,-0.0526813238,0.067568,-0.052124,0.081805,0.17123391564999998,-3.9167760099999995,-8.9888734565,0.019047,0.41086,-1.9196,0.00019999999999997797,-2.0000000000131024e-05,-5.0000000000105516e-05,-0.0011817932851940771,0.00041738543367397796,8.979700240085986e-05
149570000000.0,2,-0.05207331149999999,0.15570018204999997,-0.05215176469999999,0.070891,-0.053191,0.054061,0.16295710305,-3.9206986699999997,-8.987304392499999,0.01813,0.4113,-1.9189,0.00019999999999997797,-1.999999999990898e-05,-5.0000000000105516e-05,-0.0003262694432136226,0.0003944571217771031,-0.00019149994267245174
149570000000.0,2,-0.05129858615,0.11733656725,-0.028615804699999997,0.065758,-0.039279,0.034815,0.15664162045,-3.9250135959999994,-8.9855391955,0.017431,0.41178,-1.9184,9.999999999998899e-05,-5.0000000000105516e-05,-3.333333333332966e-05,-0.0005622316405897165,0.00021753063624685431,0.00029605031795329473
149570000000.0,2,-0.05243615755,0.09096648539999999,0.060605097,0.046718,-0.021005,0.030481,0.15210114149999998,-3.9288381894999995,-8.9839701315,0.016929,0.41221,-1.9181,0.00019999999999997797,-4.999999999988347e-05,-3.333333333332966e-05,-0.0007292615042295281,-0.00013640184500918195,0.00012726876559046585
149570000000.0,2,-0.05459362054999999,0.03317589695,0.10726513769999999,0.011663,0.004845,0.04105,0.14946315265,-3.9310937189999997,-8.9829894665,0.016637,0.41245,-1.9176,0.00019999999999997797,-9.999999999998899e-05,-3.333333333332966e-05,5.4943447885924535e-05,-0.0003559870915441632,0.0008664689534551018
149570000000.0,2,-0.0441691516,-0.0246146915,0.09928252459999999,-0.016971,0.038093,0.060157,0.1492179864,-3.9311917855,-8.9829894665,0.016609,0.41247,-1.917,0.00020000000000020002,-5.0000000000105516e-05,-0.00019999999999997797,0.00019780165147070816,-0.00031179270667669456,0.0008942942725896075
149570000000.0,2,-0.03819690175,-0.06755801185,0.09264342254999999,-0.0435,0.070254,0.083538,0.15116950975,-3.929524655,-8.983675931999999,0.016826,0.41229,-1.9161,0.00019999999999997797,-4.999999999988347e-05,-9.999999999998899e-05,0.0006374214667004829,-0.0006022766180329153,0.001359519861921371
149570000000.0,2,-0.06194860804999999,-0.08690653229999999,0.11238420899999998,-0.06259,0.093836,0.099477,0.15442531755,-3.926386527,-8.9849507965,0.017186,0.41193,-1.915,9.999999999998899e-05,-9.999999999998899e-05,-0.00019999999999997797,0.00040882152457727416,-0.0009620815414843609,0.0009524348967706875
149570000000.0,2,-0.06815621749999999,-0.0657633949,0.09762520075,-0.072175,0.098171,0.10373,0.1582401044,-3.9216793349999994,-8.987010193,0.017606,0.4114,-1.9138,0.00019999999999997797,-5.0000000000105516e-05,-4.999999999988347e-05,0.001048118974066703,0.0008143534506488415,0.0012575924412273898
149570000000.0,2,-0.052426350899999995,-0.02870406455,0.0682150574,-0.06902,0.087495,0.096279,0.16181953165,-3.9161876109999993,-8.989265722499999,0.017999,0.4108,-1.9127,0.00019999999999997797,-4.999999999988347e-05,-5.0000000000105516e-05,0.0005158543425589079,-0.00017896114533288987,0.0005925613155491061
149570000000.0,2,-0.04466929075,-0.0007649187,0.06434143064999999,-0.062805,0.055489,0.082471,0.1634768555,-3.9108920199999995,-8.991521252,0.01818,0.41021,-1.9117,0.00019999999999997797,-9.999999999998899e-05,-9.999999999998899e-05,0.0007562918512301064,6.026045724416562e-06,0.0009078822574492273
149570000000.0,2,-0.03829496825,0.014945334599999999,0.051259359549999994,-0.049062,0.03088,0.068663,0.16325130254999998,-3.9062828945,-8.993580648499998,0.018149,0.40969,-1.9108,9.999999999998899e-05,-5.0000000000105516e-05,-9.999999999998899e-05,0.00014007295046092327,-1.7804136944743476e-06,0.0005150256857237578
149570000000.0,2,-0.07424614715,0.0239478393,-0.016769371499999998,-0.036238,0.024393,0.053755,0.16193721144999998,-3.9023602344999997,-8.9953458455,0.018,0.40926,-1.9102,9.999999999998899e-05,-4.999999999988347e-05,-9.999999999998899e-05,-0.00027221478008299105,-0.00036870179089398825,0.0004619268317341829
149570000000.0,2,-0.09970421055,0.03405849545,-0.0127094184,-0.037235,0.028667,0.046277,0.1609075132,-3.8986337074999997,-8.997012976,0.017883,0.40884,-1.9096,0.00019999999999997797,-9.999999999998899e-05,-9.999999999998899e-05,0.000697043310473322,0.0004591891140557358,0.0006577329962238754
149570000000.0,2,-0.13082071099999998,0.021103910799999997,0.01134629405,-0.054294,0.03306,0.050513,0.15970129524999999,-3.8939265154999996,-8.999072372499999,0.017745,0.40832,-1.9089,9.999999999998899e-05,-0.00010000000000021103,-9.999999999998899e-05,0.0005415156070638361,0.0002534728510990014,0.0009750559464679343
149570000000.0,2,-0.10913820784999999,-0.016416332099999997,-0.03139108665,-0.064934,0.048043,0.068617,0.15941690239999998,-3.8882386584999997,-9.001524035,0.017708,0.40769,-1.9081,9.999999999998899e-05,-9.999999999998899e-05,-9.999999999998899e-05,0.0006060087382807611,-0.00037300313140975483,0.0013442490074518643
149570000000.0,2,-0.08900515540000001,-0.05059250735,-0.0667636732,-0.061682,0.065045,0.085674,0.16023085434999998,-3.8827469344999996,-9.0037795645,0.017794,0.40708,-1.9072,0.00019999999999997797,-1.999999999990898e-05,-5.0000000000105516e-05,-0.00017957523644213103,-0.0001630879824632281,0.00103629920805956
149570000000.0,2,-0.10956970045,-0.00344213415,-0.0493666761,-0.039198,0.077638,0.089963,0.16164301195,-3.8784320085,-9.005642828,0.017947,0.4066,-1.9061,9.999999999998899e-05,-2.0000000000131024e-05,-4.999999999988347e-05,-0.0009251568896468387,-0.0011366158574295238,0.0009474778538342832
149570000000.0,2,-0.10522535449999999,0.055731191949999995,-0.027801852749999998,-0.001739,0.085862,0.079342,0.16433003405,-3.8765687449999997,-9.00642736,0.018244,0.4064,-1.9051,0.00010000000000021103,-1.999999999990898e-05,-4.999999999988347e-05,-0.00018211341034990447,-8.475905140947759e-05,0.0009059547387365308
149570000000.0,2,-0.07495222594999999,0.09011330684999999,-0.02009382585,0.027088,0.07818,0.06233,0.1677329416,-3.8772552104999995,-9.006035094,0.018622,0.40647,-1.9043,9.999999999998899e-05,-2.0000000000131024e-05,-5.0000000000105516e-05,-6.22705775892296e-05,-4.1090668057908175e-05,0.0005464020393825264
149570000000.0,2,-0.0666656067,0.10854980885,0.026075882349999996,0.038736,0.055724,0.043178,0.17036112379999999,-3.8794126734999996,-9.005054429,0.018916,0.40671,-1.9038,9.999999999998899e-05,-1.999999999990898e-05,-5.0000000000105516e-05,-0.00013738327897050429,-8.723131505172788e-05,0.00040787960966284786
149570000000.0,2,-0.0497981687,0.06472388999999999,0.0042462794499999994,0.023619,0.030277,0.037861,0.1713025622,-3.8810798039999996,-9.004367963499998,0.019023,0.4069,-1.9033,9.999999999998899e-05,-5.0000000000105516e-05,-4.999999999988347e-05,9.682047097026025e-05,-7.931157549578849e-05,0.00045862996156856295
149570000000.0,2,-0.0252619304,-0.0032263878499999995,-0.034921480649999996,-0.003251,0.007052,0.039991,0.17041015704999998,-3.8813740034999995,-9.004269896999999,0.018923,0.40693,-1.9029,9.999999999998899e-05,-4.999999999988347e-05,-4.999999999988347e-05,0.00042425135790902235,0.00024035434298497194,0.0002499194976177954
149570000000.0,2,-0.05053366744999999,-0.07765886135,-0.03968751255,-0.026796,-0.002346,0.039968,0.16785062139999998,-3.8803933385,-9.004662162999999,0.018638,0.40682,-1.9024,9.999999999998899e-05,-9.999999999998899e-05,-5.0000000000105516e-05,0.0003468023003538323,-4.821329803172958e-06,0.0002533528784693373
149570000000.0,2,-0.08723995839999998,-0.11482606485,-0.04861156404999999,-0.044835,0.004201,0.031388,0.1652028259,-3.877941676,-9.005838961,0.018342,0.40655,-1.9019,9.999999999998899e-05,-9.999999999998899e-05,3.333333333332966e-05,0.00026343877239204394,-0.0006009721435178417,0.00018685571454687966
149570000000.0,2,-0.0924570962,-0.0860043205,-0.046140288249999994,-0.039357,0.015884,0.021773,0.16382989489999997,-3.8750977475,-9.0071138255,0.018187,0.40623,-1.9016,-9.999999999998899e-05,-1.999999999990898e-05,3.333333333332966e-05,-0.0003256246493095194,0.00010984620963738756,0.00020838774563214368
149570000000.0,2,-0.12881034775,-0.026311241949999998,-0.04631680795,-0.007074,0.042266,0.008977,0.16442810054999998,-3.8737248164999993,-9.0077022245,0.018252,0.40608,-1.9014,3.333333333332966e-05,-2.0000000000131024e-05,3.333333333332966e-05,-0.000326749222084588,-0.0007974559712156104,0.00036243454100584604
149570000000.0,2,-0.158475464,0.028547158149999998,-0.0272821003,0.039108,0.073859,-0.001669,0.16760545514999997,-3.8755880799999995,-9.006819626,0.018606,0.40628,-1.9012,3.333333333332966e-05,-1.999999999990898e-05,-4.999999999988347e-05,-0.0005236246438670711,-0.0009770972735825278,0.00048516850532484557
149570000000.0,2,-0.16865476670000001,0.101793027,-0.00789435325,0.07024,0.094913,-0.006984,0.17329331215,-3.8800010725,-9.004760229499999,0.019242,0.40678,-1.9012,3.333333333332966e-05,-2.0000000000131024e-05,-5.0000000000105516e-05,0.0012752632557874177,-0.00025517439531075325,0.0008183605614205669
149570000000.0,2,-0.14453040769999997,0.1227988713,0.02960627635,0.0649,0.098143,-0.001658,0.17984415435,-3.8847082644999995,-9.002602766499999,0.019974,0.4073,-1.9011,1.999999999990898e-05,-1.999999999990898e-05,5.0000000000105516e-05,2.6672936832783378e-05,-0.0007239726318215567,0.0005003077696472957
149570000000.0,2,-0.08846578964999999,0.07424614715,-0.0233594403,0.036027,0.093046,0.002574,0.18692455565,-3.8874541264999998,-9.001327902,0.020764,0.4076,-1.9011,2.0000000000131024e-05,9.999999999998899e-05,4.999999999988347e-05,0.0010754908086157977,-0.0006735500775234549,0.001040917730504215
149570000000.0,2,-0.021623663249999998,-0.000784532,-0.10902052805,0.010314,0.082596,0.006818,0.1941520567,-3.888336725,-9.000739502999998,0.021568,0.4077,-1.901,1.999999999990898e-05,-4.999999999988347e-05,4.999999999988347e-05,0.0005698199222866629,-0.0006897270942007871,0.0002940965904897064
149570000000.0,2,0.00579573015,-0.045365562899999996,-0.1173659872,-0.012215,0.067863,0.007872,0.20040869939999997,-3.887552193,-9.000935636,0.022261,0.40762,-1.9009,2.0000000000131024e-05,-5.0000000000105516e-05,5.0000000000105516e-05,0.00033940256603059993,-0.0003364638912755069,0.0001639096352840097
149570000000.0,2,0.018642441649999997,-0.04797413179999999,-0.0717062248,-0.022981,0.053038,0.003609,0.2056650638,-3.8858850625,-9.001524035,0.022843,0.40742,-1.9009,1.999999999990898e-05,2.4999999999941735e-05,3.333333333332966e-05,0.00040110058963049866,-0.0005361260611567165,0.00016054218003486165
149570000000.0,2,0.01781868305,-0.03297976395,-0.052730357049999996,-0.025236,0.033884,-0.002766,0.20948965729999997,-3.8836295329999997,-9.0024066335,0.023266,0.40718,-1.9009,-9.999999999998899e-05,2.500000000016378e-05,3.333333333332966e-05,0.00036615990420174604,-0.0004430377471420499,-9.02900450569788e-05
149570000000.0,2,-0.00021574629999999997,0.00973800345,-0.03313667035,-0.027379,0.027517,-0.011297,0.21240223235,-3.880687538,-9.003681498,0.023587,0.40685,-1.901,-4.999999999988347e-05,2.4999999999941735e-05,3.333333333332966e-05,0.0002376461798692664,-0.00043412481635174416,-0.00019678175978204981
149570000000.0,2,-0.0401484251,0.0658810747,-0.0006668522,-0.017597,0.042367,-0.024114,0.21597185295,-3.8777455429999996,-9.004858295999998,0.023979,0.40653,-1.9012,-5.0000000000105516e-05,2.4999999999941735e-05,0.00013333333333331865,0.0006202490994650645,-0.0013967786177031538,0.00019622349493086944
149570000000.0,2,-0.11426708579999999,0.12639791185,0.007384407449999999,0.000845,0.073126,-0.036941,0.22125763729999998,-3.8753919469999993,-9.005642828,0.024563,0.40627,-1.9015,-9.999999999998899e-05,9.999999999998899e-05,0.00013333333333331865,0.0006537058324844747,-0.000895032302906662,0.00028735619252381883
149570000000.0,2,-0.1831097688,0.20787156005,0.018112882549999997,0.017152,0.11135,-0.038042,0.22904411739999997,-3.8737248164999993,-9.006231226999999,0.025427,0.40608,-1.9018,-9.999999999998899e-05,9.999999999998899e-05,0.00013333333333331865,-0.0031313616749738538,-0.0023232144100246988,-0.0004075631576692107
149570000000.0,2,-0.2436560259,0.23913516024999998,0.0798065177,0.019487,0.1337,-0.044475,0.2384192748,-3.8723518854999996,-9.006623493,0.026466,0.40592,-1.902,-0.00019999999999997797,9.999999999998899e-05,-2.4999999999941735e-05,0.0005620938825122157,-0.0011240345785705763,0.0006564370605334491
149570000000.0,2,-0.30285877195,0.24446017119999996,0.0831800053,0.012135,0.14335,-0.054103,0.24823573144999997,-3.8704886219999994,-9.0071138255,0.027553,0.40572,-1.9024,-0.00020000000000020002,0.00019999999999997797,-2.4999999999941735e-05,-5.333902363302556e-05,-0.000909020340799982,0.00013946452088936523
149570000000.0,2,-0.2638773382,0.23970394594999997,0.0330876371,0.009961,0.13697,-0.058357,0.2587974935,-3.867938893,-9.007898357499998,0.028722,0.40544,-1.9028,-0.00019999999999997797,0.00010000000000021103,-2.500000000016378e-05,-0.00018379094901860293,-0.001377794396066001,-1.6353225540083338e-05
149570000000.0,2,-0.20804807975,0.18343338825,0.07146105855,-0.001924,0.11788,-0.060473,0.26894737625,-3.8656833634999996,-9.008584823,0.029846,0.40519,-1.9033,-9.999999999998899e-05,9.999999999998899e-05,-2.4999999999941735e-05,-0.00048753601306289474,-0.002122134634892303,-3.028587397049809e-05
149570000000.0,2,-0.1385483512,0.1082065761,0.10511748134999999,-0.012757,0.09772,-0.060453,0.27845982675,-3.8636239669999997,-9.009173222,0.030898,0.40496,-1.9039,-0.00019999999999997797,0.00019999999999997797,-9.999999999998899e-05,-0.0003687797400647175,-0.0013089660179930185,9.364613348072925e-05
149570000000.0,2,-0.05610384465,0.04882731034999999,0.08942684135,-0.017161,0.086024,-0.0519,0.2877467243,-3.8618587699999996,-9.0096635545,0.031927,0.40477,-1.9045,-0.00019999999999997797,9.999999999998899e-05,9.999999999998899e-05,-0.0004777190602894832,0.0004132183263696465,-0.0005952002294198067
149570000000.0,2,-0.025683616349999997,0.0012552511999999998,0.11747386035,-0.015017,0.09239,-0.043369,0.29742588784999996,-3.8609761715,-9.0096635545,0.033,0.40467,-1.9049,-0.00019999999999997797,9.999999999998899e-05,-9.999999999998899e-05,0.0007516651632368809,-0.0005404266448121309,6.140664187695433e-05
149570000000.0,2,-0.01034601575,-0.00754131385,0.1685959268,-0.005333,0.10616,-0.036974,0.30812494299999993,-3.8613684374999995,-9.009173222,0.034187,0.4047,-1.9054,-9.999999999998899e-05,9.999999999998899e-05,-9.999999999998899e-05,0.00024420848197237444,-0.0012822764655260332,2.894274314882428e-05
149570000000.0,2,-0.015268954049999998,0.02788030595,0.1783829635,0.011901,0.12626,-0.03698,0.32053035524999995,-3.862643302,-9.008192557,0.035567,0.40485,-1.9058,-9.999999999998899e-05,9.999999999998899e-05,-9.999999999998899e-05,0.000143259083401015,-0.0016055572180853073,-6.861355574780403e-05
149570000000.0,2,-0.04096237705,0.06246836049999999,0.1967998522,0.032222,0.13036,-0.040154,0.33349474655,-3.8653891639999998,-9.0065254265,0.037012,0.40515,-1.9062,-0.00019999999999997797,9.999999999998899e-05,-9.999999999998899e-05,-0.00039833551389317767,-0.0012330955001120802,-8.866646003038992e-05
149570000000.0,2,-0.0245558516,0.0615269221,0.22440557195,0.045995,0.11533,-0.044374,0.34597861199999996,-3.8696060235,-9.004269896999999,0.038405,0.40563,-1.9067,-0.00019999999999997797,9.999999999998899e-05,-9.999999999998899e-05,-0.0008320078432348943,-0.0007290167462126185,-0.000464846746294989
149570000000.0,2,0.0216726965,0.03933447314999999,0.22500377759999998,0.039367,0.086616,-0.044337,0.35691302675,-3.874215149,-9.0018182345,0.039628,0.40614,-1.9072,-9.999999999998899e-05,3.333333333332966e-05,-9.999999999998899e-05,-0.0002065281011988107,-0.00045514275812341687,-0.0002315895487943198
149570000000.0,2,0.11145257724999999,-0.10250891245,0.1946816158,0.011376,0.054884,-0.042203,0.3676905351,-3.8803933385,-8.998778173,0.040837,0.40682,-1.9078,-4.999999999988347e-05,3.333333333332966e-05,-0.00019999999999997797,0.00027478370486822,-0.0007216982011506445,-0.00043541816769154806
149570000000.0,2,0.10743185074999999,-0.10397990994999999,0.195152335,-0.021993,0.0168,-0.044328,0.37171126159999995,-3.878922341,-8.9992685055,0.041281,0.40666,-1.9083,-5.0000000000105516e-05,3.333333333332966e-05,-9.999999999998899e-05,-0.0004533248120032751,5.2551451299009955e-05,-0.0005684241830432868
149570000000.0,2,0.13628301504999998,-0.1489237869,0.17224400059999997,-0.04572,-0.018161,-0.047516,0.37517300904999995,-3.8782358754999997,-8.999366572,0.041665,0.40658,-1.9089,-9.999999999998899e-05,1.4285714285744433e-05,-0.000300000000000189,-0.00046151275084455046,-0.000935096036953853,-0.0006206506984594018
149570000000.0,2,0.13885235734999998,-0.166516917,0.16845863369999997,-0.056567,-0.043637,-0.050698,0.3762027073,-3.8765687449999997,-9.000053037499999,0.041776,0.40639,-1.9095,-9.999999999998899e-05,1.4285714285744433e-05,-0.00019999999999997797,-0.0002911166255885611,-0.000682172999016073,-0.0009357116900693685
149570000000.0,2,0.128074849,-0.12622139215,0.1652420525,-0.045943,-0.04905,-0.048541,0.37605560754999995,-3.874607415,-9.000935636,0.041755,0.40618,-1.9102,-0.00010000000000021103,1.4285714285744433e-05,-0.00019999999999997797,0.0005802645293628839,-2.2869632285038577e-05,-0.0004300975861362688
149570000000.0,2,0.09689950864999998,-0.05782981505,0.15714175959999999,-0.018113,-0.036494,-0.04638,0.37415311744999996,-3.8721557524999994,-9.0020143675,0.041539,0.4059,-1.9107,-5.0000000000105516e-05,1.4285714285522388e-05,-0.00019999999999997797,0.0007326039997372913,9.58424996271301e-05,8.706838211006152e-05
149570000000.0,2,0.029616082999999998,0.017249897349999998,0.1770492591,0.00659,-0.010067,-0.036777,0.37425118395,-3.872057686,-9.002112433999999,0.04155,0.4059,-1.9111,-4.999999999988347e-05,1.4285714285744433e-05,-0.00029999999999996696,0.0015714451377911165,0.0007560798125341162,-5.05023506497948e-05
149570000000.0,2,-0.0219276694,0.07794325419999999,0.21050954889999998,0.01216,0.023978,-0.029356,0.37672245974999996,-3.8733325505,-9.0014259685,0.041827,0.40604,-1.9114,-4.999999999988347e-05,1.4285714285744433e-05,-0.00019999999999997797,0.0011853638843489223,0.0005182385206570217,0.0002118294941919896
149570000000.0,2,-0.011640493549999999,0.07623689709999999,0.2337709227,0.00695,0.047451,-0.016598,0.38139042515,-3.8745093484999997,-9.000739502999998,0.042348,0.40616,-1.9117,-5.0000000000105516e-05,1.4285714285744433e-05,-0.00029999999999996696,0.0006710960260662424,0.00041200180081246707,0.0007309468019237875
149570000000.0,2,0.00640374245,0.05039637435,0.2104114824,-0.020732,0.060457,-0.007063,0.38729402845,-3.8739209494999995,-9.000739502999998,0.043002,0.4061,-1.9118,2.4999999999941735e-05,-9.999999999998899e-05,-0.000500000000000167,0.001973287445271865,-0.00013421346773268006,0.0007916012436119113
149570000000.0,2,0.0205155118,0.0122583125,0.2448132106,-0.058174,0.052234,0.000357,0.39293285219999996,-3.8709789545,-9.001720167999999,0.043623,0.40577,-1.9118,2.500000000016378e-05,-9.999999999998899e-05,-0.00039999999999995595,0.0011298413010361052,0.0010447121842946938,0.0002972009805538023
149570000000.0,2,0.0857689609,-0.018907221199999998,0.23273141779999998,-0.086158,0.029012,0.013154,0.39741449124999995,-3.8655852969999995,-9.003877630999998,0.044109,0.40517,-1.9117,2.4999999999941735e-05,-4.999999999988347e-05,-0.0004999999999999449,0.00023662522371187267,-0.001159609293316155,0.00021596550336952514
149570000000.0,2,0.1461583116,-0.03621595845,0.207704847,-0.10766,0.011075,0.01848,0.4009154653,-3.8579361100000003,-9.007015759,0.044483,0.40433,-1.9116,2.4999999999941735e-05,-5.0000000000105516e-05,-0.00029999999999996696,0.001300006445253632,0.0013331181260312075,0.0004895696955046769
149570000000.0,2,0.16367298849999998,-0.030469261549999998,0.20004585335,-0.11845,-0.002684,0.020615,0.40315138149999996,-3.8490120584999996,-9.010742286,0.044712,0.40334,-1.9115,9.999999999998899e-05,-9.999999999998899e-05,-0.00039999999999995595,0.0011718460286722077,-0.0004081856648359139,0.00020320951522198594
149570000000.0,2,0.1719890277,-0.01167972015,0.2107645218,-0.11963,-0.016521,0.021699,0.40441643934999993,-3.8395976745,-9.014664945999998,0.044832,0.40229,-1.9113,0.00010000000000021103,-9.999999999998899e-05,-0.000500000000000167,0.001283624205609013,0.0003499038199965554,-0.0003698827883023281
149570000000.0,2,0.18021680705,0.0003530394,0.22354258674999997,-0.1112,-0.0315,0.020666,0.40441643934999993,-3.8305755565,-9.018489539499999,0.044813,0.4013,-1.9112,9.999999999998899e-05,-9.999999999998899e-05,-0.00039999999999995595,0.0003691528522742349,-0.0003937054949745278,-0.0006044221401191319
149570000000.0,2,0.144746154,0.006452775699999999,0.22429769879999997,-0.10819,-0.060282,0.013246,0.40172941725,-3.8220437709999997,-9.022216066499999,0.044497,0.40035,-1.9111,9.999999999998899e-05,-9.999999999998899e-05,-0.0005999999999999339,0.0019296682114051666,0.0011462395082912913,-0.0005316669834181387
149570000000.0,2,0.12415218899999998,0.019642719949999998,0.21694271129999998,-0.11045,-0.082624,0.002603,0.39672802574999994,-3.8131197195,-9.026236792999999,0.043925,0.39936,-1.911,0.00019999999999997797,-0.00019999999999997797,-0.0006999999999999229,0.0020046355349155887,0.00023515342175794984,-0.0006767197939446523
149570000000.0,2,0.1362928217,0.029733762799999997,0.18317841535,-0.10613,-0.084771,-0.011266,0.3917756675,-3.8039014685,-9.030355585999999,0.043357,0.39834,-1.9112,9.999999999998899e-05,-9.999999999998899e-05,-0.000500000000000167,0.0021601058604908685,0.0013988503954647236,-3.759790134508223e-05
149570000000.0,2,0.09187850385,0.04297274029999999,0.15598457489999998,-0.09637,-0.067795,-0.014485,0.38741170825,-3.7949774169999997,-9.034278246,0.042856,0.39736,-1.9114,-9.999999999998899e-05,9.999999999998899e-05,-0.00029999999999996696,-0.0006931318702063649,0.0011602146163434135,0.0003390723190141165
149570000000.0,2,0.05781020175,0.08832849654999998,0.18111901884999998,-0.083436,-0.046594,-0.00703,0.38421474035,-3.786739831,-9.0379067065,0.042487,0.39645,-1.9115,0.00019999999999997797,-5.0000000000105516e-05,-0.0004999999999999449,0.003620664181179345,0.0012127815388800478,0.001069548956625671
149570000000.0,2,0.0327934376,0.0953402513,0.20086961195,-0.064271,-0.038248,0.014335,0.38109622564999995,-3.7803655084999996,-9.040750635,0.042129,0.39573,-1.9114,9.999999999998899e-05,-4.999999999988347e-05,-0.0004999999999999449,0.00047392485439451404,0.0006693642773536457,-0.00036199176356824236
149570000000.0,2,0.04200188195,0.1039112634,0.19245550625,-0.049577,-0.051183,0.042135,0.37652632675,-3.7750699174999998,-9.043104231,0.041613,0.39516,-1.911,0.00019999999999997797,-4.999999999988347e-05,-0.000600000000000156,0.00028280542724418156,0.00018859224486345028,-0.0003510117060465945
149570000000.0,2,0.057192382800000004,0.09800766009999999,0.17282259295,-0.036076,-0.086475,0.059297,0.36852410035,-3.7713433905,-9.0449674945,0.040721,0.39474,-1.9104,0.00029999999999996696,-5.0000000000105516e-05,-0.0005999999999999339,-0.0003153191820674528,0.0016758561006888772,-0.0004358343338702608
149570000000.0,2,0.08526882174999999,0.0473072796,0.13936230314999998,-0.034243,-0.11953,0.066828,0.35736413265,-3.7686955949999996,-9.0465365585,0.039482,0.39444,-1.9098,9.999999999998899e-05,-0.00010000000000021103,-0.0004999999999999449,0.00011049775082111468,0.0028660803606610497,7.021428326606238e-05
149570000000.0,2,0.03827535494999999,-0.034833220799999995,0.07275553635,-0.044052,-0.14927,0.061523,0.3440565086,-3.7667342649999997,-9.047909489499999,0.038008,0.39423,-1.9091,0.00019999999999997797,-9.999999999998899e-05,-0.0004999999999999449,-0.0011643406462956696,0.00035546250554707726,-0.001289197890299243
149570000000.0,2,0.055623318799999995,-0.039618866,0.07538371854999999,-0.058078,-0.17472,0.051937,0.3266987381,-3.7619290065,-9.050459218499999,0.036082,0.3937,-1.9085,9.999999999998899e-05,-3.333333333332966e-05,-0.000500000000000167,0.0008732212400106021,0.002648180757164109,-9.245331584231686e-05
149570000000.0,2,0.038549941149999996,-0.06147788885,0.036431704749999995,-0.07841,-0.19265,0.035922,0.3084583691,-3.7563392159999998,-9.053401213499999,0.034057,0.39309,-1.9081,5.0000000000105516e-05,-3.333333333332966e-05,-0.0004999999999999449,0.0015680727516915183,0.002547668549687465,-0.000392519882443515
149570000000.0,2,0.0137685366,-0.0831800053,0.0224768418,-0.097617,-0.19994,0.025228,0.28924714175,-3.7493764945,-9.057029674,0.031926,0.39231,-1.9077,4.999999999988347e-05,-3.333333333332966e-05,-0.0004999999999999449,0.0015120486978505987,0.002945663237927887,-3.5010973330001915e-05
149570000000.0,2,0.0053250109499999995,-0.10483308849999999,0.026291628649999996,-0.11249,-0.19449,0.021991,0.27045760035,-3.7411389084999995,-9.060952334,0.029839,0.39141,-1.9075,9.999999999998899e-05,-0.00019999999999997797,-0.00039999999999995595,-0.000849400860312266,0.0004337299776504544,-0.0008168524570933977
149570000000.0,2,-0.021741343049999997,-0.10719649114999999,0.038157675149999994,-0.12507,-0.16987,0.016591,0.25293311679999997,-3.7317245244999997,-9.065365326499998,0.027894,0.39037,-1.9072,0.00020000000000020002,-9.999999999998899e-05,-0.000700000000000145,0.002215753368876805,0.00026264271958265084,-0.0002958856900348583
149570000000.0,2,-0.06495924959999999,-0.10809870294999999,0.010493115499999999,-0.12789,-0.12403,0.015441,0.23853695459999996,-3.7217217415,-9.069876385499999,0.026294,0.38927,-1.9069,9.999999999998899e-05,-0.00019999999999997797,-0.0004999999999999449,0.0004694063977073726,0.0006232249826669811,-0.0004888069306368537
149570000000.0,2,-0.11298241464999999,-0.07685471605,0.0177892631,-0.13491,-0.066439,0.018537,0.22834784525,-3.7107382935,-9.0745835775,0.025158,0.38806,-1.9066,9.999999999998899e-05,-9.999999999998899e-05,-0.0006999999999999229,0.0020423505577440437,-0.0006216096287821049,0.00022038934498058715
149570000000.0,2,-0.15309161315,-0.05342662919999999,0.0355196863,-0.14203,-0.018442,0.025917,0.2219244895,-3.6988722469999997,-9.079584968999999,0.024437,0.38675,-1.9062,9.999999999998899e-05,-0.00019999999999997797,-0.000500000000000167,0.001980820633549041,0.0009328626687974406,0.0004372782022500632
149570000000.0,2,-0.16603639115000002,-0.056094038,-0.02784107935,-0.14392,0.018852,0.036528,0.21885500805,-3.686319735,-9.0847824935,0.024086,0.38537,-1.9057,5.0000000000105516e-05,-9.999999999998899e-05,-0.00039999999999995595,0.0011575118740475565,0.0018329441913589317,0.0008358389203257932
149570000000.0,2,-0.15999549475,-0.08809313695,-0.0445614176,-0.14815,0.027398,0.043983,0.21701135784999998,-3.673767223,-9.089881951499999,0.023869,0.38399,-1.9051,4.999999999988347e-05,-0.00019999999999997797,-0.0004999999999999449,0.001018287392526629,-0.001271028044421918,0.0008519979415691492
149570000000.0,2,-0.12426986879999999,-0.10333267104999999,-0.039530606149999994,-0.1526,0.008243,0.050417,0.21435375569999998,-3.6611166445,-9.095079476,0.023563,0.38259,-1.9044,9.999999999998899e-05,-9.999999999998899e-05,-0.00039999999999995595,0.00126766076854129,0.001003183064969937,0.000538334686868841
149570000000.0,2,-0.0470326934,-0.1107366918,-0.0748639661,-0.14547,-0.032315,0.054772,0.20953869055,-3.6487602655,-9.100178933999999,0.023022,0.38124,-1.9038,9.999999999998899e-05,-9.999999999998899e-05,-0.00039999999999995595,-0.0001458926412188366,0.00012215067344212294,-0.00032226948722488546
149570000000.0,2,0.027174227149999997,-0.11209981614999999,-0.100420096,-0.11699,-0.071979,0.057026,0.20207582989999998,-3.63826715,-9.10449386,0.022191,0.38009,-1.9031,9.999999999998899e-05,-9.999999999998899e-05,-0.000400000000000178,0.00026635168455679814,0.00047149547647906687,0.00025308446491223435
149570000000.0,2,0.06730303894999999,-0.08033607679999999,-0.09978266375,-0.072225,-0.086184,0.04325,0.19351462445,-3.6311082955,-9.1075339215,0.021244,0.3793,-1.9026,9.999999999998899e-05,-0.00019999999999997797,-0.00039999999999995595,0.0033657908721810292,0.0016114495838934761,0.00018450528977009828
149570000000.0,2,0.0108461549,-0.01501398115,-0.08393511735,-0.026099,-0.076937,0.00809,0.18547317144999997,-3.627479835,-9.109201052,0.020359,0.3789,-1.9024,-2.4999999999941735e-05,-9.999999999998899e-05,-0.00039999999999995595,-0.0003190217303430387,0.0005369900591747356,-0.0013937552545014165
149570000000.0,2,-0.037834055699999994,0.0593694591,-0.056133264599999996,-0.002234,-0.054712,-0.03567,0.18013835385,-3.6255185049999996,-9.110083650499998,0.019771,0.37869,-1.9026,-2.4999999999941735e-05,-0.00010000000000021103,-0.00029999999999996696,0.00014751644712440726,0.000364136089771927,-0.0009340704416416212
149570000000.0,2,-0.08052240314999999,0.09262380925,-0.06374322499999999,0.000177,-0.038719,-0.066646,0.17703945245,-3.623753308,-9.110868182499999,0.01943,0.37849,-1.9032,-2.500000000016378e-05,-9.999999999998899e-05,-0.00039999999999995595,-0.00012382585031323057,0.0002666296492290776,-0.0009941659720649754
149570000000.0,2,-0.1160126695,0.04504194345,-0.09046634625,-0.022098,-0.027874,-0.076306,0.1749702493,-3.6211055125,-9.111946913999999,0.0192,0.3782,-1.9039,-2.4999999999941735e-05,-9.999999999998899e-05,-0.000300000000000189,0.0031577735782206684,0.0005632749996578035,3.70216084931152e-05
149570000000.0,2,-0.08594548059999998,-0.07394214099999999,-0.1058333668,-0.059403,-0.017988,-0.067846,0.17407784415,-3.6168886529999997,-9.1136140445,0.019099,0.37774,-1.9046,-3.333333333332966e-05,-9.999999999998899e-05,-0.00029999999999996696,0.00019087542640033872,-0.0010994121605738538,-0.0003182684659266688
149570000000.0,2,-0.03109688715,-0.1838158476,-0.10531361435,-0.10311,-0.004857,-0.054068,0.17475450299999998,-3.610220131,-9.11626184,0.019167,0.37701,-1.9052,-3.333333333332966e-05,-0.00019999999999997797,-0.00029999999999996696,0.0017739678792416669,-0.0008542226049139678,-0.00020066799395063173
149570000000.0,2,-0.0354412331,-0.22051233189999997,-0.11839568545,-0.12968,0.011336,-0.045603,0.17654911995,-3.601198013,-9.119792234,0.019356,0.37602,-1.9057,-3.333333333332966e-05,-0.00019999999999997797,-0.00029999999999996696,0.0006164514134640586,-0.0006542865439918,-0.00021818809685050788
149570000000.0,2,-0.06091890979999999,-0.20503743819999998,-0.1119331031,-0.13266,0.042255,-0.040325,0.1801873871,-3.5910971634999997,-9.123714893999999,0.019746,0.37491,-1.906,-2.4999999999941735e-05,-0.00019999999999997797,-0.00029999999999996696,0.0014193293569253473,-0.0004204238430396412,0.0002028549968715876
149570000000.0,2,-0.08611219365,-0.15887753664999998,-0.08395473064999999,-0.10898,0.074014,-0.029663,0.1860713771,-3.5820750454999994,-9.1271472215,0.020384,0.37392,-1.9063,-2.4999999999941735e-05,-9.999999999998899e-05,-0.00019999999999997797,0.0011643668229954773,-0.0007550331126677801,0.0005987372434499705
149570000000.0,2,-0.12908493394999998,-0.1075985638,-0.0804537566,-0.074752,0.093958,-0.014692,0.19298506534999998,-3.5754065235,-9.129598884,0.021135,0.3732,-1.9064,-2.500000000016378e-05,-0.00019999999999997797,-0.00019999999999997797,0.001336991343301619,0.0007241549374499279,0.00045759471376763394
149570000000.0,2,-0.15652394065,-0.0757857912,-0.05435826095,-0.048292,0.077733,0.002466,0.19812374994999998,-3.571189664,-9.131167947999998,0.021695,0.37273,-1.9063,-2.4999999999941735e-05,-0.00019999999999997797,-0.00019999999999997797,0.0005339594969343553,-0.00013935301994028038,0.00011095170652097863
149570000000.0,2,-0.12545647345,-0.08566108774999999,-0.0797280645,-0.039004,0.036097,-0.000643,0.2004283127,-3.5681496024999997,-9.1322466795,0.021944,0.3724,-1.9062,-5.0000000000105516e-05,-9.999999999998899e-05,-9.999999999998899e-05,-0.0009698151660964549,0.00034565828684396394,-0.0004264891152931105
149570000000.0,2,-0.07473647964999999,-0.09048595955000001,-0.1281140756,-0.035037,-0.018257,-0.027223,0.19938880779999998,-3.5653056739999998,-9.1334234775,0.021827,0.37209,-1.9064,-4.999999999988347e-05,-0.00029999999999996696,-0.00020000000000020002,-0.0012527221073875827,0.0005395255284841305,-0.0014661097863296335
149570000000.0,2,-0.00983606995,-0.08906399529999999,-0.16838998714999998,-0.037341,-0.057636,-0.055977,0.19643700614999998,-3.5620694795,-9.134698342,0.021501,0.37173,-1.9069,-4.999999999988347e-05,-0.00020000000000020002,-0.00019999999999997797,0.0007482610428497516,0.0007639293602916819,-0.001134988349681787
149570000000.0,2,0.0503669544,-0.084533323,-0.15226785454999997,-0.041607,-0.071429,-0.078377,0.19324003825,-3.5585390855,-9.136169339499999,0.021148,0.37135,-1.9077,-5.0000000000105516e-05,-0.00019999999999997797,-9.999999999998899e-05,0.001108526715712821,0.00037566976503922156,-0.0011431582210506275
149570000000.0,2,0.0196329133,-0.06665580004999999,-0.11919002409999999,-0.046791,-0.055397,-0.082684,0.1907589558,-3.5544202924999997,-9.13783647,0.020872,0.37089,-1.9085,-9.999999999998899e-05,-0.00019999999999997797,-9.999999999998899e-05,0.0011181985652197746,-0.00045719795158083443,-0.0007621459613215698
149570000000.0,2,-0.0156318001,-0.06390993805,-0.10589220669999999,-0.052885,-0.011667,-0.074232,0.19100412205,-3.549811167,-9.139601666999999,0.020895,0.37039,-1.9094,-9.999999999998899e-05,-0.00019999999999997797,-0.00019999999999997797,0.0013103362606353697,-0.0006606450290920218,-0.00033679722050505845
149570000000.0,2,-0.0699998677,-0.0511514864,-0.095516771,-0.049298,0.047956,-0.056183,0.19494639535,-3.5452020414999996,-9.1412687975,0.021322,0.36989,-1.9099,-9.999999999998899e-05,-0.00019999999999997797,-4.999999999988347e-05,-5.481704928489428e-05,-0.0014978453282414872,0.000304241145019174
149570000000.0,2,-0.11548311039999999,-0.006766588499999999,-0.15589631505,-0.029763,0.10212,-0.03596,0.2027230688,-3.5411813149999998,-9.142739794999999,0.02217,0.36944,-1.9103,-5.0000000000105516e-05,-9.999999999998899e-05,-5.0000000000105516e-05,-3.846910783855684e-05,-0.002024809445661635,0.00036311599954078067
149570000000.0,2,-0.13287030084999998,0.031116500449999997,-0.1665757569,-0.021059,0.13505,-0.017852,0.2130788912,-3.5375528545,-9.143916593,0.023299,0.36905,-1.9105,-5.0000000000105516e-05,-9.999999999998899e-05,2.4999999999941735e-05,-0.0002836092256983669,-0.0011729656952788048,0.0006433542883986787
149570000000.0,2,-0.10803005639999999,0.060732583449999995,-0.17856928984999998,-0.013674,0.13072,-0.009288,0.22399369265,-3.5343166599999996,-9.144897258,0.024489,0.36869,-1.9105,-9.999999999998899e-05,-9.999999999998899e-05,2.500000000016378e-05,0.00046268947766286983,-0.0010587566143884786,0.000540238218092487
149570000000.0,2,-0.058830093349999994,0.07348122844999999,-0.22938735014999997,-0.006436,0.098696,-0.01562,0.23360420964999998,-3.5311785319999998,-9.145877922999999,0.025537,0.36835,-1.9106,-3.333333333332966e-05,-0.00019999999999997797,2.4999999999941735e-05,0.0006298544122616545,-4.9998577040799574e-06,0.00017392781583633332
149570000000.0,2,0.010404855650000001,0.09031924649999999,-0.23527134014999998,0.005962,0.041066,-0.028304,0.23993930554999998,-3.5285307365,-9.146662455,0.026226,0.36806,-1.9109,-3.333333333332966e-05,-9.999999999998899e-05,2.4999999999941735e-05,-0.000871115017901769,-2.6837945758417803e-05,-0.000510614083498645
149570000000.0,2,0.0598794049,0.0872987983,-0.22187545625,0.03218,-0.015623,-0.029226,0.24178295574999997,-3.5282365369999997,-9.1467605215,0.026428,0.36803,-1.9112,-3.333333333332966e-05,-9.999999999998899e-05,4.999999999988347e-05,-0.0002695862338651378,0.00075089440292464,-0.0005527886270603743
149570000000.0,2,0.096889702,0.07943386499999999,-0.21701135784999998,0.07463,-0.04261,-0.028038,0.24084151735,-3.5315707979999997,-9.145485656999998,0.026328,0.3684,-1.9116,-4.999999999988347e-05,-3.333333333332966e-05,5.0000000000105516e-05,-0.0019837800689385676,-0.0001947726042066389,-0.0007690675343599018
149570000000.0,2,0.058271114299999996,0.0932612415,-0.17976570114999998,0.11832,-0.042977,-0.019422,0.23831140164999998,-3.5391219185,-9.1426417285,0.02606,0.36922,-1.9119,-5.0000000000105516e-05,-3.333333333332966e-05,9.999999999998899e-05,-0.0017083044095443922,-0.0005113517693173808,-0.0001823126340466108
149570000000.0,2,-0.012121019399999999,0.14521687319999999,-0.12119058069999998,0.144,-0.024022,-0.005533,0.2356734128,-3.5491247015,-9.138817134999998,0.025783,0.37032,-1.9121,-9.999999999998899e-05,-3.333333333332966e-05,0.00019999999999997797,-0.0012842389419712164,0.0005012909480492933,0.000262882639721157
149570000000.0,2,-0.0528774568,0.15349368579999997,-0.06961740834999999,0.14414,0.005793,0.012563,0.23438874164999998,-3.5601081495,-9.1346002755,0.025654,0.37152,-1.912,-4.999999999988347e-05,-3.333333333332966e-05,9.999999999998899e-05,-0.00113035515140536,-0.00038001307141977136,0.00051471853522575
149570000000.0,2,-0.04946474259999999,0.08979949405,-0.03539219984999999,0.11648,0.024119,0.026361,0.23456526134999997,-3.5702089989999997,-9.1306776155,0.025684,0.37262,-1.9117,-5.0000000000105516e-05,-3.333333333332966e-05,9.999999999998899e-05,-0.00024110504102470287,-0.00010976810408580562,0.0004193631203310011
149570000000.0,2,-0.020819517949999998,0.01311149105,-0.00406975975,0.073762,0.023398,0.032693,0.23525172684999998,-3.578054319,-9.1275394875,0.025768,0.37349,-1.9114,-3.333333333332966e-05,-3.333333333332966e-05,9.999999999998899e-05,-0.0005854970865158404,-0.0001883624657739169,0.0002911686705849015
149570000000.0,2,0.0224572285,-0.0385205212,0.00871811185,0.027829,0.016318,0.032625,0.23611471205,-3.5823692449999998,-9.125872356999999,0.025867,0.37396,-1.9111,-3.333333333332966e-05,-4.999999999988347e-05,2.500000000016378e-05,0.0006783244437001956,-0.00024633301937027063,0.000473288673618788
149570000000.0,2,0.05857512045,-0.06995083444999999,0.04557150255,-0.007339,0.015554,0.024024,0.23755628959999997,-3.5837421759999994,-9.125283957999999,0.026027,0.37411,-1.9108,-3.333333333332966e-05,-5.0000000000105516e-05,2.4999999999941735e-05,0.002401566380447251,0.00047153197827354276,0.0004366770796759567
149570000000.0,2,0.0685484835,-0.0394423463,0.06455717695,-0.022131,0.022091,0.005839,0.24031195824999999,-3.5828595775,-9.1255781575,0.026327,0.37401,-1.9107,-4.999999999988347e-05,-9.999999999998899e-05,2.4999999999941735e-05,0.0006849577934344708,-0.00027370575155294397,-0.00020593021044040816
149570000000.0,2,-0.0010787315,0.027291906949999997,0.08238566665,-0.018744,0.03274,-0.014455,0.2436364126,-3.5809963139999996,-9.1261665565,0.026691,0.37381,-1.9108,-5.0000000000105516e-05,-0.00010000000000021103,2.500000000016378e-05,0.0003173698763931365,-0.00036716438311978905,-2.8484041055959475e-05
149570000000.0,2,-0.0323031051,0.05703547639999999,0.11222730259999998,-0.013372,0.034831,-0.018718,0.2470295135,-3.5795253165,-9.126656889,0.02706,0.37364,-1.911,-5.0000000000105516e-05,-9.999999999998899e-05,3.333333333332966e-05,-0.0006673143493103328,-0.0006112868403875815,-0.00023694810539309774
149570000000.0,2,-0.05330894939999999,0.06344902549999999,0.09603652345,-0.002725,0.034737,-0.014428,0.2500891883,-3.5785446515,-9.1269510885,0.027394,0.37354,-1.9112,-4.999999999988347e-05,-5.0000000000105516e-05,3.333333333332966e-05,0.0005231406035089425,0.00014093303481588215,9.047927951816304e-05
149570000000.0,2,-0.052014471599999994,0.0383440015,0.039648285949999994,0.00781,0.02611,-0.001585,0.25207993824999997,-3.5787407844999994,-9.126853021999999,0.027612,0.37356,-1.9112,-4.999999999988347e-05,-4.999999999988347e-05,3.333333333332966e-05,-0.0017129221867510092,-0.00040636819584793926,-0.00016936644809578683
149570000000.0,2,-0.04108005685,0.015710253299999997,0.046679654,0.013987,0.002607,0.00594,0.25207013159999997,-3.5799175825,-9.126362689499999,0.027613,0.37369,-1.9111,-5.0000000000105516e-05,-9.999999999998899e-05,9.999999999998899e-05,-0.0009025138320496451,0.00018831417986864274,-0.00026721880168983914
149570000000.0,2,-0.025987622499999998,0.00622722275,0.046660040699999995,0.018028,-0.025135,0.007064,0.24969692229999996,-3.5816827795,-9.125774290499999,0.027354,0.37388,-1.911,-9.999999999998899e-05,-5.0000000000105516e-05,9.999999999998899e-05,-2.0846789691386647e-05,0.0010655863026018952,0.0001423600202494213
149570000000.0,2,0.00591340995,0.01640652545,0.014317708999999998,0.019938,-0.054984,0.003918,0.2453231564,-3.5831537769999997,-9.125283957999999,0.026878,0.37404,-1.911,-9.999999999998899e-05,-4.999999999988347e-05,9.999999999998899e-05,0.00011637930196983781,0.0013345467338072847,-0.00033962827440342513
149570000000.0,2,0.027135000549999996,0.043659205799999996,0.0047464186,0.024117,-0.069929,-0.002453,0.2395176196,-3.5847228409999996,-9.124891691999998,0.026243,0.37421,-1.911,-9.999999999998899e-05,-9.999999999998899e-05,5.0000000000105516e-05,-0.00019739160295662028,0.00042715487037403577,-0.00031434093971530186
149570000000.0,2,0.02303582085,0.0760799907,0.037686955949999996,0.026352,-0.063542,-0.013135,0.23419260864999997,-3.5860957719999997,-9.124401359499998,0.025661,0.37437,-1.9111,-4.999999999988347e-05,-5.0000000000105516e-05,4.999999999988347e-05,0.0002269182616487786,0.0005050591774244939,-0.000577810134148149
149570000000.0,2,-0.022712201399999996,0.08902476869999999,0.0418155556,0.029744,-0.043317,-0.019568,0.22996594249999996,-3.5876648359999996,-9.123911027,0.025199,0.37454,-1.9113,-5.0000000000105516e-05,-4.999999999988347e-05,-9.999999999998899e-05,-0.0006031974150152442,-0.0006639764132243542,-0.00016840729420153355
149570000000.0,2,-0.06455717695,0.08658291285,0.05924197265,0.020318,-0.020865,-0.019622,0.2270631741,-3.588841634,-9.123518761,0.024882,0.37467,-1.9115,-9.999999999998899e-05,-3.333333333332966e-05,9.999999999998899e-05,-0.0011548010107429452,-0.0006338874509370651,-0.00038478646329087596
149570000000.0,2,-0.08381743755,0.0668225131,0.07111782579999999,0.005581,0.006954,-0.015425,0.22612173569999997,-3.5891358334999994,-9.1234206945,0.02478,0.3747,-1.9116,-9.999999999998899e-05,-3.333333333332966e-05,4.999999999988347e-05,-0.0010055037658105448,-0.0008756487416266001,-0.0002261864572011829
149570000000.0,2,-0.11515949095,0.0366180311,0.042394147949999995,-0.001715,0.029386,-0.014407,0.22693568764999997,-3.5887435675,-9.1236168275,0.024869,0.37465,-1.9117,-9.999999999998899e-05,-3.333333333332966e-05,5.0000000000105516e-05,0.00044791232481344867,0.0005494698780212914,5.7853805099705724e-05
149570000000.0,2,-0.13230151515,0.02221206225,0.0423058881,-0.01333,0.046523,-0.011252,0.22925986369999998,-3.5876648359999996,-9.1240090935,0.025122,0.37453,-1.9117,-0.00019999999999997797,1.4285714285744433e-05,2.4999999999941735e-05,0.000733610121413153,-7.437706510549091e-05,0.0002639881299470459
149570000000.0,2,-0.11080533834999999,0.025075604049999995,0.052220411249999994,-0.017639,0.040163,-0.013381,0.23185862595,-3.5858996389999995,-9.1245974925,0.025405,0.37434,-1.9118,-9.999999999998899e-05,1.4285714285744433e-05,2.500000000016378e-05,-0.00014909981646737958,0.00015281258372445983,0.00011290848446582347
149570000000.0,2,-0.05495646659999999,0.01030678915,0.02048609185,-0.018808,0.027383,-0.01336,0.2345162281,-3.5838402424999996,-9.125382024499999,0.025694,0.37411,-1.9119,-0.00010000000000021103,1.4285714285744433e-05,2.4999999999941735e-05,-0.00020498711087291177,0.00010148848488977791,3.380137283415241e-05
149570000000.0,2,-0.00226533615,-0.0030596748,-0.0090417313,-0.006201,0.004898,-0.010096,0.23584993249999997,-3.5826634444999996,-9.125774290499999,0.025839,0.37399,-1.912,-9.999999999998899e-05,1.4285714285522388e-05,2.4999999999941735e-05,-0.0004960271739409272,0.0002125779556656493,-0.00024268265182580961
149570000000.0,2,0.022045349199999998,0.02157463,-0.01909354755,0.01068,-0.018683,-0.010025,0.23533018005,-3.5827615109999997,-9.125676224,0.025782,0.374,-1.9121,-0.00019999999999997797,1.4285714285744433e-05,3.333333333332966e-05,0.0007511620317466328,7.236280291045283e-05,-2.1710309595579513e-05
149570000000.0,2,0.03498032055,0.059349845799999995,0.0019122967499999998,0.024427,-0.035841,-0.013173,0.23347672319999999,-3.5839383089999997,-9.125283957999999,0.02558,0.37412,-1.9123,-9.999999999998899e-05,1.4285714285744433e-05,3.333333333332966e-05,-0.0006270738113233199,-8.258725755183605e-05,-0.00040500031303356
149570000000.0,2,0.059781338399999995,0.08073814945,0.006943108199999999,0.042479,-0.04877,-0.017389,0.2308093144,-3.5860957719999997,-9.124499426,0.025291,0.37437,-1.9125,-0.00019999999999997797,1.4285714285744433e-05,3.333333333332966e-05,-0.0009636842031761628,0.00018060831960919899,-0.00040567358602697223
149570000000.0,2,0.0500335283,0.0819247541,-0.0034323275,0.057458,-0.047818,-0.024837,0.22799480584999998,-3.5899203655,-9.123126495,0.024986,0.37478,-1.9128,-9.999999999998899e-05,-1.999999999990898e-05,1.999999999990898e-05,-0.0008124374578150628,-0.0009514128567702507,-0.0006089371043231095
149570000000.0,2,0.0253992235,0.072961476,0.0045110589999999996,0.062924,-0.035068,-0.031254,0.22584714949999998,-3.5945294909999994,-9.121361297999998,0.024755,0.37529,-1.9132,-9.999999999998899e-05,-2.0000000000131024e-05,2.0000000000131024e-05,-0.0004064180897683234,-0.0005703987684935186,-0.00039446921190555706
149570000000.0,2,0.00675678185,0.0598597916,0.03582369245,0.048151,-0.013635,-0.03025,0.22532739705,-3.598648284,-9.1196941675,0.024703,0.37574,-1.9135,-9.999999999998899e-05,-1.999999999990898e-05,1.999999999990898e-05,0.00030073229972271687,-0.0003486569221935465,1.7210057005195845e-05
149570000000.0,2,0.00975761675,0.0197505931,0.06644986039999999,0.009897,0.009053,-0.02502,0.22681800785,-3.6006096139999997,-9.1189096355,0.024868,0.37595,-1.9138,-9.999999999998899e-05,-2.0000000000131024e-05,2.0000000000131024e-05,0.00024459122214814943,-0.0005057136101163096,-0.0002491532862759771
149570000000.0,2,0.0239478393,-0.04139386965,0.05610384465,-0.02201,0.027422,-0.015502,0.2299855558,-3.6000212149999995,-9.119007702,0.025215,0.37589,-1.914,-0.00019999999999997797,-1.999999999990898e-05,1.999999999990898e-05,-0.0023610816285281055,-0.0010185722590572155,-0.0007303307866200759
149570000000.0,2,0.04257066765,-0.08434699664999999,0.016661498349999998,-0.03901,0.042472,-0.004885,0.23455545469999997,-3.5980598849999996,-9.1196941675,0.025714,0.37568,-1.9141,-9.999999999998899e-05,6.666666666710341e-06,3.333333333332966e-05,0.00043783440528494255,-0.0002065982948193934,0.00016907740088986656
149570000000.0,2,0.039206986699999995,-0.08220914694999999,0.026585828149999997,-0.039019,0.043535,-0.000619,0.23940974645,-3.5957062889999998,-9.1204786995,0.026244,0.37542,-1.9142,-9.999999999998899e-05,6.666666666710341e-06,3.333333333332966e-05,0.00023015230890438554,-0.00023453779714111,-1.730633140153981e-05
149570000000.0,2,0.026840801049999998,-0.05069057385,0.048582144099999995,-0.031654,0.027496,-0.004849,0.24310685349999997,-3.5935488259999997,-9.121263231499999,0.026646,0.37518,-1.9142,-5.0000000000105516e-05,6.666666666488297e-06,3.333333333332966e-05,-0.00015082409284239429,-0.00026964403666673853,6.662965911879981e-05
149570000000.0,2,0.037588889449999996,-0.013533176999999999,0.0130624578,-0.018994,0.008214,-0.006928,0.2452250899,-3.5916855625,-9.121949697,0.026877,0.37498,-1.9143,-4.999999999988347e-05,6.666666666710341e-06,5.0000000000105516e-05,-0.0007095592111695526,-3.60941760513267e-05,-0.00022837671919626046
149570000000.0,2,0.0528186169,0.00877695175,-0.014778621550000001,0.00334,-0.00262,-0.010074,0.2464607278,-3.5912932964999995,-9.1220477635,0.027011,0.37493,-1.9144,-9.999999999998899e-05,6.666666666710341e-06,4.999999999988347e-05,-0.0003378280109138099,-0.00025037608704781,-6.477654899678109e-05
149570000000.0,2,0.03411733535,0.0214373369,-0.01670072495,0.018416,0.006861,-0.022874,0.2479513386,-3.5922739615,-9.121655497499999,0.027176,0.37504,-1.9147,-9.999999999998899e-05,6.666666666710341e-06,3.333333333332966e-05,-0.00041052024971560686,-0.0004224040281599617,1.5882591874100127e-05
149570000000.0,2,0.0052171378,0.04474774395,-0.0008433719,0.022852,0.022818,-0.031433,0.2508148804,-3.5935488259999997,-9.1210670985,0.027491,0.37518,-1.915,-9.999999999998899e-05,6.666666666710341e-06,3.333333333332966e-05,-0.0002631784552190042,2.0404842431931414e-05,-0.0002952709748719473
149570000000.0,2,-0.0188876079,0.05033753445,0.00865927195,0.010202,0.038911,-0.03682,0.255169033,-3.5942352915,-9.1206748325,0.027969,0.37525,-1.9154,-0.00019999999999997797,6.666666666488297e-06,3.333333333332966e-05,0.0006035176965419331,-0.0004072342248653271,0.0001697213438253964
149570000000.0,2,-0.01775984315,0.01819133575,0.04777799879999999,-0.004717,0.041165,-0.03685,0.26002332475,-3.5940391584999998,-9.120576766,0.028501,0.37524,-1.9158,-0.00010000000000021103,6.666666666710341e-06,2.4999999999941735e-05,-0.00013632361765303358,-0.0011255245548298376,-0.00028740320448916723
149570000000.0,2,0.0041384062999999995,-0.0313420534,0.0302240953,-0.011213,0.028433,-0.037906,0.26461283695,-3.5934507594999996,-9.1206748325,0.029004,0.37517,-1.9162,-5.0000000000105516e-05,6.666666666710341e-06,2.500000000016378e-05,0.0003349552785947285,-0.0006514617915138743,-0.0005280192303428743
149570000000.0,2,0.04757205915,-0.03792231555,0.02538941685,-0.006036,0.00921,-0.036797,0.26816284425,-3.593352693,-9.1206748325,0.029393,0.37516,-1.9166,-4.999999999988347e-05,6.666666666710341e-06,2.4999999999941735e-05,-0.0009061328721049478,-0.0005786294532419411,-0.0006810880101926209
149570000000.0,2,0.08460196954999999,-0.014435388799999999,0.0646846634,0.006571,-0.017527,-0.039933,0.27018301414999996,-3.5940391584999998,-9.1202825665,0.029616,0.37524,-1.9171,-4.999999999988347e-05,6.666666666710341e-06,2.4999999999941735e-05,-0.00025526444057166753,0.0003515338513899735,-0.0004190626561818289
149570000000.0,2,0.11486529144999999,0.0251834772,0.07106879255,0.01807,-0.045326,-0.036664,0.2698593947,-3.5954120895,-9.119792234,0.029581,0.37538,-1.9176,-5.0000000000105516e-05,6.666666666488297e-06,4.999999999988347e-05,0.00015381035304073976,0.00018702212427990084,-4.5389688743957546e-05
149570000000.0,2,0.13057554475,0.05280881025,0.055427185799999994,0.027455,-0.065655,-0.025941,0.26745676544999997,-3.5972753529999997,-9.119105768499999,0.029321,0.37559,-1.918,-2.4999999999941735e-05,6.666666666710341e-06,5.0000000000105516e-05,0.0007445713652672881,0.0012999146323018351,2.1683980698905536e-05
149570000000.0,2,0.1193665438,0.03725546335,0.050161014749999996,0.027363,-0.073115,-0.019526,0.2635635254,-3.5995308825,-9.1183212365,0.028896,0.37583,-1.9183,-2.500000000016378e-05,6.666666666710341e-06,3.333333333332966e-05,-0.0003538000262303109,0.00073394646659386,-0.00047276576418850413
149570000000.0,2,0.0998905369,0.035264713399999995,0.08252295975,0.01771,-0.074106,-0.011003,0.25878768685,-3.6012960795,-9.117830904,0.028375,0.37603,-1.9185,-2.4999999999941735e-05,1.999999999990898e-05,3.333333333332966e-05,0.0001879685261795272,0.0010040441459546745,-0.00024761709792639475
149570000000.0,2,0.09812533989999998,0.029155170449999997,0.0578200084,0.000718,-0.062244,-0.007853,0.25471792709999996,-3.6015902789999994,-9.117830904,0.02793,0.37606,-1.9187,-2.4999999999941735e-05,2.0000000000131024e-05,3.333333333332966e-05,0.00014123342749672307,0.0009591371717871944,0.00011879135190584478
149570000000.0,2,0.06859751675,0.02852754485,0.0395404128,-0.009685,-0.030185,-0.010064,0.2526781439,-3.6007076805,-9.118223169999998,0.027704,0.37596,-1.9188,9.999999999998899e-05,1.999999999990898e-05,-9.999999999998899e-05,-0.00023333765890459768,-0.0017087241320312696,-0.00042130103829027266
149570000000.0,2,0.03425462845,0.0446790974,0.029527823149999997,-0.011434,0.01672,-0.012286,0.25410010815,-3.59904055,-9.118811569,0.027858,0.37578,-1.919,1.4285714285744433e-05,2.0000000000131024e-05,2.4999999999941735e-05,-0.0004141437919184532,-0.0008516402972758019,-1.732819503311167e-05
149570000000.0,2,-0.01730873725,0.06643024709999999,0.034950900599999994,-0.012254,0.051884,-0.005944,0.2582287078,-3.59707922,-9.1194980345,0.028309,0.37557,-1.919,1.4285714285744433e-05,1.999999999990898e-05,2.500000000016378e-05,4.536439450775198e-05,-0.0006384032284938446,0.00035737228329768556
149570000000.0,2,-0.0452674964,0.0593694591,0.0585653138,-0.013249,0.065736,0.001502,0.26343603895,-3.595314023,-9.119988367,0.028878,0.37537,-1.919,1.4285714285744433e-05,3.333333333332966e-05,2.4999999999941735e-05,-0.0004916191797277314,-0.0004165186151137146,-4.742128363974252e-05
149570000000.0,2,-0.035029353799999996,0.029988735699999998,0.0090417313,-0.011135,0.066777,0.006841,0.2689179563,-3.593744959,-9.1204786995,0.029476,0.3752,-1.9189,1.4285714285522388e-05,3.333333333332966e-05,2.4999999999941735e-05,-9.154176609388331e-05,-0.0003444530135967572,0.00026342945788582206
149570000000.0,2,-0.01515127425,0.0039520799499999995,-0.035990405499999996,-0.003824,0.046471,0.005823,0.27328191555,-3.5930584934999996,-9.1206748325,0.029954,0.37512,-1.9188,1.4285714285744433e-05,3.333333333332966e-05,3.333333333332966e-05,-0.00023669738132353624,-0.00026891127219474953,6.259708731434777e-05
149570000000.0,2,0.0009708583499999999,-0.00452086565,-0.0171027976,-0.001938,0.015553,0.005881,0.27526285884999996,-3.592764294,-9.1206748325,0.030171,0.3751,-1.9188,1.4285714285744433e-05,4.999999999988347e-05,3.333333333332966e-05,5.154427265496864e-05,0.00027697917728564114,-4.4532471970226695e-05
149570000000.0,2,0.02293775435,-0.02407532575,-0.02256510165,2e-05,-0.007903,0.00379,0.27529227879999996,-3.5929604269999995,-9.120576766,0.030174,0.37512,-1.9187,1.4285714285744433e-05,5.0000000000105516e-05,3.333333333332966e-05,0.00015604677873320982,0.0007378679609755245,2.2481482339714587e-05
149570000000.0,2,0.042727574049999995,-0.029792602699999997,-0.0383440015,-0.000101,-0.021755,0.005948,0.2740566409,-3.5932546265,-9.1204786995,0.030039,0.37515,-1.9187,2.4999999999941735e-05,5.0000000000105516e-05,5.0000000000105516e-05,5.110548724052144e-05,0.00037144830465085654,-3.9126669002464975e-05
149570000000.0,2,0.029880862549999995,-0.0278901126,-0.00885540495,-0.004357,-0.021717,0.003806,0.272232604,-3.593352693,-9.120576766,0.02984,0.37516,-1.9187,2.4999999999941735e-05,4.999999999988347e-05,4.999999999988347e-05,0.00030538593089229904,0.00035400218817827067,9.42740362450123e-05
149570000000.0,2,0.026164142199999997,-0.03586291905,0.027615526399999996,-0.011769,-0.014196,0.004846,0.2710165794,-3.5931565599999997,-9.1206748325,0.029705,0.37514,-1.9186,2.500000000016378e-05,3.333333333332966e-05,-1.999999999990898e-05,0.0002846475998243836,-3.473193214786896e-05,0.0002162583367933124
149570000000.0,2,0.0260268491,-0.031008627299999997,0.051886985149999995,-0.019132,0.003972,0.01334,0.2711538725,-3.5922739615,-9.120969032,0.02972,0.37504,-1.9185,2.4999999999941735e-05,3.333333333332966e-05,-2.0000000000131024e-05,0.0003944987230173891,-0.0002637578741873092,0.0003442324960690468
149570000000.0,2,0.012915358049999999,-0.018426695349999998,0.0763349636,-0.037004,0.040345,0.018582,0.2736447616,-3.5901164985,-9.121753563999999,0.02999,0.3748,-1.9183,1.6666666666775853e-05,3.333333333332966e-05,-1.999999999990898e-05,0.00021299959699699889,-0.0008776910243624148,0.0005531978741798727
149570000000.0,2,-0.01683801805,-0.02117255735,0.10601969314999998,-0.061096,0.095954,0.018442,0.28020541044999997,-3.5859977054999996,-9.123224561499999,0.030704,0.37435,-1.9181,1.666666666655381e-05,5.0000000000105516e-05,-2.0000000000131024e-05,0.0008191500785514338,-0.0013057794498798625,0.0008038420567725579
149570000000.0,2,-0.05673147025,-0.01256231865,0.1052841944,-0.087297,0.15478,0.018294,0.2916693843,-3.5793291834999996,-9.125480091,0.031951,0.37362,-1.9179,1.6666666666775853e-05,4.999999999988347e-05,-1.999999999990898e-05,0.0013322106416568391,-0.0015657864667650845,0.0012026958712350877
149570000000.0,2,-0.07605057074999999,0.005491723999999999,0.12596641925,-0.11149,0.20185,0.024575,0.30724234449999993,-3.5703070654999998,-9.128422085999999,0.033644,0.37263,-1.9175,1.6666666666775853e-05,0.00010000000000021103,-9.999999999998899e-05,0.0025967352928115695,-0.0017044442103084645,0.001587722014448234
149570000000.0,2,-0.0855336013,-0.004344345949999999,0.1216220733,-0.12413,0.22965,0.036247,0.32555136004999996,-3.5599120164999998,-9.1318544135,0.035635,0.37149,-1.9171,1.666666666655381e-05,1.999999999990898e-05,-9.999999999998899e-05,0.0008147254764724887,-0.001387552632027944,0.0007924281608967243
149570000000.0,2,-0.08746551135,-0.005275977699999999,0.1436674225,-0.12745,0.2222,0.049068,0.34349752955,-3.549222768,-9.1353848075,0.037583,0.37033,-1.9165,1.6666666666775853e-05,2.0000000000131024e-05,-7.692307692375167e-06,0.001111370428651559,-0.0012750728698809333,0.0011742062888770444
149570000000.0,2,-0.0573885158,-0.0028439284999999996,0.14730568965,-0.12252,0.17207,0.050233,0.35815847129999995,-3.5387296525,-9.1389152015,0.03917,0.36918,-1.9159,5.0000000000105516e-05,1.999999999990898e-05,-7.692307692153122e-06,0.0008652763248412909,-0.0004408041826038378,0.00040435983101949624
149570000000.0,2,-0.01352337035,-0.0016279038999999999,0.12148478019999999,-0.096434,0.090885,0.03868,0.366964843,-3.530001734,-9.141955263,0.040119,0.36822,-1.9154,4.999999999988347e-05,2.0000000000131024e-05,-7.692307692375167e-06,0.0011502677161275288,0.0013176819977616105,0.0003267116704583628
149570000000.0,2,0.0657241683,0.030047575599999998,0.038873560599999996,-0.050134,0.001012,0.023973,0.36926940575,-3.5239216109999996,-9.1442107925,0.040361,0.36756,-1.9151,9.999999999998899e-05,1.999999999990898e-05,-7.692307692375167e-06,-0.0002914527152552693,0.00043750687552535084,-0.0006346792505887711
149570000000.0,2,0.0906722859,0.0838468575,-0.0078649333,0.011173,-0.080459,0.00821,0.36467008689999997,-3.5222544804999996,-9.1449953245,0.039855,0.36738,-1.915,9.999999999998899e-05,5.0000000000105516e-05,-7.692307692153122e-06,-0.000955497333541111,0.0012721415719267881,-0.0007291833667495695
149570000000.0,2,0.1011457881,0.12431890205,0.00924767095,0.067314,-0.13526,0.00093,0.35479479035,-3.5253926084999994,-9.1442107925,0.038781,0.36773,-1.9151,4.999999999988347e-05,4.999999999988347e-05,-7.692307692375167e-06,-0.002176495778764831,0.0007739498252734567,-0.000764603536173164
149570000000.0,2,0.0985960591,0.1162676424,0.0073353742,0.097057,-0.15042,0.002074,0.3426835776,-3.53235533,-9.141955263,0.037467,0.36848,-1.9152,5.0000000000105516e-05,9.999999999998899e-05,-7.692307692375167e-06,-0.001760111737499459,0.00042388417515026866,-0.0008633482043370888
149570000000.0,2,0.046012801799999996,0.09394770699999999,0.03841264805,0.096051,-0.13975,0.006322,0.33002319245,-3.5402987164999997,-9.139405534,0.036094,0.36935,-1.9152,9.999999999998899e-05,9.999999999998899e-05,-7.692307692375167e-06,-0.0011450946786316085,0.000703885637224344,-0.0001587372825034572
149570000000.0,2,-0.010071429549999998,0.03423501515,0.03348970975,0.073881,-0.10761,0.010497,0.31862786514999997,-3.547457571,-9.1369538715,0.034858,0.37013,-1.9151,-1.1111111111183902e-05,4.999999999988347e-05,-7.692307692153122e-06,-0.0004964452005948861,0.000709764949162528,1.7955499039268297e-06
149570000000.0,2,-0.05873202685,-0.0358531124,0.022290515449999996,0.03482,-0.057205,0.008207,0.31072370525,-3.5522628294999996,-9.1353848075,0.034,0.37066,-1.9149,-1.1111111110961858e-05,5.0000000000105516e-05,-7.692307692375167e-06,-0.00030494883323223254,7.1320418912890204e-06,-9.005296961614451e-05
149570000000.0,2,-0.1220339526,-0.0697448948,0.06991160785,-0.002094,-0.006819,0.003787,0.3066931721,-3.554518359,-9.134698342,0.033562,0.3709,-1.9148,-1.1111111111183902e-05,5.0000000000105516e-05,-7.692307692375167e-06,0.0010163336729686057,0.0005426899564637822,0.00032250397815059006
149570000000.0,2,-0.1492179864,-0.09098609869999999,0.05355411564999999,-0.036914,0.039286,0.000447,0.30679123859999996,-3.5534396275,-9.135090607999999,0.033571,0.37079,-1.9147,-1.1111111111183902e-05,4.999999999988347e-05,-7.692307692153122e-06,0.0006495740946583228,-0.0005142805274107598,0.0002043542457103864
149570000000.0,2,-0.14514822665,-0.10202838659999999,0.031420506599999995,-0.061214,0.069317,0.001422,0.31019414614999996,-3.5500073,-9.136267406,0.033939,0.37041,-1.9146,-1.1111111110961858e-05,1.6666666666775853e-05,-7.692307692375167e-06,0.0014956979955962346,-0.00035790028462856505,0.0003940976989404432
149570000000.0,2,-0.13760691279999998,-0.09446745944999999,0.04160961595,-0.069651,0.081102,0.001389,0.31522495759999997,-3.5453001079999997,-9.1379345365,0.034483,0.3699,-1.9144,-1.1111111111183902e-05,1.666666666655381e-05,-4.999999999988347e-05,0.0007960924417335091,-0.00023518880692496857,0.0005834091012842935
149570000000.0,2,-0.09027021325,-0.0973015813,0.0289492308,-0.068582,0.082154,0.003526,0.32116778749999997,-3.540396783,-9.139601666999999,0.035125,0.36936,-1.9143,-1.1111111111183902e-05,1.666666666655381e-05,-5.0000000000105516e-05,0.001412526693785221,-0.00019222988618738945,0.0002539882212626299
149570000000.0,2,-0.045061556749999995,-0.09087822554999998,0.00969877685,-0.056898,0.077789,0.007824,0.3274244302,-3.5361799235,-9.1410726645,0.035804,0.3689,-1.9142,-1.1111111110961858e-05,1.6666666666775853e-05,-2.4999999999941735e-05,-0.00022489961966709604,-0.0006879404736264139,0.000294201837350877
149570000000.0,2,-0.04200188195,-0.07240249694999999,0.012170052649999999,-0.041982,0.073405,0.005723,0.33333784015,-3.5331398619999996,-9.1420533295,0.036446,0.36856,-1.9141,-1.1111111111183902e-05,1.6666666666775853e-05,-2.500000000016378e-05,0.0006269178097090267,-0.0004327587967127844,0.0001532002904112706
149570000000.0,2,-0.049964881749999995,-0.0426393142,0.029527823149999997,-0.028043,0.071175,-0.011326,0.33936892989999995,-3.5309823989999995,-9.1426417285,0.037102,0.36833,-1.9141,-5.0000000000105516e-05,1.666666666655381e-05,-2.4999999999941735e-05,0.000372019184029293,-0.0007275262992663123,0.00013875107366176365
149570000000.0,2,-0.0602520576,-0.016612465099999998,0.04174690905,-0.03001,0.076542,-0.035888,0.3462139716,-3.5289230025,-9.143132061,0.037848,0.36811,-1.9144,-4.999999999988347e-05,-3.333333333332966e-05,-2.4999999999941735e-05,0.0005284651665204976,-0.001083603304906422,-0.000289332253743918
149570000000.0,2,-0.0737852346,-0.0034127142,0.049415709349999996,-0.049239,0.060735,-0.056173,0.35300998005,-3.5250003425,-9.1444069255,0.038585,0.36768,-1.9149,-9.999999999998899e-05,-3.333333333332966e-05,-4.999999999988347e-05,0.0014811777225612888,-0.0006806491508015711,-0.0006390859773715285
149570000000.0,2,-0.058928159849999995,-0.01266038515,0.0480721983,-0.071803,0.032162,-0.070036,0.35805059815,-3.5191163524999998,-9.146466321999998,0.039127,0.36703,-1.9155,-5.0000000000105516e-05,-3.333333333332966e-05,-5.0000000000105516e-05,0.0013934333391742992,-0.000499543286410109,-0.0008987470934903319
149570000000.0,2,-0.039216793349999994,-0.04027591155,-0.024791211199999996,-0.072956,0.014067,-0.081747,0.3619830648,-3.5124478304999998,-9.1489179845,0.039546,0.3663,-1.9163,-4.999999999988347e-05,4.999999999988347e-05,-9.999999999998899e-05,0.0009781093389247264,-0.00036755305150171225,-0.0007945047665827154
149570000000.0,2,-0.0310478539,-0.03341125655,-0.04350229939999999,-0.059205,-0.000966,-0.081696,0.36459163370000003,-3.506661907,-9.150977380999999,0.039821,0.36568,-1.9172,-9.999999999998899e-05,5.0000000000105516e-05,2.4999999999941735e-05,0.00026984879665836736,-0.0004628100883685704,-0.0005354647616131192
149570000000.0,2,-0.029498403199999995,-0.01862282835,0.031106693799999998,-0.05086,-0.009586,-0.057115,0.3657292051,-3.5020527814999998,-9.152742578,0.039938,0.36517,-1.9178,-1.1111111111183902e-05,1.666666666655381e-05,2.4999999999941735e-05,0.00023765263190589359,0.0001825838955971104,-8.330763577060751e-05
149570000000.0,2,0.042178401649999996,-0.0450713634,-0.029184590399999998,-0.029768,-0.011937,-0.011178,0.366180311,-3.499208853,-9.153723243,0.039982,0.36487,-1.9181,-1.1111111111183902e-05,1.6666666666775853e-05,2.500000000016378e-05,0.00014707801149116406,0.00033159773492164035,0.00019607591406306524
149570000000.0,2,0.00658026215,-0.0669205796,-0.06555745525,-0.003334,-0.017523,0.028372,0.36407188124999995,-3.4991107864999997,-9.153919376,0.039752,0.36485,-1.9179,-1.1111111110961858e-05,1.6666666666775853e-05,2.4999999999941735e-05,-0.00021836951731168952,0.000512030695462462,0.0005504487210281628
149570000000.0,2,0.013582210249999999,-0.07636438355,-0.01826978895,0.017757,-0.031578,0.056185,0.35991386164999994,-3.5014643824999996,-9.153134843999998,0.039301,0.36511,-1.9174,-1.1111111111183902e-05,1.666666666655381e-05,5.0000000000105516e-05,-0.0007933353620408479,0.0007510758425195441,0.0002661698526338907
149570000000.0,2,0.08340555825,-0.062174161,-0.027605719749999997,0.040024,-0.044554,0.063716,0.35518705635,-3.5055831755,-9.151761913,0.038791,0.36556,-1.9167,-1.1111111111183902e-05,1.666666666655381e-05,4.999999999988347e-05,-0.0006586886420011373,0.0005960725450115945,0.0003013793006090837
149570000000.0,2,0.06501808949999999,-0.0090613446,-0.023163307299999998,0.055051,-0.049975,0.037065,0.3500777917,-3.510584567,-9.1500947825,0.038241,0.3661,-1.9163,-1.1111111111183902e-05,1.6666666666775853e-05,9.999999999998899e-05,-0.0015495762939565783,0.00019798240998247785,-0.00029698184709059383
149570000000.0,2,0.0391089202,0.046483521,0.0045502856,0.061733,-0.044651,-0.010967,0.34636107135,-3.5155859584999996,-9.148329585499999,0.037842,0.36664,-1.9163,-1.1111111110961858e-05,1.999999999990898e-05,9.999999999998899e-05,-0.000343965237423971,0.0005380002824819652,-0.0004072448890269087
149570000000.0,2,0.024124358999999998,0.0932416282,-0.01344491715,0.068353,-0.036148,-0.041925,0.3444291613,-3.5200970175,-9.146662455,0.037639,0.36714,-1.9168,-1.1111111111183902e-05,2.0000000000131024e-05,9.999999999998899e-05,-0.0008070072526562,-0.0005222929242545415,-0.0006009812122540481
149570000000.0,2,0.026811381099999997,0.09735061454999999,-0.01583773975,0.069497,-0.026565,-0.043008,0.3438407623,-3.5248042095,-9.144799191499999,0.037582,0.36766,-1.9173,-1.1111111111183902e-05,1.999999999990898e-05,5.0000000000105516e-05,-0.0002716546046122037,0.0002672918585300277,-0.00013954372802643666
149570000000.0,2,0.01420983585,0.03911872685,0.0069627215,0.063038,-0.022267,-0.024881,0.34312487685,-3.530197867,-9.142837861499999,0.037512,0.36824,-1.9176,0.00010000000000021103,2.0000000000131024e-05,4.999999999988347e-05,-0.0009391005443432632,3.861222447998358e-06,2.9689629309243015e-05
149570000000.0,2,0.01519050085,-0.036323831599999995,0.01309187775,0.045815,-0.024285,0.002844,0.3413890998,-3.5353953915,-9.1408765315,0.037331,0.36881,-1.9177,5.0000000000105516e-05,1.999999999990898e-05,9.999999999998899e-05,-0.00024793166709680126,0.00047460351077455165,0.00043190178009791524
149570000000.0,2,0.05310300974999999,-0.09209425015,-0.01921122735,0.034997,-0.027417,0.028447,0.33894724395000003,-3.5402006499999996,-9.139111334499999,0.037071,0.36934,-1.9175,4.999999999988347e-05,1.2499999999970868e-05,9.999999999998899e-05,-0.0012181470284868823,-0.00016716318521559081,0.000203223040501882
149570000000.0,2,0.06432181734999999,-0.10596085325,-0.019887886199999996,0.022164,-0.023061,0.042292,0.33626022185,-3.54412331,-9.137640337,0.036782,0.36977,-1.9172,4.999999999988347e-05,1.2499999999970868e-05,4.999999999988347e-05,-0.0002624849339003532,0.00044965883184855393,0.00022307208498117959
149570000000.0,2,0.053691408749999996,-0.09787036699999999,0.0175931301,0.012572,-0.022979,0.041206,0.33341629335,-3.5472614379999996,-9.136463539,0.036477,0.37012,-1.9168,5.0000000000105516e-05,1.2499999999970868e-05,5.0000000000105516e-05,-0.0003099621623361415,0.00012543577990520305,0.00012297016285697793
149570000000.0,2,0.044316251349999995,-0.0558782917,0.030586941349999997,0.000934,-0.01967,0.027303,0.33113134389999993,-3.5487324355,-9.136071272999999,0.036228,0.37027,-1.9164,-2.4999999999941735e-05,1.2500000000192912e-05,9.999999999998899e-05,0.0004885705982241584,0.00036173427340124853,0.0003809984743637085
149570000000.0,2,0.02788030595,-0.0343428883,0.015249340749999998,-0.002084,-0.008968,0.008065,0.33005261239999995,-3.5490266349999997,-9.1359732065,0.036111,0.37031,-1.9163,-2.500000000016378e-05,1.2499999999970868e-05,0.00010000000000021103,-0.0001998349277948508,-9.969100269957565e-05,0.00018819431494632166
149570000000.0,2,-0.03207755215,0.054211161199999996,-0.02211399575,0.004575,0.012307,-0.010106,0.33045468505,-3.5481440365,-9.136267406,0.036154,0.3702,-1.9164,-2.4999999999941735e-05,1.2499999999970868e-05,9.999999999998899e-05,-4.4469785022371866e-05,-0.0004276802336464769,-4.415827273412942e-05
149570000000.0,2,-0.035264713399999995,0.05557428555,-0.022751427999999997,0.018659,0.03564,-0.01546,0.33364184629999993,-3.5495169675,-9.135679006999998,0.036505,0.37035,-1.9165,-2.4999999999941735e-05,1.2499999999970868e-05,9.999999999998899e-05,-0.00014531812936724453,-6.762335275256603e-05,0.000358094251548674
149570000000.0,2,-0.07090207949999999,0.06661657345,-0.013052651149999999,0.026178,0.043034,-0.014391,0.33679958759999995,-3.550791832,-9.134992541499999,0.036853,0.3705,-1.9167,9.999999999998899e-05,1.2499999999970868e-05,0.0001500000000000945,-0.0006588530637084977,-0.0014936121927349166,0.00025759525864541
149570000000.0,2,-0.04969029555,0.0614484689,-0.014092156049999999,0.022815,0.032388,0.000567,0.3393885432,-3.5520666964999994,-9.134502208999999,0.037138,0.37064,-1.9167,3.333333333332966e-05,3.333333333332966e-05,0.00014999999999987246,-0.0007153554510526683,0.0005382274357517147,0.0003215566413091453
149570000000.0,2,0.004167826249999999,0.02109410415,-0.05820246775,0.016175,0.012181,0.015535,0.34059476115,-3.552949295,-9.134011876499999,0.037272,0.37074,-1.9166,3.333333333332966e-05,3.333333333332966e-05,0.00019999999999997797,-2.646306333659032e-05,0.00040279023896983013,-9.80009745463195e-06
149570000000.0,2,0.0336171962,-0.02038802535,-0.10291098509999999,0.01701,-0.013405,0.020918,0.3397219693,-3.554126093,-9.1336196105,0.037178,0.37087,-1.9164,3.333333333332966e-05,3.333333333332966e-05,9.999999999998899e-05,0.00039891961574722856,0.0009748382638450348,0.00021024768877664357
149570000000.0,2,0.0598009517,-0.0010198916,-0.1015184408,0.031798,-0.030576,0.023107,0.33733895334999997,-3.5561854895,-9.132933144999999,0.03692,0.37109,-1.9162,4.999999999988347e-05,9.999999999998899e-05,0.00019999999999997797,-0.00034548675951617813,0.0005953875748276882,-3.575917646475579e-05
149570000000.0,2,0.06926436894999999,0.04723863305,-0.07303992919999999,0.047693,-0.047748,0.016759,0.33371049284999993,-3.5591274844999994,-9.131952479999999,0.036527,0.3714,-1.916,5.0000000000105516e-05,9.999999999998899e-05,9.999999999998899e-05,0.0010614668205869426,0.0003363852547302315,0.0004718810214559832
149570000000.0,2,0.04458103089999999,0.03252865805,-0.06389032474999999,0.065944,-0.039362,0.007168,0.33011145229999994,-3.5640308094999997,-9.130187283,0.036141,0.37194,-1.916,1.999999999990898e-05,9.999999999998899e-05,9.999999999998899e-05,-0.00020934789886556393,-3.850291125484517e-06,0.0002996641857691551
149570000000.0,2,0.0030106415499999996,0.06779337145,-0.05127897285,0.085327,-0.019271,0.002897,0.32768920975,-3.5702089989999997,-9.127833687,0.035885,0.37262,-1.9159,2.0000000000131024e-05,9.999999999998899e-05,0.00019999999999997797,-0.0005742869476023649,0.00012942538511895307,-1.3970553318198853e-05
149570000000.0,2,-0.036235571749999994,0.08371937104999999,-0.005668243699999999,0.088629,-0.007575,0.000748,0.32608091915,-3.5772697869999996,-9.125087825,0.03572,0.3734,-1.9159,1.999999999990898e-05,5.0000000000105516e-05,0.00019999999999997797,-0.0005195562833142375,-0.0002426385634510808,-4.483589987619441e-05
