Time,placement_label,user_acc_x(m/s^2),user_acc_y(m/s^2),user_acc_z(m/s^2),rotation_rate_x(rad/s),rotation_rate_y(rad/s),rotation_rate_z(rad/s),gravity_x(m/s^2),gravity_y(m/s^2),gravity_z(m/s^2),attitude_roll(rad),attitude_pitch(rad),attitude_yaw(rad),target_delta_x,target_delta_y,target_delta_z,target_delta_roll,target_delta_pitch,target_delta_yaw
149550000000.0,2,-0.23891941394999996,0.08740667145,-0.15033594449999998,-0.020183,0.35249,-0.094692,-0.1173659872,-3.6113969289999996,-9.1167521725,-0.012873,0.37713,2.7239,0.0,0.0,0.0,0.0,0.0,0.0
149550000000.0,2,-0.15126757624999998,0.02544825675,-0.18119747205,0.037555,0.23054,-0.10078,-0.08979949405,-3.613750525,-9.116065706999999,-0.00985,0.3774,2.7228,-0.000500000000000167,0.0004999999999999449,0.0004999999999999449,0.007044299031270129,0.0006063677590057992,0.004285564543377696
149550000000.0,2,-0.071000146,-0.07340277525,-0.19351462445,0.079177,0.10657,-0.08768,-0.0754915917,-3.6202229139999997,-9.1136140445,-0.008283,0.37811,2.7219,0.0008000000000001339,-0.000600000000000156,-0.0008999999999999009,-0.00271446114240792,-0.005258359376993704,-0.002084740938962687
149550000000.0,2,0.027909725899999998,-0.20365470054999998,-0.19881021545,0.10179,0.01259,-0.06506,-0.0699606411,-3.6291469655,-9.110181717,-0.007679,0.37909,2.7212,-9.999999999998899e-05,5.0000000000105516e-05,-9.999999999998899e-05,0.0027614847433418133,-0.004086212785367582,0.0011066339409043224
149550000000.0,2,0.021427530249999997,-0.24546044949999998,-0.1133060341,0.11,-0.026907,-0.062841,-0.0696076017,-3.6391497484999995,-9.1061609905,-0.007644,0.38018,2.7205,-0.00019999999999997797,5.0000000000105516e-05,4.999999999988347e-05,0.002361200398570684,-0.004843254217301585,0.0007021413503917051
149550000000.0,2,-0.06899958939999999,-0.21654063864999998,-0.0733341287,0.1219,-0.008886,-0.067122,-0.0686661633,-3.6499370635,-9.1018460645,-0.007544,0.38137,2.7198,-0.00019999999999997797,0.00029999999999996696,5.0000000000105516e-05,0.00400020447548205,-0.006919950244449691,0.0017680006348036736
149550000000.0,2,-0.14104904694999998,-0.1362143685,-0.02762533305,0.13829,0.043178,-0.060779,-0.0678424047,-3.6658238364999995,-9.095471741999999,-0.007459,0.38311,2.7193,-5.0000000000105516e-05,4.999999999988347e-05,5.0000000000105516e-05,0.0009083944458458948,-0.000927932063142789,0.00011415350057275564
149550000000.0,2,-0.23864482774999998,-0.056486304,0.04989623519999999,0.14407,0.10386,-0.051269,-0.0579376882,-3.6789647475,-9.0902742175,-0.006374,0.38455,2.7187,-5.0000000000105516e-05,5.0000000000105516e-05,4.999999999988347e-05,0.0009083177068121562,-0.0009280358967349578,0.00011331369975742245
149550000000.0,2,-0.29722975484999997,-0.03772618255,0.09234922305,0.13274,0.16255,-0.039651,-0.042904093750000004,-3.6914191929999998,-9.085272826,-0.004722,0.38593,2.7183,-0.00019999999999997797,9.999999999998899e-05,0.00019999999999997797,-0.002113594271584418,-0.0012797435904534638,-6.429917267025687e-05
149550000000.0,2,-0.27055566685,-0.0552506661,0.1068140318,0.098832,0.19586,-0.033364,-0.0243793319,-3.7012258429999996,-9.081350166,-0.002685,0.38701,2.7179,-9.999999999998899e-05,0.00019999999999997797,0.00019999999999997797,-0.0013390950994379702,-0.0003175450152472781,-0.000373902487000477
149550000000.0,2,-0.23499675395,-0.1137179134,0.11278628165,0.045458,0.1867,-0.040908,-0.012062179499999999,-3.71083636,-9.077427506,-0.001328,0.38807,2.7178,-0.00019999999999997797,9.999999999998899e-05,0.00029999999999996696,-0.0029555654947354126,-0.0008298182524744124,-0.000688242907870007
149550000000.0,2,-0.14716839655,-0.2055669973,0.09661511579999998,-0.002744,0.15088,-0.060142,0.004716998649999999,-3.7116208919999996,-9.0771333065,0.000519,0.38816,2.7172,-9.999999999998899e-05,5.0000000000105516e-05,0.000300000000000189,-0.001592311721929085,-0.0005434674291042718,-0.0004303972573449777
149550000000.0,2,-0.06688135299999999,-0.28366715789999997,0.05777097515,-0.033135,0.077623,-0.073942,0.0161613592,-3.709267296,-9.0781139715,0.00178,0.38789,2.7164,-0.00019999999999997797,4.999999999988347e-05,0.00019999999999997797,-0.0014337380726124893,-0.0007903321540696506,0.00019395644733782857
149550000000.0,2,-0.031302826799999996,-0.26912389594999997,0.0737656213,-0.033809,-0.006554,-0.073794,0.02023111895,-3.7060311015,-9.079388836,0.002228,0.38754,2.7156,-0.00019999999999997797,4.999999999988347e-05,0.00029999999999996696,-0.0012223573927422904,-0.0012545872700653327,0.00034800641174728697
149550000000.0,2,0.01434712895,-0.21032322255,0.1266823047,-0.024825,-0.081229,-0.066177,0.01723028405,-3.7101498944999998,-9.0777217055,0.001898,0.38799,2.7149,-0.00019999999999997797,5.0000000000105516e-05,0.00029999999999996696,-0.0012298513703112302,-0.0020566458773072505,0.0004341442943116003
149550000000.0,2,0.00467777205,-0.19155329444999997,0.1984081428,-0.003828,-0.1219,-0.062867,0.009237864299999999,-3.7093653624999994,-9.078015904999999,0.001017,0.3879,2.7142,-9.999999999998899e-05,-9.999999999998899e-05,9.999999999998899e-05,-0.0016576956630225959,-0.003722235404563845,-0.0005749761463610947
149550000000.0,2,-0.0742363405,-0.1061667929,0.23371208279999997,0.018532,-0.12954,-0.066017,1.9613299999999997e-05,-3.7105421604999997,-9.077623639,2e-06,0.38803,2.7135,-0.00019999999999997797,-9.999999999998899e-05,0.00019999999999997797,-0.001685150568012661,-0.0033660481852049173,-0.0004251733625990628
149550000000.0,2,-0.11877814479999999,-0.02993970245,0.25672829035,0.04438,-0.10204,-0.07029,-0.00736479415,-3.7138764214999997,-9.076250708,-0.000812,0.3884,2.7127,-0.00029999999999996696,-5.0000000000105516e-05,9.999999999998899e-05,0.0004570391870538648,-0.0015476321555818462,-8.754270756305971e-05
149550000000.0,2,-0.23513404704999996,0.05066115389999999,0.245950782,0.06828,-0.059611,-0.087396,-0.018054042649999998,-3.7211333425,-9.0732106465,-0.00199,0.3892,2.7121,-0.00020000000000020002,-4.999999999988347e-05,9.999999999998899e-05,0.0017480461335162012,-0.0005720444708843253,-0.00011726568084424738
149550000000.0,2,-0.3529609468,0.13461588454999998,0.27212473085,0.071904,-0.021255,-0.11094,-0.01679879145,-3.727703798,-9.0704647845,-0.001852,0.38993,2.711,-0.00029999999999996696,-0.00019999999999997797,9.999999999998899e-05,0.0012674578417437021,0.00037429839203984017,-0.000752778110141239
149550000000.0,2,-0.32812070235,0.1083438692,0.2448132106,0.052971,-0.001894,-0.13449,-0.0124544455,-3.7329993889999997,-9.068307321499999,-0.001374,0.39051,2.7096,-0.00019999999999997797,-0.00019999999999997797,-9.999999999998899e-05,0.003196149272259363,0.0011333414997598545,-0.0008245013884517483
149550000000.0,2,-0.2371051837,0.031057660549999998,0.1976236108,0.02103,-0.00376,-0.15055,-0.014288289049999998,-3.7371181819999997,-9.066640191,-0.001576,0.39097,2.7083,-0.00019999999999997797,-0.00029999999999996696,9.999999999998899e-05,-0.0006224055008576812,0.00015281551448298458,-0.0016286371258134036
149550000000.0,2,-0.1646928801,-0.04314926,0.1868166825,-0.020693,-0.024729,-0.16019,-0.014866881399999999,-3.7393737114999994,-9.065659526,-0.00164,0.39121,2.7068,-0.00039999999999995595,-6.666666666665932e-05,9.999999999998899e-05,0.000224968776786294,0.0015664017493033366,-0.0007468711508243353
149550000000.0,2,-0.03837342144999999,-0.13379212595,0.1888564657,-0.060408,-0.055309,-0.15914,-0.014298095700000001,-3.7398640439999995,-9.0655614595,-0.001578,0.39127,2.7051,-0.00039999999999995595,-6.666666666688137e-05,0.00019999999999997797,-0.00214241190875325,0.0003943409821793864,-0.0007862958208736948
149550000000.0,2,0.05100438665,-0.170047311,0.14454021435,-0.078618,-0.062623,-0.15382,-0.0126898051,-3.738491113,-9.066051792,-0.0014,0.39111,2.7034,-0.00039999999999995595,-6.666666666665932e-05,0.00020000000000020002,-0.002879258837509946,0.0001529086875731167,-0.0009793827838230351
149550000000.0,2,0.05170065879999999,-0.1284867283,0.14091175385,-0.071172,-0.05737,-0.13888,-0.01115016105,-3.7360394504999994,-9.0671305235,-0.00123,0.39085,2.7018,-0.000500000000000167,-9.999999999998899e-05,9.999999999998899e-05,-0.002529351480739128,-0.0009757235284399979,-0.0011775412244931782
149550000000.0,2,0.021182364,-0.0505238608,0.16957659179999998,-0.051988,-0.050086,-0.12178,-0.010551955399999998,-3.7336858545,-9.0681111885,-0.001164,0.39058,2.7004,-0.0004999999999999449,-9.999999999998899e-05,0.00019999999999997797,-0.0017213456208967637,-0.00010421423744144676,-0.0005574344913805429
149550000000.0,2,-0.0448752304,0.020927391099999998,0.12468174809999999,-0.023137,-0.040743,-0.11534,-0.011385520649999998,-3.7315283915,-9.068993787,-0.001255,0.39034,2.6992,-0.0015000000000000568,0.000600000000000156,0.0008999999999999009,0.005607697194386696,0.003145500349838626,0.0026409353493808962
149550000000.0,2,-0.0757857912,0.0995178842,0.025565936549999998,0.006845,-0.029267,-0.11957,-0.011905273099999999,-3.729468995,-9.069778319,-0.001313,0.39012,2.698,0.00029999999999996696,-0.0009000000000001229,-0.0009999999999998899,-0.0040033925708877205,-0.0020203443481807692,-0.006402402212995956
149550000000.0,2,-0.12575067294999998,0.15470971039999998,-0.0008433719,0.007991,-0.025008,-0.13025,-0.0128074849,-3.726723133,-9.070955117,-0.001412,0.38982,2.6967,-0.0004999999999999449,-0.00029999999999996696,-0.00019999999999997797,0.0014581918222021373,-0.000977387406646324,-0.0018919575803614808
149550000000.0,2,-0.11259014864999999,0.11882717804999998,-0.11088379154999999,-0.007864,-0.015275,-0.1463,-0.012062179499999999,-3.722800473,-9.072524180999999,-0.001329,0.38939,2.6953,-0.00039999999999995595,-0.00019999999999997797,-0.00010000000000021103,0.0006248340764756777,0.0005354222541598119,-0.0008838299654617132
149550000000.0,2,-0.09058402605,0.07020580735,-0.16417312764999997,-0.017208,0.007194,-0.16343,-0.0081787461,-3.718485547,-9.074289378,-0.000901,0.38891,2.6937,-0.00029999999999996696,-0.00039999999999995595,-9.999999999998899e-05,-0.0005359976260367882,0.0006976314439670617,-0.0009482240305341005
149550000000.0,2,-0.0857493476,0.03912853349999999,-0.13413535869999998,-0.026668,0.019002,-0.17414,-0.00208881645,-3.7142686874999997,-9.076054574999999,-0.00023,0.38844,2.6919,-0.00039999999999995595,-0.00029999999999996696,-4.999999999988347e-05,-0.0005263005239330432,-0.00016207373159371485,-0.0015955351328235945
149550000000.0,2,-0.04023668495,0.0283608318,-0.10844193569999999,-0.035399,-0.002244,-0.16985,0.00387362675,-3.7095614954999996,-9.0779178385,0.000427,0.38793,2.6901,-0.000500000000000167,-0.00020000000000020002,-5.0000000000105516e-05,-2.322502630847101e-05,-0.0003013727270249067,-0.0017332425796148243
149550000000.0,2,0.04382591885,-0.018534568499999998,-0.1044996624,-0.033757,-0.057676,-0.16014,0.00705098135,-3.7058349684999996,-9.0794869025,0.000777,0.38751,2.6883,-0.0004999999999999449,-0.00039999999999995595,9.999999999998899e-05,-0.0010404316366444122,-0.0017269354755353739,-0.001202062556167005
149550000000.0,2,0.1335077331,-0.03350932305,-0.13024211865,-0.015081,-0.11644,-0.14827,0.00640374245,-3.703187173,-9.080565634,0.000705,0.38723,2.6865,-0.0004999999999999449,-0.00019999999999997797,-0.00019999999999997797,0.0010431335658678265,-0.00018716773552696075,-0.0006219834585660111
149550000000.0,2,0.1461779249,0.00911037785,-0.1366066345,0.023054,-0.14447,-0.13855,0.00226533615,-3.7030891065,-9.080663700499999,0.000249,0.38721,2.6848,-0.0005999999999999339,-9.999999999998899e-05,-4.999999999988347e-05,-0.001150835508076098,-0.00020758910069940129,-0.0018813160789135641
149550000000.0,2,0.07459918655,0.0896131677,-0.07978690439999998,0.055003,-0.1458,-0.12995,-0.0045698989,-3.7050504364999997,-9.079781102,-0.000504,0.38743,2.6834,-0.000300000000000189,-0.00029999999999996696,-5.0000000000105516e-05,0.0005234158422297019,-0.0004696347195225492,-0.0016564674653003486
149550000000.0,2,-0.014592295199999999,0.1457856589,-0.0646650501,0.073301,-0.11826,-0.11929,-0.012042566199999999,-3.7078943649999996,-9.078604303999999,-0.001327,0.38775,2.6821,-0.0005999999999999339,-0.00019999999999997797,-9.999999999998899e-05,0.001350727716397937,-0.0006421496531365811,-0.0016636708363276242
149550000000.0,2,-0.07622709044999999,0.13877390415,-0.07547197839999999,0.09167,-0.084318,-0.11292,-0.018044235999999998,-3.7126996235,-9.076642974,-0.001988,0.38827,2.6809,-0.0004999999999999449,-0.00029999999999996696,4.999999999988347e-05,0.002128011156859788,-0.00010170331845205105,-0.0015082088022003726
149550000000.0,2,-0.08062046964999998,0.0905349928,-0.00352058735,0.092908,-0.065146,-0.11721,-0.021888442799999998,-3.719662345,-9.0737990455,-0.002412,0.38904,2.6797,-0.0004999999999999449,-0.00019999999999997797,5.0000000000105516e-05,0.00010106129179732193,0.00033840967440834646,-0.0007510075681447237
149550000000.0,2,-0.03774579585,0.043355199649999995,0.01464132845,0.081156,-0.073565,-0.12789,-0.024506818349999997,-3.7268211995,-9.070857050499999,-0.002701,0.38983,2.6784,-0.000400000000000178,-0.00019999999999997797,-9.999999999998899e-05,0.0003941175686132392,-0.0006019745018601697,-0.0018879098083914303
149550000000.0,2,0.00626644935,-0.00871811185,-0.00138273765,0.053331,-0.093566,-0.14285,-0.027223260399999998,-3.7327051895,-9.0685034545,-0.003002,0.39047,2.6769,-0.0004999999999999449,-0.00020000000000020002,9.999999999998899e-05,-0.001571466355295148,-0.0003326126943778984,-0.0017006437277485853
149550000000.0,2,0.06836215714999999,-0.0565451439,-0.02452643165,0.018092,-0.10498,-0.15463,-0.0294591766,-3.7361375169999995,-9.067032457,-0.003249,0.39086,2.6752,-0.0004999999999999449,-0.00019999999999997797,9.999999999998899e-05,-0.00318913431784712,-0.00022994278015064928,-0.0019421554062877822
149550000000.0,2,0.029292463549999998,-0.06111504279999999,-0.011944499699999998,-0.012813,-0.11004,-0.16962,-0.0327345977,-3.7368239825,-9.066738257499999,-0.00361,0.39093,2.6734,-0.0004999999999999449,-9.999999999998899e-05,4.999999999988347e-05,-0.0006344146597059841,-0.0004982473858754499,-0.0018416765124375511
149550000000.0,2,-0.04202149524999999,-0.03519606685,0.022192448949999995,-0.035079,-0.10345,-0.18675,-0.03639247815,-3.7349607189999996,-9.067522789499998,-0.004013,0.39072,2.6715,-0.000500000000000167,-0.00019999999999997797,5.0000000000105516e-05,-0.0006898477844916595,-0.00018338030549558404,-0.0013984695683955106
149550000000.0,2,-0.05343643585,-0.0061879961500000006,0.07457957324999999,-0.045529,-0.08417,-0.19961,-0.03829496825,-3.731626458,-9.068797653999999,-0.004223,0.39036,2.6694,-0.0004999999999999449,-9.999999999998899e-05,0.000300000000000189,-0.0012035262829532267,0.0017101110092028193,-0.00045262831964579253
149550000000.0,2,-0.09877257879999998,0.0251638639,0.14081368735,-0.045321,-0.062856,-0.20712,-0.03904027365,-3.728096064,-9.0702686515,-0.004305,0.38997,2.6672,-0.0005999999999999339,-9.999999999998899e-05,9.999999999998899e-05,-0.002430283331254224,-0.00015623214558124765,-0.0012806827841614632
149550000000.0,2,-0.0784532,0.0492882229,0.1860909904,-0.024868,-0.041714,-0.20925,-0.03721623675,-3.7257424679999995,-9.0712493165,-0.004103,0.38971,2.6651,-0.00039999999999995595,-0.00019999999999997797,-9.999999999998899e-05,0.001171961741466776,0.0003046166601636813,-0.0014375101363941767
149550000000.0,2,-0.054319034349999996,0.051122066449999996,0.22082614469999998,0.000891,-0.017428,-0.20071,-0.03276401765,-3.7260366675,-9.07115125,-0.003612,0.38975,2.6629,-0.000500000000000167,-9.999999999998899e-05,9.999999999998899e-05,-0.0008107727049684321,-0.00020977276437417203,-0.001691064008751214
149550000000.0,2,-0.016073099349999998,0.048493884249999994,0.28547158149999996,0.019095,0.003711,-0.17937,-0.0261249156,-3.728684463,-9.0700725185,-0.00288,0.39003,2.6609,-0.0004999999999999449,-0.00019999999999997797,0.00013333333333331865,0.0008308973380061202,0.0009058601638523012,-0.001269475778582052
149550000000.0,2,0.0634097989,-0.00973800345,0.30962536044999994,0.022189,0.008983,-0.14842,-0.0179265562,-3.7332935884999996,-9.068209255,-0.001977,0.39054,2.6591,-0.0005999999999999339,-0.00019999999999997797,0.00013333333333331865,0.0026997889816440246,0.00041407676066507193,-0.002437089804947501
149550000000.0,2,0.15589631505,-0.10139095434999999,0.29910282499999996,0.013413,-0.003757,-0.11853,-0.00969877685,-3.738883379,-9.0659537255,-0.00107,0.39116,2.6577,-0.0007999999999999119,-9.999999999998899e-05,0.00013333333333331865,-0.0040258424347575095,-0.0009460455876555418,-0.0028286496273927653
149550000000.0,2,0.21481466825,-0.13702832045,0.2806270964,-0.010345,-0.03553,-0.10998,-0.0033832942499999997,-3.7431002384999994,-9.064188528499999,-0.000373,0.39162,2.6563,-0.000400000000000178,-0.00019999999999997797,-0.00019999999999997797,0.0016338181349831449,0.0010072800089697687,-0.0014053763872705904
149550000000.0,2,0.25899362649999996,-0.15721040614999998,0.2364187182,-0.032839,-0.061952,-0.13239,0.00167693715,-3.7450615684999997,-9.0634039965,0.000185,0.39184,2.6547,-0.0006999999999999229,-0.00019999999999997797,9.999999999998899e-05,-0.0020687512328023128,-0.0002246057256301004,-0.0028653839146914606
149550000000.0,2,0.25310963649999996,-0.10444082249999999,0.19645661944999998,-0.040157,-0.066108,-0.16763,0.0066685220000000005,-3.7446693025,-9.063502063,0.000735,0.3918,2.6527,-0.0006999999999999229,-0.00010000000000021103,0.00019999999999997797,-0.0015236085784232078,-0.0007031709184941448,-0.0017525093718080142
149550000000.0,2,0.17038073709999998,-0.020329185450000002,0.22976000284999998,-0.051631,-0.053188,-0.19863,0.0121798593,-3.7423157065,-9.064482728,0.001344,0.39154,2.6505,-0.0008000000000001339,-0.00014999999999987246,0.00029999999999996696,-0.0015851361262691488,-0.0012306447751140315,-0.002124798616155471
149550000000.0,2,0.10109675485,0.02091758445,0.28034270355,-0.070446,-0.018906,-0.22114,0.019966339399999998,-3.7379027139999996,-9.0663459915,0.002202,0.39105,2.6481,-0.00039999999999995595,-0.0001500000000000945,4.999999999988347e-05,0.00037868018801101577,-0.0014674134789691706,-0.0016723191182460573
149550000000.0,2,0.03611789195,0.012062179499999999,0.2215910634,-0.091447,0.019636,-0.22658,0.030469261549999998,-3.7311361254999995,-9.0690918535,0.00336,0.39031,2.6456,-0.0004999999999999449,-0.00019999999999997797,5.0000000000105516e-05,-0.00013761511695253859,-0.0004369776297128425,-0.000695646326794086
149550000000.0,2,0.02974356945,-0.011532620399999999,0.17627453375,-0.10644,0.026132,-0.20527,0.041639035899999996,-3.7229966059999997,-9.072328048,0.004589,0.38941,2.6433,-0.000600000000000156,-9.999999999998899e-05,-9.999999999998899e-05,-6.69883642634983e-05,0.0024428933911795347,-0.0012159057321234346
149550000000.0,2,0.0963797562,-0.01167972015,0.1257997062,-0.10887,0.010135,-0.17002,0.051759498699999996,-3.7138764214999997,-9.076054574999999,0.005703,0.3884,2.6413,-0.0004999999999999449,-0.00039999999999995595,3.333333333332966e-05,0.0009489242197771031,-0.0005731887520161738,-0.002028353713071973
149550000000.0,2,0.16253541709999997,-0.03682397075,0.0159652262,-0.093258,-0.017728,-0.13579,0.05937926574999999,-3.705344636,-9.0794869025,0.00654,0.38746,2.6396,-0.0004999999999999449,-0.00019999999999997797,3.333333333332966e-05,-0.0005325652725966523,0.0005176221869878095,-0.0017616474291250461
149550000000.0,2,0.18066791294999998,-0.0199074995,-0.0428354472,-0.064739,-0.039292,-0.11223,0.06428259075,-3.6985780475,-9.082232764499999,0.007078,0.38672,2.6382,-0.0007999999999999119,-0.00019999999999997797,3.333333333332966e-05,-0.0005971311915759503,0.0007623388477324688,-0.0017682589478402178
149550000000.0,2,0.15201288165,0.04053088445,-0.024124358999999998,-0.057407,-0.052141,-0.10579,0.06675386655,-3.6923017915,-9.0847824935,0.007348,0.38603,2.6369,-0.000500000000000167,-0.00029999999999996696,-0.00019999999999997797,0.0003304397369111034,0.0002940603600010139,-0.0025358386914406394
149550000000.0,2,0.10294040504999999,0.0550741464,-0.07067652655,-0.061678,-0.05742,-0.11433,0.06779337145,-3.6852410035,-9.087626422,0.00746,0.38525,2.6356,-0.00029999999999996696,-0.000400000000000178,-0.00029999999999996696,0.002800338590031315,-0.0004447874358561865,-0.0020608848726992313
149550000000.0,2,0.01422944915,0.0517987253,-0.11979803639999999,-0.064998,-0.074438,-0.11858,0.06612624095,-3.6776898829999998,-9.0906664835,0.007274,0.38442,2.6343,-0.0005999999999999339,-0.00019999999999997797,-9.999999999998899e-05,0.0005971889050509493,-0.0007555313451712564,-0.0014400846576377302
149550000000.0,2,-0.0343428883,0.04951377585,-0.1331350804,-0.068595,-0.12343,-0.11849,0.05963423864999999,-3.6697464964999997,-9.094000744499999,0.006557,0.38354,2.6331,-0.00019999999999997797,-0.00039999999999995595,-0.00039999999999995595,0.002012911765507497,-0.0008136126684503697,-0.000823809493112837
149550000000.0,2,-0.06502789615,0.0396777059,-0.204370586,-0.064794,-0.17781,-0.11305,0.0473661195,-3.6613127775,-9.097433072,0.005207,0.38262,2.6319,-0.00039999999999995595,-9.999999999998899e-05,-9.999999999998899e-05,0.0009714107820331663,-1.773933118398574e-05,-0.0012515779988217512
149550000000.0,2,-0.0632725058,0.027546879849999997,-0.29040432644999997,-0.050117,-0.20777,-0.10871,0.0328915041,-3.656311386,-9.0994924685,0.003615,0.38206,2.6307,-0.000400000000000178,-0.00029999999999996696,-0.00010000000000021103,0.0010096956432165127,0.00079412560689196,-0.0012977743831169564
149550000000.0,2,-0.14826674135,0.07737446849999999,-0.2808036161,-0.019099,-0.19737,-0.1076,0.018387468749999997,-3.6536635905,-9.1005712,0.00202,0.38178,2.6296,-0.00019999999999997797,-0.00039999999999995595,-0.00029999999999996696,-0.0008136644646576374,-0.0003486114332285073,-0.0016311060683545375
149550000000.0,2,-0.2187667482,0.15557269559999998,-0.277920461,0.0282,-0.1445,-0.093738,0.007472667299999999,-3.6551345879999997,-9.099982801,0.000822,0.38194,2.6285,-0.00039999999999995595,-0.00019999999999997797,-9.999999999998899e-05,0.0010901514185590044,0.0007650175852613739,-0.001273595059015864
149550000000.0,2,-0.2886293228,0.1789909758,-0.2039194801,0.082999,-0.081048,-0.071335,-0.00420705285,-3.6571939844999997,-9.099198269,-0.000463,0.38216,2.6279,-0.00039999999999995595,-0.00019999999999997797,-4.999999999988347e-05,-5.632917309816854e-06,-0.00042472864139919686,-0.0019905430987297024
149550000000.0,2,-0.337152627,0.1471782032,-0.08138538835,0.12914,-0.036692,-0.053187,-0.00626644935,-3.6679812994999996,-9.094883343,-0.000689,0.38335,2.6273,-0.00039999999999995595,-0.00020000000000020002,-5.0000000000105516e-05,0.00020735739449551094,0.0011817102391906698,-0.0013841639706125841
149550000000.0,2,-0.23231953849999998,0.0872007318,0.014788428199999998,0.15802,-0.025212,-0.048888,-0.006943108199999999,-3.6818086759999997,-9.0892935525,-0.000764,0.38487,2.6268,-0.00039999999999995595,-0.00019999999999997797,-5.0000000000105516e-05,0.0011408799093535205,0.0017926200131004322,-0.001294462409962338
149550000000.0,2,-0.06543977545,-0.0043247326499999995,0.11811129259999999,0.15798,-0.039049,-0.063807,-0.0078845466,-3.6963225179999997,-9.083311495999999,-0.000868,0.38647,2.6261,-0.000300000000000189,-0.00029999999999996696,-4.999999999988347e-05,0.0007331717407711436,0.0015703314171731098,-0.0019069201287479354
149550000000.0,2,0.06963702164999999,-0.06700883945,0.21272585179999998,0.1346,-0.051603,-0.10119,-0.00754131385,-3.712405424,-9.076839107,-0.00083,0.38824,2.6251,-0.0004999999999999449,-9.999999999998899e-05,9.999999999998899e-05,-0.0012211902715098533,0.0017865441644235869,-0.001779877048295242
149550000000.0,2,0.1446677008,-0.12650578499999998,0.2722914439,0.093224,-0.053342,-0.15035,-0.00730595425,-3.7219178744999994,-9.072916446999999,-0.000805,0.38928,2.6236,-0.00029999999999996696,-0.00019999999999997797,-9.999999999998899e-05,-0.0005975105495046318,0.000951088974733949,-0.001116464408483897
149550000000.0,2,0.23197630574999997,-0.1821487171,0.33504419725,0.041204,-0.040094,-0.18142,-0.00467777205,-3.7268211995,-9.070857050499999,-0.000515,0.38983,2.6217,-0.00039999999999995595,-9.999999999998899e-05,3.333333333332966e-05,-0.0020639865523112144,0.00048442115432534294,-0.0008070521344447912
149550000000.0,2,0.29428775985,-0.2250233909,0.3960121403,-0.009852,-0.025812,-0.19007,-0.00024516625,-3.7270173324999996,-9.070758984,-2.7e-05,0.38986,2.6196,-0.00029999999999996696,-0.00019999999999997797,3.333333333332966e-05,-0.0009957475073600897,0.0002881242537902118,-7.393146657586058e-05
149550000000.0,2,0.3078895834,-0.24558793594999997,0.3982088299,-0.058853,-0.01049,-0.17738,0.01218966595,-3.73044966,-9.069386052999999,0.001344,0.39023,2.6174,-0.000400000000000178,-5.0000000000105516e-05,3.333333333332966e-05,-0.001444586486821109,-0.00010393985697465524,-0.00020730787721620625
149550000000.0,2,0.31764720015000003,-0.2274358268,0.35196066849999996,-0.096239,-0.005937,-0.16145,0.017848103,-3.7224082069999995,-9.072720314,0.001967,0.38934,2.6156,-0.0004999999999999449,-4.999999999988347e-05,0.00019999999999997797,-0.002033867770362685,-0.0005009471516492781,-0.0009114685828018332
149550000000.0,2,0.30813474965,-0.15075763044999999,0.2543452744,-0.12613,-0.007821,-0.16149,0.023163307299999998,-3.7115228254999995,-9.0771333065,0.002552,0.38815,2.6139,-0.0004999999999999449,-9.999999999998899e-05,9.999999999998899e-05,-0.000599691041687278,-0.0015954133294127093,-0.0014665776737562697
149550000000.0,2,0.24729429304999997,-0.0358334991,0.14312805674999998,-0.13885,-0.006636,-0.17646,0.02893942415,-3.6991664464999996,-9.082134698,0.003186,0.38678,2.612,-0.00029999999999996696,-0.00029999999999996696,9.999999999998899e-05,0.0005991185268763854,-0.001114631590692694,-0.001843765949226167
149550000000.0,2,0.16491843304999998,0.0812579019,0.030841914249999994,-0.13875,-0.004481,-0.19248,0.03933447314999999,-3.6848487374999994,-9.0879206215,0.004328,0.3852,2.6098,-0.0016000000000000458,0.0004999999999999449,0.0013000000000000789,0.0040531660293234295,0.005438261251281551,0.0011459559240153128
149550000000.0,2,0.0710785992,0.18580659754999998,-0.056025391449999996,-0.13449,-0.011963,-0.2042,0.045934348599999994,-3.6723942919999994,-9.092922012999999,0.005052,0.38383,2.6076,0.00029999999999996696,-0.0006999999999999229,-0.0009999999999998899,-0.0038556055321757876,-0.004098922489864654,-0.0035479941197190668
149550000000.0,2,-0.009963556399999999,0.26800593785,-0.17886348934999996,-0.1218,-0.023792,-0.20096,0.051563365699999995,-3.6607243785,-9.097629204999999,0.005668,0.38255,2.6055,-9.999999999998899e-05,-0.000600000000000156,-0.000500000000000167,0.0005611278656241225,-0.0017576446054483608,-0.002635641667656563
149550000000.0,2,-0.0347939942,0.32878755454999997,-0.27557667165,-0.10283,-0.044211,-0.18488,0.054985886549999995,-3.6507215955,-9.101649931499999,0.006042,0.38146,2.6034,-9.999999999998899e-05,-0.00039999999999995595,-0.00019999999999997797,0.00042387644298613747,-0.0003585844282512074,-0.001649410105551724
149550000000.0,2,-0.03872646085,0.32910136734999995,-0.32433533545,-0.079564,-0.04976,-0.15707,0.05563312545,-3.6338541574999996,-9.108416519999999,0.006108,0.3796,2.6017,-0.0006999999999999229,-0.00029999999999996696,0.00019999999999997797,0.0025553180308404144,0.0012923933151285372,-0.0007323566330563747
149550000000.0,2,-0.046463907699999994,0.33275924779999994,-0.35013663159999997,-0.062628,-0.044608,-0.12183,0.05618229784999999,-3.6275779015,-9.110868182499999,0.006167,0.37892,2.6003,-0.00029999999999996696,-0.00029999999999996696,-0.0005999999999999339,0.0012325203587680855,-0.0012173566537907465,-0.0020530416596050427
149550000000.0,2,-0.0569374099,0.3278166962,-0.34509601349999997,-0.04553,-0.021339,-0.089818,0.05724141605,-3.6228707094999995,-9.112731446,0.006281,0.37839,2.5992,-0.000300000000000189,-0.00019999999999997797,0.00019999999999997797,0.0003964601353372288,0.001289842268395791,-0.0011491092868148034
149550000000.0,2,-0.0652338358,0.28544216155,-0.3321512355,-0.025121,0.010436,-0.066356,0.0599970847,-3.6199287145,-9.113908244,0.006583,0.37808,2.5985,-9.999999999998899e-05,-0.000500000000000167,-0.0004999999999999449,-0.0005488476171623957,-0.0010562974130985392,-0.0024651782579142023
149550000000.0,2,-0.0629194664,0.25359016235,-0.26371062515,0.001747,0.0443,-0.054628,0.06396877795,-3.6121814609999996,-9.1169483055,0.007016,0.37723,2.5979,-9.999999999998899e-05,-0.00019999999999997797,-0.00019999999999997797,0.000462258315006403,0.0005808906767059696,-0.002466387771181189
149550000000.0,2,-0.0587614468,0.20713606129999998,-0.18537510494999998,0.034915,0.063196,-0.042862,0.07117666569999999,-3.614535057,-9.1159676405,0.007808,0.37748,2.5974,-0.00019999999999997797,-0.00019999999999997797,-0.00019999999999997797,0.002344344069076687,0.00011349710738772778,-0.0016615366887292593
149550000000.0,2,-0.0012454445499999998,0.16189798484999998,-0.1283886618,0.063568,0.051226,-0.03105,0.07756079484999999,-3.6197325814999997,-9.1138101775,0.00851,0.37805,2.597,-9.999999999998899e-05,-0.00019999999999997797,-0.00019999999999997797,0.0017089570411404909,-0.001050256259641058,-0.0015733429563228318
149550000000.0,2,0.0640374245,0.0814932615,-0.09108416519999998,0.079345,0.025517,-0.026708,0.08140500164999999,-3.6266953029999995,-9.111064315499998,0.008935,0.37882,2.5967,-0.00019999999999997797,-5.0000000000105516e-05,-0.00010000000000021103,0.0005626350002672642,0.00028538550114864947,-0.0008700742703460773
149550000000.0,2,0.11784651304999999,0.0086102387,-0.07785499435,0.082345,-0.005394,-0.036257,0.08566108774999999,-3.6335599579999998,-9.108220387,0.009405,0.37957,2.5962,-9.999999999998899e-05,-4.999999999988347e-05,-9.999999999998899e-05,0.0013947047030626325,0.000146464128137902,-0.00035620715379364176
149550000000.0,2,0.14195125875,-0.06150730879999999,-0.010002783,0.060949,-0.026506,-0.058672,0.0856512811,-3.6397381474999997,-9.105768724499999,0.009406,0.38025,2.5957,-9.999999999998899e-05,3.333333333332966e-05,3.333333333332966e-05,-2.628580316993423e-05,-0.00043803929146690734,-0.0004741171622512641
149550000000.0,2,0.10025338294999998,-0.09444784615,0.04510078334999999,0.016335,-0.027162,-0.09931,0.08620045349999998,-3.6422878764999997,-9.104788059499999,0.009467,0.38053,2.5947,-9.999999999998899e-05,3.333333333332966e-05,3.333333333332966e-05,-0.0009338868510718745,-0.0010610828182846532,-0.0007930886021066952
149550000000.0,2,0.03425462845,-0.1668307298,0.044022051849999994,-0.030149,0.005231,-0.14001,0.09054479944999999,-3.6404246129999995,-9.105474525,0.009943,0.38032,2.5933,-0.00019999999999997797,3.333333333332966e-05,3.333333333332966e-05,3.995356122871163e-05,-0.0011371415530121443,0.00018520769810576043
149550000000.0,2,-0.00585457005,-0.21033302919999997,0.02213360905,-0.059378,0.067305,-0.16792,0.1010281083,-3.639836214,-9.1055725915,0.011094,0.38026,2.5915,-9.999999999998899e-05,9.999999999998899e-05,0.00010000000000021103,-0.0005870791297594158,-0.0005665766040539033,-4.836325459001145e-07
149550000000.0,2,-0.11007964625,-0.19977126715,0.042590280949999997,-0.062997,0.143,-0.1766,0.11875853149999999,-3.6337560909999995,-9.107828120999999,0.013038,0.37959,2.5896,-9.999999999998899e-05,4.999999999988347e-05,9.999999999998899e-05,-0.000876491513703892,-0.00038243010506322506,-0.0002794070795081871
149550000000.0,2,-0.15032613784999999,-0.16344743555,0.05342662919999999,-0.03693,0.2099,-0.16173,0.14253965775,-3.629441165,-9.109201052,0.015647,0.37911,2.5879,-4.999999999988347e-05,5.0000000000105516e-05,0.00019999999999997797,-0.0004835107727180765,-5.5073071493438874e-05,-0.0002960039053057639
149550000000.0,2,-0.18737566155,-0.1164049355,0.07652128995,-0.003703,0.24158,-0.14145,0.1694196854,-3.6281663004999998,-9.109201052,0.018596,0.37897,2.5863,-5.0000000000105516e-05,9.999999999998899e-05,9.999999999998899e-05,-0.0005998130842290728,4.69008722006059e-05,-0.000582138734083304
149550000000.0,2,-0.14610927835,-0.0685484835,0.09017214675,0.023687,0.21255,-0.1168,0.19115122179999997,-3.6317947609999996,-9.107337788499999,0.020985,0.37938,2.5851,-0.00019999999999997797,4.999999999988347e-05,9.999999999998899e-05,6.873604327828353e-06,7.926793721635406e-06,-0.0009481915883000624
149550000000.0,2,-0.026085689,-0.035245100099999996,-0.0015886773,0.041106,0.1346,-0.097414,0.20908758465,-3.6350309555,-9.105670658,0.022958,0.37973,2.584,-0.00020000000000020002,5.0000000000105516e-05,0.00019999999999997797,8.262120487245728e-05,-0.0005468103740293717,-0.001500826731672067
149550000000.0,2,0.06844061035,-0.014925721299999998,-0.08275831935,0.049851,0.030091,-0.092945,0.21765859675,-3.6392478149999996,-9.103807394499999,0.023905,0.38019,2.583,-0.0004999999999999449,0.00019999999999997797,0.0004999999999999449,0.0022693854085424903,8.779045296747334e-05,-0.0006335848095707641
149550000000.0,2,0.17012576419999997,0.0031773546,-0.10974622014999999,0.054456,-0.060524,-0.091709,0.2174330438,-3.6438569405,-9.101944131,0.023884,0.3807,2.582,0.00019999999999997797,-0.00029999999999996696,-0.00029999999999996696,-0.0007395070756179845,-0.0036800629932960405,-0.0018182645260177432
149550000000.0,2,0.16975311149999997,0.0205547384,-0.09504605179999999,0.050972,-0.10097,-0.10019,0.21661909185,-3.6471912015,-9.100669266499999,0.023798,0.38106,2.5807,-9.999999999998899e-05,0.0001500000000000945,9.999999999998899e-05,0.0020639223793921246,-0.002192278995247543,3.7487481150400015e-05
149550000000.0,2,0.0860435471,0.0682738973,-0.02427145875,0.044715,-0.090251,-0.11196,0.21173538014999999,-3.6512119279999995,-9.099100202499999,0.023266,0.38151,2.5795,-0.0005999999999999339,0.00014999999999987246,0.0006999999999999229,0.0006398999121788318,-0.0011416885532169463,-0.00016689232074873495
149550000000.0,2,-0.0030302548499999997,0.1136002336,0.035274520049999994,0.036618,-0.034773,-0.11207,0.21101949469999998,-3.652388726,-9.0987079365,0.023189,0.38164,2.5783,0.00019999999999997797,-0.00029999999999996696,-0.00029999999999996696,-0.0022264485326241035,-0.0034170587744075664,-0.0011810133098389963
149550000000.0,2,-0.08337613829999999,0.12298519764999999,0.08802449039999999,0.029714,0.043058,-0.10154,0.2150598345,-3.6530751914999997,-9.0983156705,0.023632,0.38171,2.5773,9.999999999998899e-05,-9.999999999998899e-05,0.0001500000000000945,0.0007500708199179584,-0.0016545288685383408,-0.0003521776068537985
149550000000.0,2,-0.17975589449999999,0.13830318495,0.12478962125,0.021569,0.10384,-0.083517,0.22239520869999999,-3.653173258,-9.098119537499999,0.02444,0.38172,2.5765,-0.00019999999999997797,-2.4999999999941735e-05,0.00014999999999987246,-0.0012570739312180446,-0.0002526291883246934,-0.001129738336632602
149550000000.0,2,-0.17862812974999998,0.1300754056,0.09413403335,0.019492,0.1262,-0.060074,0.23204495229999997,-3.6528790584999995,-9.098021471,0.0255,0.38169,2.5759,-9.999999999998899e-05,-2.500000000016378e-05,0.00019999999999997797,-0.0007327459106908352,-0.0001461762628152119,-0.0011803873562413747
149550000000.0,2,-0.08017917039999999,0.08980930069999998,0.04937648275,0.029845,0.10371,-0.03333,0.24208696189999998,-3.653761657,-9.0973350055,0.026604,0.38178,2.5755,4.999999999988347e-05,-2.4999999999941735e-05,0.00010000000000021103,-0.0004516310692668779,0.00023365213037518373,-0.0014154040005435742
149550000000.0,2,0.01923084065,0.07581521114999999,0.019377940399999998,0.04424,0.050286,-0.010796,0.24921639645,-3.6560171864999997,-9.096256274,0.027391,0.38204,2.5753,5.0000000000105516e-05,-2.4999999999941735e-05,0.0010499999999999954,0.00021808046604243625,0.0003924687275449479,-0.0007732263046699162
149550000000.0,2,0.08156190804999999,0.06655773355,0.00293218835,0.061757,-0.017004,0.005362,0.25107965995,-3.6599398464999995,-9.0945891435,0.027601,0.38247,2.5753,-0.0017000000000000348,0.001000000000000112,0.0010499999999999954,0.006647218417332068,0.002879512084181801,0.0009265531885699341
149550000000.0,2,0.1267607579,0.040697597499999995,0.0095712904,0.076205,-0.071474,0.016155,0.24807882504999998,-3.6660199694999998,-9.0922355475,0.027278,0.38313,2.5753,-9.999999999998899e-05,3.333333333332966e-05,0.00029999999999996696,0.001312481269413912,-0.0016943016407042766,-0.0007552271275302336
149550000000.0,2,0.11956267679999999,0.042099948449999994,0.0241439723,0.087648,-0.10673,0.01837,0.24091997054999997,-3.673374957,-9.089489685499998,0.026499,0.38394,2.5753,9.999999999998899e-05,3.333333333332966e-05,-9.999999999998899e-05,-0.0003228663868071746,-0.0033160503327598345,-0.0006231504297760648
149550000000.0,2,0.048042778349999996,0.0663517939,0.0876910643,0.089702,-0.12059,0.011993,0.23058376144999998,-3.6811222104999994,-9.086645757,0.025371,0.3848,2.5754,0.0005500000000000504,3.333333333332966e-05,9.999999999998899e-05,0.0002998309156944101,-0.0012153537319423702,2.5721596438654792e-05
149550000000.0,2,0.0037167203499999996,0.05269113045,0.09923349135,0.087612,-0.11312,0.015178,0.2193943738,-3.6891636635,-9.0836056955,0.024148,0.38568,2.5755,0.0005500000000000504,-0.000600000000000156,-0.001100000000000101,-0.0053459683374247335,-0.005758517815504849,-0.0023971119186628753
149550000000.0,2,-0.06269391345,0.0382655483,0.11357081364999999,0.078133,-0.091741,0.024732,0.20798923984999998,-3.6969109169999994,-9.080761767,0.0229,0.38653,2.5758,-9.999999999998899e-05,0.00019999999999997797,0.00029999999999996696,0.0003226591336071838,0.00017766255042594992,4.472358508389451e-05
149550000000.0,2,-0.13736174655,0.027674366299999996,0.1301930854,0.061318,-0.05645,0.02998,0.19766283739999999,-3.7036775055,-9.078212038,0.02177,0.38728,2.5762,0.00019999999999997797,0.000400000000000178,-9.999999999998899e-05,-0.0013729278845429072,-0.0004979434204888111,0.00018814083276774696
149550000000.0,2,-0.15991704154999997,0.00824739265,0.12622139215,0.038165,-0.014711,0.033071,0.19060204939999997,-3.7085808305,-9.0763487745,0.020996,0.38782,2.5767,-0.0013000000000000789,0.00039999999999995595,0.0017000000000000348,0.0033378174073425138,0.007049851623411207,0.0018958213089712572
149550000000.0,2,-0.18325686854999998,-0.02731152025,0.1410392403,0.012883,0.022789,0.028695,0.18669900269999998,-3.7121112244999996,-9.0749758435,0.02057,0.38821,2.5772,9.999999999998899e-05,9.999999999998899e-05,9.999999999998899e-05,-0.0011749360954432797,0.001125499521360096,-0.00013198296188865477
149550000000.0,2,-0.19045494964999998,-0.0506807672,0.16823308074999999,-0.014639,0.0422,0.016875,0.18536529829999998,-3.7137783549999996,-9.0743874445,0.020425,0.38839,2.5776,5.0000000000105516e-05,9.999999999998899e-05,0.00019999999999997797,-0.0011367720029205608,0.0013216621550080632,-0.00018785471585364144
149550000000.0,2,-0.13162485629999998,-0.07956135145,0.11925867065,-0.031645,0.042346,0.005106,0.18623809015,-3.7134841554999998,-9.074485511,0.02052,0.38836,2.5778,4.999999999988347e-05,9.999999999998899e-05,9.999999999998899e-05,-0.0010528768563519697,0.000518330702981018,-0.0001275547387872833
149550000000.0,2,-0.02586013605,-0.10548032739999999,0.0085317855,-0.019909,0.039056,0.000863,0.18941544474999997,-3.7132880224999996,-9.074485511,0.02087,0.38834,2.5779,4.999999999988347e-05,0.00019999999999997797,9.999999999998899e-05,-0.0017308088076570805,0.0009715364979754337,-6.378485078328833e-05
149550000000.0,2,0.0234967334,-0.1011850147,-0.01026756255,0.006641,0.02711,0.007334,0.19258299269999998,-3.7151512859999998,-9.0736029125,0.021221,0.38854,2.5779,5.0000000000105516e-05,9.999999999998899e-05,-0.0005999999999999339,-0.00010481221439123667,0.00032570387225283604,0.0002710757749641579
149550000000.0,2,0.05778078179999999,-0.07573675795,-0.010424468949999998,0.029872,0.00453,0.020222,0.1940539902,-3.7187797464999996,-9.072131915,0.021387,0.38894,2.578,0.0012000000000000899,-0.0004999999999999449,-0.0005999999999999339,-0.0051143915268975215,-0.0063913282048537745,-0.0019501151064797995
149550000000.0,2,0.10290117845,-0.0989490985,-0.05938907239999999,0.045572,-0.023319,0.037376,0.19338713800000001,-3.723977271,-9.069974452,0.021318,0.38952,2.5783,0.0013000000000000789,-0.0005999999999999339,-0.0014000000000000679,-0.0004613837694742995,-0.0028643086062700718,0.0016197865009049406
149550000000.0,2,0.11298241464999999,-0.13183079595,-0.0930651085,0.060299,-0.039438,0.054506,0.19048436959999998,-3.731038059,-9.0671305235,0.021005,0.3903,2.5787,0.00019999999999997797,9.999999999998899e-05,-0.00039999999999995595,-0.001068104146005222,0.001025737851182651,0.0009106677964736409
149550000000.0,2,0.08441564319999999,-0.1257604796,-0.05122013295,0.066583,-0.05015,0.062007,0.18553201134999997,-3.739079512,-9.0639923955,0.020466,0.39118,2.5793,-9.999999999998899e-05,9.999999999998899e-05,0.00029999999999996696,0.0009491321069665104,0.0005946095552342712,0.0005425177494461919
149550000000.0,2,0.01732835055,-0.09413403335,-0.01832862885,0.068802,-0.045896,0.052397,0.17929498195,-3.7471209649999997,-9.060756200999998,0.019785,0.39206,2.5799,-0.00020000000000020002,9.999999999998899e-05,9.999999999998899e-05,-0.0022999229143662037,0.0014172873120945617,-0.0002213471745443618
149550000000.0,2,-0.057094316299999996,-0.05682953674999999,-0.00444241245,0.067939,-0.03202,0.034226,0.17321485895,-3.7542798195,-9.0579122725,0.019121,0.39286,2.5803,-0.00029999999999996696,0.00029999999999996696,0.00029999999999996696,-0.0017893502826374919,0.003458864883582047,0.00048153765252845204
149550000000.0,2,-0.13840125144999998,-0.00967916355,-0.0017455836999999998,0.076829,-0.004365,0.00751,0.16878225315,-3.7613406074999998,-9.055068343999999,0.018637,0.39364,2.5806,-9.999999999998899e-05,0.00019999999999997797,0.00029999999999996696,-0.0009118879562329263,0.001901492025907281,0.0004197844002991613
149550000000.0,2,-0.24874567724999996,0.0629979196,-0.0224376152,0.08897,0.030716,-0.018144,0.1663011707,-3.7680091294999998,-9.052322482,0.018369,0.39437,2.5807,-0.00019999999999997797,0.00019999999999997797,0.000400000000000178,-0.002557133555709079,0.0007351345561323885,-0.00021499206894237677
149550000000.0,2,-0.2653483357,0.11082495165,-0.0037167203499999996,0.099845,0.053001,-0.024565,0.16628155739999997,-3.775167984,-9.049380487,0.018373,0.39516,2.5806,-0.0010999999999998789,0.001100000000000101,0.0014999999999998348,0.0067820184314418275,0.010458916162238152,0.005950237056923158
149550000000.0,2,-0.23980201244999996,0.08471964935000001,-0.00344213415,0.101,0.07215,-0.011784,0.16841940709999997,-3.783013304,-9.046046226,0.018616,0.39603,2.5806,0.00019999999999997797,5.0000000000105516e-05,9.999999999998899e-05,-0.001535484183580127,0.000601398395774666,-2.9151980610875317e-05
149550000000.0,2,-0.1942697365,0.0074432473499999995,-0.0008629851999999999,0.098793,0.075337,0.007423,0.17152811515,-3.792035422,-9.0422216325,0.018967,0.39703,2.5808,5.0000000000105516e-05,4.999999999988347e-05,0.00019999999999997797,-0.0005489092729085709,0.0011722830782521232,0.0004825330500365932
149550000000.0,2,-0.1397447625,-0.055937131599999995,0.012866324799999999,0.094338,0.061499,0.023453,0.17415629735,-3.8020382049999997,-9.0379067065,0.019267,0.39813,2.5811,4.999999999988347e-05,9.999999999998899e-05,0.00020000000000020002,0.00082552164547256,0.0010119534229446892,0.0010836722403673171
149550000000.0,2,-0.07395194764999999,-0.08791661725,0.0489744101,0.09295,0.024206,0.028854,0.17496044265,-3.8125313204999998,-9.033493713999999,0.019365,0.3993,2.5814,-4.999999999988347e-05,9.999999999998899e-05,9.999999999998899e-05,-0.0012510753705425315,-0.0009945312502011028,-0.0002684874916294988
149550000000.0,2,-0.01028717585,-0.07952212485,0.0787473995,0.089492,-0.009863,0.026773,0.1735384784,-3.8228283029999997,-9.029178788,0.019217,0.40044,2.5817,-5.0000000000105516e-05,9.999999999998899e-05,0.00019999999999997797,-0.0008436363187365181,-0.0003141157732531319,-0.00020895895310169
149550000000.0,2,0.04115851005,-0.07426576045,0.11576750324999999,0.082838,-0.040712,0.02895,0.17013557085,-3.8327330195,-9.025059995,0.018849,0.40154,2.582,-6.666666666665932e-05,9.999999999998899e-05,0.00019999999999997797,-0.0007732329226240453,-0.0010349663985014246,-1.2659127103298307e-05
149550000000.0,2,0.05545660575,-0.0546034272,0.1711260425,0.075373,-0.047032,0.019341,0.16600697119999996,-3.8421474035,-9.021137335,0.0184,0.40257,2.5822,-6.666666666665932e-05,9.999999999998899e-05,9.999999999998899e-05,-0.0007705272416498321,-0.0010596034449790181,0.00015696503628870317
149550000000.0,2,0.01222889255,-0.02554632325,0.23096622079999998,0.062713,-0.038389,0.005427,0.16225102425,-3.8503849894999997,-9.0177050075,0.01799,0.40349,2.5822,-6.666666666665932e-05,0.00029999999999996696,0.0005999999999999339,-0.002179891666089062,-0.0016060546954494992,0.0007776383136595677
149550000000.0,2,-0.0023830159499999997,0.0033538743,0.2865306997,0.041489,-0.028617,-0.001031,0.15950516225,-3.8566612455,-9.015057211999999,0.017691,0.40419,2.5822,-9.999999999998899e-05,4.999999999988347e-05,0.0001500000000000945,-0.0003647461108726713,0.00012209023308451528,0.00023462263438611686
149550000000.0,2,0.0039030467,-0.02025073225,0.29249314289999995,0.01916,-0.01778,0.002113,0.15785764505,-3.8613684374999995,-9.013095882,0.017512,0.4047,2.5822,-9.999999999998899e-05,5.0000000000105516e-05,0.00014999999999987246,-0.00036471426201922785,0.00012217540469339205,0.00023457599707332744
149550000000.0,2,0.0336564228,-0.044963490249999995,0.25801296149999997,-0.001149,-0.016558,0.012749,0.15668084705000002,-3.8643104325,-9.011821017499999,0.017384,0.40503,2.5823,9.999999999998899e-05,9.999999999998899e-05,9.999999999998899e-05,-0.0001462813785688688,-0.000321985535886693,0.0006770489467028407
149550000000.0,2,0.07177487134999999,-0.04412011835,0.21761937014999996,-0.010846,-0.019688,0.02768,0.15552366235,-3.8657814299999997,-9.0112326185,0.017257,0.4052,2.5825,9.999999999998899e-05,9.999999999998899e-05,9.999999999998899e-05,-0.0010709326995742563,0.00032771176154766657,0.0004110379558547317
149550000000.0,2,0.12691766429999998,-0.04162922925,0.14640347785,-0.010896,-0.016502,0.043683,0.15469990375,-3.8664678955,-9.010938419,0.017167,0.40527,2.5828,9.999999999998899e-05,-1.0000000000065512e-05,9.999999999998899e-05,-0.0005405883455580907,0.0002141312144365859,0.00022749333833288476
149550000000.0,2,0.1396074694,-0.008816178349999999,0.1124430489,-0.005526,-0.001641,0.060742,0.1547293237,-3.8667620949999995,-9.010840352499999,0.01717,0.40531,2.5833,9.999999999998899e-05,-9.999999999843467e-06,-9.999999999998899e-05,-0.0005300953925394536,0.000336093721743147,0.0005844559396545046
149550000000.0,2,0.10750049729999998,0.04343365285,0.10050835585,-0.005567,0.000482,0.072478,0.15421937789999998,-3.866369829,-9.010938419,0.017112,0.40526,2.584,3.333333333332966e-05,-1.0000000000065512e-05,-3.333333333332966e-05,-0.0005839778199567824,1.2863376918526015e-05,-0.00028051548848073704
149550000000.0,2,0.10289137179999999,0.0406387576,0.042904093750000004,0.02302,-0.024263,0.076839,0.1514931292,-3.867154361,-9.0106442195,0.016811,0.40535,2.5847,3.333333333332966e-05,-1.0000000000065512e-05,-3.333333333332966e-05,0.00022354408574765117,-0.00011891392821294922,0.00020974226686354402
149550000000.0,2,0.10486250844999999,0.0006864654999999999,0.29358168105,-0.05747,-0.10029,0.050147,0.14383413555,-3.865977563,-9.011330685,0.015961,0.40522,2.5853,3.333333333332966e-05,-1.0000000000065512e-05,-3.333333333332966e-05,-0.0002260480663953679,-1.6365006719087916e-05,0.00024884135756242376
149550000000.0,2,0.09019176005,-0.08369975774999999,0.53847334485,-0.054447,-0.12801,0.043795,0.13246822819999998,-3.8658794965,-9.011526817999998,0.014699,0.4052,2.5857,9.999999999998899e-05,-9.999999999843467e-06,-9.999999999998899e-05,-0.0002769866722185377,-0.00026919098563094046,0.0002763652028882069
149550000000.0,2,0.06714613254999999,-0.00032361945,0.25149153925,-0.049999,-0.10992,0.037366,0.12155342674999998,-3.863035568,-9.012899748999999,0.013485,0.40489,2.5861,9.999999999998899e-05,-1.0000000000065512e-05,-3.333333333332966e-05,0.0006227007077078683,0.0003009371937419125,0.0008489169023573329
149550000000.0,2,0.04090353715,0.05099458,0.4230196544,-0.036688,-0.039716,0.049006,0.11515949095,-3.8613684374999995,-9.013684281,0.012776,0.40471,2.5865,9.999999999998899e-05,-1.0000000000065512e-05,-3.333333333332966e-05,-0.00036688396955092406,-0.0005307583711697816,1.8389070983892974e-05
149550000000.0,2,-0.1153654306,0.10186167355,0.01642613875,-0.035922,0.062561,0.057368,0.11341390725,-3.8545037824999997,-9.0167243425,0.012578,0.40394,2.5873,9.999999999998899e-05,-9.999999999843467e-06,-3.333333333332966e-05,0.0004308998595013991,-0.00014863136079745765,0.0008723286388149232
149550000000.0,2,-0.2188255881,0.051023999949999996,-0.0086102387,-0.058745,0.14266,0.055057,0.1187193049,-3.8488159255,-9.018979872,0.013162,0.40332,2.5881,0.00019999999999997797,-1.0000000000065512e-05,-9.999999999998899e-05,-0.0010721327247534829,0.0003394804595227008,0.0002848809546849296
149550000000.0,2,-0.12592719265,-0.06046780389999999,-0.08944645465,-0.099111,0.1675,0.059215,0.12922222705,-3.8411667384999997,-9.022118,0.014322,0.40247,2.5888,0.00019999999999997797,-9.999999999998899e-05,-0.00019999999999997797,0.0008285295712673335,0.0014258482369908787,0.00046627742840588127
149550000000.0,2,-0.0548191735,-0.17358751165,-0.18232523679999998,-0.12383,0.14426,0.059214,0.13981340905,-3.8319484874999996,-9.0259425935,0.015489,0.40144,2.5895,0.00019999999999997797,-9.999999999998899e-05,-0.00029999999999996696,0.00047876202810348545,0.000807289113014642,-4.895659800741026e-05
149550000000.0,2,-0.013964669599999998,-0.18158973804999998,-0.19400495694999997,-0.12308,0.096311,0.045424,0.14759008249999997,-3.8221418375,-9.029963319999998,0.016343,0.40036,2.5901,9.999999999998899e-05,-9.999999999998899e-05,-0.00019999999999997797,-7.776441917356491e-05,0.0012831637556418585,-1.885462907386115e-05
149550000000.0,2,0.00626644935,-0.13209557549999998,-0.20687128174999997,-0.099915,0.046056,0.027407,0.15174810209999998,-3.8131197195,-9.033689847,0.016797,0.39936,2.5904,9.999999999998899e-05,-0.00014999999999987246,-9.999999999998899e-05,-6.610688312941315e-05,0.0006795500547513988,9.494830800466092e-05
149550000000.0,2,-0.00183384355,-0.08499423554999999,-0.1911316085,-0.061842,-7.2e-05,0.021149,0.15191481515,-3.8066473304999997,-9.036435709,0.01681,0.39864,2.5907,0.00023333333333330764,-0.0001500000000000945,-5.0000000000105516e-05,0.00012621980257809806,-0.0005084866167288649,0.0007348958136785821
149550000000.0,2,-0.0456401491,-0.0837291777,-0.1411373068,-0.020455,-0.02599,0.024469,0.14934547285,-3.803803402,-9.037612506999999,0.016523,0.39834,2.5909,0.00023333333333352968,-0.0001500000000000945,-4.999999999988347e-05,0.0006341020887548066,-0.0007917964817283352,0.0009947643254087923
149550000000.0,2,-0.052544030699999994,-0.06908784925,-0.08734783154999999,0.006146,-0.028352,0.035193,0.1454718461,-3.803803402,-9.0377105735,0.016094,0.39833,2.5913,0.00023333333333330764,-0.00014999999999987246,-0.0009000000000001229,-0.00610394100435907,-0.004020765156199646,-0.0030524706673477064
149550000000.0,2,-0.0764330301,-0.05420135455,-0.03668667765,0.023331,-0.013579,0.036266,0.14093136715,-3.806353131,-9.0367299085,0.015594,0.39861,2.5918,0.0009999999999998899,-0.000700000000000145,-0.0010999999999998789,-0.0002894036401965838,-0.0057874004848021965,-0.00034341750219324396
149550000000.0,2,-0.12391682939999998,-0.03613750525,-0.02491869765,0.034317,0.024695,0.034083,0.14098040039999998,-3.809295126,-9.035455043999999,0.015602,0.39893,2.5921,0.00019999999999997797,-9.999999999998899e-05,-0.00019999999999997797,-0.00036182294486031275,-0.0002251371150074899,0.00010779952685524563
149550000000.0,2,-0.137881499,0.006766588499999999,0.0224964551,0.043039,0.051257,0.039388,0.14371645575,-3.8131197195,-9.0337879135,0.015908,0.39936,2.5925,9.999999999998899e-05,-9.999999999998899e-05,-0.00019999999999997797,-0.0011278769933019683,0.0009428638384174626,2.6029948715144968e-05
149550000000.0,2,-0.1001455098,0.0027556686499999998,0.03035158175,0.036586,0.050236,0.047918,0.1466878707,-3.81674818,-9.0322188495,0.016239,0.39976,2.593,9.999999999998899e-05,-9.999999999998899e-05,-9.999999999998899e-05,0.0023686602955248492,-0.0011670522185454058,0.00046534734831271685
149550000000.0,2,-0.038873560599999996,-0.040599530999999994,-0.02427145875,0.025677,0.024742,0.055417,0.1467663239,-3.8198863079999996,-9.030943985,0.01625,0.40011,2.5936,0.00019999999999997797,-0.00019999999999997797,-0.00010000000000021103,-0.003999659517144982,0.002554909738165634,-0.0011822727959447388
149550000000.0,2,-0.01538663385,-0.0428746738,-0.0234378935,0.016885,-0.008218,0.054392,0.1443735013,-3.822239904,-9.029963319999998,0.015987,0.40037,2.5942,-0.0015999999999998238,0.0014000000000000679,0.0023000000000001908,0.013860171064501547,0.005736840635486962,0.00677080584048273
149550000000.0,2,-0.01552392695,-0.0097674234,0.0354020065,0.008188,-0.030522,0.051215,0.13972514919999998,-3.823808968,-9.029374920999999,0.015473,0.40054,2.5948,-0.0012000000000000899,0.00039999999999995595,0.0014999999999998348,-0.0016267745766962438,0.004930324988887236,-0.002199950454286559
149550000000.0,2,-0.03904027365,-0.0101596894,0.08540611484999999,-0.00789,-0.039981,0.051205,0.1334685065,-3.8242993004999994,-9.029276854499999,0.01478,0.4006,2.5954,0.0020000000000000018,-0.0010999999999998789,-0.0019000000000000128,-0.00018626542956956538,-0.01584476313906036,-0.002049353570815815
149550000000.0,2,-0.07655070989999999,-0.012062179499999999,0.0661948875,-0.017455,-0.033515,0.05438,0.1266823047,-3.823612835,-9.0296691205,0.014028,0.40052,2.596,0.001000000000000112,-0.000600000000000156,-0.0008999999999999009,0.00046817889038308635,-0.004388593994218759,0.0008614940819057226
149550000000.0,2,-0.12338727029999999,0.022359162,0.1047546353,-0.011977,-0.014386,0.056493,0.12039624204999999,-3.8228283029999997,-9.0300613865,0.013332,0.40044,2.5968,-0.0028000000000001357,0.0017000000000000348,0.0029999999999998916,-0.0006893439832712511,0.02088260739331793,0.003199870510803282
149550000000.0,2,-0.1522384346,0.0457774422,0.1656147052,-0.005535,-0.008054,0.058631,0.11453186535,-3.8228283029999997,-9.030159453,0.012683,0.40043,2.5975,9.999999999998899e-05,-9.999999999998899e-05,6.666666666665932e-05,-0.00023031808565199263,-0.0002830441822210261,0.0007114562080801079
149550000000.0,2,-0.1516696489,0.03229329845,0.1853260717,-0.008753,-0.01442,0.052235,0.10842232239999999,-3.823024436,-9.0300613865,0.012006,0.40046,2.5982,9.999999999998899e-05,-0.0001500000000000945,6.666666666688137e-05,0.0002067597943241628,0.00033337187499382637,0.0005124534041759388
149550000000.0,2,-0.14938469945,0.0175342902,0.1688116731,-0.017275,-0.024991,0.033029,0.1019499334,-3.8226321699999994,-9.030355585999999,0.011289,0.40042,2.5988,0.00019999999999997797,-0.00014999999999987246,6.666666666665932e-05,-0.002614974841486206,-0.006707903775401203,-0.00265296894549627
149550000000.0,2,-0.17516638229999998,0.01868166825,0.1698315647,-0.030969,-0.023785,-8.3e-05,0.0960071035,-3.8211611724999996,-9.0310420515,0.01063,0.40025,2.599,-0.00039999999999995595,-9.999999999998899e-05,0.0008999999999999009,-0.005100323408245067,-0.004647262962041321,-0.003007518244929397
149550000000.0,2,-0.18331570845,0.014837461449999999,0.1882288401,-0.038305,-0.019449,-0.019313,0.09129010484999998,-3.8188075764999994,-9.032120782999998,0.010107,0.39999,2.599,0.0009000000000001229,-9.999999999998899e-05,-0.0012000000000000899,0.007403068846616512,0.0007211288011788053,0.0039904548151442065
149550000000.0,2,-0.21181383334999998,0.00552114395,0.18623809015,-0.053192,-0.012942,-0.018279,0.08672020594999999,-3.8154733155000002,-9.0335917805,0.0096,0.39962,2.599,9.999999999998899e-05,-9.999999999998899e-05,-0.00014999999999987246,0.0007996547986012792,0.0003280224235595597,0.0012719342034078207
149550000000.0,2,-0.18402178724999999,-0.038736267500000005,0.17372480475000002,-0.071294,-0.004282,-0.010851,0.08331729839999999,-3.8111583894999996,-9.035455043999999,0.009221,0.39914,2.599,0.00019999999999997797,-9.999999999998899e-05,-0.0001500000000000945,0.0015987782364503822,0.0005083095776587943,0.001172473396754331
149550000000.0,2,-0.15557269559999998,-0.06747955865,0.1450011269,-0.092567,0.003346,-0.010899,0.08089505585,-3.8051763329999995,-9.0379067065,0.008951,0.39848,2.599,4.999999999988347e-05,-5.0000000000105516e-05,-4.999999999988347e-05,-0.00025517487747872547,0.00022868641538198453,0.0004509665033999022
149550000000.0,2,-0.11811129259999999,-0.057525808899999996,0.10454869565,-0.10426,0.010894,-0.007728,0.0798065177,-3.7974290795,-9.0412409675,0.008827,0.39763,2.599,5.0000000000105516e-05,-4.999999999988347e-05,-5.0000000000105516e-05,-9.839625425339671e-05,-3.0377622318500386e-05,0.0002536235508587281
149550000000.0,2,-0.09916484479999998,-0.03337202995,0.10633350594999999,-0.10201,0.024725,-0.007747,0.0801595571,-3.78928956,-9.044673294999999,0.008862,0.39672,2.599,0.00019999999999997797,-9.999999999998899e-05,-0.0005999999999999339,0.0008276503713211536,-0.002813370165796192,0.00011176695718995155
149550000000.0,2,-0.08612200029999999,-0.014709975,0.12894764085,-0.097593,0.039609,-0.013101,0.08237586,-3.7813461735,-9.047909489499999,0.009105,0.39584,2.599,-0.00029999999999996696,-9.999999999998899e-05,0.00029999999999996696,0.0007919893245137977,0.003508199963669245,-0.0003315221568313542
149550000000.0,2,-0.060742390099999995,-0.00659987545,0.13211518879999998,-0.087941,0.039538,-0.02269,0.0858866407,-3.773991186,-9.050949550999999,0.009489,0.39503,2.5988,9.999999999998899e-05,-0.00010000000000021103,-0.00019999999999997797,0.0007538055201214422,-0.0008053024534322439,-0.00028442699893388435
149550000000.0,2,-0.013984282899999999,-0.0051386846,0.08375859764999999,-0.074165,0.014936,-0.042903,0.0889463155,-3.767518797,-9.053597346499998,0.009824,0.39432,2.5984,-9.999999999998899e-05,-9.999999999998899e-05,-9.999999999998899e-05,-0.0001566429932455815,0.00013221848031164107,-8.38669600088382e-05
149550000000.0,2,0.014356935599999999,-0.0017063571,-0.00579573015,-0.045335,-0.000189,-0.071647,0.09188831049999999,-3.762615472,-9.055656743,0.010146,0.39377,2.5977,-9.999999999998899e-05,-9.999999999998899e-05,-9.999999999998899e-05,0.0008167347156046167,0.0002071287700315949,0.0001227133282913906
149550000000.0,2,0.0355981395,0.028988457399999997,-0.008227779349999999,-0.014309,0.000639,-0.087606,0.09578155055,-3.7600657429999997,-9.056637408,0.010575,0.39349,2.5968,-9.999999999998899e-05,-9.999999999998899e-05,-9.999999999998899e-05,0.0004260091056432769,0.000873109397363736,8.064807797159013e-05
149550000000.0,2,0.007727640199999999,0.033636809499999996,0.0154356671,-0.002495,0.011197,-0.086537,0.1000082167,-3.7591831444999997,-9.057029674,0.011042,0.3934,2.5958,9.999999999998899e-05,-0.00019999999999997797,-0.0004999999999999449,0.00033378242437220873,0.0008238819759549543,0.00048437849328986093
149550000000.0,2,-0.008119906199999999,-0.03135186005,-0.046875787,-0.019381,0.042225,-0.073812,0.1058333668,-3.758104413,-9.05742194,0.011684,0.39328,2.595,0.0010999999999998789,-0.0006999999999999229,-0.0019000000000000128,-0.007267198872886238,-0.0017100260760778419,-0.0021030330771055206
149550000000.0,2,-0.016180972499999998,-0.0791396655,-0.08415086364999999,-0.054239,0.092584,-0.063287,0.11524775079999999,-3.7545740189999997,-9.0586968045,0.012721,0.39289,2.5943,-9.999999999998899e-05,-9.999999999998899e-05,-9.999999999998899e-05,0.0011499444298819217,-0.00031596650936527304,0.00018114282519754443
149550000000.0,2,-0.01917200075,-0.10608833969999999,-0.06688135299999999,-0.086974,0.13867,-0.05702,0.128859381,-3.7485919624999995,-9.0610504005,0.01422,0.39223,2.5937,0.00019999999999997797,-0.00039999999999995595,-0.000500000000000167,0.0017266763541680108,-0.0007101841874905812,0.0001466144689145077
149550000000.0,2,0.01448442205,-0.12777084285,-0.0625468137,-0.11133,0.16656,-0.048573,0.1457856589,-3.7403543765,-9.064188528499999,0.016082,0.39132,2.5931,-0.00019999999999997797,-9.999999999998899e-05,-0.00019999999999997797,0.0002369876599143672,-0.0003892380977776888,-0.0007481951964188327
149550000000.0,2,0.0694703086,-0.12908493394999998,-0.0955363843,-0.11135,0.17295,-0.033642,0.1642613875,-3.731430325,-9.067522789499998,0.018113,0.39034,2.5927,-9.999999999998899e-05,-9.999999999998899e-05,-9.999999999998899e-05,0.00028583821956695843,-0.0011756873641250998,-0.0007486558173062097
149550000000.0,2,0.05266171049999999,-0.08931896819999999,-0.09724274139999999,-0.091299,0.15784,-0.013301,0.18077578609999997,-3.723192739,-9.070562851,0.019927,0.38942,2.5924,-9.999999999998899e-05,-0.00010000000000021103,-9.999999999998899e-05,0.0006230726723741031,-0.0006801153735294108,-0.0004891526162414395
149550000000.0,2,0.042080335149999995,-0.03429385505,-0.0802772369,-0.055447,0.11491,0.002847,0.19314197175,-3.717308749,-9.072720314,0.021285,0.38878,2.5924,-0.00029999999999996696,-9.999999999998899e-05,-9.999999999998899e-05,6.813491198837118e-05,-0.0007032926109318272,-0.0008557711200640195
149550000000.0,2,0.0432277132,0.031969678999999994,-0.09971401719999999,-0.012206,0.060195,0.015826,0.20008507995,-3.713974488,-9.073995178499999,0.022047,0.38841,2.5925,-9.999999999998899e-05,-9.999999999998899e-05,-9.999999999998899e-05,0.0013578511397198123,-0.0006938393043121049,0.000142991722519914
149550000000.0,2,-0.0095124505,0.08089505585,-0.10701016479999999,0.028987,0.017217,0.02985,0.20134033115,-3.7137783549999996,-9.073995178499999,0.022185,0.38839,2.5928,-9.999999999998899e-05,-0.00014999999999987246,-9.999999999998899e-05,-0.0007366712167358735,-0.0005113891619512589,-0.00029029681249964634
149550000000.0,2,-0.07858068644999999,0.12195549939999999,-0.052563644,0.059728,-0.006483,0.031014,0.19858466249999998,-3.7165242169999995,-9.072916446999999,0.021884,0.3887,2.5932,-3.333333333332966e-05,-0.0001500000000000945,-9.999999999998899e-05,0.0025057191323624717,-0.0015366163121055543,0.00039320028212880276
149550000000.0,2,-0.10784373004999999,0.08714189189999999,0.00196133,0.066021,-0.02039,0.029984,0.1940343769,-3.721427542,-9.0710531835,0.021387,0.38923,2.5936,-3.333333333332966e-05,-9.999999999998899e-05,-9.999999999998899e-05,0.0016831994532138794,-0.0015588596684033007,0.0003355293338909715
149550000000.0,2,-0.1267607579,0.021711923099999995,-0.015004174499999998,0.05847,-0.029924,0.031058,0.1881111603,-3.7266250665,-9.068993787,0.02074,0.3898,2.594,-3.333333333332966e-05,-9.999999999998899e-05,-9.999999999998899e-05,0.001454385502947464,-0.001334124262013514,0.0005027939893009203
149550000000.0,2,-0.13296836734999998,-0.04443393115,-0.0130624578,0.056146,-0.045907,0.043893,0.18040313339999997,-3.7324109899999995,-9.066836324,0.019895,0.39045,2.5945,-3.333333333332966e-05,-9.999999999998899e-05,2.4999999999941735e-05,0.0003371869033776398,-0.0011327000007266275,0.00036794553117408535
149550000000.0,2,-0.1182093591,-0.07250056345,0.04701308009999999,0.053716,-0.074677,0.057818,0.17012576419999997,-3.738883379,-9.064286595,0.018767,0.39116,2.5952,-3.333333333332966e-05,-9.999999999998899e-05,2.500000000016378e-05,0.0006490295416078928,1.1146549525609117e-06,0.0007942630079761925
149550000000.0,2,-0.12241641194999998,-0.0840037639,0.04839581775,0.049178,-0.10555,0.063203,0.1566906537,-3.7452577015,-9.061932999,0.017289,0.39186,2.5959,-3.333333333332966e-05,-9.999999999998899e-05,2.4999999999941735e-05,-0.0005634281024945453,5.907158079199171e-05,0.0004063474452113969
149550000000.0,2,-0.11699333449999999,-0.0793750251,0.07187293784999998,0.040545,-0.11827,0.063212,0.1416864792,-3.7509455584999998,-9.0598736025,0.015637,0.39248,2.5967,-4.999999999988347e-05,3.333333333332966e-05,2.4999999999941735e-05,-0.0009587287417874291,0.00041323078810262537,0.00048648283131008663
149550000000.0,2,-0.16492823969999998,-0.08242489324999999,0.16848805364999997,0.022465,-0.11174,0.063172,0.12586835275,-3.75594695,-9.058010338999999,0.013895,0.39304,2.5975,-5.0000000000105516e-05,3.333333333332966e-05,9.999999999998899e-05,-0.0006446310024075808,0.000216894227157427,0.00035643815160998904
149550000000.0,2,-0.22598444259999997,-0.10468598875,0.2238269796,0.00139,-0.084922,0.054553,0.11121721764999999,-3.7596734769999998,-9.056637408,0.01228,0.39346,2.5983,-0.00019999999999997797,3.333333333332966e-05,0.00019999999999997797,-0.0010428090051565198,0.0009787208538252212,0.00017747718951055536
149550000000.0,2,-0.22513126405,-0.12319113729999999,0.24664705415,-0.028065,-0.044177,0.037355,0.1006358423,-3.7612425409999997,-9.0561470755,0.011111,0.39363,2.599,-0.00029999999999996696,9.999999999998899e-05,0.00029999999999996696,-0.0014213800587032366,0.001406859552133266,-4.4281263468781695e-05
149550000000.0,2,-0.1946620025,-0.14389297545,0.2445386244,-0.037258,-0.001472,0.025525,0.09500682519999999,-3.76183094,-9.055950942499999,0.010491,0.39369,2.5994,9.999999999998899e-05,-0.00019999999999997797,-0.00019999999999997797,-0.0003828040965187518,-0.0002686966643969946,0.0005251429659654805
149550000000.0,2,-0.17162618165,-0.13691064065,0.2961804433,-0.024111,0.035717,0.018012,0.0936731208,-3.763203871,-9.0553625435,0.010344,0.39385,2.5997,-0.00020000000000020002,0.00029999999999996696,0.00019999999999997797,0.0003127564076879086,0.001342887820791061,-8.732599848448874e-05
149550000000.0,2,-0.12319113729999999,-0.133566573,0.34394863545,-0.015373,0.055893,0.011589,0.09566387074999999,-3.7659497329999994,-9.0541857455,0.010565,0.39415,2.6,-0.0010999999999998789,0.00029999999999996696,0.0013000000000000789,0.005387657958875247,0.005440726259835493,0.0034595564934751244
149550000000.0,2,-0.037481016299999996,-0.17869677629999997,0.31635272235,-0.023847,0.054908,-0.000166,0.10002783,-3.768891728,-9.052910880999999,0.011049,0.39447,2.6,-9.999999999998899e-05,-9.999999999998899e-05,-9.999999999998899e-05,-0.0007355095204321094,0.0003375848753381927,0.00018998387810800765
149550000000.0,2,0.02083913125,-0.2215910634,0.25469831379999996,-0.05269,0.042369,-0.01087,0.1050096082,-3.7698723929999995,-9.052518615,0.011599,0.39458,2.5999,-0.00019999999999997797,-9.999999999998899e-05,-9.999999999998899e-05,-0.0005309785005362944,0.001065317253296838,0.000530016245932935
149550000000.0,2,0.027331133549999997,-0.26131780255,0.1928575789,-0.089026,0.021377,-0.030111,0.10898130144999998,-3.7677149299999995,-9.053401213499999,0.012037,0.39434,2.5997,-0.00029999999999996696,-9.999999999998899e-05,-9.999999999998899e-05,-0.00032255897040611714,0.0022808259960163113,0.000497596842192416
149550000000.0,2,0.0673520722,-0.25696364995,0.1288789943,-0.11896,0.004589,-0.042945,0.11251169545,-3.762027073,-9.055656743,0.012424,0.39371,2.5992,0.00014999999999987246,-0.00019999999999997797,-9.999999999998899e-05,0.00020179070836245927,-0.0010389739442024926,0.0008886934386808099
149550000000.0,2,0.036000212149999995,-0.2178841497,0.12292635774999998,-0.13501,-0.006992,-0.050426,0.11467896509999999,-3.7539856199999995,-9.058991004,0.012659,0.39282,2.5986,0.0001500000000000945,-0.0005999999999999339,-0.000700000000000145,-0.004460053752540327,-0.002327470794120323,-0.0019733024667530907
149550000000.0,2,-0.029920089149999995,-0.15678872019999998,0.11374733335,-0.1403,-0.006942,-0.057907,0.11551253034999999,-3.7442770364999998,-9.0630117305,0.012745,0.39175,2.5981,-0.0008000000000001339,0.00019999999999997797,0.0004999999999999449,0.00361636412493338,0.0026977961150131957,0.0025250763866645487
149550000000.0,2,-0.08522959515,-0.08401357055,0.07521700549999999,-0.13376,0.005796,-0.065389,0.116503002,-3.733587788,-9.067424723,0.012848,0.39057,2.5975,0.000500000000000167,-0.0008000000000001339,-0.0008999999999999009,-0.0071277109113760395,-0.0043577691150704645,-0.004251056245823143
149550000000.0,2,-0.1296046864,-0.022319935399999997,0.058614347049999994,-0.11435,0.031207,-0.065397,0.11882717804999998,-3.7232908055,-9.071543515999998,0.013099,0.38944,2.5969,-0.000300000000000189,-0.00029999999999996696,-0.00019999999999997797,0.0017856799023165948,-0.0008828763215591451,0.0004224765955531673
149550000000.0,2,-0.17548019509999999,-0.005942829899999999,0.07367736144999999,-0.098229,0.051305,-0.055794,0.1222104723,-3.7144648205,-9.075171976499998,0.013466,0.38847,2.5964,-0.00019999999999997797,-0.00029999999999996696,-0.00019999999999997797,0.001069243665794306,0.000546478039588516,-0.00047612048645509497
149550000000.0,2,-0.20747929404999998,-0.02582090945,0.08134616174999999,-0.094965,0.060859,-0.052599,0.12592719265,-3.7066195004999996,-9.0783101045,0.01387,0.3876,2.596,-0.00019999999999997797,-0.0004999999999999449,-0.00019999999999997797,0.0007053748885891276,0.0009670720020440449,-0.0002468174413861324
149550000000.0,2,-0.19067069594999997,-0.0631352127,0.0146511351,-0.08634,0.067183,-0.060063,0.13081090435,-3.6993625795,-9.081154032999999,0.014404,0.3868,2.5955,9.999999999998899e-05,-0.0006999999999999229,-0.000600000000000156,0.0016705155324361343,-0.002460412771738696,-0.00010584367768778913
149550000000.0,2,-0.16486939979999998,-0.06176228169999999,0.022731814700000002,-0.051183,0.063686,-0.054656,0.1361359153,-3.6947534539999998,-9.0830172965,0.014987,0.3863,2.595,-0.00039999999999995595,-0.000300000000000189,-9.999999999998899e-05,0.00012971001824124695,0.00031628039282582954,-0.0006141198023592032
149550000000.0,2,-0.16209411784999997,-0.059340039149999996,0.09582077715,-0.019421,0.037836,-0.046013,0.1393524965,-3.6937727889999996,-9.083311495999999,0.01534,0.38618,2.5946,-0.00029999999999996696,-0.00039999999999995595,-0.00019999999999997797,0.0007781319059017577,-0.00046123707278478143,-0.0006583303190514089
149550000000.0,2,-0.12806504235,-0.0907115125,0.07456976659999999,-0.003755,0.000397,-0.037378,0.1395878561,-3.6948515205,-9.08291923,0.015367,0.3863,2.5943,-0.00029999999999996696,-0.00039999999999995595,-9.999999999998899e-05,0.0020614575194916607,-0.0005385161381388226,-0.0008995451491460027
149550000000.0,2,-0.12882996105,-0.13530235005,0.03713778355,0.003457,-0.028444,-0.030908,0.13645953475,-3.6972051164999997,-9.081938565,0.015024,0.38657,2.594,-0.00039999999999995595,-0.0004999999999999449,-0.00019999999999997797,0.0023633907652087505,-0.0003395193348589842,-9.559599141625852e-05
149550000000.0,2,-0.15678872019999998,-0.1348022109,0.050406180999999994,0.00756,-0.047668,-0.027663,0.13075206444999998,-3.7001471114999998,-9.0808598335,0.014397,0.38689,2.5938,-0.000400000000000178,-0.00029999999999996696,5.0000000000105516e-05,0.0013033144975754252,0.00041869910499015006,0.0001407984670827589
149550000000.0,2,-0.20835208589999998,-0.12774142289999998,0.07260843659999999,0.007592,-0.047669,-0.032996,0.12380895625,-3.7030891065,-9.079781102,0.013635,0.38722,2.5936,-0.0005999999999999339,-0.00019999999999997797,4.999999999988347e-05,3.5182775939834876e-06,0.0003360395288010132,-0.00032737457183035223
149550000000.0,2,-0.24176334245,-0.12324017055,0.10992273984999999,0.004598,-0.03059,-0.045835,0.1180132261,-3.7061291679999995,-9.078604303999999,0.012998,0.38755,2.5934,-9.999999999998899e-05,-0.000700000000000145,-0.0004999999999999449,0.0013461001159246755,-0.0030050101040113297,-0.00028775301651490226
149550000000.0,2,-0.23762493614999997,-0.14153937944999997,0.13204654224999998,-0.010027,-0.00169,-0.060851,0.11507123109999999,-3.7084827639999998,-9.0777217055,0.012676,0.38781,2.5929,-0.00029999999999996696,-0.00039999999999995595,-9.999999999998899e-05,0.0005988553049328105,-0.0009181118868497595,0.0006957931857867472
149550000000.0,2,-0.23436912834999998,-0.2112744676,0.13253687474999998,-0.03427,0.02622,-0.073747,0.1154046572,-3.709855695,-9.0771333065,0.012713,0.38796,2.5923,-0.0004999999999999449,-0.00039999999999995595,-9.999999999998899e-05,0.0005346437155887562,0.0018854558503591523,-0.0005102949507177212
149550000000.0,2,-0.23923322675,-0.25461986059999997,0.13221325529999997,-0.059575,0.057332,-0.082382,0.11892524455,-3.7094634289999995,-9.077231373,0.013101,0.38791,2.5916,-0.00029999999999996696,-0.000600000000000156,-0.00029999999999996696,0.0011611096126202813,-0.0004018525330182765,-0.0004487726777966383
149550000000.0,2,-0.2483828312,-0.281254722,0.13489047075,-0.074265,0.084089,-0.086721,0.12492691435,-3.7077962984999995,-9.077819772,0.013761,0.38773,2.5909,-0.000500000000000167,-0.0004999999999999449,0.0007500000000000284,-0.0011070381093106763,0.0010365110723002946,-0.00028027299539978845
149550000000.0,2,-0.26877085655,-0.2849616357,0.15692601329999997,-0.080431,0.10545,-0.097439,0.13304682054999997,-3.7055407689999997,-9.078604303999999,0.014654,0.38749,2.5901,-0.0019000000000000128,0.00039999999999995595,0.0007499999999998064,0.0036834133361353105,0.004078445729175817,0.0018301879055633297
149550000000.0,2,-0.23269219119999998,-0.2945525394,0.1217789797,-0.078177,0.11502,-0.10385,0.14336341635,-3.7032852395,-9.079388836,0.015789,0.38724,2.5891,0.0009000000000001229,-0.0013999999999998458,-0.0016999999999998128,-0.004689326578825315,-0.0056874877640265,-0.0034009148245301435
149550000000.0,2,-0.16713473594999997,-0.29645502949999997,0.08696537219999999,-0.071747,0.11178,-0.11237,0.15501371655,-3.7012258429999996,-9.080075301499999,0.01707,0.38701,2.5881,-0.000700000000000145,-0.000500000000000167,-0.0001500000000000945,5.0734827287957085e-05,-0.0001844647614233086,-0.0007044072271688573
149550000000.0,2,-0.08851482289999998,-0.38032150029999995,0.05943810565,-0.053674,0.10203,-0.11233,0.16737990219999999,-3.7018142419999998,-9.079584968999999,0.018433,0.38707,2.5869,-0.00039999999999995595,-0.0006999999999999229,-0.0001500000000000945,0.0011994180928214249,-0.0012110934020899133,-0.0008189110402104793
149550000000.0,2,-0.007021561399999999,-0.48663539294999997,0.0392462133,-0.04647,0.068934,-0.10906,0.17850064329999998,-3.7045601039999996,-9.0783101045,0.01966,0.38738,2.5857,-0.0008999999999999009,-0.00039999999999995595,-0.00013333333333331865,0.0006778757042362193,0.0016737491303542296,0.00016627460791557302
149550000000.0,2,0.06026186425,-0.45874528035,-0.0169066646,-0.043747,0.016681,-0.094022,0.18588505074999997,-3.7069137,-9.0771333065,0.020476,0.38763,2.5846,-0.0008000000000001339,-0.0004999999999999449,-0.00013333333333331865,-0.000408718066752467,0.0006517938518959543,-9.464894444155547e-05
149550000000.0,2,0.08711247194999999,-0.45124319309999994,-0.04798393844999999,-0.046366,-0.037656,-0.081127,0.18821903345000002,-3.7088750299999997,-9.0763487745,0.020734,0.38785,2.5837,-0.0005999999999999339,-0.000700000000000145,-0.00013333333333331865,-0.0005828044694790591,-0.00042574499597347604,-0.00022706799750965567
149550000000.0,2,0.0614092423,-0.35192144189999996,-0.032146198699999996,-0.033956,-0.083586,-0.073557,0.18534568499999998,-3.7101498944999998,-9.075858442,0.020419,0.38799,2.5829,-0.0004999999999999449,-0.0008999999999999009,-0.00019999999999997797,0.003376756004474235,-0.003684945720995314,-0.0012353029290024797
149550000000.0,2,-0.008865211599999999,-0.25118753309999997,0.010542148749999999,-0.014909,-0.10506,-0.074555,0.17854967655,-3.7118170249999998,-9.075270043,0.019672,0.38817,2.5821,-0.001000000000000112,-0.0006999999999999229,9.999999999998899e-05,0.0007603914349637031,-0.001430685954999511,-0.0009425300695669603
149550000000.0,2,-0.0872203451,-0.15368001215,0.04635603455,0.022486,-0.092591,-0.063837,0.1707141632,-3.7153474189999995,-9.073995178499999,0.018812,0.38856,2.5814,-0.0008999999999999009,-0.000700000000000145,0.00019999999999997797,-0.00040207564046923494,-0.0012137747969045432,-0.00039673567679865407
149550000000.0,2,-0.1664580771,-0.11766999334999999,0.12031778885,0.071813,-0.050398,-0.044608,0.16405544785,-3.723192739,-9.070857050499999,0.018084,0.38943,2.581,-0.0007999999999999119,-0.0008999999999999009,-9.999999999998899e-05,0.001771178244103222,-0.00027501834864263053,-0.0011394669932172086
149550000000.0,2,-0.19304390525,-0.1452560998,0.2080186598,0.10616,-0.009156,-0.017933,0.15997588145,-3.735745251,-9.065855658999999,0.017644,0.39081,2.5808,-0.0015000000000000568,-0.00029999999999996696,0.0008000000000001339,0.006182630620438945,0.004719244942219536,0.0027834722543255697
149550000000.0,2,-0.15327793950000002,-0.2060965564,0.22958348315,0.096575,0.003684,0.001244,0.15762228544999998,-3.7495726275,-9.060167802,0.017395,0.39234,2.5809,9.999999999998899e-05,-0.0016000000000000458,-0.0012000000000000899,-0.007114347316509506,-0.0030309789717228863,-0.004572572657344232
149550000000.0,2,-0.03788308895,-0.3056928938,0.10904014135,0.058061,0.001847,0.021459,0.15670046035,-3.761046408,-9.055460609999999,0.017302,0.3936,2.5811,-0.0005999999999999339,-0.0012000000000000899,-9.999999999998899e-05,-0.0002460437651898295,-0.0025475298905439647,-0.0008992028175292544
149550000000.0,2,0.0489744101,-0.38875521929999995,0.035490266349999994,0.035507,-0.004385,0.043843,0.15572960199999997,-3.7705588585,-9.051439883499999,0.017203,0.39466,2.5814,-0.0009000000000001229,-0.0008999999999999009,0.00029999999999996696,0.0023845747787074045,0.0021887069682202664,-0.0009036993236450352
149550000000.0,2,0.06260565359999999,-0.37494745609999997,0.10358764394999999,0.029033,-0.003286,0.063038,0.15421937789999998,-3.7795809764999997,-9.0477133565,0.017043,0.39565,2.582,-0.0004999999999999449,-0.0013000000000000789,-0.00039999999999995595,0.0010979400142011042,-0.0005176014971131071,-0.0006588644774843666
149550000000.0,2,0.12873189455,-0.3218150264,0.1769511926,0.033295,0.00306,0.076904,0.15393498504999997,-3.7884069615,-9.0439868295,0.017019,0.39663,2.5827,-0.0020999999999999908,-9.999999999998899e-05,0.0015000000000000568,0.003347276452316972,0.005166517478768062,0.0027372803622097153
149550000000.0,2,0.18553201134999997,-0.26825110409999997,0.19333810475,0.050388,0.015691,0.095049,0.1548862301,-3.7978213454999996,-9.040064169499999,0.017132,0.39767,2.5835,0.0004999999999999449,-0.0020000000000000018,-0.0015000000000000568,-0.00812490291623863,-0.005816142667583346,-0.0034369036799195007
149550000000.0,2,0.18906240535,-0.2215126102,0.28220596705,0.077038,0.020787,0.11002,0.15600418819999998,-3.8095893254999997,-9.035062778,0.017264,0.39897,2.5845,-0.0006999999999999229,-0.0012000000000000899,-9.999999999998899e-05,0.0002166190818135849,0.0003836630435516408,0.00015510415595310079
149550000000.0,2,0.2617002619,-0.20783233345,0.3336810729,0.08538,0.000469,0.1186,0.15683775345,-3.8226321699999994,-9.029571054,0.017368,0.40042,2.5856,-0.001000000000000112,-0.0010999999999998789,0.00029999999999996696,-0.0008788004552956474,-0.000345027862780789,-5.198599811018223e-05
149550000000.0,2,0.32119720744999997,-0.22105169764999996,0.2766652098,0.070123,-0.038829,0.12183,0.15524907615,-3.8346943495,-9.024471596,0.017202,0.40175,2.5866,-0.0020999999999999908,-0.00029999999999996696,0.0015000000000000568,0.005104819419473106,0.008947470103563893,0.0037473247550181
149550000000.0,2,0.36502312629999994,-0.24237135475,0.20130110455,0.03779,-0.080114,0.1229,0.1504732376,-3.8439126004999995,-9.020647002499999,0.01668,0.40277,2.5877,0.0006999999999999229,-0.0022999999999999687,-0.0017000000000000348,-0.005224470653833635,-0.008927821790232215,-0.002270725845018029
149550000000.0,2,0.38606819719999996,-0.21184325329999998,0.15212075479999998,0.016194,-0.10658,0.13357,0.14289269715,-3.85009079,-9.018195339999998,0.015844,0.40345,2.5888,-0.0006999999999999229,-0.0014000000000000679,4.999999999988347e-05,-0.0016940169542178363,-0.0003319636972889395,0.0009799854771392336
149550000000.0,2,0.35548125585,-0.1564945207,0.19305371189999998,0.02254,-0.09387,0.16664,0.13413535869999998,-3.8554844475,-9.016037876999999,0.014876,0.40405,2.5902,-0.0007999999999999119,-0.0013000000000000789,5.0000000000105516e-05,-0.0011819555878506138,0.0011658356694526084,0.000765941169109885
149550000000.0,2,0.31751971369999993,-0.0893778081,0.35555970904999995,0.050283,-0.067502,0.20827,0.1197195832,-3.8594071075,-9.014468813,0.01328,0.40449,2.5924,-0.0020000000000000018,-0.0004999999999999449,0.0016000000000000458,0.004567972003489351,0.004623863790794713,0.003729804082107435
149550000000.0,2,0.34076147419999997,-0.059153712799999994,0.4842131504,0.075834,-0.053894,0.24138,0.10560781385,-3.8658794965,-9.011919083999999,0.011718,0.4052,2.5949,0.00029999999999996696,-0.0020999999999999908,-0.0012000000000000899,-0.0059899929230206594,-0.002303271617762448,-0.0010353156030577515
149550000000.0,2,0.4633053726,-0.06510634935,0.5323441886,0.10139,-0.054114,0.25103,0.09109397185,-3.8747054815,-9.008290623499999,0.010112,0.40619,2.5976,-0.0006999999999999229,-0.0016000000000000458,-0.00019999999999997797,-0.0014209717568198776,0.001348081923965072,0.0003427453026453309
149550000000.0,2,0.58489802595,-0.10252852575,0.54721107,0.1258,-0.077733,0.24149,0.08607296704999999,-3.8909845205,-9.001327902,0.009562,0.408,2.5998,-0.000600000000000156,-0.0016000000000000458,9.999999999998899e-05,-0.0012115616252587613,-0.00018150044249276576,0.00024836339958328457
149550000000.0,2,0.7521798616500001,-0.15736731254999997,0.5403660282999999,0.13731,-0.11724,0.2245,0.06753839854999999,-3.9033408995,-8.9961303775,0.007507,0.40937,2.6023,-0.0009999999999998899,-0.0032999999999998586,-0.00039999999999995595,-0.0023818686671341904,0.0033718059978617987,0.002707274656933767
149550000000.0,2,0.8719582847499999,-0.23805642875,0.5188600448499999,0.12749,-0.15656,0.2032,0.046218741449999996,-3.9153050124999997,-8.9910309195,0.005141,0.4107,2.6046,-0.0002500000000000835,-0.0008999999999999009,-4.999999999988347e-05,-0.0003863881885334819,0.001096462103606255,0.0011048489571071074
149550000000.0,2,0.9775955185499999,-0.34179117245,0.503081145,0.085755,-0.18391,0.18503,0.02287891445,-3.924229064,-8.987206325999999,0.002546,0.41169,2.6066,-0.00024999999999986144,-0.0009000000000001229,-5.0000000000105516e-05,-0.00038514862241212366,0.001096885150698057,0.0011043506086801935
149550000000.0,2,1.0497038159999998,-0.4504586611,0.47519103239999994,0.008898,-0.19921,0.17208,0.01840708205,-3.937369975,-8.981518469,0.002049,0.41315,2.6076,-0.000500000000000167,-0.0016000000000000458,9.999999999998899e-05,-0.0009727879327985911,0.0004913846237981634,0.001721022909799419
149550000000.0,2,1.074612707,-0.56197007825,0.42542228365,-0.08603,-0.1963,0.17084,-0.006207609449999999,-3.9317801845,-8.9839701315,-0.000691,0.41253,2.6095,-0.0010999999999998789,-0.0010999999999998789,0.0006999999999999229,0.005750256596537051,0.0019350834203706313,0.005913588555002125
149550000000.0,2,0.9888045194999999,-0.6266057084,0.4043281795,-0.16682,-0.16047,0.16851,-0.028135278849999997,-3.918345074,-8.989756054999999,-0.00313,0.41104,2.6113,0.0004999999999999449,-0.0025000000000001688,-0.0011999999999998678,-0.007630163748225061,0.0008946751932066288,-0.0009272847964912623
149550000000.0,2,0.82890709125,-0.6272725605999999,0.45019388155,-0.22169,-0.092867,0.15442,-0.044198571549999996,-3.8994182394999997,-8.9978955745,-0.004913,0.40893,2.613,-0.00019999999999997797,-0.0020000000000000018,-9.999999999998899e-05,-0.0025181593229592347,0.0002488251889123383,0.0007226501570642696
149550000000.0,2,0.6289298844499999,-0.5842998203,0.46963066184999996,-0.25183,-0.01478,0.12432,-0.039962098749999994,-3.8901999884999996,-9.0020143675,-0.004439,0.4079,2.6139,0.0006999999999999229,-0.0023999999999999577,-0.0015000000000000568,0.007362865091099957,0.003260835084736735,0.004354874979560108
149550000000.0,2,0.51126969775,-0.54343550975,0.44132866995,-0.25213,0.056659,0.084696,-0.040207265,-3.8672524274999995,-9.011821017499999,-0.004462,0.40536,2.615,-0.0004999999999999449,-0.0017000000000000348,0.00019999999999997797,-0.0029496680271109965,0.0026149675108868564,7.759417131367186e-05
149550000000.0,2,0.46205992804999996,-0.51499622475,0.44980161555,-0.21943,0.11611,0.040885,-0.0328915041,-3.8464623295,-9.020745069,-0.003647,0.40306,2.6155,0.0004999999999999449,-0.0026999999999999247,-0.001100000000000101,0.0008593642630050358,0.001043498988404945,0.0016704153647044417
149550000000.0,2,0.48701785229999994,-0.50785698355,0.5103772926,-0.17959,0.14352,0.012086,-0.021045070899999997,-3.8293987585,-9.0281000565,-0.002331,0.40116,2.6157,9.999999999998899e-05,-0.0020999999999999908,-0.00039999999999995595,0.0029260656756966985,0.003619740219986234,0.0016261225045682282
149550000000.0,2,0.5752875089499999,-0.56573583185,0.5570961731999999,-0.15928,0.13699,0.00037,0.00381478685,-3.8287122929999997,-9.028394256,0.000422,0.40108,2.6152,9.999999999998899e-05,-0.0025999999999999357,-0.00039999999999995595,-0.0016500051024724849,0.0010043496988139111,-0.0007987721658035962
149550000000.0,2,0.7044901227,-0.6596737321999999,0.5688641532,-0.15531,0.10179,0.003642,0.0137685366,-3.8146887835,-9.034278246,0.001525,0.39953,2.6152,0.00020000000000020002,-0.0023000000000001908,-0.00029999999999996696,0.0013459774269686253,0.0036285908172462022,0.0021787923600401493
149550000000.0,2,0.8103823294,-0.71783697335,0.65636889115,-0.15679,0.055967,0.013327,0.0195152335,-3.8004691409999998,-9.040260302499998,0.002158,0.39796,2.6153,0.00019999999999997797,-0.0026999999999999247,-0.0005999999999999339,0.003512972949658688,-0.0005872587456614564,0.0002388393534957789
149550000000.0,2,0.87574365165,-0.7353418435999999,0.7644479807999999,-0.15937,0.008025,0.025149,0.020593965,-3.7861514319999996,-9.046242358999999,0.002276,0.39637,2.6156,0.00019999999999997797,-0.0025999999999999357,-0.000500000000000167,0.003182740220413649,0.0008653652503991527,0.001733032137096746
149550000000.0,2,0.86374031205,-0.69353609465,0.8504817212499999,-0.16505,-0.033469,0.036922,0.036333638249999994,-3.7906624909999995,-9.0443790955,0.004017,0.39688,2.6151,0.0004999999999999449,-0.0029000000000001247,-0.0006999999999999229,0.002819756750857272,-0.002289787575529001,-0.00013712057953846335
149550000000.0,2,0.8110491816,-0.6550449933999999,0.89029672025,-0.17057,-0.050483,0.046549,0.030371195049999997,-3.7752660504999995,-9.050753418,0.003355,0.39518,2.6156,9.999999999998899e-05,-0.0025999999999999357,-0.00019999999999997797,0.0019013396776912939,-7.712135078663529e-05,-0.00019092424195241153
149550000000.0,2,0.70775573715,-0.5916940344,0.8844029236,-0.16091,-0.037785,0.05615,0.0244185585,-3.7603599425,-9.057029674,0.002696,0.39353,2.6162,0.0006999999999999229,-0.0030999999999998806,-0.0009000000000001229,0.002224154882834617,-0.0018299969944071126,0.0005909460882019546
149550000000.0,2,0.60861050565,-0.544269075,0.90873322225,-0.15215,-0.002705,0.067844,0.02091758445,-3.7464344994999994,-9.0628155975,0.002308,0.39199,2.6169,0.00029999999999996696,-0.0027000000000001467,-0.0003500000000000725,0.002070263151499274,0.0014260394940357468,0.0014461028911501028
149550000000.0,2,0.5424254248,-0.5796906947999999,0.8805489101499999,-0.1562,0.029303,0.082706,0.03262672455,-3.7508474919999997,-9.060952334,0.003601,0.39248,2.6172,0.000300000000000189,-0.0031999999999998696,-0.00034999999999985043,0.0032986830536073652,-0.00040056785664832617,0.00045738216144700083
149550000000.0,2,0.5573119194999999,-0.6927319493499999,0.7817272980999999,-0.18076,0.032691,0.093332,0.03241097825,-3.7350587854999997,-9.067424723,0.003575,0.39074,2.6182,9.999999999998899e-05,-0.0029000000000001247,-9.999999999998899e-05,0.007075675685973448,0.0031092323479156025,0.0026505433111327636
149550000000.0,2,0.62012351275,-0.819247541,0.68178772795,-0.21409,0.007382,0.10293,0.03019467535,-3.7164261504999994,-9.075073909999999,0.003328,0.38868,2.6193,-9.999999999998899e-05,-0.0029999999999998916,-9.999999999998899e-05,-0.0002255144118475938,0.003653075655538185,-0.0013823574093120294
149550000000.0,2,0.6683231975,-0.9003877631,0.58348586835,-0.24653,-0.045632,0.10403,0.023447700149999997,-3.6948515205,-9.0839979615,0.002581,0.38631,2.6205,0.0007999999999999119,-0.0034000000000000696,-0.0006999999999999229,-0.001112025862287369,-0.0021116711950177613,-0.0006606424225932828
149550000000.0,2,0.6658225017499999,-0.8955628913,0.4813005753499999,-0.26282,-0.090224,0.10086,0.027448813349999997,-3.6922037249999997,-9.0849786265,0.003021,0.38601,2.6209,0.0009999999999998899,-0.0037000000000000366,-0.0009000000000001229,-0.0012545182580389058,5.977410122914861e-05,0.0007030366292445356
149550000000.0,2,0.6022361831499999,-0.90180972735,0.44644774125000003,-0.25653,-0.10732,0.095561,0.0142784824,-3.6685696984999994,-9.0945891435,0.001569,0.38342,2.622,0.001000000000000112,-0.0038000000000000256,-0.0009999999999998899,0.0034918176783038657,0.002428033673774088,0.0011219191249518257
149550000000.0,2,0.51156389725,-0.8654858957499999,0.43587617255,-0.23726,-0.11064,0.085979,0.012464252149999999,-3.6666083685,-9.0953736755,0.001371,0.3832,2.6225,0.0009999999999998899,-0.0038000000000000256,-0.0009000000000001229,0.0005551184982188206,0.000712741221919666,0.0007171044528089809
149550000000.0,2,0.50287520535,-0.8698106283999999,0.43151221329999995,-0.21584,-0.10974,0.071071,-0.00024516625,-3.646504736,-9.103415128499998,-2.7e-05,0.38099,2.6233,0.001000000000000112,-0.0038999999999997925,-0.0010999999999998789,0.0008730375361977183,-0.0014083296034848036,0.0001604287164259921
149550000000.0,2,0.49168581769999997,-0.9229136381499999,0.3488617671,-0.20612,-0.10979,0.046537,-0.0121014061,-3.6275779015,-9.111064315499998,-0.001328,0.37891,2.6238,0.0010999999999998789,-0.004200000000000204,-0.000700000000000145,-0.0007828279280602257,-0.0004901288592866759,0.0004502137560390973
149550000000.0,2,0.51670258185,-0.9741828043499999,0.18217813705,-0.20913,-0.10547,0.01557,-0.022751427999999997,-3.6086510669999994,-9.1185173695,-0.002495,0.37683,2.6241,0.0014000000000000679,-0.0043999999999999595,-0.0009999999999998899,0.0020061793851539056,0.0009073564248673893,0.0008912178949616045
149550000000.0,2,0.5274604769,-1.0037106274999998,0.0205351251,-0.21948,-0.088287,-0.013313,-0.019436780299999998,-3.6079646015,-9.118811569,-0.002131,0.37676,2.6235,0.001100000000000101,-0.0042999999999999705,-0.001100000000000101,0.0006457903043561308,0.001015049783942068,0.000606166372207062
149550000000.0,2,0.5203310423499999,-1.0394068335,-0.15553346899999998,-0.23941,-0.058265,-0.033681,-0.0245754649,-3.5865861045,-9.127245288,-0.002693,0.37441,2.6232,0.0012999999999998568,-0.0043999999999999595,-0.0011999999999998678,0.0027704859469120935,0.0024969710303615056,0.0007300936771391375
149550000000.0,2,0.52399872945,-1.0701016479999998,-0.38303794235,-0.25713,-0.01016,-0.040201,-0.0252619304,-3.563344344,-9.136267406,-0.002765,0.37188,2.6228,0.0015000000000000568,-0.0046999999999999265,-0.001100000000000101,0.0014774652102410024,0.0015972160047885708,-0.00020136542044837946
149550000000.0,2,0.5283430753999999,-1.0921666104999999,-0.56208775805,-0.28881,0.030592,-0.03926,-0.021966895999999996,-3.5377489875,-9.146270188999999,-0.002402,0.36908,2.6224,0.0015000000000000568,-0.0048000000000001375,-0.0010999999999998789,0.0015428546374979812,-0.0008679519121996826,-0.00034089929938335706
149550000000.0,2,0.55775321875,-1.0523516115,-0.8342811354499999,-0.3377,0.054438,-0.039387,-0.0160632927,-3.5079367714999994,-9.1577439695,-0.001754,0.36581,2.6219,0.0015000000000000568,-0.004899999999999904,-0.0012000000000000899,0.00043091957084689936,0.002771175846302709,0.00047991744816083814
149550000000.0,2,0.58960521795,-1.0290117845,-1.1737579384999999,-0.34291,0.076849,-0.029829,-0.0084141057,-3.476261292,-9.169806149,-0.000918,0.36236,2.6216,0.0015999999999998238,-0.0050000000000001155,-0.0009999999999998899,0.0030775697241929856,0.0009471629645749768,-0.0005501487191769683
149550000000.0,2,0.5265778783999999,-0.9664453574999999,-1.3379212594999998,-0.30012,0.096732,-0.019116,0.0007453054,-3.447429741,-9.180691530499999,8.1e-05,0.35921,2.6214,0.0016000000000000458,-0.005199999999999871,-0.001000000000000112,0.0010213834866100169,0.0016397323012253828,-0.00018275306977938444
149550000000.0,2,0.4716017985,-0.7133455276499999,-1.4018606175,-0.22429,0.10889,-0.015804,0.0112776475,-3.4248744459999996,-9.1891252495,0.001227,0.35676,2.6212,0.0018000000000000238,-0.005300000000000082,-0.0010999999999998789,0.0034250190962020755,0.0014724403015999865,-0.0003634747373885139
149550000000.0,2,0.37627135385,-0.5211646075999999,-1.4689381035,-0.11765,0.10375,-0.012408,0.021456950199999998,-3.4114393355,-9.194126641,0.002334,0.3553,2.621,0.0017000000000000348,-0.005400000000000071,-0.0008000000000001339,0.003151184335011603,-0.00015018849222858677,-0.0013022015020711653
149550000000.0,2,0.23197630574999997,-0.43327741029999994,-1.4666825739999998,0.001757,0.088917,-0.018579,0.030635974599999997,-3.4089876729999995,-9.1950092395,0.003331,0.35503,2.6209,0.0017000000000000348,-0.005399999999999849,-0.0008999999999999009,0.0031920312061301526,7.58484216356603e-05,-0.0002784530536209251
149550000000.0,2,0.23454564805,-0.30213307985,-1.4104904695,0.09519,0.02316,-0.032177,0.03554910625,-3.4157542615,-9.192459510499999,0.003867,0.35577,2.6206,0.0019000000000000128,-0.005600000000000049,-0.0008000000000001339,0.00310516404322142,0.0008767808812801814,0.00012554312464316264
149550000000.0,2,0.25855232725,-0.23484965419999998,-1.5066937059999999,0.15207,-0.080651,-0.051109,0.032489431449999995,-3.4286009729999996,-9.1877523185,0.003536,0.35716,2.6201,0.0019000000000000128,-0.005700000000000038,-0.00039999999999995595,0.0038254100513434586,0.0007663688634216292,-0.000340944551995348
149550000000.0,2,0.25094236685,-0.18311957545,-1.6186856490000001,0.21412,-0.20263,-0.06573,0.0187110882,-3.4467432755,-9.18098573,0.002038,0.35915,2.6194,0.0020000000000000018,-0.005700000000000038,-0.00039999999999995595,0.0026257562085848507,-0.00027763420476900613,0.0010984969274091538
149550000000.0,2,0.1647909466,-0.0930258819,-1.6089770654999997,0.29563,-0.2896,-0.077177,-0.00348136075,-3.471946366,-9.171473279499999,-0.000379,0.36189,2.6186,0.0020999999999999908,-0.005800000000000027,9.999999999998899e-05,0.002954525096386551,-0.0011050700821371162,-0.00015993712598677545
149550000000.0,2,0.00328522775,0.0742167272,-1.4536397294999999,0.39457,-0.33941,-0.098266,-0.0305182948,-3.505877375,-9.1585285015,-0.003333,0.36559,2.6176,0.0020999999999999908,-0.005799999999999805,9.999999999998899e-05,0.0009208286004225852,-0.0014746008984558578,0.00012898685388301745
149550000000.0,2,-0.08126770854999998,0.2190413344,-1.2823175539999998,0.46287,-0.36337,-0.1408,-0.05879086675,-3.5471633714999995,-9.1424455955,-0.006431,0.3701,2.6163,0.0020999999999999908,-0.005700000000000038,0.00039999999999995595,0.0001508174958615438,-0.0015475506162661024,-0.00027337479182706903
149550000000.0,2,-0.11217826934999998,0.33317112709999996,-1.1710120765,0.45236,-0.37814,-0.19843,-0.08713208525,-3.5859977054999996,-9.127049155,-0.009547,0.37435,2.6144,0.0020999999999999908,-0.005700000000000038,0.00039999999999995595,0.0011302143915487006,0.0011417893962493153,-0.0008627224495245667
149550000000.0,2,-0.17062590335,0.3227564648,-1.224458319,0.38877,-0.3637,-0.25941,-0.11204097625,-3.6233610419999995,-9.1120449805,-0.012295,0.37844,2.6118,0.0022999999999999687,-0.005800000000000027,0.000600000000000156,-0.0028021040539935593,0.0010382078732975586,0.0003801177734472916
149550000000.0,2,-0.24763752579999998,0.23952742624999998,-1.1416901929999999,0.31479,-0.30869,-0.31407,-0.1306441913,-3.6540558565,-9.0994924685,-0.014356,0.38183,2.6086,0.0021999999999999797,-0.005700000000000038,0.0008999999999999009,-0.0032084614390933686,0.00019538561002585553,-0.0012904107659201802
149550000000.0,2,-0.31094925819999997,0.17674525295,-0.8945528063499999,0.22379,-0.24396,-0.36238,-0.14140208634999998,-3.6771995505,-9.089980017999999,-0.015554,0.38437,2.6048,0.0020999999999999908,-0.005600000000000049,0.001000000000000112,-0.0044600647559670525,0.001316535283990783,-0.001618041458456121
149550000000.0,2,-0.31513669774999997,0.14532474635,-0.7798051947,0.10066,-0.19707,-0.41711,-0.15054188415,-3.683181607,-9.087430289,-0.016564,0.38503,2.6007,0.0021999999999999797,-0.005699999999999816,0.0012999999999998568,-0.005149123390868038,0.002792455159939644,-0.00211328037030048
149550000000.0,2,-0.2959254704,0.1978393571,-0.8016740242,-0.024828,-0.17574,-0.46539,-0.1501398115,-3.684358405,-9.0869399565,-0.016521,0.38516,2.5958,0.0021999999999999797,-0.005700000000000038,0.0015000000000000568,-0.0027547642875149214,0.0013849432492569758,-0.0024927006708694854
149550000000.0,2,-0.36127698599999997,0.33017029219999994,-0.75853457085,-0.12367,-0.1589,-0.5147,-0.14644270445,-3.6759246859999997,-9.090470350499999,-0.016108,0.38422,2.5904,0.0020000000000000018,-0.00550000000000006,0.0013000000000000789,-0.006079013367514041,0.0014751277475890667,-0.0027306618413835138
149550000000.0,2,-0.4445158312,0.5295198734,-0.6384717549,-0.17561,-0.14031,-0.55431,-0.13966630929999999,-3.6616069769999995,-9.0963543405,-0.015353,0.38265,2.5845,0.0021999999999999797,-0.005600000000000049,0.0014999999999998348,-0.004424636780457125,0.003018173009770031,-0.003434210291092671
149550000000.0,2,-0.5664517173,0.7805897266999999,-0.45966710544999995,-0.17849,-0.10831,-0.57358,-0.13834241155,-3.632579293,-9.108024254,-0.015188,0.37946,2.5786,0.0020000000000000018,-0.005499999999999838,0.0016000000000000458,-0.0027663952008867287,0.0018272632840898861,-0.003980876480880413
149550000000.0,2,-0.7341062056999998,1.0470560205,-0.2420673486,-0.13437,-0.06711,-0.58318,-0.1243679353,-3.6198306479999998,-9.1132217785,-0.013646,0.37806,2.5723,0.0019000000000000128,-0.005700000000000038,0.0018000000000000238,-0.0013503366366529046,0.0007110631431652692,-0.003861142100370224
149550000000.0,2,-0.865338796,1.3132085015,0.00304986815,-0.028502,-0.030697,-0.57239,-0.10700035815,-3.6150253895,-9.1153792415,-0.011738,0.37754,2.5661,0.0019000000000000128,-0.005600000000000049,0.0016000000000000458,-0.0015341136239797049,0.00025639321832460205,-0.0045467961281662195
149550000000.0,2,-0.9840973274999999,1.5349368579999998,0.28291204584999996,0.13814,0.000954,-0.56255,-0.08721053845,-3.624145574,-9.111946913999999,-0.009571,0.37854,2.5601,0.0018000000000000238,-0.005600000000000049,0.0017000000000000348,0.0006517326047397187,-0.0002230992781753205,-0.004616434725897456
149550000000.0,2,-0.9524120413499999,1.672033825,0.5514083162,0.32475,0.004715,-0.53341,-0.0669205796,-3.6499370635,-9.1018460645,-0.007353,0.38137,2.5543,0.0017000000000000348,-0.005600000000000049,0.0013999999999998458,0.000481262208418598,-0.0011537256650648864,-0.00624347748277565
149550000000.0,2,-0.9613753194499999,1.6748777535,0.7376365996999998,0.4791,-0.023222,-0.50854,-0.049425515999999996,-3.6908307939999996,-9.085468958999998,-0.00544,0.38586,2.5488,0.0019000000000000128,-0.005499999999999838,0.0017000000000000348,0.000663896548873999,0.00020078658972155772,-0.00536787041798048
149550000000.0,2,-0.81627612605,1.5027710459999999,0.7034996510499999,0.57485,-0.059174,-0.51045,-0.03515684025,-3.741433108,-9.064776927499999,-0.003878,0.39144,2.5433,0.0016000000000000458,-0.00550000000000006,0.0017000000000000348,0.004216920558430981,-0.0006912203619788837,-0.006017954143784088
149550000000.0,2,-0.6425415146499999,1.30624578,0.73852900485,0.61196,-0.096761,-0.52419,-0.023349633649999996,-3.7965464809999996,-9.041927433,-0.002582,0.39753,2.5377,0.0014999999999998348,-0.005400000000000071,0.0016000000000000458,0.0018196351611875494,-0.0010058673101791538,-0.004884629845016697
149550000000.0,2,-0.5754346087,1.0488212175,0.7846790997499999,0.57874,-0.13056,-0.54981,-0.01354298365,-3.85009079,-9.0192740715,-0.001501,0.40346,2.5318,0.0016000000000000458,-0.005099999999999882,0.0015000000000000568,-0.0016427067798581163,-0.0012213622786900746,-0.005928393504050167
149550000000.0,2,-0.50309095165,0.798457443,0.7189255115,0.48365,-0.16491,-0.5766,-0.0055309506,-3.8962801115,-8.999366572,-0.000614,0.40858,2.5256,0.0014000000000000679,-0.0051000000000001044,0.0017000000000000348,0.0005819089581166614,-0.001698744411161801,-0.0046071225363722434
149550000000.0,2,-0.44660464764999996,0.5956363077,0.61349421735,0.34585,-0.19679,-0.596,8.825985e-05,-3.930113054,-8.984656596999999,9e-06,0.41235,2.5191,0.0015000000000000568,-0.0047999999999999154,0.0015999999999998238,-0.00427686271620048,-0.0038184119816524476,-0.0052491801103703994
149550000000.0,2,-0.48456618979999994,0.4702484808,0.5749442762,0.16749,-0.2209,-0.59733,0.00422666615,-3.9494321544999997,-8.976222878,0.000471,0.4145,2.5126,0.0012999999999998568,-0.0047000000000001485,0.0015000000000000568,-0.003927898827997545,-0.00230353067032274,-0.004427689919522859
149550000000.0,2,-0.5782981505,0.41862627519999995,0.48567434125,-0.039552,-0.22027,-0.58595,0.007433440699999999,-3.9507070189999998,-8.975634478999998,0.000828,0.41464,2.5062,0.0014000000000000679,-0.0046999999999999265,0.0015000000000000568,-0.0065464905127650685,-0.0017110513663722848,-0.004748546421706468
149550000000.0,2,-0.7599761483999999,0.42783471954999996,0.3314451567,-0.23139,-0.17397,-0.55434,0.0125328987,-3.9338395809999995,-8.983087532999999,0.001395,0.41276,2.5,0.0012000000000000899,-0.0046999999999999265,0.0016000000000000458,-0.005534333500769595,-0.003938906239604023,-0.005166412155035882
149550000000.0,2,-0.9809591994999999,0.506611539,0.353431666,-0.34811,-0.063313,-0.50669,0.014925721299999998,-3.9015757024999997,-8.997111042499998,0.001659,0.40917,2.4948,0.0011999999999998678,-0.0045999999999999375,0.0012999999999998568,-0.0059418660973653,-0.0008653703583794137,-0.0051310732448767715
149550000000.0,2,-1.187977581,0.589183532,0.54747584955,-0.37507,0.072177,-0.44613,0.036225765099999994,-3.867938893,-9.011526817999998,0.00402,0.40543,2.4897,0.0013000000000000789,-0.0046000000000001595,0.0013000000000000789,-0.005750820240994381,-0.0014311018698429656,-0.00618723087340689
149550000000.0,2,-1.2821214209999998,0.6572711029499999,0.73103672425,-0.32544,0.18252,-0.38006,0.06567513505,-3.8367537459999994,-9.024667728999999,0.007278,0.40198,2.4854,0.0014000000000000679,-0.0047999999999999154,0.0009999999999998899,-0.007049912811360637,-0.001893035686380884,-0.0037113372886776186
149550000000.0,2,-1.232303639,0.6331663572499999,0.90508514845,-0.23046,0.22324,-0.3202,0.0983214729,-3.813413919,-9.034278246,0.010883,0.39939,2.4818,0.0007999999999999119,-0.0045999999999999375,0.000700000000000145,0.0023813144691067767,-0.0005296702742256798,-0.008579977452772336
149550000000.0,2,-1.062648594,0.5221256593,1.0056719575,-0.14791,0.16178,-0.28365,0.12601545249999999,-3.7980174785,-9.0404564355,0.013938,0.39769,2.4787,0.0009999999999998899,-0.0047000000000001485,0.0005999999999999339,0.000818675205931152,-0.0005913025968755647,-0.006135470307372826
149550000000.0,2,-0.8170606580499999,0.36770034175,0.9163431826499999,-0.091479,0.021707,-0.2705,0.1417453191,-3.788112762,-9.0443790955,0.015671,0.3966,2.4758,0.0008000000000001339,-0.0047999999999999154,0.0006999999999999229,0.0028067729702517252,0.0016425386529121955,-0.00618872594676928
149550000000.0,2,-0.5755326752,0.19478948894999998,0.8192181210499999,-0.048915,-0.12995,-0.27656,0.14367722915,-3.7823268384999995,-9.0467326915,0.01588,0.39596,2.4728,0.0010999999999998789,-0.0046999999999999265,0.000400000000000178,0.0020729168645254314,0.00041622041285127587,-0.004277320871637846
149550000000.0,2,-0.4792313722,0.06332153905,0.8775971085,-0.035979,-0.26432,-0.30082,0.1175621202,-3.7875243629999997,-9.0449674945,0.012996,0.39653,2.4703,0.0008000000000001339,-0.0047000000000001485,0.00029999999999996696,0.003051178478712724,-0.0029876059023867807,-0.0036936441631305605
149550000000.0,2,-0.45389098859999993,-0.053044169849999996,0.8095095375499999,-0.043951,-0.34521,-0.32952,0.0999886034,-3.7834055699999993,-9.046928824499998,0.011052,0.39607,2.4668,0.0005999999999999339,-0.0046999999999999265,9.999999999998899e-05,0.005859988146098671,-0.001631052437321312,-0.003290081446102877
149550000000.0,2,-0.4871747587,-0.18162896464999997,0.7243191689999999,-0.038692,-0.35272,-0.32629,0.08031646349999999,-3.779286777,-9.048792087999999,0.008875,0.39562,2.4633,0.0007999999999999119,-0.0045999999999999375,0.00019999999999997797,0.003603357664180018,-0.0022091898483262984,-0.0028717743121269845
149550000000.0,2,-0.6380991022,-0.20343895424999997,0.9041044834499999,-0.020216,-0.29642,-0.30394,0.06363535185,-3.7769331809999995,-9.049968886,0.007032,0.39536,2.4599,0.000600000000000156,-0.0046000000000001595,9.999999999998899e-05,0.0035081754443958557,-0.002484230697973322,-0.0013493055652366026
149550000000.0,2,-0.66847029725,-0.21751149699999997,1.0057700239999998,-0.020764,-0.21868,-0.27629,0.0332641568,-3.7908586239999997,-9.044281028999999,0.003677,0.3969,2.4577,0.0005999999999999339,-0.0045999999999999375,9.999999999998899e-05,0.0004961247406554681,-0.0008938039197472492,-0.003232782345559626
149550000000.0,2,-0.6643122776499999,-0.2601508112,0.9342893521499999,-0.036302,-0.15038,-0.26043,0.0282039254,-3.7878185624999996,-9.0455558935,0.003118,0.39657,2.4548,0.0007999999999999119,-0.0046999999999999265,9.999999999998899e-05,-0.0003145345751318085,-0.0009277517546995018,-0.002717431934096848
149550000000.0,2,-0.6594187592999999,-0.26403424459999997,0.8888551426999999,-0.057241,-0.10438,-0.26695,0.0279489525,-3.7831113705,-9.0475172235,0.003089,0.39604,2.452,0.000500000000000167,-0.0048000000000001375,-0.00019999999999997797,-0.0011169659894756379,0.0025111432682125567,-0.0032547706973626855
149550000000.0,2,-0.6056390907,-0.26588770145,0.84422507855,-0.085921,-0.10518,-0.29368,0.02939053005,-3.775952516,-9.050459218499999,0.003247,0.39525,2.4489,0.00039999999999995595,-0.0046999999999999265,-0.00019999999999997797,0.0012159246603629104,0.0026836999736714606,-0.004994985616376457
149550000000.0,2,-0.5212626740999999,-0.26533852905,0.71354166065,-0.12322,-0.12724,-0.33103,0.012493672099999999,-3.7819345724999995,-9.0481056225,0.001381,0.39591,2.4461,0.0004999999999999449,-0.004999999999999893,-0.00029999999999996696,0.001546259248110582,0.0028438611080094933,-0.0035035127732926385
149550000000.0,2,-0.49313720189999993,-0.32506102755,0.6110621681499999,-0.15418,-0.14826,-0.35987,0.012797678249999998,-3.7685975285,-9.053597346499998,0.001414,0.39444,2.4423,0.00019999999999997797,-0.0048000000000001375,-0.00019999999999997797,-0.002676502725402874,0.0003662245464730596,-0.005114596685614425
149550000000.0,2,-0.49151910465,-0.39709087179999997,0.57783723795,-0.17434,-0.14807,-0.38339,0.0135724036,-3.7531030215,-9.060069735499999,0.001498,0.39273,2.4382,0.000500000000000167,-0.005099999999999882,-0.000500000000000167,-7.646869124999789e-05,0.0006768573310846904,-0.0017943905041701846
149550000000.0,2,-0.53474681785,-0.47498509274999995,0.5499177054,-0.17522,-0.12675,-0.38663,0.01611232595,-3.7370201155,-9.066640191,0.001777,0.39095,2.434,0.00019999999999997797,-0.0050000000000001155,-0.00039999999999995595,0.0008051027563374391,0.0011846012581948617,-0.0035878207658592287
149550000000.0,2,-0.565059173,-0.5391500037,0.529166834,-0.1568,-0.089651,-0.37382,0.0030204482,-3.7427079725,-9.064384661499998,0.000333,0.39158,2.4307,9.999999999998899e-05,-0.005099999999999882,-0.00039999999999995595,0.0012259321472943285,0.0005543368207174826,-0.002953528515052206
149550000000.0,2,-0.58303476245,-0.58891875245,0.58299553585,-0.12235,-0.038806,-0.35463,0.01171894675,-3.7308419259999996,-9.0692879865,0.001292,0.39027,2.4268,9.999999999998899e-05,-0.005300000000000082,-0.0006999999999999229,0.0006572045642079805,-0.001003774539069413,-0.0032766019355567333
149550000000.0,2,-0.5815735716,-0.63295061095,0.6490727435499999,-0.092164,0.012075,-0.33546,0.024320492,-3.7218198080000002,-9.072916446999999,0.002681,0.38927,2.4231,9.999999999998899e-05,-0.005300000000000082,-0.000600000000000156,0.0015130113707650938,-0.00011239471107993282,-0.0036414725609279497
149550000000.0,2,-0.5460931119,-0.70883446865,0.6985080661999999,-0.074982,0.043871,-0.30666,0.039412926349999995,-3.714562887,-9.075858442,0.004343,0.38848,2.4197,-0.00019999999999997797,-0.00529999999999986,-0.0007999999999999119,0.0001108856044576556,0.0011508147826104764,-0.0038446288078992086
149550000000.0,2,-0.45016446159999995,-0.7914554949,0.73674419455,-0.064383,0.045852,-0.27459,0.03851071455,-3.7413350414999997,-9.064874993999998,0.004249,0.39143,2.4173,-9.999999999998899e-05,-0.005400000000000071,-0.0006999999999999229,0.0011362276313770514,0.0007285918113033585,-0.0033170208340508878
149550000000.0,2,-0.37044620375,-0.9351719506499999,0.8009483320999999,-0.058442,0.004218,-0.24889,0.04947454925,-3.735745251,-9.067032457,0.005457,0.39082,2.4146,-9.999999999998899e-05,-0.005600000000000049,-0.0008000000000001339,0.002694072542138992,-0.0002680705148574436,-0.004070999897060001
149550000000.0,2,-0.24972634225,-1.0592162664999998,0.80437085295,-0.046201,-0.058766,-0.23702,0.0546034272,-3.731038059,-9.068993787,0.006021,0.39029,2.412,-0.000400000000000178,-0.005600000000000049,-0.0008999999999999009,0.0031506311638791473,0.0013120471414924673,-0.004285246609225912
149550000000.0,2,-0.116503002,-1.1747386034999998,0.8266711750499999,-0.027585,-0.125,-0.22512,0.05320107625,-3.728096064,-9.070170585,0.005866,0.38997,2.4095,-0.00019999999999997797,-0.005699999999999816,-0.0008000000000001339,-0.00040062205587160227,-0.0013466729334186134,-0.0030406709761727213
149550000000.0,2,-0.08018897705,-1.221712457,0.8498148690499999,-0.019505,-0.18052,-0.20044,0.04262950755,-3.7738931195,-9.051341816999999,0.004709,0.39503,2.4074,-0.00039999999999995595,-0.005900000000000016,-0.0006999999999999229,0.001294850382078494,-0.0007589304712558587,-0.003543234587927213
149550000000.0,2,-0.08420970354999999,-1.3125220359999998,0.8673295459499999,-0.017594,-0.19973,-0.18653,0.0319892923,-3.772225989,-9.0520282825,0.003534,0.39484,2.4053,-0.0004999999999999449,-0.005800000000000027,-0.001000000000000112,0.0010050439724458293,-0.0019814397680557594,-0.0020399329235099017
149550000000.0,2,-0.0755504316,-1.3812666525,0.8386647079999999,-0.010059,-0.18276,-0.17267,0.0215354034,-3.771049191,-9.052518615,0.002378,0.39471,2.4034,-0.00029999999999996696,-0.006000000000000005,-0.0009999999999998899,-0.000989892730154096,-0.00131620820482925,-0.0012148429181090825
149550000000.0,2,-0.16374163505,-1.350571838,0.831800053,0.021136,-0.13296,-0.14389,0.013954862949999999,-3.7721279224999997,-9.052126349,0.001541,0.39483,2.4018,-0.000500000000000167,-0.006299999999999972,-0.0008999999999999009,0.0016360616072170209,-0.0021315045711962632,-0.003753992631668812
149550000000.0,2,-0.26547582215,-1.2406392915,0.7999970870499999,0.07806,-0.077014,-0.10756,0.00032361945,-3.825770298,-9.029571054,3.6e-05,0.40076,2.4009,-0.0004999999999999449,-0.006299999999999972,-0.0009000000000001229,0.001585773436978577,6.135704149912158e-05,-0.0024558756138804427
149550000000.0,2,-0.3295426666,-1.206806349,0.7749705162499999,0.13573,-0.047689,-0.07229,-0.0014513841999999999,-3.8367537459999994,-9.0249619285,-0.000161,0.40198,2.4001,-0.0005999999999999339,-0.006600000000000161,-0.0009999999999998899,-0.0013809500826133525,0.0007343016292225002,-0.002261130117649779
149550000000.0,2,-0.3557264221,-1.1964112999999998,0.6703237540999999,0.18896,-0.056663,-0.061508,-0.00385401345,-3.8526405189999995,-9.018195339999998,-0.000428,0.40374,2.3994,-0.0004999999999999449,-0.006699999999999928,-0.0009000000000001229,-0.0005103077809189283,0.00265345047051202,-0.0017800795643854728
149550000000.0,2,-0.27343882195,-1.2167110655,0.52115480095,0.24004,-0.081578,-0.075252,-0.0078845466,-3.8732344839999997,-9.009369354999999,-0.000875,0.40603,2.3986,-0.000700000000000145,-0.006899999999999906,-0.0010999999999998789,0.00014829757459700055,0.0003214834534401856,-0.0025674466608071045
149550000000.0,2,-0.18360010129999998,-1.1986668295,0.46139307585,0.28907,-0.11394,-0.099637,-0.020505705149999998,-3.9391351719999994,-8.980733937,-0.002283,0.41335,2.3979,-0.0005999999999999339,-0.007100000000000106,-0.001100000000000101,-0.0011158887439391418,-0.000620859246409422,-0.0024542227101874148
149550000000.0,2,-0.13857777114999997,-1.2457387495,0.45213559825,0.3072,-0.13218,-0.12626,-0.02737036015,-3.966593792,-8.968573691,-0.003052,0.41641,2.3966,-0.0006999999999999229,-0.007199999999999873,-0.001100000000000101,-0.00029485943079748944,0.0011141798208507137,-0.0013145645966984865
149550000000.0,2,-0.06501808949999999,-1.3446878479999997,0.36195364485,0.29123,-0.13736,-0.14122,-0.0343428883,-3.9933659465,-8.9567076445,-0.003835,0.4194,2.3951,-0.000700000000000145,-0.007500000000000062,-0.0009999999999998899,-0.00032223434847172827,2.518470702184139e-05,-0.0012179226786608877
149550000000.0,2,-0.05122013295,-1.4153937945000001,0.22202255599999998,0.24882,-0.10185,-0.13816,-0.0387166542,-4.01680384,-8.946214528999999,-0.004328,0.42201,2.3936,-0.0008999999999999009,-0.007600000000000051,-0.001100000000000101,-0.003047251990179023,0.0014377343727927094,-3.364085399698569e-05
149550000000.0,2,-0.11428669909999999,-1.4006838195,0.06675386655,0.20985,-0.037629,-0.11911,-0.0423843413,-4.074466942,-8.920030773499999,-0.004752,0.42847,2.3924,-0.0009000000000001229,-0.007800000000000029,-0.0010999999999998789,0.0007520183751154041,-0.0005328545777620874,-0.001558787602401579
149550000000.0,2,-0.17777495119999998,-1.3922501005,-0.07952212485,0.18143,0.030771,-0.087254,-0.03725546335,-4.09133438,-8.912381586499999,-0.00418,0.43036,2.3913,-0.0008999999999999009,-0.007800000000000029,-0.0009000000000001229,-0.0032080339445789696,-0.001341912206654694,-0.0013456487332419997
149550000000.0,2,-0.1914846479,-1.3516505695,-0.3477045824,0.18165,0.081879,-0.049985,-0.02862561135,-4.107417286,-8.905026599,-0.003215,0.43217,2.3907,-0.001000000000000112,-0.008099999999999996,-0.0009999999999998899,-0.0037227164605619367,0.0011441490731309845,-0.0004403042986365624
149550000000.0,2,-0.22421924559999998,-1.2276945135,-0.5674323822999999,0.21369,0.1146,-0.003022,-0.0184953419,-4.125755721499999,-8.8964948135,-0.002079,0.43422,2.3905,-0.0009999999999998899,-0.008199999999999985,-0.0008999999999999009,-0.001808976161464415,0.00037024480262104476,-0.001687421782042564
149550000000.0,2,-0.2515601858,-1.0902052805,-0.7345769248999999,0.25088,0.12171,0.038659,-0.0088063717,-4.1473303515,-8.8864920305,-0.000991,0.43665,2.3909,-0.001100000000000101,-0.008499999999999952,-0.001100000000000101,-0.004481307140491053,-0.000563934470940497,-0.0016995511252660411
149550000000.0,2,-0.23051511489999998,-0.96710240305,-0.9608163403999999,0.29544,0.11704,0.081441,-0.0012748644999999999,-4.172533442,-8.8747240505,-0.000143,0.43949,2.3916,-0.0011999999999998678,-0.008599999999999941,-0.0008999999999999009,-0.0023225978309741047,0.00040149824307977866,-0.001832853089863029
149550000000.0,2,-0.27000649444999997,-0.8239841529499999,-1.143259257,0.3583,0.12926,0.11996,0.0050013915,-4.202737924,-8.8604063415,0.000564,0.4429,2.3929,-0.0012000000000000899,-0.00890000000000013,-0.0009000000000001229,-6.004993867492203e-05,-0.002354190239802989,-0.0013022128377608855
149550000000.0,2,-0.3481753016,-0.6439242522999999,-1.1892524455,0.43746,0.17121,0.14564,0.01328801075,-4.239807061,-8.8427543715,0.001502,0.44709,2.3944,-0.0012999999999998568,-0.008899999999999908,-0.0007999999999999119,-0.0028127589813158327,0.0009302388384242466,-0.0005019077600055821
149550000000.0,2,-0.39654169939999995,-0.49846221285,-1.2472097469999999,0.51565,0.22595,0.17236,0.02499715085,-4.2836427865,-8.821572007499999,0.002833,0.45205,2.3962,-0.0012000000000000899,-0.009200000000000097,-0.000700000000000145,-0.0014527264179345911,-0.0032358724070911116,9.934531014865744e-05
149550000000.0,2,-0.39564929424999995,-0.47067997339999995,-1.3432168505,0.59054,0.27431,0.20763,0.03966789925,-4.334147034,-8.796761183,0.004509,0.45779,2.3984,-0.0012000000000000899,-0.009299999999999864,-0.0005999999999999339,-0.0019639019093246057,-0.0014885251222125362,0.0007004971811195304
149550000000.0,2,-0.31621542925,-0.5469364838,-1.3859738445,0.64278,0.29409,0.24825,0.0547995602,-4.3899468724999995,-8.7690083635,0.006249,0.46413,2.401,-0.0013999999999998458,-0.009200000000000097,-0.00039999999999995595,-0.003388238429838153,-3.046433629538825e-05,0.0014122547429897825
149550000000.0,2,-0.18814058025,-0.67513881925,-1.5164022894999998,0.65524,0.27689,0.28886,0.06708729264999999,-4.4474138415,-8.739980679499999,0.007676,0.4707,2.4041,-0.0012000000000000899,-0.009479999999999933,-0.00029999999999996696,-0.001822526498617305,-0.0012539615777038549,0.0010644832979915253
149550000000.0,2,-0.022290515449999996,-0.8428815675,-1.7249897349999999,0.65371,0.23745,0.31988,0.0746678331,-4.504684677499999,-8.710462663,0.008572,0.47727,2.4076,-0.0013000000000000789,-0.00947000000000009,9.999999999998899e-05,-0.004046856662669296,-0.0022417979406481603,0.0011749083331616395
149550000000.0,2,0.15556288894999998,-0.9557168824,-1.7992260754999998,0.64356,0.17784,0.33384,0.0765310966,-4.561269048,-8.6809446465,0.008816,0.48377,2.4113,-0.0013999999999998458,-0.009439999999999893,-9.999999999998899e-05,-0.004994131000226665,-0.0015013257774751931,0.002951609375178077
149550000000.0,2,0.3236390633,-0.9931194455,-1.8347261485,0.59171,0.089839,0.32003,0.07140221865,-4.6143230245,-8.652995694,0.008252,0.48989,2.4149,-0.0014000000000000679,-0.009600000000000053,0.00039999999999995595,-0.00382592340487925,-0.001931521835447425,0.0025381037947724283
149550000000.0,2,0.46530592919999997,-0.91567633045,-1.9504446185,0.48324,-0.020055,0.28695,0.05842802069999999,-4.658747149,-8.6291655345,0.006771,0.49504,2.4182,-0.0013000000000000789,-0.009589999999999987,0.00039999999999995595,-0.005798510220519915,-0.004630608740093356,0.003062035925513129
149550000000.0,2,0.4608144834999999,-0.6557706855,-2.08097113,0.34401,-0.11689,0.23671,0.03853032785,-4.691501359999999,-8.6115135645,0.004474,0.49883,2.421,-0.0012999999999998568,-0.009530000000000038,0.0007999999999999119,-0.007435743847995335,-0.0029525014721187848,0.004471805227242054
149550000000.0,2,0.29982851709999997,-0.23774261594999999,-2.078813667,0.21164,-0.15199,0.19385,0.0162005858,-4.712585657499999,-8.6001378505,0.001884,0.50128,2.4233,-0.0016000000000000458,-0.009669999999999956,0.001000000000000112,-0.0037414938994699276,-0.0019281637316079792,0.0028855665685109666
149550000000.0,2,0.041119283449999995,0.30462396895,-1.9295564539999999,0.099941,-0.11589,0.18612,-0.0035598139499999995,-4.723471039,-8.594155794,-0.000415,0.50254,2.4255,-0.0012000000000000899,-0.009780000000000011,0.001100000000000101,-0.007569369915359225,-0.002622282325387859,0.004956653508199238
149550000000.0,2,-0.27166381829999997,0.8951313986999999,-1.7554884165,0.043951,-0.021701,0.22535,-0.017730423199999998,-4.727982098,-8.5917041315,-0.002064,0.50307,2.4279,-0.0013999999999998458,-0.009770000000000056,0.0011999999999998678,-0.0060217907102158574,-0.0016092150489055435,0.0043785364624592815
149550000000.0,2,-0.5071803247,1.273295436,-1.4344186955,0.072422,0.1293,0.29348,-0.0415409694,-4.6766933185,-8.619653084,-0.00482,0.49711,2.432,-0.0012000000000000899,-0.009959999999999969,0.0015000000000000568,-0.007053633203344012,-0.0015666896375252648,0.0037358988099614465
149550000000.0,2,-0.6039425402499999,1.5376827199999998,-0.96365046225,0.18207,0.28389,0.37665,-0.036951457199999996,-4.6896380964999995,-8.612592295999999,-0.004291,0.49862,2.4361,-0.0015000000000000568,-0.009979999999999989,0.0016000000000000458,-0.004213249816056808,0.0010519991890580727,0.003158847688277844
149550000000.0,2,-0.5827503695999999,1.7207728754999998,-0.44832081139999996,0.29871,0.36279,0.43542,-0.02672312125,-4.71307599,-8.599843651,-0.003107,0.50133,2.4409,-0.0011999999999998678,-0.010059999999999958,0.0018000000000000238,-0.005441764446538266,0.000911130921506409,0.001551479039410275
149550000000.0,2,-0.2619944614,1.7620588719999999,-0.15056149745,0.34095,0.31022,0.43879,-0.019024901,-4.742005607499999,-8.583956877999999,-0.002216,0.5047,2.446,-0.0013000000000000789,-0.010029999999999983,0.0016999999999998128,-0.0018535026130727106,0.004021655498907206,0.0009876872988126006
149550000000.0,2,0.18550259139999997,1.639868013,-0.10779469679999999,0.29504,0.14549,0.38776,-0.0195544601,-4.7541658535,-8.577190289499999,-0.00228,0.50612,2.4505,-0.0014000000000000679,-0.00992000000000004,0.0019000000000000128,-0.0008028098832438268,0.000983192700557245,0.001598427154822113
149550000000.0,2,0.55505639,1.5251302079999998,-0.1383718315,0.17121,-0.057984,0.28864,-0.03521568015,-4.771719757,-8.5673836395,-0.004111,0.50817,2.4541,-0.0013999999999998458,-0.00985999999999998,0.0020000000000000018,-0.001488499012965494,0.0004009169647214428,0.002067690576277148
