Time,placement_label,user_acc_x(m/s^2),user_acc_y(m/s^2),user_acc_z(m/s^2),rotation_rate_x(rad/s),rotation_rate_y(rad/s),rotation_rate_z(rad/s),gravity_x(m/s^2),gravity_y(m/s^2),gravity_z(m/s^2),attitude_roll(rad),attitude_pitch(rad),attitude_yaw(rad),target_delta_x,target_delta_y,target_delta_z,target_delta_roll,target_delta_pitch,target_delta_yaw
149560000000.0,2,0.15760267214999998,-0.23715421694999997,0.11106031124999999,-0.060893,-0.10921,-0.02201,-0.03849110124999999,-3.7682052624999995,-9.053695413,-0.004251,0.3944,-0.6505,0.0,0.0,0.0,0.0,0.0,0.0
149560000000.0,2,0.17694138595,-0.1876600544,0.11701294779999999,-0.019666,-0.1692,-0.041046,-0.05139665265,-3.7656555335,-9.054676078,-0.005676,0.39411,-0.65091,-4.999999999988347e-05,-0.00039999999999995595,-0.00020000000000020002,0.002368184678050611,-0.0007553813265110954,0.0010778490589552214
149560000000.0,2,0.1309580041,-0.1347041444,0.18612041035,0.001589,-0.17897,-0.039924,-0.06616546755,-3.7654594004999997,-9.054676078,-0.007307,0.39409,-0.65136,-5.0000000000105516e-05,-0.000400000000000178,-9.999999999998899e-05,0.0022551090879381896,-0.00019195661735693648,0.0015965769964560173
149560000000.0,2,0.05053366744999999,-0.09973363049999999,0.18832690659999998,-0.001305,-0.13633,-0.030404,-0.07716852884999999,-3.7703627254999996,-9.052518615,-0.008524,0.39463,-0.65176,5.0000000000105516e-05,-0.00029999999999996696,-9.999999999998899e-05,0.001538111143040033,-0.00012722964106703927,0.0009251855353514804
149560000000.0,2,-0.03475476759999999,-0.08880902239999999,0.1406665876,-0.031705,-0.059369,-0.015649,-0.0836114979,-3.7683033289999996,-9.053401213499999,-0.009235,0.3944,-0.65198,4.999999999988347e-05,-0.00029999999999996696,-9.999999999998899e-05,0.000671745784672384,-0.0007840918357930882,0.00030473067378558594
149560000000.0,2,-0.07458937989999999,-0.0634686388,0.09120184499999999,-0.078157,0.015583,0.005486,-0.08387627745,-3.7623212724999995,-9.055852876,-0.009262,0.39375,-0.65199,-2.4999999999941735e-05,-0.00019999999999997797,-9.999999999998899e-05,0.0011529039365206772,0.0004072421691507788,0.0005357448805144993
149560000000.0,2,-0.07020580735,-0.055289892699999996,0.0167497582,-0.1172,0.080888,0.023449,-0.0786885596,-3.7525146224999997,-9.059971669,-0.008685,0.39267,-0.6518,-2.4999999999941735e-05,-0.00019999999999997797,-5.0000000000105516e-05,-0.0002920113902450394,0.0005879682378753248,-0.0001925750854146202
149560000000.0,2,-0.04351210605,-0.051788918649999995,-0.03831458155,-0.13924,0.1354,0.038262,-0.0697645081,-3.7407466425,-9.064874993999998,-0.007696,0.39137,-0.65139,-2.500000000016378e-05,-0.00029999999999996696,-4.999999999988347e-05,-0.0010101522182838218,0.0006554988080096358,-0.00020004960541566974
149560000000.0,2,-0.053573728949999996,-0.0212412039,-0.034078108749999995,-0.14341,0.1546,0.047828,-0.0576042621,-3.7278018645,-9.070366717999999,-0.006351,0.38993,-0.6509,-2.4999999999941735e-05,-0.00019999999999997797,-4.999999999988347e-05,-5.0437633353772604e-05,0.0008709708493410684,0.00021399332269481097
149560000000.0,2,-0.015494507,0.0214765635,-0.0057859235,-0.13194,0.11828,0.043643,-0.04765051234999999,-3.714366754,-9.075858442,-0.005251,0.38846,-0.65041,-5.0000000000105516e-05,-9.999999999998899e-05,-5.0000000000105516e-05,0.0002283655668095519,0.0007675392827464211,-3.7150826996790176e-05
149560000000.0,2,0.05712373625,0.04262950755,-0.04302177355,-0.091911,0.047635,0.033163,-0.042904093750000004,-3.7048543035,-9.079781102,-0.004725,0.38741,-0.65003,-4.999999999988347e-05,-0.00019999999999997797,-0.00019999999999997797,3.235302025261788e-05,0.00023803615837469927,-3.514246639646501e-05
149560000000.0,2,0.1397447625,0.07183371125,-0.06742071875,-0.038101,-0.030593,0.029125,-0.04502233014999999,-3.700049045,-9.081742432,-0.004958,0.38688,-0.64971,-9.999999999998899e-05,-0.00020000000000020002,-9.999999999998899e-05,0.00024436005925515536,4.740474784181714e-05,0.0007843399565015674
149560000000.0,2,0.1654185722,0.09441842619999999,0.0037363336499999997,0.006298,-0.087426,0.020763,-0.052740163699999995,-3.6997548455,-9.081840498499998,-0.005807,0.38685,-0.64946,-9.999999999998899e-05,-9.999999999998899e-05,-9.999999999998899e-05,0.0003982562578278559,0.0002995879907652377,0.0010535380563157781
149560000000.0,2,0.15831855759999997,0.085513988,0.02689964095,0.028599,-0.10783,0.00802,-0.058065174649999995,-3.7001471114999998,-9.081644365499999,-0.006393,0.38689,-0.64952,-9.999999999998899e-05,-9.999999999998899e-05,-9.999999999998899e-05,0.000680443993835933,-0.00040553822440436704,0.0007424788832046947
149560000000.0,2,0.1258977727,0.07087265955,0.047071919999999996,0.021296,-0.091781,0.000508,-0.06694019289999999,-3.7023045744999994,-9.080663700499999,-0.007372,0.38713,-0.64949,-9.999999999998899e-05,-9.999999999998899e-05,-9.999999999998899e-05,-0.0004317667945755721,-0.0003052690833167393,0.0006419363398941502
149560000000.0,2,0.07458937989999999,0.03411733535,0.09933155785,-0.008334,-0.060632,0.001464,-0.07114724574999999,-3.7025007074999996,-9.080565634,-0.007835,0.38715,-0.64957,-9.999999999998899e-05,-9.999999999998899e-05,-9.999999999998899e-05,-0.0009796440629097902,-3.1033852711637167e-05,-7.963450830086871e-05
149560000000.0,2,0.03264633785,-0.02740958675,0.1107955317,-0.032565,-0.016752,0.010948,-0.0731968356,-3.7019123085,-9.0808598335,-0.008061,0.38708,-0.64952,-9.999999999998899e-05,-9.999999999998899e-05,-9.999999999998899e-05,-0.00027564523281292663,0.0001580802273113413,-0.0002007354296044983
149560000000.0,2,-0.0009708583499999999,-0.07156893169999999,0.11447302544999999,-0.042834,0.04086,0.024703,-0.0714512519,-3.7009316434999997,-9.081154032999999,-0.007868,0.38698,-0.6493,-9.999999999998899e-05,-0.00019999999999997797,-9.999999999998899e-05,-0.0002179641064714577,-0.0005765247026816578,-0.00041782232635897976
149560000000.0,2,-0.043345393,-0.0604481906,0.19014113684999998,-0.042628,0.07281,0.036389,-0.06783259805,-3.700441311,-9.0814482325,-0.00747,0.38692,-0.64888,-0.00019999999999997797,-9.999999999998899e-05,-0.00019999999999997797,0.0005397535570688117,-4.166473063960119e-05,-0.0006689115316765859
149560000000.0,2,-0.06300772624999999,-0.039324666499999994,0.2146479552,-0.0383,0.081291,0.039586,-0.06374322499999999,-3.699852912,-9.081742432,-0.007018,0.38685,-0.64839,-0.00019999999999997797,-9.999999999998899e-05,-9.999999999998899e-05,0.00013757872303010732,0.000414765879990453,-0.0007350919169671899
149560000000.0,2,-0.02768417295,-0.056898183299999995,0.16762506845,-0.022373,0.06731,0.0343,-0.05910467955,-3.7003432445,-9.081546299,-0.006508,0.38691,-0.64797,-0.00019999999999997797,-1.999999999990898e-05,-9.999999999998899e-05,0.0001467820196520142,-0.00023970969131514863,-0.0005123625545211674
149560000000.0,2,0.02970434285,-0.0649004097,0.17370519145,-0.010869,0.027803,0.019442,-0.055593898850000004,-3.7024026409999995,-9.080761767,-0.006122,0.38714,-0.64776,-0.00020000000000020002,-2.0000000000131024e-05,-0.00010000000000021103,-0.0005057194485700856,-3.0502115170971678e-05,-0.00030045104156375957
149560000000.0,2,0.06589088135,-0.08581799415,0.20513550469999997,-0.016431,-0.017944,-0.006111,-0.0543680676,-3.70495237,-9.079683035499999,-0.005988,0.38742,-0.64783,-0.00019999999999997797,-1.999999999990898e-05,-0.00019999999999997797,7.609450520584815e-05,-0.001485032681826759,-0.00045639664106666977
149560000000.0,2,0.11932731719999999,-0.1088145884,0.14186299889999998,-0.019698,-0.045588,-0.034897,-0.0537796686,-3.707109833,-9.078800437,-0.005924,0.38766,-0.64826,-0.00019999999999997797,-2.0000000000131024e-05,-0.00019999999999997797,0.0013653534730292405,-0.0022952055136147287,0.0002705401941944796
149560000000.0,2,0.10954028049999999,-0.10676499855,0.10467618209999999,-0.023821,-0.046586,-0.063731,-0.05312262305,-3.7083846974999997,-9.0783101045,-0.005852,0.3878,-0.64899,-0.00019999999999997797,-1.999999999990898e-05,-0.00019999999999997797,0.0010364628709388923,-0.0020067760273831947,2.9183628038526033e-05
149560000000.0,2,0.04246279449999999,-0.05628036435,0.10045932259999998,-0.022591,-0.036988,-0.07976,-0.052946103349999996,-3.7084827639999998,-9.0783101045,-0.005832,0.38781,-0.64987,-9.999999999998899e-05,1.999999999990898e-05,-0.00019999999999997797,0.00048120075121738104,-0.0020177168172657023,0.000335407582088193
149560000000.0,2,-0.00018632635,0.010493115499999999,0.07906121229999999,-0.009523,-0.009381,-0.088326,-0.0512887795,-3.7076982320000003,-9.078604303999999,-0.00565,0.38773,-0.6508,-0.00019999999999997797,2.0000000000131024e-05,-0.00019999999999997797,0.000709628634996684,-0.0009252846902647605,-9.21315837764114e-05
149560000000.0,2,-0.05255383735,0.04221762824999999,0.09587961704999999,-0.002843,0.02679,-0.08624,-0.04755244585,-3.707305966,-9.078800437,-0.005238,0.38768,-0.6517,-0.00019999999999997797,1.999999999990898e-05,-0.00019999999999997797,0.0009810937006493603,-0.0002406035326267819,-0.00014441946046817034
149560000000.0,2,-0.07778634779999999,0.0423058881,0.11018751939999999,-0.007844,0.075833,-0.07459,-0.0405799177,-3.7068156334999998,-9.07899657,-0.00447,0.38762,-0.65247,-0.00019999999999997797,2.0000000000131024e-05,-0.00019999999999997797,0.000225062107427898,-0.0001213991360733413,-0.0005426492812750094
149560000000.0,2,-0.08435680329999999,0.00559959715,0.09890987189999999,-0.025656,0.12498,-0.060827,-0.029812216,-3.7055407689999997,-9.079584968999999,-0.003284,0.38748,-0.6531,-0.00019999999999997797,1.999999999990898e-05,-0.00019999999999997797,0.0005575791031615651,-0.0002444194611290751,-0.0007824222357782629
149560000000.0,2,-0.0661164343,-0.051249552899999995,0.07202003759999999,-0.046833,0.15071,-0.051301,-0.015886773,-3.7032852395,-9.0804675675,-0.001749,0.38724,-0.65362,-0.00019999999999997797,9.999999999998899e-05,-0.00019999999999997797,0.00024372423979840407,0.00034827884787613783,-0.0008399626455207476
149560000000.0,2,-0.03670629095,-0.0699802544,0.0823366334,-0.066131,0.14234,-0.044915,-0.0014513841999999999,-3.6996567789999997,-9.0820366315,-0.000159,0.38684,-0.65409,-0.00019999999999997797,0.00019999999999997797,-9.999999999998899e-05,0.00010210816983241555,-4.351553399883912e-05,-0.0009285607392711115
149560000000.0,2,0.01807365595,-0.065704555,0.0509749667,-0.077001,0.1126,-0.051288,0.01215043935,-3.694361188,-9.084096028,0.001338,0.38626,-0.65465,-0.000300000000000189,9.999999999998899e-05,-0.00010000000000021103,-0.0005973683473439184,0.00040599100535998467,-0.0005423640727906243
149560000000.0,2,0.0868673057,-0.07183371125,0.019848659600000002,-0.070803,0.077404,-0.066165,0.0246146915,-3.6891636635,-9.086253490999999,0.002709,0.38568,-0.65542,-0.00019999999999997797,0.00019999999999997797,-9.999999999998899e-05,-0.001135736581912683,0.0004894270606055073,-0.0005644343539648877
149560000000.0,2,0.12661365815,-0.03282285755,0.04270796075,-0.06262,0.028333,-0.073544,0.03409772205,-3.6840642055,-9.088312887499999,0.003752,0.38512,-0.65631,-0.00029999999999996696,9.999999999998899e-05,-9.999999999998899e-05,-0.00046581938097295383,-0.0007347011793759073,-0.0007743546508712507
149560000000.0,2,0.1297223662,0.0059918631499999995,0.027478233299999995,-0.045928,-0.01975,-0.074504,0.039216793349999994,-3.6794550799999994,-9.090176151,0.004314,0.38461,-0.65724,-0.00029999999999996696,0.00029999999999996696,-9.999999999998899e-05,0.0010107930252277186,0.0012314165309244007,-0.00047231415906262564
149560000000.0,2,0.11302164125,-0.00440318585,-0.0268898343,-0.01633,-0.056216,-0.077596,0.040207265,-3.6770034175,-9.091156816,0.004422,0.38434,-0.65818,-0.00029999999999996696,0.00020000000000020002,-9.999999999998899e-05,-1.0747268380184583e-05,0.0012908211222038002,-0.0006199465221829459
149560000000.0,2,0.07693316924999999,0.014543261949999999,-0.052210604599999995,0.027344,-0.066161,-0.079641,0.038893173899999994,-3.6777879494999994,-9.09076455,0.004278,0.38443,-0.6591,-0.00029999999999996696,9.999999999998899e-05,-9.999999999998899e-05,0.001011245603310118,1.0325159063739875e-05,-0.0009728330804424923
149560000000.0,2,0.03886375395,0.05473091365,0.00436395925,0.057238,-0.065336,-0.082795,0.03670629095,-3.6815144765,-9.0892935525,0.004038,0.38484,-0.66002,-0.00029999999999996696,0.00029999999999996696,-0.00019999999999997797,0.0009580128130211585,9.636694282688651e-05,-0.0003285529788910613
149560000000.0,2,0.03447037475,0.03256788465,0.0769233626,0.054066,-0.061047,-0.081742,0.0348136075,-3.6867120009999996,-9.087234156,0.003831,0.38541,-0.66095,-0.00020000000000020002,9.999999999998899e-05,-0.00019999999999997797,0.0005635749165330273,-0.001062618041688168,-0.0003573095801312487
149560000000.0,2,0.0423451147,-0.041384063,0.06069335685,0.028471,-0.055515,-0.074326,0.033224930199999995,-3.6913211265,-9.0853708925,0.003657,0.38592,-0.66181,-0.00019999999999997797,0.00019999999999997797,-9.999999999998899e-05,0.0011016787908102454,-0.0009687780172622507,-0.00016797383672351174
149560000000.0,2,0.05194582504999999,-0.10004744329999998,0.01728912395,-0.006683,-0.046703,-0.070136,0.0325973046,-3.6935766559999994,-9.0843902275,0.003589,0.38616,-0.66262,-0.00029999999999996696,0.00019999999999997797,-0.00019999999999997797,0.001240744233761193,-7.670344852761524e-05,-0.00017441059075073984
149560000000.0,2,0.061978028,-0.11423766584999999,0.03095959405,-0.042847,-0.031488,-0.067027,0.03319551025,-3.6926940575,-9.0847824935,0.003654,0.38607,-0.6634,-0.00029999999999996696,0.00019999999999997797,-0.00019999999999997797,0.002137185635256833,-1.0132970989618073e-05,-0.0005807911924282094
149560000000.0,2,0.045610729149999994,-0.09147643119999999,0.030881140849999995,-0.067289,-0.020629,-0.068158,0.0344409548,-3.6888694639999997,-9.086351557499999,0.003791,0.38564,-0.66417,-0.00029999999999996696,0.00019999999999997797,-0.00029999999999996696,0.0020365840340463293,-0.00029562949420069984,-0.0005868091003431164
149560000000.0,2,0.029792602699999997,-0.08022820365,0.0303221618,-0.080938,0.005061,-0.070364,0.03754966285,-3.683181607,-9.088607087,0.004131,0.38502,-0.66493,-0.00019999999999997797,0.00019999999999997797,-0.00019999999999997797,0.0010680143376252116,-0.0007015846082678578,-0.000708996683306512
149560000000.0,2,-0.011611073599999999,-0.069431082,0.07450112005,-0.091386,0.027532,-0.077893,0.04213917504999999,-3.6767092179999996,-9.0912548825,0.004635,0.38431,-0.66575,-0.00029999999999996696,0.00029999999999996696,-0.00010000000000021103,0.0002752430292595198,0.00020941756719983218,-0.000337296382571739
149560000000.0,2,-0.01828940225,-0.08105196225,0.0839645373,-0.10724,0.04365,-0.082218,0.0485233042,-3.6691580974999995,-9.094294944,0.005335,0.38348,-0.6666,-0.00019999999999997797,0.000300000000000189,-4.999999999988347e-05,-0.0006527610677832252,1.967505713751372e-05,-0.0003582113180723434
149560000000.0,2,-0.033440676499999995,-0.12560357319999998,0.042178401649999996,-0.1295,0.054497,-0.090814,0.0560351981,-3.660234046,-9.097825338,0.006159,0.3825,-0.66752,-0.000400000000000178,0.00029999999999996696,-5.0000000000105516e-05,-0.0011012285342059669,0.0005795325262780704,-0.0008625941135023685
149560000000.0,2,-0.027801852749999998,-0.14444214785,0.016131939249999998,-0.13914,0.049247,-0.090821,0.06371380505,-3.6500351299999996,-9.1018460645,0.007,0.38138,-0.66848,-0.00029999999999996696,0.00019999999999997797,-9.999999999998899e-05,-0.0004776683055296438,-0.00048697394207208866,-0.0012774699258521205
149560000000.0,2,0.043551332649999996,-0.1429025038,0.0166909183,-0.13397,0.03215,-0.084381,0.07137279869999999,-3.6399342805,-9.105866791,0.007838,0.38027,-0.66945,-0.00019999999999997797,0.00029999999999996696,-9.999999999998899e-05,0.00027074531399806645,-0.0006188694071469492,-0.0012490207879321535
149560000000.0,2,0.07458937989999999,-0.1357436493,0.03592175895,-0.114,0.004264,-0.067222,0.07669780964999999,-3.631402495,-9.109201052,0.00842,0.37933,-0.67027,-0.00029999999999996696,0.00019999999999997797,-0.00029999999999996696,0.00436674375434315,0.00198275576693252,-0.0007808202143631815
149560000000.0,2,0.11698352784999999,-0.1282317554,0.06963702164999999,-0.08228,-0.026906,-0.057511,0.07948289824999999,-3.6256165714999997,-9.111456581499999,0.008724,0.37869,-0.671,-0.00029999999999996696,0.00029999999999996696,-0.0001500000000000945,-0.0019651705800859953,8.274160121790608e-05,-0.0005560455271912956
149560000000.0,2,0.12324997719999999,-0.10239123265,0.0811009955,-0.03542,-0.039008,-0.058482,0.08070872949999999,-3.6234591084999996,-9.11233918,0.008857,0.37846,-0.67171,-0.00019999999999997797,9.999999999998899e-05,-0.00014999999999987246,0.0030567544148492054,0.00047901993026711054,-0.00078898107684508
149560000000.0,2,0.0847098427,-0.04534594959999999,0.1306638046,0.012551,-0.050047,-0.066923,0.08033607679999999,-3.6252243054999997,-9.1116527145,0.008817,0.37866,-0.67248,-0.00019999999999997797,0.00019999999999997797,-0.00029999999999996696,0.0030957541375173925,0.00010717394712078665,-0.0010965606467438216
149560000000.0,2,0.04534594959999999,-0.016671304999999997,0.1726951065,0.040312,-0.056654,-0.080741,0.07885527264999999,-3.629833431,-9.109789451,0.008656,0.37916,-0.67334,-0.00020000000000020002,0.00019999999999997797,-0.00019999999999997797,0.0027799816066685357,0.001044156356696746,-0.0006671316325934096
149560000000.0,2,0.03874607415,-0.06309598609999999,0.12172013979999999,0.047825,-0.05777,-0.090335,0.077668668,-3.636109687,-9.107337788499999,0.008528,0.37985,-0.67433,-0.00029999999999996696,0.00020000000000020002,-9.999999999998899e-05,-0.00025052778183121127,0.00017688397791637556,-0.0010328470000133816
149560000000.0,2,0.06498866955,-0.1177974798,0.10964815365,0.027543,-0.060797,-0.091435,0.0768645227,-3.641993677,-9.1049841925,0.008442,0.3805,-0.67538,-0.00039999999999995595,0.00019999999999997797,-9.999999999998899e-05,0.00028213764801565677,0.0019310733041695283,-0.0003073607020457336
149560000000.0,2,0.09594826359999999,-0.1888956923,0.09625226975000001,-0.014127,-0.068977,-0.090429,0.0759819242,-3.645524071,-9.103513195,0.008347,0.38089,-0.67644,-0.00019999999999997797,0.00019999999999997797,-9.999999999998899e-05,8.005729985438581e-06,0.0001886690030248328,-0.0004935994407549438
149560000000.0,2,0.13126201024999998,-0.2613276092,0.05495646659999999,-0.060966,-0.060058,-0.094801,0.0761388306,-3.645524071,-9.103513195,0.008363,0.38089,-0.67754,-0.00039999999999995595,0.00019999999999997797,-9.999999999998899e-05,-0.0014512578951263455,3.8866620037047994e-05,-0.0005197020915355399
149560000000.0,2,0.13092858415,-0.2919439705,0.0333033834,-0.089575,-0.041695,-0.10236,0.07811977390000001,-3.642778209,-9.1045919265,0.00858,0.38058,-0.67873,-0.00019999999999997797,0.00019999999999997797,-9.999999999998899e-05,0.003769271177239686,0.00022092847424470818,-0.00038186979624266204
149560000000.0,2,0.12527995374999998,-0.24884374375,0.07491299935,-0.1066,-0.034097,-0.097072,0.08091466915,-3.637874884,-9.1065532565,0.008885,0.38004,-0.6799,-0.00029999999999996696,0.00029999999999996696,5.0000000000105516e-05,0.0008076172594723152,0.0003760942180188742,-0.0002689481155387641
149560000000.0,2,0.0693330155,-0.19901615509999998,0.11573808329999999,-0.11732,-0.034019,-0.085352,0.08224837355,-3.6311082955,-9.1092991185,0.009029,0.3793,-0.6809,-0.000500000000000167,0.00039999999999995595,4.999999999988347e-05,-0.0003579293477964929,0.0013435358764408711,-0.0007679022202294328
149560000000.0,2,0.0014513841999999999,-0.19414225004999996,0.06655773355,-0.11525,-0.031924,-0.067205,0.0820424339,-3.6238513745,-9.112143047,0.009004,0.3785,-0.68167,-0.00029999999999996696,0.00029999999999996696,9.999999999998899e-05,-0.002668743096004067,0.00018802522276883948,-0.001079754785827558
149560000000.0,2,0.007698220249999999,-0.1872874017,0.013140911,-0.090878,-0.040673,-0.044731,0.08043414329999998,-3.617869318,-9.114594709499999,0.008825,0.37784,-0.6822,-0.00029999999999996696,0.00010000000000021103,-9.999999999998899e-05,-0.0024539940474405664,6.0113961297680873e-05,-0.0007137436351800086
149560000000.0,2,-0.06687154635,-0.15780861179999997,-0.0132389775,-0.056727,-0.035636,-0.037205,0.0771979488,-3.6142408574999996,-9.1159676405,0.008468,0.37745,-0.68256,-0.00019999999999997797,0.00029999999999996696,-4.999999999988347e-05,-0.0015576672733007557,-0.00013490781739577962,-0.0009642994647433012
149560000000.0,2,-0.09418306659999999,-0.1379011123,-0.0050308114499999996,-0.009769,-0.038152,-0.042451,0.07338316195,-3.6144369905,-9.1159676405,0.00805,0.37747,-0.68291,-0.00029999999999996696,0.00019999999999997797,-5.0000000000105516e-05,-0.001562281169461166,-0.0002994698633815851,-0.0009388694639078099
149560000000.0,2,-0.0600559246,-0.0993805911,0.05225963785,0.035,-0.048107,-0.048757,0.0697841214,-3.61865385,-9.11430051,0.007656,0.37793,-0.68337,-0.00019999999999997797,0.00019999999999997797,-5.0000000000105516e-05,-0.00158451090732864,-4.627658251599165e-05,-0.0007252048535356381
149560000000.0,2,-0.0321854253,-0.06518480255,0.1062452461,0.061517,-0.074955,-0.059336,0.06495924959999999,-3.6256165714999997,-9.111554647999998,0.007129,0.3787,-0.68395,-0.00019999999999997797,0.00019999999999997797,-4.999999999988347e-05,0.00021212914723667264,-0.0002854503256943808,-0.00041303492978014833
149560000000.0,2,0.0312243736,-0.05716296285,0.1207787014,0.07303,-0.1102,-0.069928,0.05855550714999999,-3.6339522239999997,-9.108318453499999,0.006429,0.37961,-0.68469,-9.999999999998899e-05,0.00029999999999996696,-0.000300000000000189,0.0035887032135777375,0.00039482800532453233,-0.0001587553839214051
149560000000.0,2,0.10525477444999999,-0.06826409065,0.08001245735,0.085753,-0.12628,-0.078422,0.052014471599999994,-3.643170475,-9.104689993,0.005713,0.38063,-0.68561,-9.999999999998899e-05,9.999999999998899e-05,-9.999999999998899e-05,-3.7783112192602e-05,0.00021751129882852105,-0.00026120445834118544
149560000000.0,2,0.14516783995,-0.0616446019,0.0766095498,0.094393,-0.11569,-0.081634,0.04666984735,-3.6532713244999995,-9.100669266499999,0.005128,0.38173,-0.6866,-0.00010000000000021103,0.00029999999999996696,-9.999999999998899e-05,-0.00033443222614948365,0.0009179587931105182,0.000488694207826601
149560000000.0,2,0.1487080406,-0.0353235533,0.1542978311,0.089293,-0.088998,-0.084899,0.04372785235,-3.6632741075,-9.096648539999999,0.004807,0.38283,-0.68763,-9.999999999998899e-05,0.00029999999999996696,-0.00019999999999997797,0.0016447580202085255,0.0007790312309912117,0.0003993400755204768
149560000000.0,2,0.1741072641,-0.0384812946,0.16403583454999998,0.067115,-0.057913,-0.079663,0.0440710851,-3.6718058929999997,-9.0932162125,0.004846,0.38377,-0.68866,3.333333333332966e-05,0.00010000000000021103,-9.999999999998899e-05,0.0005759404768588827,-0.0009529560858605457,0.00018773916319053674
149560000000.0,2,0.2530900232,-0.07111782579999999,0.1855222047,0.024507,-0.044775,-0.071233,0.04723863305,-3.67749375,-9.090862616499999,0.005196,0.38439,-0.68965,3.333333333332966e-05,0.00019999999999997797,-9.999999999998899e-05,-0.0016965901524175209,-0.0015892462246231975,0.0001881757284024621
149560000000.0,2,0.31805907944999995,-0.1179739995,0.16613445765,-0.02679,-0.046491,-0.055322,0.051239746249999996,-3.679062814,-9.0902742175,0.005637,0.38457,-0.69054,3.333333333332966e-05,0.00029999999999996696,-9.999999999998899e-05,0.001601532291326313,-0.0003680205515126378,0.0009665864066931984
149560000000.0,2,0.38422454699999997,-0.1605544738,0.1267411446,-0.068477,-0.047217,-0.039399,0.05571157865,-3.676905351,-9.0910587495,0.006128,0.38433,-0.69131,5.0000000000105516e-05,0.00029999999999996696,-5.0000000000105516e-05,0.0001605418473943354,-0.0002783630887457367,0.00086676881392167
149560000000.0,2,0.40352403419999994,-0.1640260279,0.1096775736,-0.086516,-0.026825,-0.024541,0.061252335899999996,-3.6723942919999994,-9.092922012999999,0.006736,0.38383,-0.69191,5.0000000000105516e-05,0.00029999999999996696,-4.999999999988347e-05,-4.290074702795188e-05,-0.0002615801908631976,0.0006017199334646117
149560000000.0,2,0.34744960950000003,-0.1153850439,0.13115413709999998,-0.086282,0.011529,-0.008613,0.0683915771,-3.6669025679999994,-9.095079476,0.00752,0.38323,-0.69232,5.0000000000105516e-05,0.00029999999999996696,9.999999999998899e-05,-0.0018668015202157329,-1.1153543668207533e-05,0.0007000514020233939
149560000000.0,2,0.29647464279999997,-0.05139665265,0.12647636504999998,-0.069998,0.059334,0.012665,0.07807074064999998,-3.6616069769999995,-9.097138872499999,0.008582,0.38265,-0.69247,4.999999999988347e-05,0.00019999999999997797,-9.999999999998899e-05,-0.00017182645599184143,0.0002835170230492956,0.0003986617609587906
149560000000.0,2,0.2024680959,0.01701453775,0.08740667145,-0.042017,0.10065,0.030776,0.08947587459999999,-3.6572920509999998,-9.0987079365,0.009834,0.38217,-0.69234,9.999999999998899e-05,0.00029999999999996696,-9.999999999998899e-05,-0.0006266034742794524,0.00011895691117391749,0.00030669003718106214
149560000000.0,2,0.1274276101,0.03849110124999999,0.0940653868,-0.019669,0.099395,0.040417,0.0998709236,-3.6549384549999995,-9.099590534999999,0.010975,0.38192,-0.69203,9.999999999998899e-05,0.000300000000000189,-9.999999999998899e-05,0.001059945002807594,-0.00045231530153477806,0.0005552094620916437
149560000000.0,2,0.13320372695,0.032901310749999996,0.04763089905,-0.008189,0.069464,0.043685,0.10801044309999999,-3.6536635905,-9.099982801,0.011869,0.38178,-0.69166,9.999999999998899e-05,0.00029999999999996696,-9.999999999998899e-05,0.00036555196783910615,-0.001003027467413764,0.0010130035737369592
149560000000.0,2,0.15883831005,0.0012454445499999998,-0.05342662919999999,0.013909,0.029862,0.04165,0.1130510612,-3.6540558565,-9.099786667999998,0.012423,0.38182,-0.69133,0.00019999999999997797,0.00029999999999996696,-0.00029999999999996696,0.007385271286486528,-0.00017604936395110293,0.001278977076741128
149560000000.0,2,0.1881111603,-0.0302437086,-0.06630276064999999,0.024313,-0.00538,0.03852,0.1152085242,-3.6562133195,-9.0989040695,0.012661,0.38206,-0.69104,-0.00019999999999997797,0.00039999999999995595,0.00019999999999997797,0.004671312901379676,0.0006681957956811146,0.003310089009793432
149560000000.0,2,0.17604898079999998,-0.05085728689999999,-0.01817172245,0.021013,-0.021325,0.033198,0.11529678404999999,-3.6589591814999998,-9.0977272715,0.012672,0.38236,-0.6908,0.00029999999999996696,9.999999999998899e-05,-0.00029999999999996696,-0.0034758879047717683,-0.003131874524369138,0.0003804047165390789
149560000000.0,2,0.1530818065,-0.0753542986,-0.0346959277,0.007364,0.003306,0.028856,0.11641474214999999,-3.6609205114999996,-9.0969427395,0.012797,0.38258,-0.69059,0.00019999999999997797,9.999999999998899e-05,-0.00019999999999997797,0.0014660375386314484,-0.0022146271056022737,0.0008021445837453345
149560000000.0,2,0.07608979735,-0.09391828705,0.006021283099999999,-0.01678,0.051461,0.02766,0.12022952899999999,-3.6615089104999994,-9.096648539999999,0.013216,0.38264,-0.69035,0.00019999999999997797,0.00019999999999997797,-0.00010000000000021103,0.0011059247128314964,-0.0016954094722840818,0.0014192877595944897
149560000000.0,2,0.01434712895,-0.13359599295,0.1084027091,-0.061152,0.10936,0.033887,0.1281140756,-3.6597437135,-9.097236939,0.014082,0.38244,-0.69002,9.999999999998899e-05,0.00019999999999997797,-9.999999999998899e-05,0.002308458550835224,-0.0002076211147257201,0.0013376611858884335
149560000000.0,2,-0.02013305245,-0.19054320949999998,0.12031778885,-0.10765,0.16622,0.03798,0.14044103465,-3.6545461889999995,-9.099198269,0.015433,0.38187,-0.68961,9.999999999998899e-05,0.000300000000000189,3.333333333332966e-05,0.0012247573750894247,0.0005809210009011245,0.0011028059321740724
149560000000.0,2,-0.05120051965,-0.2393999398,0.11459070524999998,-0.14356,0.2134,0.042111,0.1566906537,-3.646504736,-9.102140263999999,0.017213,0.38099,-0.68912,9.999999999998899e-05,0.00019999999999997797,3.333333333332966e-05,0.00038504047625242954,-5.064551681610574e-05,0.00042583100616178093
149560000000.0,2,-0.040609337649999994,-0.25990564494999996,0.1568083335,-0.16479,0.22955,0.048456,0.17513696234999998,-3.636698086,-9.105768724499999,0.019231,0.37991,-0.68856,-9.999999999998899e-05,0.00029999999999996696,3.333333333332966e-05,0.0015715141841076696,0.0018126230941077903,0.001168134337309723
149560000000.0,2,0.0038245934999999996,-0.26252402049999995,0.12294597104999999,-0.14992,0.22942,0.065564,0.19429915644999998,-3.6271856354999996,-9.1091029855,0.021327,0.37887,-0.68789,9.999999999998899e-05,0.00019999999999997797,0.00010000000000021103,-0.00020627733655770308,0.001368986425893004,-0.0003443039166926565
149560000000.0,2,0.01411176935,-0.2033506944,0.14132363315,-0.10844,0.21735,0.074199,0.21244145895,-3.6202229139999997,-9.111554647999998,0.023312,0.3781,-0.6871,0.00029999999999996696,9.999999999998899e-05,-0.00010000000000021103,-0.003492306849185056,0.0002564774874984632,-0.0022188833527271856
149560000000.0,2,0.0108265416,-0.1813445718,0.1773630719,-0.068176,0.18185,0.075401,0.22799480584999998,-3.617084786,-9.11233918,0.025015,0.37776,-0.68629,9.999999999998899e-05,9.999999999998899e-05,0.00010000000000021103,-0.002590540933177954,0.0004352433131553646,-4.5678042766506e-05
149560000000.0,2,0.04474774395,-0.17664718645,0.1593972891,-0.044097,0.1156,0.063819,0.23881154079999997,-3.6163983204999997,-9.11233918,0.026201,0.37768,-0.6856,0.00020000000000020002,0.00019999999999997797,3.333333333332966e-05,-0.002143396186240376,-0.0016733426857888922,-0.00025601004613992617
149560000000.0,2,0.048807697049999994,-0.19474045569999998,0.052544030699999994,-0.015947,0.016297,0.038426,0.24178295574999997,-3.6176731849999997,-9.111750781,0.026529,0.37783,-0.68513,0.00019999999999997797,0.00019999999999997797,3.333333333332966e-05,-0.0018575960566755145,-0.001303653552372941,0.00014943890248445002
149560000000.0,2,0.0736087149,-0.1749702493,-0.07760982809999999,0.01653,-0.079838,0.005562,0.23719344355,-3.6206151799999997,-9.110770116,0.026028,0.37815,-0.68503,9.999999999998899e-05,9.999999999998899e-05,3.333333333332966e-05,-0.003002669242091305,-8.140518716248657e-05,0.0003783674397660197
149560000000.0,2,0.0985764458,-0.1421571984,-0.15583747515,0.057742,-0.14409,-0.016672,0.22719066054999998,-3.6260088375,-9.108808785999999,0.024936,0.37874,-0.68524,9.999999999998899e-05,0.00019999999999997797,9.999999999998899e-05,-0.0009273707647232676,-0.0006254721036125233,0.0013349036191679375
149560000000.0,2,0.05898699975,-0.09941001105,-0.1463544446,0.10029,-0.16042,-0.01657,0.2140987828,-3.634932889,-9.1055725915,0.023509,0.37972,-0.68549,9.999999999998899e-05,0.00019999999999997797,0.00019999999999997797,-0.002189552307241327,-0.0028669021473566314,0.000878713197888431
149560000000.0,2,-0.045610729149999994,-0.047846645349999994,-0.0992236847,0.12491,-0.14039,-0.000549,0.1997418472,-3.6463086029999996,-9.101355732,0.021943,0.38096,-0.68554,9.999999999998899e-05,0.00010000000000021103,9.999999999998899e-05,-0.00015442593794878778,-0.0014956571596749235,0.0005549302039583592
149560000000.0,2,-0.11070727185,-0.04519884985,-0.0365003513,0.11775,-0.091339,0.016438,0.1874639214,-3.6579785165,-9.0969427395,0.020605,0.38226,-0.68534,4.999999999988347e-05,0.00019999999999997797,0.00019999999999997797,-0.004576506912344402,-0.0014576660448730738,0.0006056521519541003
149560000000.0,2,-0.1600249147,-0.057202189449999996,-0.028596191400000002,0.09056,-0.016538,0.026942,0.18037371344999997,-3.6676870999999998,-9.093118145999998,0.019833,0.38332,-0.68498,5.0000000000105516e-05,4.999999999988347e-05,9.999999999998899e-05,-0.0017452982744362577,-0.0008545315621775185,-0.00046023308561979337
149560000000.0,2,-0.1591227029,-0.06950953519999999,-0.08256218634999998,0.066593,0.061433,0.037445,0.18007951395,-3.6750420875,-9.0902742175,0.019807,0.38412,-0.6845,9.999999999998899e-05,5.0000000000105516e-05,0.00019999999999997797,-0.0010957372137400667,-0.00045774770286288735,-0.000766307831410129
149560000000.0,2,-0.170831843,-0.09377118729999999,-0.0205155118,0.05096,0.11057,0.042677,0.18474747935,-3.6816125429999995,-9.087430289,0.020327,0.38485,-0.68394,4.999999999988347e-05,9.999999999998899e-05,0.00019999999999997797,-0.0011462373926237612,-0.0005941092862655761,0.00036786705163538436
149560000000.0,2,-0.1682232741,-0.1275845165,0.0343625016,0.03939,0.12665,0.036234,0.192014207,-3.6875945994999997,-9.08488056,0.021132,0.38551,-0.68342,5.0000000000105516e-05,0.00019999999999997797,0.00019999999999997797,0.0003955958099878254,0.0005201201902829133,0.0008013150519409207
149560000000.0,2,-0.09897851844999998,-0.14497170694999997,-0.00758054045,0.030809,0.11075,0.021309,0.2001341132,-3.692792124,-9.0826250305,0.022031,0.38608,-0.68308,-0.001000000000000112,0.0010999999999998789,0.0012000000000000899,0.014651097175070682,0.011048281489678624,0.009526935641490125
149560000000.0,2,-0.044531997649999995,-0.14610927835,-0.0274193934,0.022098,0.076743,0.003212,0.20689089505,-3.6970089834999995,-9.080761767,0.022779,0.38655,-0.68297,0.00010000000000021103,9.999999999998899e-05,0.00019999999999997797,-0.001207743988965948,0.0002413594864443258,0.0003573984498398408
149560000000.0,2,0.0023241760499999996,-0.1581616512,-0.03827535494999999,0.019749,0.043739,-0.005271,0.21180402669999998,-3.70102971,-9.07899657,0.023325,0.38698,-0.68302,-0.00010000000000021103,0.00019999999999997797,0.00029999999999996696,-0.0016415939964061765,0.0005311922943205261,0.0006504494746010503
149560000000.0,2,0.0308321076,-0.1548666168,-0.0358727257,0.024917,0.023449,-0.003091,0.2150206079,-3.7051485029999998,-9.077231373,0.023684,0.38744,-0.6831,2.4999999999941735e-05,0.00020000000000020002,0.00019999999999997797,-0.0008156836354698549,0.00014445294157949817,0.00043598686716889157
149560000000.0,2,0.017249897349999998,-0.1459621786,-0.00928689755,0.035479,0.015893,0.007615,0.2167858049,-3.7103460275,-9.075073909999999,0.023884,0.38801,-0.68308,2.500000000016378e-05,9.999999999998899e-05,0.00019999999999997797,-6.377281519381883e-05,0.000178512927725194,0.000752342032480896
149560000000.0,2,0.017848103,-0.12139652034999998,0.036206151799999996,0.046018,0.011524,0.027922,0.2173742039,-3.7165242169999995,-9.072524180999999,0.023955,0.38869,-0.68285,2.500000000016378e-05,0.00019999999999997797,0.00019999999999997797,-0.0009014078017977045,-3.350137091984173e-05,0.0005003723412654593
149560000000.0,2,-0.0036284604999999998,-0.11268821514999999,0.07128453885,0.045962,0.00832,0.035401,0.21685445144999999,-3.7229966059999997,-9.069876385499999,0.023905,0.3894,-0.68249,2.4999999999941735e-05,9.999999999998899e-05,0.00019999999999997797,0.0014358117706788631,-0.00023592177266418268,0.0008464921894186794
149560000000.0,2,-0.030734041099999998,-0.10900091475,0.0366572577,0.048125,0.007243,0.029005,0.21583455985,-3.7293709285,-9.0673266565,0.023799,0.39011,-0.68214,-0.00010000000000021103,0.00019999999999997797,0.000300000000000189,-0.002499468069927513,-0.000479418693814182,0.0002384156680196592
149560000000.0,2,-0.0529951366,-0.06543977545,0.019015094349999997,0.052475,0.010414,0.018337,0.21490292809999997,-3.735156852,-9.064874993999998,0.023703,0.39075,-0.68189,0.00010000000000021103,0.00019999999999997797,9.999999999998899e-05,-0.0011545225522053837,-0.0001994755316987451,0.0004555189004846749
149560000000.0,2,-0.08388608410000001,-0.034715541,-0.0113168741,0.062231,0.024193,0.009794,0.21497157464999997,-3.7412369749999996,-9.0624233315,0.023716,0.39142,-0.68172,0.00019999999999997797,-0.00019999999999997797,9.999999999998899e-05,-0.00024257450120968027,-0.0006111860102289146,2.0926556622308246e-05
149560000000.0,2,-0.1007927487,-0.016141745899999997,-0.0115522337,0.06554,0.036952,0.008715,0.21601107955,-3.7475132309999997,-9.059775536,0.023838,0.39211,-0.68157,0.0004499999999998394,-0.00019999999999997797,0.00029999999999996696,-0.0017408875711645844,0.0008201807619254708,0.00019716190262913935
149560000000.0,2,-0.10170476715,-0.00367749375,0.0044129925,0.066631,0.0412,0.010849,0.2176684034,-3.7536914204999996,-9.057225806999998,0.024028,0.3928,-0.6814,0.00045000000000006146,-0.00019999999999997797,-0.00039999999999995595,-0.012401036250361985,-0.010774562984219749,-0.00665058115274178
149560000000.0,2,-0.0526813238,-0.015455280399999998,-0.0055113372999999995,0.068714,0.037979,0.016198,0.21982586639999996,-3.7601638095,-9.054479944999999,0.024274,0.39351,-0.68122,-2.4999999999941735e-05,0.00019999999999997797,0.00019999999999997797,0.0007398786308665528,0.00012367823317727122,0.00040919094828803515
149560000000.0,2,-0.017259704,5.88399e-05,0.017897136249999997,0.064296,0.02309,0.022622,0.2212184107,-3.7664400655,-9.0518321495,0.024434,0.3942,-0.68101,-2.500000000016378e-05,0.00019999999999997797,0.00029999999999996696,0.00036928743733977143,0.0014802982656978436,0.0005792811270604326
149560000000.0,2,0.0308321076,0.00818855275,0.0384812946,0.063022,0.001782,0.030128,0.22130667055,-3.7723240555,-9.049380487,0.024451,0.39485,-0.68074,-2.4999999999941735e-05,0.00019999999999997797,0.00019999999999997797,-0.00021123538800826847,-0.0008155114283387999,0.00045668980142174465
149560000000.0,2,0.053171656299999995,-0.0274193934,0.018691474899999998,0.062866,-0.015269,0.034425,0.2199239329,-3.7786003114999995,-9.0467326915,0.024305,0.39554,-0.68044,-2.4999999999941735e-05,9.999999999998899e-05,0.00019999999999997797,7.43084498007196e-05,0.0012724888934940726,-0.00044251190076571856
149560000000.0,2,0.0448163905,-0.0714512519,0.013425303849999999,0.062832,-0.020594,0.033366,0.21749188369999997,-3.7855630329999994,-9.043888763,0.024044,0.39632,-0.68012,-9.999999999998899e-05,4.999999999988347e-05,9.999999999998899e-05,-0.0004354328014069542,-0.000647294956592992,-0.0005667497747676165
149560000000.0,2,0.0469150136,-0.075511205,0.015700446649999998,0.059618,-0.022697,0.033363,0.21495196135,-3.792427688,-9.0410448345,0.02377,0.39708,-0.67981,-9.999999999998899e-05,5.0000000000105516e-05,9.999999999998899e-05,0.0003665580400694646,0.001262332169976288,-0.0008304930475059313
149560000000.0,2,0.00973800345,-0.07573675795,-0.026272015349999997,0.058663,-0.013092,0.02694,0.2124708789,-3.7988020104999998,-9.0384951055,0.023503,0.39778,-0.67952,-3.333333333332966e-05,5.0000000000105516e-05,5.0000000000105516e-05,-0.00031109233848780615,0.00044406287186116167,-0.00042388406189464156
149560000000.0,2,-0.03584330575,-0.06948011525,-0.09094687209999999,0.068481,0.004956,0.013051,0.2112156277,-3.8053724659999997,-9.0357492435,0.023371,0.39851,-0.67934,-3.333333333332966e-05,4.999999999988347e-05,4.999999999988347e-05,-0.0011210500727686923,-0.0006804256219912208,0.0003871781581057665
149560000000.0,2,-0.07748234165,-0.01569064,-0.13149736985,0.11772,0.017347,0.001376,0.21125485429999996,-3.8135119855,-9.032316916,0.023385,0.39941,-0.67926,-3.333333333332966e-05,0.00019999999999997797,-9.999999999998899e-05,0.006119874486516019,0.0023293952826737296,0.0002889276999032686
149560000000.0,2,-0.1173659872,0.02442836515,-0.05984017829999999,0.069567,-0.024841,-0.039189,0.20953869055,-3.821455372,-9.028982654999998,0.023203,0.40029,-0.67951,-0.00019999999999997797,0.00019999999999997797,0.00029999999999996696,0.0020828901722995674,0.00026560724594015817,0.0015523951600882047
149560000000.0,2,-0.20717528789999998,-0.18504167885,0.7507480907499999,0.010699,-0.069087,-0.068021,0.20268384219999996,-3.8313600884999994,-9.0249619285,0.022454,0.40138,-0.68005,9.999999999998899e-05,9.999999999998899e-05,0.00019999999999997797,-0.0040254551510451875,-0.0007284563796858823,-0.0007884808960583745
149560000000.0,2,-0.1574163458,-0.04168806914999999,0.2576010822,0.005305,-0.078635,-0.07014,0.19573092735,-3.8341059504999997,-9.0239812635,0.021686,0.40168,-0.68071,-9.999999999998899e-05,5.0000000000105516e-05,0.00020000000000020002,-0.007865374685024185,-0.002669911195024355,0.00022341067036307782
149560000000.0,2,-0.12861421474999998,-0.11698352784999999,0.5247734547999999,0.010561,-0.074445,-0.044513,0.18847400635,-3.839891874,-9.0216276675,0.020888,0.40233,-0.68118,-5.0000000000105516e-05,4.999999999988347e-05,9.999999999998899e-05,-0.001254957443863891,0.00011090468192631597,-0.0002004404954292771
149560000000.0,2,-0.1123057558,0.0418743955,0.40811354639999997,0.047923,-0.048153,-0.006068,0.1841296604,-3.8431280685,-9.020352803,0.02041,0.40268,-0.68138,-4.999999999988347e-05,9.999999999998899e-05,0.00019999999999997797,-0.0006567124710768479,0.00033308103941309675,-0.0002768587624467078
149560000000.0,2,0.01583773975,0.19757457755000002,0.043453266149999996,0.087622,-0.006944,0.015276,0.1821291038,-3.8501888565,-9.017410808,0.020195,0.40347,-0.68126,-9.999999999998899e-05,5.0000000000105516e-05,9.999999999998899e-05,-0.0005756196389123391,-0.0001672761237543341,-0.000276861970269382
149560000000.0,2,-0.05129858615,0.08739686479999999,-0.11343352054999999,0.11035,0.028042,0.007782,0.18372758775,-3.8597993734999996,-9.013292015,0.020382,0.40453,-0.68117,-9.999999999998899e-05,5.0000000000105516e-05,0.00019999999999997797,-0.0006364842510341306,5.771286110345386e-06,-6.155961593531933e-05
149560000000.0,2,-0.09399674024999999,0.11171735679999999,-0.15850488394999998,0.11354,0.022693,-0.000739,0.1843846333,-3.8674485604999997,-9.009957754,0.020461,0.40539,-0.68111,-9.999999999998899e-05,2.4999999999941735e-05,0.00019999999999997797,-0.0008533874811035291,-9.007420665207988e-05,7.508383617235714e-05
149560000000.0,2,-0.028047019,0.07181409794999999,-0.12455426165,0.10691,-0.011342,-0.009229,0.18457095965,-3.8772552104999995,-9.005740894499999,0.020492,0.40647,-0.68122,-9.999999999998899e-05,2.500000000016378e-05,0.00019999999999997797,-0.0010308011800315153,-0.000719378755571487,-1.4109088072866705e-07
149560000000.0,2,0.0162201991,-0.08888747559999999,-0.11674816825,0.087489,-0.03995,-0.012415,0.1820506506,-3.885590863,-9.002210500499999,0.02022,0.4074,-0.68137,-0.00010000000000021103,2.4999999999941735e-05,9.999999999998899e-05,-0.0015776103337747927,-0.0013146771316865369,-0.0003031298358615875
149560000000.0,2,0.049454935949999994,-0.1183270389,-0.040795663999999995,0.058619,-0.052492,-0.019914,0.1781476039,-3.8914748529999996,-8.9996607715,0.019792,0.40805,-0.68159,-9.999999999998899e-05,2.4999999999941735e-05,0.00019999999999997797,-0.0014492012087672368,-0.000529788280143606,-0.0002063601995545561
149560000000.0,2,0.01764216335,-0.15477835694999997,0.034303661699999995,0.030998,-0.040538,-0.023185,0.1752448355,-3.897554976,-8.997111042499998,0.019475,0.40873,-0.68187,-0.00019999999999997797,9.999999999998899e-05,0.00019999999999997797,-0.0013555809090447513,-0.0004211662498077029,-0.00033290116987516605
149560000000.0,2,-0.0166516917,-0.17811818394999998,0.09805669334999999,0.01831,-0.025517,-0.022166,0.17346983184999998,-3.8993201729999996,-8.996424576999999,0.01928,0.40893,-0.68213,-9.999999999998899e-05,5.0000000000105516e-05,0.00019999999999997797,-0.0004111007699131308,-0.00044920246075963455,-0.00035592478264337424
149560000000.0,2,-0.0525048041,-0.13273300775,0.12327939715,0.033362,-0.006467,-0.014702,0.17311679244999997,-3.9019679685,-8.995247779,0.019243,0.40921,-0.68232,-0.00019999999999997797,4.999999999988347e-05,9.999999999998899e-05,-0.00010247899187210141,1.7162744514243045e-05,-0.0002759612415036139
149560000000.0,2,-0.08812255689999998,-0.07146105855,0.14436369464999999,0.0676,0.008165,-0.010399,0.17416610400000002,-3.9070674265,-8.9929922495,0.019364,0.40979,-0.68245,-0.00019999999999997797,4.999999999988347e-05,9.999999999998899e-05,-0.00027165027571163236,-0.0003276354297363504,-0.00046335037060640794
149560000000.0,2,-0.11259014864999999,0.00385401345,0.17299911264999998,0.092164,0.010091,-0.011422,0.17348944514999998,-3.9162856774999995,-8.9890695895,0.019298,0.41081,-0.68249,-9.999999999998899e-05,5.0000000000105516e-05,5.0000000000105516e-05,0.00010454342907889602,3.874638980860823e-05,-0.0003919003139524757
149560000000.0,2,-0.1130902878,0.0480918116,0.14216700505,0.10502,0.007868,-0.025272,0.17503889585,-3.9255039284999995,-8.985048863,0.019479,0.41183,-0.68275,-9.999999999998899e-05,5.0000000000105516e-05,5.0000000000105516e-05,-0.00036889592220729073,0.0005614521310703946,-0.00016244995425090947
149560000000.0,2,-0.0859847072,0.0369318439,0.10119482134999999,0.10086,0.011117,-0.042363,0.1775592049,-3.9345260465,-8.981028136499999,0.019768,0.41284,-0.68319,-0.00019999999999997797,4.999999999988347e-05,9.999999999998899e-05,-0.0001515373993086211,0.0011863929132231998,-0.00012022284824483864
149560000000.0,2,-0.08281715925,0.0404230113,0.0935750543,0.082798,0.012345,-0.055205,0.180834626,-3.9421752335,-8.977595809,0.02014,0.41369,-0.68379,-9.999999999998899e-05,3.333333333332966e-05,1.4285714285744433e-05,-0.0003108192648105246,0.001115471434561588,-0.00025242658057408884
149560000000.0,2,-0.04712095325,0.018907221199999998,0.10683364509999999,0.057106,0.000834,-0.056294,0.18254098309999997,-3.9483534229999995,-8.974849947,0.020337,0.41438,-0.68438,-9.999999999998899e-05,3.333333333332966e-05,1.4285714285744433e-05,-0.00016987579048560741,0.0012157695508132615,-0.000248135610445982
149560000000.0,2,0.01744603035,-0.02678196115,0.10809870294999999,0.037779,-0.011798,-0.052036,0.1838158476,-3.9518838169999997,-8.973280883,0.020482,0.41478,-0.68497,-9.999999999998899e-05,3.333333333332966e-05,1.4285714285744433e-05,0.00020685527929170666,0.00032098065005503607,-0.0004889359049634889
149560000000.0,2,0.0642531708,-0.037167203499999996,0.1044800491,0.034386,-0.027766,-0.03814,0.18474747935,-3.956394876,-8.9712214865,0.02059,0.41527,-0.6855,-9.999999999998899e-05,3.333333333332966e-05,1.4285714285522388e-05,0.0001411260538337622,8.452204419229226e-05,-0.00026726651565267545
149560000000.0,2,0.099635564,-0.018867994599999997,0.15519023624999997,0.037318,-0.056566,-0.02955,0.18362952124999998,-3.9612001345,-8.96916209,0.020471,0.41581,-0.68595,-4.999999999988347e-05,3.333333333332966e-05,1.4285714285744433e-05,-0.0005880503794173375,0.0001999549871392059,-0.0001282226854822932
149560000000.0,2,0.139842829,-0.0002549729,0.17751017165,0.042468,-0.076855,-0.024174,0.18098172575,-3.9662995924999995,-8.9669065605,0.02018,0.41638,-0.68636,-5.0000000000105516e-05,3.333333333332966e-05,1.4285714285744433e-05,-0.000591968550404609,-0.0002997109971307754,-0.00015321155478692505
149560000000.0,2,0.14777640885,0.010885381500000001,0.17372480475000002,0.041333,-0.08643,-0.025234,0.17723558544999998,-3.9713009839999995,-8.9647490975,0.019768,0.41694,-0.68677,-9.999999999998899e-05,9.999999999998899e-05,1.4285714285744433e-05,-0.0008400288083728613,0.0005286228478293964,-2.276194848405133e-05
149560000000.0,2,0.12276945135,0.024389138549999998,0.19125909494999999,0.020073,-0.083043,-0.034888,0.17336195869999999,-3.9748313779999997,-8.9632781,0.019339,0.41733,-0.68724,-9.999999999998899e-05,5.0000000000105516e-05,2.4999999999941735e-05,-0.0010671392684545311,-0.0004178383527362328,-0.0004983970169906704
149560000000.0,2,0.07789422095,0.0480721983,0.13940152975,-0.002188,-0.068997,-0.04136,0.16990021125,-3.9751255774999996,-8.9632781,0.018953,0.41737,-0.68774,-0.00010000000000021103,4.999999999988347e-05,2.4999999999941735e-05,-0.0010733585777709664,-0.00011722292907667686,-0.0004950919707072676
149560000000.0,2,0.02656621485,0.050504247499999995,0.0736087149,-0.005185,-0.043397,-0.041411,0.16766429505,-3.9741449125,-8.9637684325,0.018702,0.41725,-0.68823,-9.999999999998899e-05,9.999999999998899e-05,2.500000000016378e-05,-0.0013442441688858997,0.0005003351025369973,-0.0007118716371330991
149560000000.0,2,-0.03064578125,0.06659696015,0.06612624095,0.015168,-0.0244,-0.027532,0.16577161159999998,-3.974242979,-8.9637684325,0.018492,0.41726,-0.68855,-9.999999999998899e-05,9.999999999998899e-05,2.4999999999941735e-05,-0.0010967221713696351,0.0005178804921468494,-0.0006192952325372036
149560000000.0,2,-0.06964682829999999,0.1088145884,0.09717409484999999,0.0407,-0.024627,-0.013608,0.1628688432,-3.9762043089999994,-8.962885834,0.01817,0.41748,-0.68867,-0.00019999999999997797,9.999999999998899e-05,1.666666666655381e-05,-0.0006522376161570698,0.0017698155666705517,-0.00030299909419995164
149560000000.0,2,-0.0557998385,0.11831723224999999,0.09115281174999999,0.061871,-0.041859,-0.008202,0.15889714994999998,-3.9801269689999996,-8.9612187035,0.01773,0.41792,-0.68874,-9.999999999998899e-05,5.0000000000105516e-05,1.6666666666775853e-05,-0.0005977105004678629,0.000629118753364466,-0.000542990896886808
149560000000.0,2,-0.0324011716,0.10814773619999998,0.0518771785,0.074457,-0.071795,-0.013463,0.15300335329999998,-3.9852264269999997,-8.959061240499999,0.017077,0.41849,-0.68886,-9.999999999998899e-05,4.999999999988347e-05,1.6666666666775853e-05,-0.00030858288397522804,0.0005367638001665398,-0.00034021845337836587
149560000000.0,2,-0.0318127726,0.0895151012,0.03915795345,0.086067,-0.098513,-0.031541,0.14508938675,-3.9916007495,-8.9563153785,0.016198,0.4192,-0.68913,-0.00019999999999997797,9.999999999998899e-05,1.666666666655381e-05,0.00012463884607227804,0.0002850077230138748,-0.00025912821178739054
149560000000.0,2,-0.01075789505,0.07883565934999999,0.0518379519,0.093478,-0.11348,-0.04431,0.13644972809999997,-3.9990538035,-8.9531772505,0.015239,0.42003,-0.68958,-9.999999999998899e-05,5.0000000000105516e-05,1.666666666655381e-05,0.00035303247010898264,-2.436273017347723e-05,-0.00028099690522775944
149560000000.0,2,0.0207116448,0.058937966499999994,0.061154269399999996,0.099916,-0.1114,-0.048572,0.12847692165,-4.007585589,-8.9494507235,0.014354,0.42098,-0.69014,-0.00019999999999997797,4.999999999988347e-05,1.6666666666775853e-05,-2.0625457018363935e-05,-0.00045209270586465955,-0.00022810808412115913
149560000000.0,2,0.02454604495,-0.0030302548499999997,0.07726659535,0.084056,-0.091024,-0.044367,0.12210259914999999,-4.016215441,-8.945724196499999,0.013648,0.42195,-0.69067,-9.999999999998899e-05,4.999999999988347e-05,9.999999999998899e-05,0.0002640397107878112,-0.00045060105831118413,-0.00013405528181342774
149560000000.0,2,0.0044326057999999995,-0.0356569794,0.09863528569999999,0.053272,-0.072654,-0.045519,0.1170717877,-4.023080095999999,-8.942684135,0.01309,0.42272,-0.69118,-0.00019999999999997797,5.0000000000105516e-05,9.999999999998899e-05,-0.00019999976356771532,-0.0015630585498269678,-0.00019291518165548416
149560000000.0,2,0.01787752295,-0.07047058689999999,0.04630700129999999,0.01504,-0.048898,-0.042425,0.1141101794,-4.026806623,-8.941017004499999,0.012761,0.42313,-0.69166,-9.999999999998899e-05,0.00019999999999997797,0.00019999999999997797,-0.00037307444186573946,-0.0009179979841367203,-0.0002364208653394817
149560000000.0,2,0.0117287534,-0.11904292435,0.00761976705,-0.025234,-0.016596,-0.043619,0.11381597989999999,-4.0272969555,-8.9408208715,0.012729,0.42318,-0.69213,-0.00019999999999997797,9.999999999998899e-05,9.999999999998899e-05,-0.00025139933261919545,-0.0011527105565722895,-0.0003131317196981287
149560000000.0,2,-0.029194397049999998,-0.14212777845,-0.0132193642,-0.054884,0.006032,-0.051181,0.1153850439,-4.0249433595,-8.941899603,0.012903,0.42293,-0.69266,-9.999999999998899e-05,0.00020000000000020002,0.00019999999999997797,9.588518458281126e-06,-0.0005991463684378306,-0.00013101450604022236
149560000000.0,2,-0.034313468349999994,-0.12463271484999999,-0.07142183195,-0.053643,0.025205,-0.054413,0.11870949824999999,-4.0212168325,-8.943468667,0.013273,0.42251,-0.69321,-9.999999999998899e-05,0.00019999999999997797,9.999999999998899e-05,-0.0010641505177228505,-0.0006818277506586146,-0.0005700314634186632
149560000000.0,2,-0.0605854837,-0.08024781695,-0.11454167199999998,-0.020316,0.052641,-0.060805,0.12403450919999999,-4.01876517,-8.9445473985,0.013866,0.42224,-0.6938,-0.00010000000000021103,9.999999999998899e-05,0.00019999999999997797,-0.001218847288138425,0.00021179628217815605,-0.0007889300355174433
149560000000.0,2,-0.0956736774,0.00940457735,-0.13115413709999998,0.035383,0.07563,-0.068218,0.13143852995,-4.019549702,-8.944057066,0.014694,0.42232,-0.69446,-9.999999999998899e-05,0.00019999999999997797,0.00029999999999996696,-0.0014431961611148236,0.0004228793109082307,-0.000523009507240435
149560000000.0,2,-0.07437363359999999,0.07683510275,-0.13394903235,0.082302,0.07311,-0.06813,0.1397643758,-4.023864628,-8.9419976695,0.015629,0.4228,-0.69516,-0.00019999999999997797,0.00019999999999997797,0.00019999999999997797,-0.0015525489236571932,0.0001972547990674034,-0.00043128662273583807
149560000000.0,2,-0.039932678799999996,0.09999841004999999,-0.1429221171,0.10878,0.050511,-0.065909,0.14677613055,-4.030533149999999,-8.9388595415,0.016418,0.42355,-0.69588,-9.999999999998899e-05,0.00029999999999996696,0.000300000000000189,-0.0013655555048199264,0.0001615923999478408,-0.00039194048071439225
149560000000.0,2,0.03044964825,0.0847686826,-0.2018993102,0.12136,0.022704,-0.066907,0.1525522474,-4.0386726694999995,-8.9351330145,0.017072,0.42446,-0.69665,-0.00019999999999997797,9.999999999998899e-05,0.00029999999999996696,-0.0010985484623144415,-0.00036244720528277874,-0.00025491361531307377
149560000000.0,2,0.06755801185,0.05757484215,-0.1763431803,0.11998,-0.016706,-0.070045,0.15600418819999998,-4.0474986545,-8.9310142215,0.017466,0.42545,-0.69749,-9.999999999998899e-05,0.00019999999999997797,0.00019999999999997797,-0.0008632914302292849,-0.0004917967313471383,2.954111888800459e-05
149560000000.0,2,0.08760280444999999,0.0350097405,-0.12849653495,0.11533,-0.064617,-0.069972,0.15556288894999998,-4.0565207725,-8.926993495,0.017424,0.42646,-0.69835,-0.00019999999999997797,0.00029999999999996696,9.999999999998899e-05,-0.0005301274739848982,-0.0005893554204929874,0.0003587821086137588
149560000000.0,2,0.10724552439999999,0.0175931301,-0.1406469743,0.11405,-0.089115,-0.066732,0.15253263409999998,-4.065640956999999,-8.922874702,0.017092,0.42747,-0.6992,-9.999999999998899e-05,0.00019999999999997797,0.00019999999999997797,0.0005749119682413317,-0.0001994758946797237,0.0010506107271515686
149560000000.0,2,0.062350680699999994,0.01870128155,-0.07901217904999999,0.10871,-0.085877,-0.061412,0.14834519454999998,-4.074663074999999,-8.9188539755,0.016631,0.42849,-0.69996,-9.999999999998899e-05,0.00010000000000021103,3.333333333332966e-05,-0.0005100218854814931,-0.001513582602173491,-0.00018263297328532935
149560000000.0,2,0.011032481249999998,0.0452478831,-0.0152591474,0.098196,-0.060226,-0.051869,0.1445892476,-4.082900661,-8.9151274485,0.016217,0.42942,-0.70058,-5.0000000000105516e-05,9.999999999998899e-05,3.333333333332966e-05,0.0006256942600146864,-0.0004008745484322951,0.00026867982897904596
149560000000.0,2,-0.0515241391,0.058908546549999996,0.02933169015,0.07822,-0.016385,-0.041306,0.14295153705,-4.0898633825,-8.9119893205,0.016039,0.43019,-0.70103,-4.999999999988347e-05,0.00019999999999997797,3.333333333332966e-05,0.001182971685831924,0.00034983052761283773,0.00023618085671273104
149560000000.0,2,-0.1103836524,0.061370015699999995,0.10002783,0.050827,0.031781,-0.033963,0.14420678825,-4.0948647739999995,-8.9096357245,0.016184,0.43076,-0.70134,-4.999999999988347e-05,0.00019999999999997797,1.999999999990898e-05,0.00015027611660684004,-0.0004959570099054567,7.680329355191917e-05
149560000000.0,2,-0.12286751785,0.051661432199999996,0.12557415325,0.025512,0.071407,-0.028736,0.1489041736,-4.097708702499999,-8.9082627935,0.016714,0.43108,-0.70159,-5.0000000000105516e-05,9.999999999998899e-05,2.0000000000131024e-05,0.0003571527495470628,-0.0002699034247086729,0.00032451025931165556
149560000000.0,2,-0.09584039045,0.01903470765,0.14752143595,0.006413,0.089667,-0.020259,0.15599438155,-4.0994738994999995,-8.9072821285,0.017512,0.43128,-0.70176,5.0000000000105516e-05,9.999999999998899e-05,1.999999999990898e-05,0.0011047610934122876,-0.00026253050555058444,0.0004140163406212427
149560000000.0,2,-0.039285439899999997,-0.02197670265,0.21962973339999997,-0.010699,0.086606,-0.016012,0.16423196755,-4.100846830499999,-8.9064975965,0.018437,0.43143,-0.70194,4.999999999988347e-05,0.00019999999999997797,2.0000000000131024e-05,0.00017339877879041232,-0.0006895442939569563,0.00027655782706437204
149560000000.0,2,0.06194860804999999,-0.0586633803,0.2545217941,-0.031207,0.058003,-0.012797,0.1720870942,-4.10114103,-8.9063014635,0.01932,0.43146,-0.70214,-9.999999999998899e-05,0.00019999999999997797,1.999999999990898e-05,-0.0007572730812123174,0.0003797935879015224,0.00043199408259619876
149560000000.0,2,0.13585152245,-0.0692741756,0.238497728,-0.042087,0.02933,-0.014904,0.1783829635,-4.1002584314999995,-8.906595663,0.020026,0.43136,-0.70241,5.0000000000105516e-05,0.00019999999999997797,9.999999999998899e-05,-0.0007201875526391399,-0.0003181881991198843,0.0004510213443100486
149560000000.0,2,0.1707533898,-0.06769530495,0.20676340859999998,-0.043166,0.022959,-0.021305,0.18448269979999998,-4.0986893675,-8.907184061999999,0.020709,0.43118,-0.70278,4.999999999988347e-05,9.999999999998899e-05,4.999999999988347e-05,-0.001893156421574338,-0.001027758116989963,0.0001447598850931875
149560000000.0,2,0.16260406364999996,-0.031430313249999994,0.20551796404999997,-0.030326,0.024994,-0.024493,0.19069030925,-4.097512569499999,-8.907576328,0.021405,0.43106,-0.70318,-1.999999999990898e-05,0.00019999999999997797,5.0000000000105516e-05,-0.001717868009277923,0.001169883500328428,-0.00011712880454978203
149560000000.0,2,0.1271334106,0.0060016698,0.21705058444999997,-0.013308,0.023783,-0.014859,0.19608396674999998,-4.09721837,-8.907576328,0.022009,0.43103,-0.70348,-2.0000000000131024e-05,9.999999999998899e-05,5.0000000000105516e-05,-0.0011732424258411034,0.0012885486839515625,-0.00010376055194954992
149560000000.0,2,0.10513709464999998,0.0088455983,0.18789541399999998,0.006915,0.027866,0.002244,0.20057541245,-4.098591301,-8.906791796,0.022515,0.43118,-0.70359,-1.999999999990898e-05,0.00019999999999997797,4.999999999988347e-05,-0.000848822349943934,0.0008758421025381047,-0.0002457577377298903
149560000000.0,2,0.09087822554999998,0.011434553899999998,0.1554550158,0.032426,0.02764,0.021499,0.20405677319999999,-4.101925562,-8.905222731999999,0.02291,0.43155,-0.7035,-2.0000000000131024e-05,0.00010000000000021103,-3.333333333332966e-05,0.0001022063701593412,0.001300949780765892,2.4555816716814727e-05
149560000000.0,2,0.07286340949999999,0.018642441649999997,0.14649173769999999,0.057864,0.013568,0.033307,0.20575332365,-4.1073192195,-8.902673002999999,0.023108,0.43216,-0.70323,-1.999999999990898e-05,9.999999999998899e-05,-3.333333333332966e-05,0.0004193199932488456,0.000980566403392169,-0.00040399025323845095
149560000000.0,2,0.060212830999999994,0.035882532349999996,0.11418863259999999,0.070516,-0.006778,0.031228,0.20539047759999998,-4.1137916085,-8.899731008,0.023074,0.43289,-0.70295,1.0000000000065512e-05,9.999999999998899e-05,-3.333333333332966e-05,0.000954744787250883,-0.00015071377096487204,0.0002575399511947629
149560000000.0,2,0.03711817025,0.02480101785,0.08564147444999999,0.076719,-0.03772,0.021686,0.20230138285000002,-4.120950463,-8.8964948135,0.022736,0.43369,-0.70274,9.999999999843467e-06,-1.999999999990898e-05,-0.00019999999999997797,0.0007802532853559141,-0.001682669512798718,0.000900600365054044
149560000000.0,2,0.0185149552,0.01434712895,0.0856708944,0.071094,-0.078159,0.015343,0.1957603473,-4.128011250999999,-8.893356685499999,0.022009,0.43448,-0.70259,1.0000000000065512e-05,-2.0000000000131024e-05,-9.999999999998899e-05,0.0012694328659474396,-0.0010609389139442094,0.000761826828289347
149560000000.0,2,0.00687446165,-0.01354298365,0.0865534929,0.054999,-0.097195,0.003608,0.18706184875,-4.134287507,-8.8906108235,0.021037,0.43518,-0.70253,1.0000000000065512e-05,-1.999999999990898e-05,-9.999999999998899e-05,0.0018805496525222676,-0.0011760356327679133,0.001240596594425769
149560000000.0,2,-0.0194956202,-0.06465524345,0.09200599029999999,0.022093,-0.081997,-0.005014,0.1788536827,-4.1387004995,-8.888747559999999,0.020119,0.43568,-0.70254,1.0000000000065512e-05,-2.0000000000131024e-05,-0.00029999999999996696,0.002085200873648718,-0.0008129231406270865,0.0008719962244934099
149560000000.0,2,-0.05629997764999999,-0.08872076254999998,0.152003075,-0.020202,-0.03902,-0.011564,0.1736169316,-4.140171497,-8.888159160999999,0.019531,0.43585,-0.70259,9.999999999843467e-06,-1.999999999990898e-05,-0.00019999999999997797,0.001866160152361629,-9.781503167261008e-05,0.000625435896301707
149560000000.0,2,-0.1142278592,-0.11378655995,0.21559920025,-0.060197,0.026311,-0.014946,0.17302853259999998,-4.1388966325,-8.888747559999999,0.019464,0.43571,-0.70265,1.0000000000065512e-05,-5.0000000000105516e-05,-0.00019999999999997797,0.00224849001540095,0.00033521563506222485,0.00022433544818134532
149560000000.0,2,-0.1395290162,-0.11630686900000001,0.2453819963,-0.083219,0.086163,-0.007613,0.17752978495,-4.135170105499999,-8.8904146905,0.019966,0.43529,-0.70263,1.0000000000065512e-05,-4.999999999988347e-05,-0.00019999999999997797,0.0014086558245529068,0.0004330777156318355,-0.00034560411058517926
149560000000.0,2,-0.14406949514999998,-0.09631110964999999,0.31905935775,-0.10002,0.12571,0.004035,0.18551239805,-4.130168714,-8.8925721535,0.020859,0.43473,-0.70249,9.999999999843467e-06,-2.4999999999941735e-05,-0.00020000000000020002,0.0006648400366531804,0.0008061498786238186,-0.0006208835562001302
149560000000.0,2,-0.12588796605,-0.09200599029999999,0.36444453395,-0.11382,0.13966,0.014666,0.19531904805,-4.124186657499999,-8.8951218825,0.021954,0.43405,-0.70224,1.0000000000065512e-05,-2.500000000016378e-05,-0.00039999999999995595,0.006426099803926499,0.002371215749841449,-0.0003692915166635391
149560000000.0,2,-0.0510338066,-0.1232303639,0.360688587,-0.13847,0.12707,0.018918,0.20576313029999999,-4.116635537,-8.898456143499999,0.023119,0.4332,-0.70198,4.999999999988347e-05,-2.500000000016378e-05,-0.00019999999999997797,0.0001692358500346991,0.0008818840610969048,-0.0007628506787296097
149560000000.0,2,-0.005207331149999999,-0.1426279176,0.320873588,-0.15786,0.097408,0.010398,0.21485389485,-4.1071230865,-8.902574936499999,0.024129,0.43213,-0.7018,5.0000000000105516e-05,-2.4999999999941735e-05,-0.00029999999999996696,-0.00043762797940560816,-7.203730351679205e-05,-0.0006505823280703593
149560000000.0,2,0.04066817755,-0.13413535869999998,0.21193151314999997,-0.16344,0.055914,-0.00555,0.22179700305,-4.095649305999999,-8.907674394499999,0.024895,0.43085,-0.70181,1.2499999999970868e-05,3.333333333332966e-05,-4.999999999988347e-05,-0.0030088852750386197,-0.0005062703558260662,-0.0004899158188655939
149560000000.0,2,0.0744324735,-0.08017917039999999,0.16615407094999998,-0.1468,-0.006013,-0.017156,0.22468996479999997,-4.0840774589999995,-8.912969985499998,0.025204,0.42955,-0.702,1.2499999999970868e-05,3.333333333355171e-05,-5.0000000000105516e-05,7.776883298504789e-06,0.0001752612594945191,2.024474064904469e-05
149560000000.0,2,0.1132864208,-0.0177108099,0.10035144945,-0.11641,-0.074459,-0.01592,0.2221990757,-4.07368241,-8.917775244,0.024911,0.42838,-0.70224,1.2499999999970868e-05,3.333333333332966e-05,-9.999999999998899e-05,-0.0003553095819819885,-0.0007134871035296975,-5.865577761332563e-06
149560000000.0,2,0.1190723443,0.0116503002,0.04989623519999999,-0.076234,-0.12486,-0.02217,0.21476563499999998,-4.065935156499999,-8.921501770999999,0.024068,0.42751,-0.70255,1.2500000000192912e-05,1.0000000000065512e-05,-0.00019999999999997797,0.00032544848131116355,-0.0002442241334972284,0.0003398655886328039
149560000000.0,2,0.0946341725,0.03709855695,-0.011356100699999998,-0.028289,-0.13697,-0.028474,0.20523357119999996,-4.0616202305,-8.923659233999999,0.022995,0.42703,-0.70291,1.2499999999970868e-05,9.999999999843467e-06,-9.999999999998899e-05,0.0009201745262447658,0.00024417031197265793,0.00024363785826847506
149560000000.0,2,0.042090141799999994,0.07858068644999999,0.00869849855,0.012446,-0.11599,-0.033777,0.19628009975,-4.0607376319999995,-8.924247633,0.02199,0.42693,-0.70331,1.2499999999970868e-05,1.0000000000065512e-05,-0.00019999999999997797,0.0003698821219136339,-0.0003147942682328875,0.0001230507714183593
149560000000.0,2,-0.042933513699999995,0.10796140985,0.03596098555,0.033048,-0.073535,-0.032747,0.18913105189999999,-4.0620124965,-8.923855367,0.02119,0.42707,-0.70364,1.2499999999970868e-05,1.0000000000065512e-05,-9.999999999998899e-05,0.0007767821088269233,0.00030581335047874525,-0.00011150107361485029
149560000000.0,2,-0.09760558744999999,0.08062046964999998,0.00612915625,0.039773,-0.026717,-0.023208,0.18499264559999998,-4.064268026,-8.922874702,0.020729,0.42733,-0.70385,1.2499999999970868e-05,9.999999999843467e-06,-0.00019999999999997797,0.0010614212099303577,-8.352554191337624e-05,-0.00042755359417076533
149560000000.0,2,-0.13074225779999998,0.041639035899999996,-0.017416610399999997,0.031481,0.010631,-0.01261,0.1835608747,-4.0667196885,-8.9217959705,0.020572,0.42761,-0.70392,2.4999999999941735e-05,1.0000000000065512e-05,-0.00010000000000021103,0.0001612745404435123,0.0003192083739980145,-0.0002422062123957347
149560000000.0,2,-0.11992552285,-0.0014709974999999999,-0.00754131385,0.013441,0.026753,-0.006261,0.18382565425,-4.068386819,-8.921011438499999,0.020602,0.42779,-0.7039,2.4999999999941735e-05,1.0000000000065512e-05,-0.00019999999999997797,0.0010210326542923753,0.0004175466386822091,-0.0005348205649797211
149560000000.0,2,-0.07007832089999999,-0.04302177355,-0.0152199208,-0.005727,0.031172,-0.006299,0.18574775764999998,-4.0686810184999995,-8.9208153055,0.020819,0.42783,-0.70391,2.500000000016378e-05,1.0000000000065512e-05,-9.999999999998899e-05,0.0002971157133059288,-1.8668998361226485e-05,-0.0004823333615690817
149560000000.0,2,-0.00348136075,-0.07960057804999998,0.01240541225,-0.025986,0.027085,-0.014866,0.18873878589999998,-4.0680926195,-8.921109504999999,0.021153,0.42775,-0.70404,2.4999999999941735e-05,9.999999999843467e-06,-9.999999999998899e-05,0.002498385620105681,0.00036751589915007266,-0.00040722223810371605
149560000000.0,2,0.060614903649999996,-0.08783816404999999,0.03992287215,-0.044179,0.012331,-0.026615,0.19212208014999999,-4.065935156499999,-8.9219921035,0.021531,0.42752,-0.70434,3.333333333332966e-05,1.0000000000065512e-05,-9.999999999998899e-05,0.0003837694712493511,0.0003271488227540864,0.0001575452132180355
149560000000.0,2,0.10353861069999999,-0.0748835794,0.057006056449999995,-0.060289,-0.008832,-0.03835,0.19513272169999998,-4.062110562999999,-8.923659233999999,0.021864,0.42709,-0.7048,3.333333333332966e-05,3.333333333332966e-05,9.999999999998899e-05,-0.002826482334047642,-0.000822985029513168,-0.00014665182335998894
149560000000.0,2,0.14058813439999998,-0.06647928035,0.053828701849999994,-0.06469,-0.03116,-0.046862,0.19729999135,-4.0575014375,-8.9257186305,0.022101,0.42657,-0.7054,3.333333333332966e-05,3.333333333332966e-05,2.4999999999941735e-05,0.00016210902680796613,-0.0004775041076434672,6.365373715175315e-05
149560000000.0,2,0.1374696197,-0.04810161824999999,0.0154160538,-0.06582,-0.043925,-0.054318,0.19817278319999998,-4.05210778,-8.928170292999999,0.022192,0.42597,-0.70609,3.333333333332966e-05,3.333333333332966e-05,2.4999999999941735e-05,0.00041226545856809516,-0.00025440525884090626,6.845807518390812e-06
149560000000.0,2,0.1023225861,-0.00350097405,-0.04637564784999999,-0.059394,-0.040778,-0.054316,0.19830026964999997,-4.0461257235,-8.930818088499999,0.0222,0.4253,-0.70675,3.333333333332966e-05,9.999999999998899e-05,2.500000000016378e-05,-0.00023085115575949278,-0.00021567517798781743,-7.3465014159807e-05
149560000000.0,2,0.0156121868,0.034068302099999996,-0.08772048425,-0.048657,-0.025958,-0.044718,0.19777071055,-4.0403398,-8.933465883999999,0.022135,0.42464,-0.70728,3.333333333332966e-05,9.999999999998899e-05,2.4999999999941735e-05,-0.00022048419955678078,-0.00025697761025744725,-0.0001508235934570834
149560000000.0,2,-0.0528970701,0.051347619399999996,-0.11700314115,-0.03041,-0.003746,-0.031915,0.19744709109999997,-4.035632607999999,-8.935623347,0.022093,0.42412,-0.70762,3.333333333332966e-05,9.999999999998899e-05,9.999999999998899e-05,-0.0001437695577552467,0.0007449470837075367,0.00010035392725063486
149560000000.0,2,-0.09695834854999999,0.06236048735,-0.1354102232,-0.016458,0.013175,-0.022312,0.197505931,-4.031906081,-8.9372904775,0.022096,0.42371,-0.70781,3.333333333332966e-05,9.999999999998899e-05,9.999999999998899e-05,-0.0046798643729958345,-0.0006790507086864572,-0.00048088220702657836
149560000000.0,2,-0.08683788575,0.049866815249999995,-0.14223565159999998,-0.002554,0.02264,-0.01483,0.19861408244999998,-4.029748618,-8.938173076,0.022217,0.42347,-0.70792,3.333333333332966e-05,4.999999999988347e-05,5.0000000000105516e-05,0.00020797624429363948,0.0010479950512936043,-0.00026962706328143016
149560000000.0,2,-0.0612327226,0.046885593649999995,-0.12101406099999999,0.006013,0.025766,-0.016954,0.2005459925,-4.028767953,-8.9386634085,0.022432,0.42335,-0.70805,6.666666666665932e-05,5.0000000000105516e-05,4.999999999988347e-05,-0.00033603957193151235,0.0010659794861995753,4.4864019634299757e-05
149560000000.0,2,-0.028566771449999997,0.032783630949999996,-0.07840416675,0.010272,0.02041,-0.024409,0.20304668825,-4.0286698864999995,-8.938565341999999,0.022712,0.42335,-0.70828,6.666666666665932e-05,9.999999999998899e-05,2.4999999999941735e-05,-0.00022158664004456874,0.0019196746514416052,0.0001519989308981784
149560000000.0,2,0.01173856005,0.009237864299999999,-0.05410328805,0.005888,0.003402,-0.028657,0.20523357119999996,-4.028767953,-8.938565341999999,0.022956,0.42336,-0.7086,6.666666666665932e-05,4.999999999988347e-05,2.500000000016378e-05,-0.0007343676711906721,-0.0005801399031206689,0.00017615659666395111
149560000000.0,2,0.051141679749999995,-0.0195152335,-0.01115016105,0.001381,-0.025333,-0.02648,0.20578274359999998,-4.0290621525,-8.938369209,0.023018,0.42339,-0.70895,4.999999999988347e-05,5.0000000000105516e-05,2.500000000016378e-05,-0.00019501410801087138,-0.00015482016352685868,0.0002483563098838737
149560000000.0,2,0.0855532146,-0.06408645774999999,-0.008208166049999998,0.006432,-0.05309,-0.013616,0.20369392715,-4.030337017,-8.9378788765,0.022786,0.42352,-0.7092,5.0000000000105516e-05,9.999999999998899e-05,2.4999999999941735e-05,6.336995711397897e-06,-0.00038162165650246216,0.00036594640257239797
149560000000.0,2,0.1038720368,-0.10572549365,0.03698087715,0.004057,-0.076522,-0.00184,0.19915344819999997,-4.0324944799999995,-8.936996278,0.02228,0.42377,-0.70933,9.999999999998899e-05,4.999999999988347e-05,-0.00010000000000021103,0.0001732346661847406,-0.0010410161845204602,0.0001656746884985405
149560000000.0,2,0.09247670949999999,-0.1068140318,0.08370956439999999,0.000771,-0.083958,0.00457,0.19303409859999998,-4.0347500095,-8.9361136795,0.021598,0.42402,-0.70936,9.999999999998899e-05,5.0000000000105516e-05,0.00010000000000021103,0.0003800496647279328,-0.00025549251112089166,0.0001375604623596871
149560000000.0,2,0.05523105279999999,-0.0790808256,0.0415213561,0.002074,-0.056258,0.002388,0.1880719337,-4.036221007,-8.9355252805,0.021045,0.42419,-0.70937,9.999999999998899e-05,9.999999999998899e-05,1.2499999999970868e-05,0.0002819797681223868,0.00042476200588259516,0.0006074979861643293
149560000000.0,2,-0.0308713342,-0.01581812645,0.06966644159999999,-0.005017,-0.014634,-0.006236,0.18544375149999998,-4.0367113395,-8.935427213999999,0.020751,0.42424,-0.70939,0.00010000000000021103,9.999999999998899e-05,1.2499999999970868e-05,0.00022965157508014755,0.0012354280300643783,-8.76872345469959e-05
149560000000.0,2,-0.08900515540000001,0.0417959423,0.06722458575,-0.008955,0.02589,-0.007379,0.18566930444999996,-4.0357306745,-8.93581948,0.020775,0.42414,-0.70941,9.999999999998899e-05,9.999999999998899e-05,1.2499999999970868e-05,-0.0006432372068356229,2.797938998666538e-05,0.0003336260099107702
149560000000.0,2,-0.096301303,0.0668225131,0.030694814499999997,-0.010888,0.054668,-0.002093,0.1886211061,-4.0340635439999994,-8.9365059455,0.021104,0.42394,-0.70938,9.999999999998899e-05,9.999999999998899e-05,1.2499999999970868e-05,-0.0011463577694061367,0.0007216457829977152,0.00013107204830270502
149560000000.0,2,-0.101793027,0.0532697228,0.0532501095,-0.01516,0.058954,0.005367,0.19217111339999998,-4.032298346999999,-8.937192411,0.021499,0.42375,-0.70928,9.999999999998899e-05,9.999999999998899e-05,1.2500000000192912e-05,-0.0003430856997613252,0.0009086594020368821,0.00012512759953670072
149560000000.0,2,-0.050278694549999996,0.04810161824999999,0.0442476048,-0.015399,0.036565,0.017148,0.19467180914999999,-4.030533149999999,-8.937976942999999,0.021777,0.42355,-0.70909,9.999999999998899e-05,9.999999999998899e-05,1.2499999999970868e-05,-0.00041445833047421,6.823420550627901e-05,-3.6903131882926044e-05
149560000000.0,2,-5.88399e-05,0.04833697785,0.05534873259999999,-0.016799,0.000337,0.025749,0.19458354929999996,-4.0288660195,-8.938761475,0.021765,0.42336,-0.70883,9.999999999998899e-05,0.00019999999999997797,1.2499999999970868e-05,-0.0007631072976005404,-0.000515880986256656,0.00013992094706671843
149560000000.0,2,0.0168478247,0.031744126049999995,0.06663618674999999,-0.017151,-0.042286,0.027958,0.19085702229999998,-4.027198889,-8.939546006999999,0.021346,0.42318,-0.70854,9.999999999998899e-05,0.00010000000000021103,1.2499999999970868e-05,-0.0003608538326255739,-0.00039412512462355664,0.0004283760922893509
149560000000.0,2,0.0196329133,0.04076624405,0.0366376444,-0.001454,-0.07652,0.03445,0.18372758775,-4.026414357,-8.9400363395,0.020548,0.42308,-0.70818,4.999999999988347e-05,9.999999999998899e-05,-2.4999999999941735e-05,-0.00029813300407366405,-0.0006813444862630025,0.00034226566128361946
149560000000.0,2,-0.0030596748,0.05916351945,0.033450483149999995,0.020781,-0.096952,0.035592,0.17380325794999998,-4.0272969555,-8.9398402065,0.019439,0.42318,-0.70779,5.0000000000105516e-05,9.999999999998899e-05,-2.500000000016378e-05,-0.0001921245359349788,-0.000578723227397937,0.000683543934075187
149560000000.0,2,-0.0548191735,0.06560648849999999,0.0579965281,0.031477,-0.0981,0.028142,0.1625550304,-4.029356352,-8.939153741,0.018183,0.42342,-0.70741,9.999999999998899e-05,5.0000000000105516e-05,-2.4999999999941735e-05,0.00025239354287809324,0.0006119949050389373,0.00044463751809609153
149560000000.0,2,-0.067469752,0.06598894785,0.0253992235,0.040271,-0.071525,0.018506,0.1535132991,-4.0320041475,-8.938075009499999,0.017173,0.42371,-0.70713,9.999999999998899e-05,4.999999999988347e-05,-2.4999999999941735e-05,0.0004138328793023005,9.796016077889824e-05,0.0007360228722761153
149560000000.0,2,-0.0984783793,0.06783259805,0.0269290609,0.05239,-0.030059,0.007783,0.14785486204999998,-4.0357306745,-8.9365059455,0.016544,0.42414,-0.70694,9.999999999998899e-05,3.333333333332966e-05,-0.000300000000000189,0.0007190132696842655,0.0004376159301122673,0.0005038165083976198
149560000000.0,2,-0.12867305465,0.06708729264999999,0.077080269,0.050583,0.008317,0.003446,0.1454326195,-4.040143667,-8.9345446155,0.016276,0.42462,-0.7068,0.00029999999999996696,3.333333333332966e-05,-0.00029999999999996696,0.009000422394010776,0.002507139368949751,0.0008429103693321505
149560000000.0,2,-0.09080957899999999,0.019985952699999997,0.0955952242,0.019861,0.036271,0.004413,0.1464721244,-4.0431837285,-8.9331716845,0.016395,0.42496,-0.70669,3.333333333332966e-05,3.333333333332966e-05,0.00039999999999995595,-0.008165734816101056,-0.0012028161557862127,-0.00035082324653587516
149560000000.0,2,-0.03763792269999999,-0.05447594075,0.10025338294999998,-0.021713,0.046193,0.013931,0.14956121915,-4.043674061,-8.932877485,0.016741,0.42502,-0.70654,3.333333333332966e-05,5.0000000000105516e-05,-1.999999999990898e-05,4.105585864316863e-05,0.0007774955800414762,0.00010070258939201548
149560000000.0,2,0.0316754795,-0.1406665876,0.09262380925,-0.057013,0.041145,0.02562,0.1531210331,-4.0418107975,-8.933662017,0.017139,0.42482,-0.70631,3.333333333332966e-05,4.999999999988347e-05,-2.0000000000131024e-05,-0.0003351227399232548,0.0011156703287196201,0.00016237740848637494
149560000000.0,2,0.05910467955,-0.19014113684999998,0.1144828321,-0.076368,0.023189,0.028819,0.15563153549999997,-4.038770736,-8.935034948,0.017416,0.42447,-0.70604,4.999999999988347e-05,-1.4285714285744433e-05,-1.999999999990898e-05,-0.0006668968848683177,-0.00016030167172575993,-0.0002023223757313397
149560000000.0,2,0.09882161204999998,-0.16707589604999998,0.12930068025,-0.079781,-0.004485,0.028859,0.15646510075,-4.0347500095,-8.936800145,0.017506,0.42402,-0.70579,5.0000000000105516e-05,-1.4285714285744433e-05,-2.0000000000131024e-05,-0.0004973134600755325,0.00010121306783439366,-0.00012073200334208889
149560000000.0,2,0.10995215979999999,-0.13534157665,0.12159265335,-0.062913,-0.030195,0.029999,0.15506274979999998,-4.031317682,-8.938369209,0.017346,0.42364,-0.70554,5.0000000000105516e-05,-1.4285714285744433e-05,-1.999999999990898e-05,0.00025600289097826856,-0.00012855806463840658,-3.033953422779123e-05
149560000000.0,2,0.0530735898,-0.11614015594999999,0.134743371,-0.036437,-0.057049,0.027956,0.1502771046,-4.0298466845,-8.939153741,0.01681,0.42348,-0.70525,4.999999999988347e-05,-1.4285714285522388e-05,-4.999999999988347e-05,0.00017019769036230592,-0.00033029831408804,0.00012848041048896253
149560000000.0,2,0.011405133949999998,-0.08264063955,0.12364224319999999,0.007339,-0.063786,0.012033,0.14391258875,-4.031513815,-8.938467275499999,0.016099,0.42366,-0.70507,4.999999999988347e-05,-1.4285714285744433e-05,-5.0000000000105516e-05,0.0005807951133194322,-0.00036419682806032583,5.273819334339347e-05
149560000000.0,2,-0.0493078362,-0.022319935399999997,0.0855728279,0.056707,-0.043922,-0.013532,0.1389406172,-4.03641714,-8.9363098125,0.015547,0.42421,-0.70511,5.0000000000105516e-05,-1.4285714285744433e-05,-9.999999999998899e-05,0.0008143696517997068,6.499370866652754e-05,0.00010967153582411293
149560000000.0,2,-0.1056176205,0.060820843299999997,0.11673836159999999,0.082514,-0.028138,-0.028456,0.1353906099,-4.0433798615,-8.933269751,0.015155,0.42499,-0.70532,5.0000000000105516e-05,-1.4285714285744433e-05,-4.999999999988347e-05,0.000706181393859473,9.272154633577223e-05,0.00022150680374077858
149560000000.0,2,-0.10192051344999999,0.05812401455,0.16099577305,0.060211,-0.019427,-0.034911,0.13304682054999997,-4.0498522505,-8.930327755999999,0.014897,0.42571,-0.70563,4.999999999988347e-05,2.4999999999941735e-05,-5.0000000000105516e-05,0.00041907527465812056,0.000460481727419193,-4.0754773815876444e-05
149560000000.0,2,-0.07325567549999999,-0.048258524649999995,0.07857087979999999,0.014494,0.002256,-0.031823,0.1326643612,-4.053480711,-8.928758691999999,0.014857,0.42612,-0.70594,4.999999999988347e-05,2.500000000016378e-05,-9.999999999998899e-05,9.620037025059869e-05,0.00036526685977289475,-0.0001767134933221004
149560000000.0,2,-0.04682675374999999,-0.09211386345,0.007384407449999999,-0.025908,0.02602,-0.02126,0.13466491779999998,-4.0532845779999995,-8.928758691999999,0.015081,0.4261,-0.70617,5.0000000000105516e-05,2.4999999999941735e-05,-0.00029999999999996696,0.005917410298395487,0.001915417205907044,0.00014634932302196035
149560000000.0,2,-0.0874557047,-0.0685877101,0.03405849545,-0.049323,0.036859,-0.014912,0.13713619359999998,-4.0504406495,-8.9300335565,0.015355,0.42578,-0.70627,-5.0000000000105516e-05,2.4999999999941735e-05,-9.999999999998899e-05,-0.00011417288886778065,0.0007004631254001747,-0.00046711392268855567
149560000000.0,2,-0.0869457589,-0.04486542375,0.071196279,-0.064395,0.024185,-0.007441,0.1385679645,-4.046027657,-8.9319948865,0.015513,0.42529,-0.7063,-4.999999999988347e-05,9.999999999998899e-05,0.00029999999999996696,-0.006208584753841617,-0.002060394357423778,-0.0005073097563808582
149560000000.0,2,-0.05355411564999999,-0.0263210486,0.020888164499999997,-0.067786,0.002895,-0.003138,0.1385483512,-4.040535933,-8.9345446155,0.015506,0.42467,-0.70629,1.4285714285744433e-05,5.0000000000105516e-05,-5.0000000000105516e-05,-0.0001538990802274487,-0.0006321068807089159,0.00011209860568273111
149560000000.0,2,-0.0637628383,0.0161221326,0.00577611685,-0.06051,-0.021675,-0.004148,0.13618494855,-4.034651943,-8.937192411,0.015237,0.42401,-0.70626,1.4285714285744433e-05,4.999999999988347e-05,-4.999999999988347e-05,-1.6265893600764247e-05,-0.0006521937127341726,0.0002990800619613876
149560000000.0,2,-0.04500271685,0.06281159324999999,0.033931009,-0.04897,-0.050535,-0.011547,0.13179156935,-4.0291602189999995,-8.93974214,0.014742,0.42339,-0.70632,1.4285714285744433e-05,4.999999999988347e-05,-4.999999999988347e-05,-9.755200341032833e-05,-0.0006552184779562431,0.00038780385719935917
149560000000.0,2,-0.0451890432,0.10441140254999999,0.029988735699999998,-0.022314,-0.058205,-0.021093,0.12643713845,-4.025041426,-8.94170347,0.014139,0.42294,-0.70649,1.4285714285522388e-05,5.0000000000105516e-05,-5.0000000000105516e-05,0.0005491246744466771,0.0002568964317537503,0.00039781433476984707
149560000000.0,2,-0.07970845119999999,0.1408431073,0.032675757799999997,0.002457,-0.039214,-0.038159,0.12235757205,-4.022883962999999,-8.942684135,0.013681,0.4227,-0.7068,1.4285714285744433e-05,2.4999999999941735e-05,-9.999999999998899e-05,0.0009596654453010167,-0.00017905963989495177,0.00016334808078197205
149560000000.0,2,-0.13922501005,0.1701061509,0.07497183924999999,0.020886,-0.004202,-0.041387,0.12051392184999998,-4.0223936305,-8.9429783345,0.013475,0.42264,-0.70716,1.4285714285744433e-05,2.500000000016378e-05,-9.999999999998899e-05,0.0003988863963134692,0.000149523276065322,-6.676969009508649e-05
149560000000.0,2,-0.14609947169999998,0.16445752049999998,0.068450417,0.027552,0.036219,-0.030768,0.12185743289999999,-4.022883962999999,-8.942684135,0.013626,0.42269,-0.70743,1.4285714285744433e-05,2.4999999999941735e-05,-0.0004999999999999449,0.006609100595562356,0.0011776911212648677,0.0001924155514763659
149560000000.0,2,-0.12506420745,0.0941242267,0.08018897705,0.011636,0.060833,-0.009488,0.1253682136,-4.023570428499999,-8.942291869,0.014018,0.42278,-0.7075,-5.0000000000105516e-05,2.4999999999941735e-05,-9.999999999998899e-05,0.001155632445344501,-4.2764814333073886e-05,-0.0003321266341219098
149560000000.0,2,-0.06365496514999999,0.009296704199999999,0.0975369409,-0.019417,0.054679,0.003279,0.1294870066,-4.0231781625,-8.942488002,0.01448,0.42273,-0.70745,-4.999999999988347e-05,1.6666666666775853e-05,-9.999999999998899e-05,0.0010959036551725365,-0.000610051968220171,-8.082306854034771e-06
149560000000.0,2,0.0066096821,-0.06638121385,0.08506288209999999,-0.049371,0.042143,4.7e-05,0.13375289934999998,-4.0208245665,-8.943468667,0.014954,0.42246,-0.70743,4.999999999988347e-05,1.666666666655381e-05,-9.999999999998899e-05,0.0001951370581440015,-0.0007244990299393184,7.643488544908927e-05
149560000000.0,2,0.056260751049999995,-0.08776951749999999,0.0684700303,-0.068617,0.028464,-0.012773,0.13796975884999998,-4.0166077069999995,-8.945233863999999,0.015423,0.422,-0.70757,5.0000000000105516e-05,1.666666666655381e-05,-0.00010000000000021103,5.687999080350448e-06,-0.0005480904285328769,-1.0192384801321897e-05
149560000000.0,2,0.07163757825,-0.07336354865,0.10979525339999999,-0.077147,0.017899,-0.02985,0.142196425,-4.0114101825,-8.9474893935,0.015891,0.42142,-0.7079,1.6666666666775853e-05,1.6666666666775853e-05,-9.999999999998899e-05,-4.587231164404626e-05,-0.00036606241506143,-0.00030834061255885503
149560000000.0,2,0.05351488905,-0.06390013139999999,0.12506420745,-0.078159,0.016856,-0.041593,0.14624657144999997,-4.0059184585,-8.949941056,0.016339,0.4208,-0.70835,1.666666666655381e-05,1.6666666666775853e-05,-4.999999999988347e-05,9.428124922639114e-05,0.0001265331957867044,-0.00034356611032115847
149560000000.0,2,0.019279873899999998,-0.0665871535,0.12388740945,-0.074857,0.024296,-0.049073,0.15056149745,-4.000720933999999,-8.9521965855,0.016817,0.42022,-0.70888,1.6666666666775853e-05,1.666666666655381e-05,-5.0000000000105516e-05,0.00040243155407027054,0.00041965953931621947,-0.0004214950273810081
149560000000.0,2,-0.0132389775,-0.056888376649999996,0.09081938565,-0.056585,0.041194,-0.048003,0.15570018204999997,-3.9965040745,-8.9539617825,0.017387,0.41975,-0.70939,1.6666666666775853e-05,-9.999999999998899e-05,-9.999999999998899e-05,0.0005737722108726251,0.00014283120280289552,-0.0006129362536367589
149560000000.0,2,-0.0493666761,-0.02083913125,0.07889449925,-0.036273,0.050608,-0.040512,0.16099577305,-3.993464013,-8.955236647,0.017976,0.41941,-0.70981,1.666666666655381e-05,-3.333333333332966e-05,-0.00019999999999997797,0.0005015547860456326,1.4923323160553892e-05,-0.0008565772643927827
149560000000.0,2,-0.0600755379,0.0005491723999999999,0.05598616484999999,-0.013944,0.04296,-0.037256,0.16572257835,-3.9919930155,-8.955825046,0.018502,0.41924,-0.71018,1.6666666666775853e-05,-3.333333333332966e-05,-3.333333333332966e-05,-0.00020280278261164408,-0.00039804435342394306,-0.0008654172015513384
149560000000.0,2,-0.031518573099999996,0.0234771201,0.007247114349999999,0.001887,0.019388,-0.040388,0.16903722605,-3.9914046164999997,-8.956021178999999,0.018872,0.41918,-0.71059,2.4999999999941735e-05,-3.333333333332966e-05,-3.333333333332966e-05,-0.0021768887931447045,-0.0008380159195973125,-0.000870024874954467
149560000000.0,2,0.0186130217,0.014298095700000001,-0.0169066646,0.00912,-0.012634,-0.044589,0.17068474325,-3.9917968825,-8.955825046,0.019056,0.41922,-0.71108,2.500000000016378e-05,2.4999999999941735e-05,-3.333333333332966e-05,0.0003045168318807634,0.00016594772373679234,-0.0006290761255055011
149560000000.0,2,0.056290171,-0.0167301449,-0.0112188076,0.004596,-0.046691,-0.047741,0.16995905114999998,-3.9924833479999995,-8.955530846499999,0.018976,0.4193,-0.71163,2.4999999999941735e-05,2.500000000016378e-05,-0.00019999999999997797,0.0014391628377066756,0.0009878354699739411,-0.00029683608030947606
149560000000.0,2,0.0732752888,-0.042492214449999996,0.0189856744,-0.013705,-0.069976,-0.052003,0.1673406756,-3.9922872149999997,-8.955628913,0.018683,0.41928,-0.71224,2.4999999999941735e-05,2.4999999999941735e-05,-9.999999999998899e-05,0.0005670721951728797,0.000913683285480138,-0.0004306069929320977
149560000000.0,2,0.09226096319999999,-0.08819120344999999,0.016024066099999998,-0.027502,-0.066653,-0.060574,0.1649674663,-3.9914046164999997,-8.9561192455,0.018418,0.41918,-0.71295,6.666666666665932e-05,2.4999999999941735e-05,-9.999999999998899e-05,0.0011856969398593709,0.0005527331067072261,-0.00017631514104687884
149560000000.0,2,0.04669926729999999,-0.06905842929999999,0.0222414822,-0.037006,-0.058043,-0.065944,0.16293748975,-3.9892471534999996,-8.9570999105,0.018189,0.41894,-0.71368,6.666666666665932e-05,3.333333333332966e-05,-5.0000000000105516e-05,0.0008700125567226435,0.0008979689940411539,-0.0001250817743937982
149560000000.0,2,0.011022674599999999,-0.0248108245,0.0734321952,-0.045443,-0.047315,-0.068113,0.1613586191,-3.9859128924999996,-8.958570907999999,0.018009,0.41857,-0.71443,6.666666666665932e-05,3.333333333332966e-05,-4.999999999988347e-05,-0.0009260859519052422,-0.0002513742413488007,0.0003603831773921762
149560000000.0,2,0.0196329133,-0.022290515449999996,0.06457679024999999,-0.04756,-0.044102,-0.065988,0.16038776075,-3.9822844319999997,-8.9602380385,0.017898,0.41816,-0.71516,9.999999999998899e-05,3.333333333332966e-05,-9.999999999998899e-05,-0.0006756051063450119,-0.00025431615518800577,0.00015817068334855744
149560000000.0,2,0.03319551025,0.012425025549999998,0.10378377695,-0.052932,-0.043001,-0.056393,0.15938748244999998,-3.977969506,-8.962199368499999,0.017782,0.41768,-0.71582,9.999999999998899e-05,9.999999999998899e-05,-5.0000000000105516e-05,-0.0013452378025235467,0.0005890794880296646,0.00031439924338333425
149560000000.0,2,0.08538650155,0.033872169099999995,0.14202971195,-0.059384,-0.044019,-0.047866,0.15896579649999998,-3.9730661809999996,-8.9643568315,0.017731,0.41713,-0.71642,9.999999999998899e-05,9.999999999998899e-05,-4.999999999988347e-05,-0.0010947996658737247,0.0008805063983390315,-9.062102927961946e-05
149560000000.0,2,0.10530380769999999,0.04043281795,0.10461734219999999,-0.059381,-0.03444,-0.032942,0.15879908345,-3.9676725234999997,-8.966808493999999,0.017708,0.41653,-0.71689,0.00019999999999997797,-1.999999999990898e-05,-4.999999999988347e-05,-0.0047682274052249785,-0.0011259848056246469,-6.325285576408435e-05
149560000000.0,2,0.12053353515,0.0734714218,0.0699214145,-0.040106,-0.01543,-0.016935,0.15974052185,-3.962867265,-8.968867890499999,0.017809,0.41599,-0.71719,0.00019999999999997797,-2.0000000000131024e-05,-5.0000000000105516e-05,-0.0005413638075384419,-8.829291101020154e-05,-0.0003485926859181365
149560000000.0,2,0.08199340064999999,0.0806302763,0.09950807754999999,-0.005972,-0.006135,-0.000884,0.16071138019999998,-3.9609059349999995,-8.969750488999999,0.017916,0.41577,-0.7173,9.999999999998899e-05,-1.999999999990898e-05,-9.999999999998899e-05,-0.0007474016963138763,0.0008735939676991489,-0.00010291650523422402
149560000000.0,2,0.0431100334,0.10377397029999999,0.12600564585,0.027003,-0.011744,0.009856,0.16039756739999997,-3.9618866,-8.969260156499999,0.017881,0.41588,-0.71726,0.00019999999999997797,-2.0000000000131024e-05,-0.00019999999999997797,-0.0013031551795515406,-7.191904078895917e-05,-0.0006307700422150397
149560000000.0,2,0.054328840999999996,0.1259762259,0.12172994645,0.057799,-0.026918,0.014204,0.1587500502,-3.9655150605,-8.967691092499999,0.017701,0.41629,-0.71717,0.00019999999999997797,-1.999999999990898e-05,-9.999999999998899e-05,-0.0004861216314473449,0.0009337485020417535,-6.990787181029856e-05
149560000000.0,2,0.04058972435,0.10608833969999999,0.11629706235,0.078974,-0.048401,0.012143,0.15499410325,-3.9714971169999997,-8.965141363499999,0.017286,0.41696,-0.71707,9.999999999998899e-05,-4.999999999988347e-05,-0.00020000000000020002,0.0001342351665560848,0.000386936965245388,-0.00010249145999430276
149560000000.0,2,0.01840708205,0.07499145255,0.13296836734999998,0.08525,-0.068691,0.004717,0.14948276594999999,-3.9790482375,-8.961905169,0.016678,0.4178,-0.71703,9.999999999998899e-05,-5.0000000000105516e-05,-0.00029999999999996696,0.0015558543587685936,0.0005326694035114876,1.480660711586368e-05
149560000000.0,2,0.02164327655,0.03325435015,0.1389602305,0.076573,-0.089925,-0.000598,0.14220623165,-3.9866974245,-8.958570907999999,0.015872,0.41865,-0.71706,0.00019999999999997797,-5.0000000000105516e-05,-0.00029999999999996696,0.0011904406364093845,-1.4163370601005809e-05,0.00015930790141555073
149560000000.0,2,0.03384274915,-0.0245362383,0.11614015594999999,0.057284,-0.10361,-0.004877,0.13359599295,-3.9935620794999998,-8.955628913,0.014916,0.41942,-0.71711,0.00010000000000021103,-4.999999999988347e-05,-0.00019999999999997797,0.0014525712478083985,-0.0005185892808627912,0.00039867180816077763
149560000000.0,2,0.027007514099999998,-0.06694019289999999,0.12261254495,0.026361,-0.10336,-0.007066,0.12486807444999999,-3.9984654044999997,-8.953667583,0.013946,0.41996,-0.7172,9.999999999998899e-05,-0.00019999999999997797,-0.00029999999999996696,0.0019008563759518315,-0.00021941582645723656,0.00046500163200149935
149560000000.0,2,0.05065134725,-0.10403874985,0.11441418554999999,-0.013979,-0.08064,-0.010378,0.11814071255,-4.000230601499999,-8.952883050999999,0.013195,0.42016,-0.71735,0.00019999999999997797,-9.999999999998899e-05,-0.00019999999999997797,0.0009433532575633397,-0.0005464322004204991,0.000369932408824436
149560000000.0,2,0.011503200449999999,-0.11275686169999999,0.09950807754999999,-0.053119,-0.044079,-0.017982,0.11404153285,-3.9985634709999998,-8.953667583,0.012737,0.41997,-0.71753,9.999999999998899e-05,-9.999999999998899e-05,-0.00029999999999996696,0.0012818316668553598,-0.0006931930658553576,0.00027054508047427706
149560000000.0,2,-0.05607442469999999,-0.09377118729999999,0.1249955609,-0.089014,-0.001154,-0.024522,0.11293338139999999,-3.993464013,-8.956021178999999,0.012609,0.4194,-0.71773,0.00019999999999997797,-9.999999999998899e-05,-0.00029999999999996696,0.001280400105214352,-0.0010541345371752886,-0.0003440914392000838
149560000000.0,2,-0.08338594495,-0.08196398070000001,0.14261811095,-0.12279,0.04494,-0.022525,0.11556156359999999,-3.985030294,-8.959747706,0.012897,0.41847,-0.71792,0.00019999999999997797,-9.999999999998899e-05,-0.000300000000000189,0.0012787657902825211,0.0004227299333492418,-0.0002725535734833251
149560000000.0,2,-0.09964537065,-0.08978968739999998,0.13892100389999998,-0.14177,0.077053,-0.015139,0.1208963812,-3.9746352449999995,-8.964258765,0.013486,0.41731,-0.71802,9.999999999998899e-05,-9.999999999998899e-05,-0.00019999999999997797,0.00040336517117178783,0.0011676287537927266,-0.00046681526572545096
149560000000.0,2,-0.11251169545,-0.09868431895,0.16268251685,-0.15338,0.093128,-0.014117,0.12778064949999998,-3.9633575975,-8.96916209,0.014245,0.41605,-0.71806,0.00019999999999997797,-0.00019999999999997797,-0.00019999999999997797,0.00027858084465509636,0.0004995937412679563,-0.0005390961829942476
149560000000.0,2,-0.07498164589999999,-0.09147643119999999,0.13545925645,-0.1459,0.092001,-0.016234,0.13573384265,-3.9518838169999997,-8.974065415,0.015124,0.41477,-0.71816,0.00019999999999997797,-5.0000000000105516e-05,-0.00019999999999997797,0.0002289497236141469,0.0013993226232262845,-0.00020696221336996556
149560000000.0,2,-0.03792231555,-0.07736466185,0.1179543862,-0.12471,0.069455,-0.022561,0.14297115035,-3.9417829674999996,-8.978478407499999,0.015923,0.41364,-0.71835,0.00019999999999997797,-5.0000000000105516e-05,-0.00019999999999997797,-9.466249962797324e-05,0.0006481763682160135,6.573520525357535e-05
149560000000.0,2,0.00392266,-0.0678816313,0.09968459724999999,-0.10262,0.026654,-0.026717,0.14750182265,-3.933447315,-8.9820088015,0.016421,0.41272,-0.71861,0.00019999999999997797,-9.999999999998899e-05,-9.999999999998899e-05,-0.0009232544831263567,0.0005259745884231837,-0.00020581753865900332
149560000000.0,2,0.05162220559999999,-0.054966273249999996,0.05791807489999999,-0.081689,-0.023602,-0.024459,0.14844326105,-3.9265826599999993,-8.985048863,0.016519,0.41195,-0.71891,0.00029999999999996696,-4.999999999988347e-05,-0.00019999999999997797,-0.0005001647648716356,0.0002964303423427239,0.00033096780300914674
149560000000.0,2,0.0843175767,-0.025722842949999998,0.023271180449999998,-0.05651,-0.073896,-0.018992,0.1450795801,-3.9213851355,-8.987304392499999,0.016141,0.41138,-0.71918,0.000300000000000189,-5.0000000000105516e-05,-0.00019999999999997797,-0.0005440759859282607,-0.00038989273217215903,0.00041155913287688195
149560000000.0,2,0.11115837775,-0.018338435499999996,0.00901231135,-0.031211,-0.10714,-0.010351,0.13844047804999998,-3.918345074,-8.988775389999999,0.0154,0.41103,-0.7194,0.00019999999999997797,-9.999999999998899e-05,-0.00019999999999997797,0.0010880351711694547,8.918982505612405e-05,0.0009688124744692828
149560000000.0,2,0.12660385149999998,-0.00467777205,6.864654999999999e-05,-0.006836,-0.11908,0.003585,0.12987927259999998,-3.917168276,-8.989363789,0.014447,0.41091,-0.71949,0.00029999999999996696,-4.999999999988347e-05,-0.00019999999999997797,0.00035137326618261966,-0.0001655202629728958,0.0009222430630310141
149560000000.0,2,0.12641752515,0.0270467407,-0.00222610955,0.00176,-0.1053,0.013178,0.12153381344999999,-3.9168740764999996,-8.9896579885,0.013518,0.41087,-0.71945,0.00029999999999996696,-5.0000000000105516e-05,-0.00020000000000020002,0.0009907831325116634,-0.0005026450089558043,0.0013518733768441704
149560000000.0,2,0.09331027474999999,0.05665301705,0.0392658266,-0.008698,-0.075378,0.018442,0.11468877175,-3.915991478,-8.990148321,0.012756,0.41077,-0.71932,0.00019999999999997797,5.0000000000105516e-05,-9.999999999998899e-05,0.0017802119622293833,-0.0001915705137780499,0.0018512112060056762
149560000000.0,2,0.07340277525,0.06316463265,0.018858187949999997,-0.032886,-0.030422,0.019386,0.11124663759999999,-3.9127552834999997,-8.9916193185,0.012372,0.41041,-0.71916,0.00029999999999996696,4.999999999988347e-05,-9.999999999998899e-05,0.00038976828115255824,0.001024560845377609,0.00167166087240056
149560000000.0,2,0.03649054465,0.052730357049999996,-0.01101286795,-0.059172,0.02094,0.023518,0.11179581,-3.9070674265,-8.994070980999998,0.012429,0.40979,-0.71894,0.00019999999999997797,-3.333333333332966e-05,-2.4999999999941735e-05,-0.00030135177975054717,0.0008590643100319095,0.000580898326535989
149560000000.0,2,-0.00540346415,0.03692203725,-0.00940457735,-0.076994,0.06477,0.029814,0.11553214364999999,-3.8998105055,-8.997111042499998,0.012841,0.40898,-0.71862,0.00019999999999997797,-3.333333333332966e-05,-2.500000000016378e-05,-0.002066821383198969,0.0007530536476649807,0.00010416368898982786
149560000000.0,2,-0.0644296905,0.02393803265,-0.032783630949999996,-0.067159,0.10197,0.042576,0.12159265335,-3.8928477839999998,-9.000053037499999,0.013509,0.4082,-0.71816,0.000300000000000189,-3.333333333332966e-05,-2.4999999999941735e-05,-0.001872956173261664,0.0011758744384731123,-0.0002379731498544091
149560000000.0,2,-0.08627890669999999,0.02091758445,-0.054779946899999994,-0.03198,0.11125,0.062903,0.1280356224,-3.8884347914999995,-9.001916301,0.014222,0.40771,-0.71746,0.00039999999999995595,-9.999999999998899e-05,-2.4999999999941735e-05,-0.001168313663250875,0.0005109431749770188,-4.2668202945406186e-05
149560000000.0,2,-0.0769233626,0.03676513085,-0.0206135783,0.010433,0.091691,0.084361,0.132585908,-3.8878463925,-9.002112433999999,0.014727,0.40765,-0.71655,0.00029999999999996696,-3.333333333332966e-05,-4.999999999988347e-05,-0.0005604179278393961,0.001119100573461873,0.00020195794470451167
149560000000.0,2,-0.0293611101,0.01711260425,-0.010591182,0.044138,0.044514,0.096245,0.1336646395,-3.890886454,-9.000739502999998,0.014849,0.40799,-0.71551,0.00029999999999996696,-3.333333333332966e-05,-5.0000000000105516e-05,-0.0013044798373905153,0.0006178254000093197,0.00048046392805706217
149560000000.0,2,0.0156121868,0.00995374975,-0.031626446249999995,0.057523,-0.022718,0.085712,0.1299773391,-3.895789779,-8.9986801065,0.014444,0.40852,-0.71456,0.00029999999999996696,-3.333333333332966e-05,-9.999999999998899e-05,-0.0009264130581953522,-0.000745368252122347,0.0005068018132394214
149560000000.0,2,0.059575398749999994,-0.024506818349999997,-0.0871811185,0.056087,-0.0781,0.070862,0.12208298584999999,-3.9009873034999996,-8.9965226435,0.013569,0.4091,-0.71379,0.00029999999999996696,-1.0000000000065512e-05,-3.333333333332966e-05,-0.0006752429158076168,-0.0001376847750582666,0.0008459643685935769
149560000000.0,2,0.08911302854999999,-0.0501904347,-0.09970421055,0.046206,-0.12169,0.057044,0.11095243809999998,-3.9055964289999996,-8.99465938,0.012335,0.40962,-0.7132,0.00020000000000020002,-9.999999999843467e-06,-3.333333333332966e-05,0.0007377924473420672,0.00016806387456025362,0.001264845942144266
149560000000.0,2,0.057006056449999995,-0.0720984908,-0.09210405679999999,0.043948,-0.14404,0.046404,0.09712506159999999,-3.9102055544999996,-8.992894182999999,0.0108,0.41013,-0.7127,0.00019999999999997797,-1.0000000000065512e-05,-3.333333333332966e-05,5.642321912580073e-06,-0.0004362707541560873,0.0007367682079131299
149560000000.0,2,0.014808041499999999,-0.07456976659999999,-0.1226615782,0.052611,-0.13025,0.043193,0.0831996186,-3.9151088794999995,-8.990834786499999,0.009254,0.41067,-0.71223,0.00019999999999997797,-1.0000000000065512e-05,1.999999999990898e-05,0.000926373717232698,-0.00020776164716629353,0.001087905845692072
149560000000.0,2,-0.057339482549999994,-0.023859579449999998,-0.09188831049999999,0.064626,-0.091998,0.048485,0.0709609194,-3.9206006034999996,-8.988579257,0.007894,0.41129,-0.71167,0.00019999999999997797,-1.0000000000065512e-05,2.0000000000131024e-05,0.00015281786369375494,6.24381475891056e-05,0.0009110300708760899
149560000000.0,2,-0.12700592415,0.01764216335,-0.0433061664,0.068195,-0.045147,0.04948,0.06145827555,-3.9262884605,-8.9861275945,0.006839,0.41192,-0.71103,0.00019999999999997797,-9.999999999843467e-06,1.999999999990898e-05,-0.00018179256207373484,-0.00010159072355953036,0.0006617266610032257
149560000000.0,2,-0.17554884164999998,0.03639247815,-0.0482683313,0.065423,0.006022,0.045119,0.05599597149999999,-3.9315840515,-8.983872065,0.006232,0.41251,-0.7104,0.00019999999999997797,-1.0000000000065512e-05,2.0000000000131024e-05,-0.0005425578035515577,0.0006174798758422639,0.0004835476699624752
149560000000.0,2,-0.20312514144999996,0.04488503705,-0.04894499014999999,0.052944,0.045547,0.042898,0.05408367475,-3.9358989774999995,-8.9820088015,0.006021,0.41299,-0.70978,9.999999999998899e-05,-1.0000000000065512e-05,1.999999999990898e-05,-0.00036884264163050684,0.0005149511297692921,1.5756923221421637e-05
149560000000.0,2,-0.18528684509999999,0.0457578289,-0.007472667299999999,0.030673,0.065964,0.048165,0.054652460449999996,-3.9385467729999997,-8.9808320035,0.006086,0.41329,-0.70913,9.999999999998899e-05,-9.999999999843467e-06,-4.999999999988347e-05,-0.001094817039629159,7.819428846467247e-05,0.000239314757083664
149560000000.0,2,-0.13947998295,0.006864655,0.014386355549999999,0.013592,0.069289,0.055605,0.05642746409999999,-3.9402139034999997,-8.980047471499999,0.006284,0.41347,-0.70844,0.00039999999999995595,-1.0000000000065512e-05,-5.0000000000105516e-05,-0.0020965088355489603,-0.0020859594797231207,6.0135422384977044e-05
149560000000.0,2,-0.0744717001,-0.0289100042,0.04408089175,0.002781,0.053388,0.058818,0.058163241149999996,-3.9413907014999996,-8.979557139,0.006477,0.41361,-0.70774,0.00019999999999997797,-9.999999999998899e-05,-5.0000000000105516e-05,-0.00027011433634688276,-0.0008041831176197611,0.000317594801906379
149560000000.0,2,-0.027252680349999996,-0.0342644351,0.05730025595,0.005843,0.030992,0.051392,0.058830093349999994,-3.942665566,-8.97896874,0.006551,0.41374,-0.70712,0.00020000000000020002,5.0000000000105516e-05,-4.999999999988347e-05,0.00035118543535017643,-0.0007219329234340321,0.0008224912281972196
149560000000.0,2,0.006168382849999999,0.0024222425499999998,0.04265892749999999,0.020699,0.012768,0.038641,0.058624153699999994,-3.9443326965,-8.9782822745,0.00653,0.41393,-0.70666,9.999999999998899e-05,4.999999999988347e-05,-4.999999999988347e-05,0.0004627440401043237,-0.0005544607769942811,0.000841133673628397
149560000000.0,2,0.0047856452,0.0410310236,0.07931618519999999,0.029195,-7.6e-05,0.025869,0.0577611685,-3.9466862924999995,-8.977203543,0.006434,0.4142,-0.70635,0.00019999999999997797,2.4999999999941735e-05,-5.0000000000105516e-05,0.0007619200129955206,-0.0005086424074296492,0.0012689894148201764
149560000000.0,2,-0.00392266,0.06487098975,0.09334950134999999,0.02606,-0.0011,0.010922,0.056888376649999996,-3.9488437554999996,-8.9763209445,0.006338,0.41443,-0.7062,0.00019999999999997797,2.4999999999941735e-05,-9.999999999998899e-05,0.0005125356470525588,0.00015693161188035099,0.0008193131801056408
149560000000.0,2,-0.03013583545,0.07389310774999999,0.05546641239999999,0.023063,0.021307,0.005541,0.05751600225,-3.9502166864999997,-8.975634478999998,0.006408,0.41459,-0.70612,0.00029999999999996696,2.500000000016378e-05,-9.999999999998899e-05,0.00022413959440675812,-0.00031334499863033827,0.000335287822701702
149560000000.0,2,-0.06859751675,0.08123828859999999,0.0551329863,0.020105,0.053294,0.007616,0.060212830999999994,-3.951295418,-8.9751441465,0.006709,0.41471,-0.706,0.00019999999999997797,2.4999999999941735e-05,-0.00019999999999997797,0.0002201488200606061,0.00084952184191045,0.0006057027530704806
149560000000.0,2,-0.11286473485,0.09500682519999999,0.09274148905,0.006429,0.083231,0.016081,0.0646846634,-3.951491551,-8.97504608,0.007207,0.41472,-0.70576,0.00019999999999997797,9.999999999998899e-05,-9.999999999998899e-05,0.00010959591776615873,0.0006614693761013424,0.00044476522741532243
149560000000.0,2,-0.1217593664,0.0825916063,0.0733929686,-0.010573,0.099338,0.027768,0.07028426054999999,-3.9501186199999996,-8.975634478999998,0.00783,0.41458,-0.7054,9.999999999998899e-05,4.999999999988347e-05,-9.999999999998899e-05,-0.00040126363446829627,0.00033967873736018284,0.0006299853578539127
149560000000.0,2,-0.10854980885,0.09249632279999999,0.0321069721,-0.016024,0.091909,0.038448,0.07562888479999999,-3.947568891,-8.9767132105,0.008425,0.4143,-0.70492,0.00019999999999997797,5.0000000000105516e-05,-5.0000000000105516e-05,-0.0011996586268084308,-0.0004480580280519231,0.00024701986011615995
149560000000.0,2,-0.06400800455,0.07156893169999999,0.0612915625,-0.025879,0.063212,0.042753,0.07942405834999999,-3.9448230289999997,-8.9778900085,0.008846,0.41398,-0.70441,0.00019999999999997797,9.999999999998899e-05,-4.999999999988347e-05,-0.0007606500744178346,-0.0008186102011642493,0.00020805544000079834
149560000000.0,2,0.0055309506,0.0466012008,0.049445129299999994,-0.025165,0.015261,0.036434,0.08035569009999999,-3.942077167,-8.9790668065,0.008949,0.41368,-0.70398,0.00019999999999997797,9.999999999998899e-05,-9.999999999998899e-05,-0.0005120410908547313,-0.0006982025509929546,0.0005523519650501296
149560000000.0,2,0.06400800455,0.06707748599999999,-0.020927391099999998,-0.00726,-0.014718,0.034382,0.07934560514999998,-3.9398216374999997,-8.980047471499999,0.008836,0.41343,-0.70364,0.00020000000000020002,9.999999999998899e-05,-9.999999999998899e-05,-0.0009303734946357611,-0.0011077125953684597,0.0004412869017496046
149560000000.0,2,0.07212791075,0.0943203597,-0.0008335652500000001,0.010774,-0.026587,0.0355,0.07690374929999999,-3.9391351719999994,-8.9804397375,0.008564,0.41335,-0.70331,9.999999999998899e-05,0.00020000000000020002,-9.999999999998899e-05,0.0001567150099811565,0.0001949978971111932,0.0011925310914901455
149560000000.0,2,0.024193005549999997,0.11425727914999999,0.0567412769,0.019341,-0.023457,0.033374,0.07352045505,-3.9396255044999995,-8.9802436045,0.008187,0.4134,-0.70295,9.999999999998899e-05,9.999999999998899e-05,-5.0000000000105516e-05,-0.0004145818023225667,-5.767345121721057e-05,0.001067966024363265
149560000000.0,2,-0.0213196571,0.1383326049,0.0469346269,0.023773,-0.00431,0.030147,0.071000146,-3.9402139034999997,-8.979949405,0.007907,0.41347,-0.7026,0.00019999999999997797,0.00019999999999997797,-4.999999999988347e-05,-0.00011260259049761245,-0.00041854700927168587,0.0010765124522761627
149560000000.0,2,-0.06257623365,0.14514822665,0.04882731034999999,0.01444,0.026672,0.024741,0.0705098135,-3.939919704,-8.980047471499999,0.007852,0.41344,-0.70226,9.999999999998899e-05,9.999999999998899e-05,-0.00010000000000021103,-4.599803076354991e-05,-0.000425128128615615,0.001095575364707696
149560000000.0,2,-0.09941001105,0.12561337984999998,0.06035012409999999,0.010386,0.056534,0.028952,0.07217694399999999,-3.9396255044999995,-8.9802436045,0.008037,0.4134,-0.70188,9.999999999998899e-05,9.999999999998899e-05,-9.999999999998899e-05,0.00024184146972111575,-0.0012670806833332549,0.0006274486839732141
149560000000.0,2,-0.111599677,0.09962575735,0.0467384939,0.007312,0.076795,0.035318,0.0755308183,-3.9391351719999994,-8.9804397375,0.008411,0.41335,-0.70143,3.333333333332966e-05,9.999999999998899e-05,-5.0000000000105516e-05,0.0006970246313179884,0.0001182114033846382,0.0010492035512877362
149560000000.0,2,-0.13595939559999998,0.0719219711,0.05712373625,0.008393,0.082103,0.04065,0.07895333915000001,-3.9393313049999996,-8.980341671,0.008791,0.41337,-0.7009,3.333333333332966e-05,9.999999999998899e-05,-4.999999999988347e-05,0.00021042540753868355,-0.00022975668528069093,0.0005200781225695728
149560000000.0,2,-0.14428524145,0.04918034975,0.03499993385,0.01582,0.077772,0.041741,0.0820424339,-3.9402139034999997,-8.9798513385,0.009136,0.41347,-0.70033,3.333333333332966e-05,9.999999999998899e-05,-9.999999999998899e-05,0.0011633158954311718,-0.00031281697805485287,0.0005725605489835806
149560000000.0,2,-0.1575340256,0.023447700149999997,0.0234575068,0.015822,0.076703,0.039611,0.08480790919999999,-3.9415868345,-8.9792629395,0.009445,0.41362,-0.69978,-4.999999999988347e-05,9.999999999998899e-05,-9.999999999998899e-05,0.0005715995415855879,-6.105235842079892e-05,0.0003870141621695189
149560000000.0,2,-0.15651413399999997,-0.0056976636499999995,0.03209716545,0.010543,0.078879,0.032128,0.0879852638,-3.9429597654999995,-8.9786745405,0.009799,0.41377,-0.6993,-5.0000000000105516e-05,9.999999999998899e-05,-9.999999999998899e-05,0.001640429362998963,0.000255393631539258,4.330515398789925e-05
149560000000.0,2,-0.16436926065000002,-0.035451039749999996,0.02276123465,0.002087,0.083213,0.02357,0.09164314424999999,-3.9440384969999998,-8.9780861415,0.010207,0.41389,-0.69888,-5.0000000000105516e-05,9.999999999998899e-05,-0.00019999999999997797,0.00013637247645365003,-0.0005855835877217608,0.0004337342755774132
149560000000.0,2,-0.17474469635,-0.05078864034999999,0.0481506515,-0.010683,0.079062,0.010749,0.09543831779999999,-3.944430763,-8.9778900085,0.01063,0.41394,-0.6986,-4.999999999988347e-05,9.999999999998899e-05,-9.999999999998899e-05,0.0007716064673416456,0.0007102650351136219,-0.0001754786055466473
149560000000.0,2,-0.16646788375,-0.05611365129999999,0.04480658385,-0.027813,0.065353,0.001139,0.09883141869999999,-3.9433520315,-8.9782822745,0.011008,0.41383,-0.69844,-4.999999999988347e-05,5.0000000000105516e-05,-9.999999999998899e-05,-0.0008855922121777104,-0.000824396897082913,5.244811148855111e-05
149560000000.0,2,-0.12439735525,-0.0825523797,0.02119217065,-0.042816,0.055882,6.4e-05,0.10209703314999999,-3.9411945685,-8.9792629395,0.01137,0.41358,-0.69834,-5.0000000000105516e-05,4.999999999988347e-05,-3.333333333332966e-05,0.00012556211603081957,0.001265233221177553,-0.0004637081046998115
149560000000.0,2,-0.12586835275,-0.10541168085,0.025909169299999996,-0.052508,0.047426,0.005401,0.1043231427,-3.9382525735,-8.980537803999999,0.011616,0.41325,-0.6982,-9.999999999998899e-05,9.999999999998899e-05,-3.333333333332966e-05,-0.0007145749617026853,0.0009596227334773832,-0.00045202731395529994
149560000000.0,2,-0.14030374155,-0.09763500739999999,0.0356373661,-0.055758,0.042117,0.007541,0.10558820055,-3.9348202459999997,-8.9820088015,0.011755,0.41287,-0.69802,-9.999999999998899e-05,9.999999999998899e-05,-3.333333333332966e-05,0.00013235352541329792,0.0009629991073794031,-0.0007929085596636576
149560000000.0,2,-0.12255370504999999,-0.09932175119999999,0.02356537995,-0.045149,0.031373,0.00331,0.10639234584999999,-3.931878251,-8.983283665999998,0.011843,0.41255,-0.69786,-9.999999999998899e-05,1.4285714285744433e-05,-9.999999999998899e-05,4.8346088563078204e-05,-0.0002649968682457704,-0.0007501354195551535
149560000000.0,2,-0.14147073289999998,-0.055740998599999994,0.04778780544999999,-0.019625,0.017309,-0.001955,0.1060098865,-3.9306033864999996,-8.983872065,0.0118,0.4124,-0.69775,-9.999999999998899e-05,1.4285714285744433e-05,-0.00019999999999997797,-9.925586218884064e-05,-0.0011740421025701053,-0.0005043663019139444
149560000000.0,2,-0.1564945207,-0.0018240368999999999,0.0806695029,0.005802,-0.010603,-0.010398,0.10337189764999999,-3.9310937189999997,-8.983675931999999,0.011506,0.41246,-0.69773,-9.999999999998899e-05,1.4285714285744433e-05,-9.999999999998899e-05,0.0005861416809551101,-0.00037227993221544686,-0.0005372306572943575
149560000000.0,2,-0.1387444842,0.01854437515,0.0720984908,0.023636,-0.053372,-0.017761,0.09774288055,-3.933055049,-8.9828914,0.01088,0.41267,-0.6978,-0.00020000000000020002,1.4285714285522388e-05,-0.00019999999999997797,0.0001838561735019173,-0.0007879895280145099,-0.00037193267434565414
149560000000.0,2,-0.09515392495,0.00505042475,0.04508117005,0.035138,-0.090754,-0.030482,0.0896131677,-3.936193177,-8.981616535499999,0.009978,0.41302,-0.69801,-0.00019999999999997797,1.4285714285744433e-05,-9.999999999998899e-05,0.0009570413533815936,-0.0004933837093219484,-0.00010919853882274122
149560000000.0,2,-0.07560927149999999,-0.0145530686,-0.0066096821,0.040551,-0.095041,-0.052879,0.08144422825,-3.939919704,-8.980047471499999,0.009069,0.41344,-0.69847,-0.00019999999999997797,1.4285714285744433e-05,-9.999999999998899e-05,0.0009832574960264018,-0.0006193000612073618,0.00012421372732945857
149560000000.0,2,-0.0912999115,-0.021231397249999995,-0.005766310199999999,0.035415,-0.079004,-0.06679,0.07469725305,-3.9435481644999997,-8.978478407499999,0.008319,0.41384,-0.6991,-0.00019999999999997797,1.4285714285744433e-05,4.999999999988347e-05,0.0006618458747012501,-0.00041040020668337007,8.24397189213566e-05
149560000000.0,2,-0.1203275955,-0.023800739549999998,0.042806027249999996,0.006893,-0.046801,-0.072231,0.07050000684999999,-3.9455094945,-8.9776938755,0.007852,0.41406,-0.6998,-0.00029999999999996696,9.999999999998899e-05,5.0000000000105516e-05,0.0009926727376471933,0.0008088760414959317,-0.00022071537761619853
149560000000.0,2,-0.1484922943,-0.06387071144999999,0.03774579585,-0.030115,-0.008136,-0.076631,0.0693330155,-3.9447249624999996,-8.977988074999999,0.007723,0.41398,-0.70051,-9.999999999998899e-05,-9.999999999998899e-05,-9.999999999998899e-05,-0.001317648909143987,-0.001317207119077679,-0.0002662448725241351
149560000000.0,2,-0.13906810365,-0.09332008139999999,0.0044326057999999995,-0.059781,0.024059,-0.066063,0.07113743909999999,-3.9411945685,-8.979557139,0.007922,0.41358,-0.70116,-0.00019999999999997797,9.999999999998899e-05,-4.999999999988347e-05,-0.000623418068678383,0.0005491325768689492,-0.000668433998113338
149560000000.0,2,-0.13120317034999998,-0.11013848614999999,0.019446586949999997,-0.081034,0.045522,-0.047991,0.07463841315,-3.9358989774999995,-8.9818126685,0.008309,0.41299,-0.70162,-0.00019999999999997797,1.4285714285744433e-05,-5.0000000000105516e-05,-0.00030224157993563594,0.0007330347571727902,-0.0009674547369692421
149560000000.0,2,-0.09880199875,-0.12828078865,0.01660265845,-0.080932,0.063622,-0.038415,0.07995361745,-3.930309187,-8.984264330999999,0.008899,0.41237,-0.70198,-0.00019999999999997797,1.4285714285744433e-05,-5.0000000000105516e-05,-0.00024660151290684107,0.00018635636842212477,-0.0009293630288145782
149560000000.0,2,-0.1061667929,-0.07716852884999999,0.0009218250999999998,-0.060626,0.065585,-0.041584,0.08581799415,-3.9253077954999998,-8.9863237275,0.009549,0.41181,-0.70233,-0.000300000000000189,1.4285714285744433e-05,-5.0000000000105516e-05,-0.00030357123112972895,0.00011985918345325253,-0.0008307865328590347
149560000000.0,2,-0.10726513769999999,-0.024595078199999995,0.029508209849999998,-0.039466,0.037709,-0.050036,0.09020156669999999,-3.9217774014999995,-8.9878927915,0.010036,0.41142,-0.70277,-0.00019999999999997797,1.4285714285522388e-05,-5.0000000000105516e-05,0.00033809826690484046,-0.000883056925272685,-0.0007501920191821665
149560000000.0,2,-0.04115851005,-0.0093751574,0.03860878105,-0.017376,-0.00722,-0.058457,0.09218251,-3.9201102709999995,-8.988579257,0.010256,0.41123,-0.70336,-0.00019999999999997797,1.4285714285744433e-05,-4.999999999988347e-05,0.00018151202454247395,-0.0003547372990697628,-0.00029283302337204664
149560000000.0,2,0.03937369975,-0.009237864299999999,0.0169655045,-0.00383,-0.053143,-0.066893,0.09156469105,-3.9196199384999995,-8.988775389999999,0.010186,0.41118,-0.7041,-0.00019999999999997797,1.4285714285744433e-05,-4.999999999988347e-05,-0.000620146777597752,-3.3015055924678904e-06,-3.7868208280195104e-05
149560000000.0,2,0.09656608254999999,-0.0225160684,0.03958944605,-0.003,-0.082983,-0.066841,0.0889855421,-3.9200122044999994,-8.9886773235,0.009899,0.41122,-0.7049,-0.00019999999999997797,1.4285714285744433e-05,-5.0000000000105516e-05,4.4216158063659083e-05,-0.0009348284786916405,-0.00011371192730541546
149560000000.0,2,0.10481347519999999,-0.047846645349999994,0.07654090325,-0.013692,-0.088216,-0.070056,0.0853766949,-3.9201102709999995,-8.9886773235,0.009498,0.41123,-0.70572,-0.00019999999999997797,-1.666666666655381e-05,-3.333333333332966e-05,0.00014497241947963868,0.00038714806303241645,-0.0004477109454064099
149560000000.0,2,0.06919572239999999,-0.0452478831,0.04678752715,-0.01767,-0.056206,-0.076526,0.0834349782,-3.9194238055,-8.988971523,0.009282,0.41115,-0.70659,-0.00019999999999997797,-1.6666666666775853e-05,-3.333333333332966e-05,0.000374133653399944,0.0011527221576308477,-0.0003713330243025337
149560000000.0,2,-0.0065900687999999995,-0.02782146605,0.029567049749999998,-0.011988,-0.013628,-0.077659,0.08424893015,-3.91873734,-8.989265722499999,0.009372,0.41108,-0.70743,-0.00029999999999996696,-1.6666666666775853e-05,-3.333333333332966e-05,5.298894377508967e-05,0.001340280423881124,-0.0010902167017564357
149560000000.0,2,-0.06000689135,-0.00042168595,0.08030665684999999,-0.01074,0.014056,-0.069165,0.08679865914999998,-3.9182470074999998,-8.9894618555,0.009655,0.41103,-0.70817,-0.00019999999999997797,-1.666666666655381e-05,1.0000000000065512e-05,8.119859834682108e-05,0.0011800947713851428,-0.0011207497057475202
149560000000.0,2,-0.05504472645,-0.014768814899999998,0.062213387599999996,-0.012898,0.016194,-0.060633,0.0899073672,-3.9178547414999993,-8.989559922,0.010001,0.41098,-0.70883,-0.00019999999999997797,-1.666666666655381e-05,9.999999999843467e-06,-5.294157520718823e-05,0.0003318052318037612,-0.0011462919548494988
149560000000.0,2,-0.0089828914,-0.06344902549999999,0.005766310199999999,-0.013065,-0.002989,-0.057397,0.09232960974999999,-3.917560542,-8.989756054999999,0.01027,0.41094,-0.70945,-0.00020000000000020002,-1.6666666666775853e-05,1.0000000000065512e-05,-6.053158832508565e-06,-0.0002665934682097859,-0.0011199467798316265
149560000000.0,2,0.04027591155,-0.07744311505,-0.0333033834,-0.002629,-0.031846,-0.056263,0.0930454952,-3.9178547414999993,-8.989559922,0.01035,0.41098,-0.71009,-0.00019999999999997797,-6.666666666710341e-06,1.0000000000065512e-05,0.0001852204940283042,-0.0007463773455493872,-0.0005289426029307653
149560000000.0,2,0.07927695859999999,-0.057976914799999994,-0.04631680795,0.009892,-0.066048,-0.054048,0.09130971815,-3.9189334729999996,-8.9890695895,0.010157,0.4111,-0.71073,-0.00019999999999997797,-6.666666666710341e-06,9.999999999843467e-06,9.681142115502972e-05,-0.0007240991416426201,-0.0003821520862138106
149560000000.0,2,0.09939039775,-0.04084469725,-0.028919810849999995,0.016109,-0.095921,-0.064661,0.08735763819999999,-3.9206986699999997,-8.988383124,0.009718,0.4113,-0.71147,-0.00019999999999997797,-6.666666666488297e-06,1.0000000000065512e-05,0.0007240417553322498,-0.001150424312932552,-4.703693050789326e-05
149560000000.0,2,0.09724274139999999,-0.0364611247,-0.014258869099999998,0.016117,-0.10762,-0.084923,0.08246411984999999,-3.922463867,-8.987598592,0.009175,0.4115,-0.71241,-0.00019999999999997797,-6.666666666710341e-06,1.0000000000065512e-05,0.0008798706234883769,-0.0010427668759409592,-0.0001479907698773708
149560000000.0,2,0.09389867375,-0.0099047165,-0.027272293649999998,0.016332,-0.089487,-0.098833,0.07922792534999999,-3.9239348644999996,-8.987010193,0.008816,0.41166,-0.71353,-0.00019999999999997797,-6.666666666710341e-06,1.0000000000065512e-05,0.001220042687644085,-0.0010011986277460583,-4.901086694242274e-05
149560000000.0,2,0.0508769002,0.022329742049999997,0.0135920169,0.005957,-0.053168,-0.099984,0.07825706699999999,-3.92462133,-8.9867159935,0.008708,0.41173,-0.71466,-0.00019999999999997797,-6.666666666710341e-06,9.999999999843467e-06,0.0004775142236727592,-0.0005522996027296223,-0.00037457525644629674
149560000000.0,2,-0.0007453054,0.0008629851999999999,0.049768748749999994,-0.020448,-0.01247,-0.08836,0.07975748444999999,-3.9236406649999997,-8.987206325999999,0.008875,0.41162,-0.71566,-0.00019999999999997797,-6.666666666710341e-06,1.0000000000065512e-05,0.0004070881503723256,-0.00012419954158593427,-0.00048484704866538775
149560000000.0,2,0.00246146915,-0.0427766073,0.0328130509,-0.047929,0.030363,-0.071405,0.08462158284999999,-3.920502537,-8.9884811905,0.009414,0.41128,-0.71649,-9.999999999998899e-05,-6.666666666488297e-06,5.0000000000105516e-05,-0.0007623583786839916,-0.00012732043633123524,-0.0005994864373900788
149560000000.0,2,0.00730595425,-0.06067374354999999,0.00975761675,-0.057292,0.06666,-0.060812,0.09250612945,-3.9162856774999995,-8.9902463875,0.010289,0.4108,-0.71718,-0.00019999999999997797,-6.666666666710341e-06,4.999999999988347e-05,-0.0004328776942136847,0.0004387715070757192,-0.0005243621152875577
149560000000.0,2,-0.0026379888499999996,-0.0486017574,0.03115572705,-0.06144,0.082676,-0.058713,0.1021460664,-3.9115784854999998,-8.9922077175,0.011359,0.41028,-0.71782,-0.00020000000000020002,-6.666666666710341e-06,4.999999999988347e-05,-0.000384207982308038,0.0009086195774559158,-0.000809902952391639
