Time,placement_label,user_acc_x(m/s^2),user_acc_y(m/s^2),user_acc_z(m/s^2),rotation_rate_x(rad/s),rotation_rate_y(rad/s),rotation_rate_z(rad/s),gravity_x(m/s^2),gravity_y(m/s^2),gravity_z(m/s^2),attitude_roll(rad),attitude_pitch(rad),attitude_yaw(rad),target_delta_x,target_delta_y,target_delta_z,target_delta_roll,target_delta_pitch,target_delta_yaw
149570000000.0,2,0.19643700614999998,0.09819398644999999,-0.5153394575,-0.2011,-0.2868,-0.11044,0.08442544985,-4.6870883674999995,-8.613572961,0.009801,0.49832,2.0777,0.0,0.0,0.0,0.0,0.0,0.0
149570000000.0,2,0.0293022702,0.15287586685,-0.31664692185,-0.12699,-0.21709,-0.097625,0.06856809679999999,-4.674437789,-8.620633749,0.007953,0.49686,2.0765,-5.0000000000105516e-05,-2.0000000000131024e-05,-0.00022999999999995246,0.00037227370862291664,-0.00013174362003720574,-0.0021392308435627116
149570000000.0,2,-0.17203806095,0.2052924111,-0.07112763244999999,-0.039783,-0.10275,-0.07099,0.06071297015,-4.669142197999999,-8.623575744,0.00704,0.49624,2.0756,-4.999999999988347e-05,-2.0000000000131024e-05,-2.999999999997449e-05,0.0007520619310449339,0.0010194786518156196,-0.0005941323813325183
149570000000.0,2,-0.33986906905,0.21797240955,0.0098262633,0.047397,0.009454,-0.043284,0.0615465354,-4.671299661,-8.622398946,0.007137,0.49649,2.0751,-9.999999999998899e-05,-1.9999999999686935e-05,9.99999999995449e-06,-0.00076619779790843,-0.0002510829599935427,-0.00035613731865863363
149570000000.0,2,-0.3798507811,0.23521250024999998,0.05950675219999999,0.11824,0.080218,-0.016602,0.05887912659999999,-4.676595252,-8.6195550175,0.006831,0.4971,2.0753,-9.999999999998899e-05,-2.0000000000131024e-05,7.999999999996898e-05,-0.0001832901519911445,-0.00012871648831502824,0.0009171882872253401
149570000000.0,2,-0.3311509572,0.29060045944999996,0.0036676871,0.15144,0.10231,-0.006977,0.06778356479999999,-4.6892458305,-8.612592295999999,0.00787,0.49856,2.0752,-4.999999999988347e-05,-2.0000000000131024e-05,3.0000000000085514e-05,-0.0010523456315540969,-0.0013688053559544056,0.0004040890418088583
149570000000.0,2,-0.26094514985,0.29568030415,-0.11831723224999999,0.16421,0.092625,-0.015477,0.0765899365,-4.703073207,-8.604943108999999,0.008901,0.50018,2.0751,-5.0000000000105516e-05,3.333333333355171e-05,9.999999999998899e-05,-0.0017573456849015456,-0.0006727655913101316,0.0002875531430318323
149570000000.0,2,-0.22417021235,0.31115519785,-0.17953034155,0.15662,0.065002,-0.034655,0.0842587368,-4.716900583499999,-8.597293922,0.009801,0.50179,2.0747,-9.999999999998899e-05,3.333333333310762e-05,3.999999999992898e-05,-0.0011657603907674896,-0.0004187244615136976,-0.0003805159002002456
149570000000.0,2,-0.16951775189999999,0.3348578709,-0.1008908152,0.11277,0.046188,-0.047502,0.08662213945,-4.720332911,-8.5954306585,0.010077,0.50218,2.0744,-0.00019999999999997797,3.333333333355171e-05,0.00010000000000010001,-0.00044517465293070213,0.0006424524292734102,4.8993678464392953e-05
149570000000.0,2,-0.18343338825,0.26861395014999995,-0.12088657454999999,0.061495,0.026384,-0.066769,0.09215309005,-4.726609167,-8.5919002645,0.010725,0.50292,2.0737,-0.00019999999999997797,0.00010000000000021103,3.999999999992898e-05,0.00021859390986322946,0.0001766323175789175,-0.0005447746034792644
149570000000.0,2,-0.15979936175,0.18237427004999998,-0.10947163394999998,0.029358,-0.001038,-0.084922,0.0966543424,-4.729747295,-8.5901350675,0.011252,0.50328,2.0728,-0.00020000000000020002,4.999999999988347e-05,2.0000000000020002e-05,-0.0003685493340584989,-0.00016392579372448424,-0.0004824948910714666
149570000000.0,2,-0.0837291777,0.198486596,0.0005099458,-0.00923,-0.027353,-0.091347,0.09914523149999999,-4.7296492285,-8.5901350675,0.011541,0.50327,2.0717,-0.00029999999999996696,4.999999999988347e-05,-9.00000000000345e-05,-0.001742410886018897,-0.0012225995446821791,-0.0010956816098137145
149570000000.0,2,-0.0639197447,0.21772724329999998,0.00505042475,-0.027472,-0.043183,-0.097753,0.09878238545,-4.723274905999999,-8.5936654615,0.011494,0.50253,2.0707,-9.999999999998899e-05,0.00010000000000021103,-0.00019000000000002348,-0.0011796138985686322,-0.0016423458548795455,-0.0011178050933492167
149570000000.0,2,-0.046973853499999996,0.10849096894999999,0.07620747715,-0.037125,-0.044178,-0.089228,0.09935117114999999,-4.720136778,-8.595332592,0.011558,0.50216,2.0697,-0.00029999999999996696,-3.333333333355171e-05,-7.999999999996898e-05,0.002121632464740897,0.0004533955834680192,-0.0003023862709357894
149570000000.0,2,-0.04276680065,0.09867451229999999,0.15631800099999998,-0.04125,-0.019646,-0.078605,0.10083197529999999,-4.7165083175,-8.597391988499998,0.011727,0.50174,2.0688,-0.00019999999999997797,-3.333333333310762e-05,-0.00012000000000000899,0.0005049066306971883,0.00020495395724684506,-0.00028690783619236826
149570000000.0,2,-0.04247260115,0.07475609294999999,0.2034879875,-0.037832,0.015477,-0.065852,0.1048723151,-4.71307599,-8.5991571855,0.012195,0.50134,2.068,-0.00019999999999997797,-3.333333333355171e-05,-7.999999999996898e-05,0.0006814951699564142,0.0005602066019188001,6.573575846757773e-05
149570000000.0,2,-0.05084748025,0.03437230825,0.2085874455,-0.035457,0.048483,-0.060571,0.11009925954999998,-4.711310793,-8.6001378505,0.012801,0.50113,2.0674,-0.00029999999999996696,-3.333333333310762e-05,-0.00017999999999995797,0.000281836709193517,-0.0011237267865271683,-9.776707282638242e-08
149570000000.0,2,-0.04542440279999999,0.0506807672,0.11415921265,-0.00526,0.080217,-0.07445,0.11979803639999999,-4.7102320615,-8.6005301165,0.013928,0.50101,2.0665,-9.999999999998899e-05,-3.333333333355171e-05,-6.0000000000060005e-05,8.168432908040035e-05,3.79673267691949e-06,0.0001497813806742021
149570000000.0,2,0.0968112488,0.009129991149999999,0.17027286395,-0.013703,0.10052,-0.060625,0.13123259029999998,-4.709447529499999,-8.600824316,0.015257,0.50091,2.0658,-0.00019999999999997797,-3.333333333310762e-05,2.0000000000020002e-05,0.0029824597863351565,0.0017685151599553528,0.0007504291144083131
149570000000.0,2,0.05557428555,0.14632502465,0.026654474699999996,-0.014664,0.1197,-0.051053,0.14374587569999997,-4.707878465499999,-8.601510781499998,0.01671,0.50073,2.0652,-9.999999999998899e-05,-0.00010000000000021103,-9.00000000000345e-05,-0.0003763338542866479,-0.0005153634779144767,0.0003270327550295715
149570000000.0,2,0.0766291631,-0.0009218250999999998,-0.0216923098,-0.020112,0.1176,-0.031845,0.1580047448,-4.706113268499999,-8.602197247,0.018365,0.50053,2.0646,-2.500000000016378e-05,-4.999999999988347e-05,-0.00012999999999996348,-0.0020462629579516833,-0.0021326355017152743,0.00016154486392935818
149570000000.0,2,0.10733378425,0.02201592925,-0.03756927615,-0.034241,0.097453,-0.01262,0.17054745015,-4.7023867415,-8.603962444,0.019819,0.5001,2.0643,-2.4999999999941735e-05,-5.000000000032756e-05,-0.000140000000000029,0.0005645182648399416,-0.0006142745777257819,0.0005105101501498566
149570000000.0,2,0.021045070899999997,-0.0260660757,-0.1903863031,-0.037712,0.078276,0.010891,0.1773826852,-4.6991505469999995,-8.6056295745,0.020609,0.49972,2.0644,-2.4999999999941735e-05,-9.999999999976694e-05,-0.00015999999999993797,0.0005402786100748846,-0.0007744478353171047,0.00025655425674941945
149570000000.0,2,0.072961476,0.019564266749999996,-0.12459348824999998,-0.048632,0.060229,0.032252,0.18157012474999998,-4.695325953499999,-8.607688971,0.021091,0.49927,2.0647,-2.500000000016378e-05,-3.333333333355171e-05,-0.00012000000000000899,-7.437672542454088e-05,-0.0005729752216121486,0.0004191465870257982
149570000000.0,2,0.06724419905,0.05681973009999999,-0.1513950627,-0.044536,0.049527,0.048291,0.1856398845,-4.688559365,-8.611219365,0.021555,0.49849,2.0651,3.333333333332966e-05,-3.333333333310762e-05,-0.00017000000000000348,-0.0017787025385379573,-0.002204127865472527,9.220416010358168e-05
149570000000.0,2,0.0452674964,-0.071392412,-0.05620191115,-0.033857,0.061145,0.065367,0.18906240535,-4.686205769,-8.6124942295,0.021949,0.49821,2.0657,3.333333333355171e-05,-3.333333333355171e-05,-7.999999999996898e-05,0.00036832901616995484,0.00022983817045973964,0.0005948413383405071
149570000000.0,2,-0.0016377105499999999,-0.1039897166,-0.055103566349999994,0.013931,0.039428,0.076162,0.18958215779999998,-4.687676766499999,-8.611611631,0.022011,0.49839,2.0666,3.333333333332966e-05,-9.999999999976694e-05,-8.000000000008001e-05,-0.001038733126782987,-0.0012056410438707754,0.0010288627896976599
149570000000.0,2,-0.11406114615,0.00697252815,-0.00010787314999999999,0.053067,0.008178,0.09443,0.1837962343,-4.6914032935,-8.6097483675,0.021344,0.49882,2.0677,-3.333333333332966e-05,-4.999999999988347e-05,-9.99999999995449e-06,-0.0015051091675019612,0.0005138803535085223,0.001272777731488095
149570000000.0,2,-0.38117467885,-0.03035158175,-0.1718517346,0.097669,-0.010338,0.10628,0.16838998714999998,-4.698169882,-8.60631604,0.019563,0.49961,2.0695,-3.333333333355171e-05,-5.000000000032756e-05,-1.0000000000065512e-05,-0.0015525012787167003,0.0002822708984895339,0.0011907162668382265
149570000000.0,2,-0.3878530075,0.07661935645,-0.22119879739999998,0.14434,0.059637,0.058206,0.15846565734999998,-4.706407468,-8.602001114,0.018419,0.50056,2.0708,-3.333333333332966e-05,-4.999999999988347e-05,4.0000000000040004e-05,-0.0017195351469526665,-0.00027241567532110267,0.00097178719048302
149570000000.0,2,0.1253486003,0.27349766184999996,-0.01175817335,0.17543,0.15965,-0.028372,0.17392093775,-4.7158218519999995,-8.5966074565,0.020229,0.50165,2.0705,1.2499999999970868e-05,-4.999999999988347e-05,0.00012000000000000899,-0.0020007321619611718,-0.0010455137413178939,0.0009570928992331806
149570000000.0,2,0.42443181199999996,0.3792231555,0.1185820118,0.16541,0.20774,-0.080777,0.19431876974999998,-4.730237627499999,-8.5881737375,0.022623,0.50333,2.0697,1.2500000000192912e-05,3.333333333310762e-05,7.00000000000145e-05,-0.002318996790828032,-0.0021246018010987466,0.0007987106081279172
149570000000.0,2,0.20976424349999997,0.3488617671,-0.07846300664999999,0.16747,0.20983,-0.063698,0.21595223965,-4.744163070499999,-8.580034218,0.025164,0.50496,2.0688,1.2499999999970868e-05,3.333333333355171e-05,0.00010999999999994348,-0.0022734545890256697,-0.0020758618086835767,0.0006653126500583972
149570000000.0,2,0.0710393726,0.2018404703,-0.1758528478,0.17103,0.13412,-0.042211,0.231829206,-4.758774979,-8.571502432499999,0.02704,0.50666,2.0682,1.2499999999970868e-05,3.333333333310762e-05,6.0000000000060005e-05,-0.002599103403140013,-0.002060587579234996,0.0002526860681056342
149570000000.0,2,0.04150174279999999,0.07586424439999999,-0.2884135765,0.17639,0.022164,-0.014248,0.23816430189999996,-4.769562294,-8.565324243,0.027799,0.50792,2.0679,1.2499999999970868e-05,-1.1111111111183902e-05,9.00000000000345e-05,-0.0019232354819629927,-0.0005567319959274286,7.989013359466224e-06
149570000000.0,2,0.020603771649999998,0.0077472535,-0.38042937345,0.15626,-0.075735,0.014709,0.23347672319999999,-4.783389670499999,-8.5577731225,0.027276,0.50954,2.0679,1.2499999999970868e-05,-1.1111111111183902e-05,0.00011999999999989797,-0.0015542155852878436,0.0006046896388629541,-0.00017226486073965153
149570000000.0,2,0.058447634,-0.019564266749999996,-0.42577532304999993,0.16098,-0.13654,0.039375,0.2213753171,-4.7971189805,-8.550418135,0.025885,0.51114,2.0682,1.2500000000192912e-05,-1.1111111110739813e-05,0.0001300000000000745,-0.0021100620331796494,0.0011972827090245275,0.00014590467247105332
149570000000.0,2,0.0578003951,-0.040373978049999995,-0.21016631614999998,0.17989,-0.16016,0.061865,0.20541989754999998,-4.8122212215,-8.542278615499999,0.024042,0.5129,2.0688,1.2499999999970868e-05,-1.1111111111183902e-05,0.00010999999999994348,-0.0015466236162025027,0.0011872541624224908,-0.00030156819457888284
149570000000.0,2,0.0347351543,0.0356373661,-0.038549941149999996,0.18616,-0.16981,0.0715,0.18777773419999996,-4.827029263,-8.534335229,0.021999,0.51464,2.0696,0.00019999999999997797,-1.1111111111183902e-05,0.0001300000000000745,-0.0027181876672033867,0.0010432831984616975,9.490292320293858e-05
149570000000.0,2,0.05012178815,0.16607561775,0.0605658704,0.19079,-0.13467,0.054368,0.17239110035,-4.8436025014999995,-8.525313110999999,0.020218,0.51658,2.0702,3.333333333332966e-05,-1.1111111111183902e-05,0.00025999999999992696,-2.7041055832899286e-05,0.003513738479063999,0.00017952614867230987
149570000000.0,2,0.10466637545,0.0446790974,0.13628301504999998,0.16216,-0.12057,0.041484,0.15989742825,-4.8582144099999995,-8.517173591499999,0.018771,0.5183,2.0707,3.333333333332966e-05,-1.1111111110739813e-05,4.0000000000040004e-05,-0.00300822708976467,0.00042459609209877236,-0.0003200357940076337
149570000000.0,2,0.03283266419999999,0.054015028199999995,-0.02409493905,0.13523,-0.15763,0.035099,0.14554049265,-4.870374656,-8.510505069499999,0.0171,0.51973,2.0711,3.333333333332966e-05,-1.1111111111183902e-05,0.00015999999999993797,-0.0014095555883585353,0.0020627250508580275,-3.781430995045132e-05
149570000000.0,2,-0.012317152399999998,0.09099590535,-0.04615990155,0.095468,-0.19353,0.032959,0.12753548325,-4.8773373775,-8.5067785425,0.014991,0.52054,2.0715,0.00019999999999997797,-1.1111111111183902e-05,7.00000000000145e-05,-0.0017614998969344708,0.0016946867503202512,-0.0012388118892027733
149570000000.0,2,0.021182364,0.12517208059999999,-0.048817503699999994,0.059142,-0.21452,0.009451,0.10885381499999999,-4.882927167999999,-8.503836547499999,0.0128,0.52119,2.0717,4.999999999988347e-05,-5.000000000032756e-05,3.0000000000085514e-05,-0.0008956604397561407,0.0016688614852073957,-0.0012118958268725888
149570000000.0,2,0.0547603336,0.15957380879999997,0.013533176999999999,0.018762,-0.21203,-0.019444,0.0911430051,-4.8853788305,-8.5026597495,0.010719,0.52149,2.0715,5.0000000000105516e-05,-4.999999999988347e-05,9.99999999995449e-06,0.0007875435049806145,0.0014540214310383437,-0.0011683134207721158
149570000000.0,2,0.0244381718,0.1327624277,0.10427410945,-0.032096,-0.1743,-0.030272,0.07671742295,-4.8837117,-8.503738481,0.009022,0.5213,2.0712,9.999999999998899e-05,-0.00019999999999997797,4.0000000000040004e-05,0.001451134447591873,0.0021926910536969046,-0.0009118452364384189
149570000000.0,2,-0.1097560268,0.1450011269,0.15469990375,-0.06707,-0.13993,-0.022921,0.06246836049999999,-4.877435444,-8.507465007999999,0.007342,0.52055,2.0711,4.999999999988347e-05,-9.999999999976694e-05,-0.00010000000000010001,0.0013865167771822673,0.0011197658159325385,-0.001142206073693891
149570000000.0,2,-0.31554857704999995,0.11498297124999998,0.2724679636,-0.080902,-0.12917,-0.013357,0.0520340849,-4.870766922,-8.511387668,0.006114,0.51977,2.0709,5.0000000000105516e-05,-0.00019999999999997797,-9.999999999998899e-05,0.0010607160908600033,0.0004548234805072937,-0.0007881636990529628
149570000000.0,2,-0.37609483415,0.054632847150000004,0.32121682074999997,-0.11797,-0.09051,-0.006018,0.0436003659,-4.861744804,-8.516585192500001,0.005119,0.51871,2.0708,5.0000000000105516e-05,-0.00010000000000021103,-7.999999999996898e-05,0.0005788357862138716,0.0009903064603655753,7.247138327570735e-05
149570000000.0,2,-0.27151671855,0.05520163285,0.2787638329,-0.14317,-0.03809,-0.004019,0.03943253965,-4.8498787575,-8.523351781,0.004626,0.51732,2.0708,4.999999999988347e-05,-0.00019999999999997797,-0.00026999999999999247,-0.0002534225371426668,-0.0012874193374905474,-0.0006770063882803878
149570000000.0,2,-0.2099015366,0.02199631595,0.30572231375,-0.15362,-0.004994,0.006577,0.032577691299999996,-4.8398759745,-8.529039638,0.00382,0.51614,2.0712,-9.999999999998899e-05,-0.00019999999999997797,-0.00022999999999995246,0.00032217107839915826,-2.545600211134591e-05,0.0004992139144271712
149570000000.0,2,-0.2333198168,-0.009914523149999998,0.37727163215,-0.1427,0.041777,0.031064,0.03370545605,-4.8274215289999995,-8.536100425999999,0.003948,0.51468,2.0715,5.0000000000105516e-05,-0.00019999999999997797,-3.0000000000085514e-05,0.002549045725929844,0.0019988438827245325,0.0009855948426777672
149570000000.0,2,-0.23421222195,0.013307624049999998,0.4309630409,-0.11979,0.12467,0.061912,0.0396777059,-4.816830347,-8.5420824825,0.004645,0.51344,2.0721,4.999999999988347e-05,-0.00039999999999995595,-0.00014999999999998348,0.0027553617996970425,0.0007534687082553226,0.0014858327034304453
149570000000.0,2,-0.15568056875,-0.0467188806,0.4974129013,-0.086067,0.22453,0.092749,0.052730357049999996,-4.8086908274999995,-8.5465935415,0.00617,0.51249,2.0731,-9.999999999998899e-05,-0.00019999999999997797,-0.00026999999999999247,0.0006349532972383942,-0.0015154627547981914,0.0016777969587413455
149570000000.0,2,-0.13963688935,-0.11332564739999999,0.5074156843,-0.047316,0.2881,0.13006,0.0667636732,-4.812319287999999,-8.5444360785,0.007813,0.51291,2.0747,9.999999999998899e-05,-0.000300000000000189,-0.00026999999999999247,0.0016401270612120822,-0.0017209916242013623,0.0023996827609320537
149570000000.0,2,-0.1514342893,-0.1398624423,0.48088869604999995,-0.030242,0.31243,0.16847,0.08544534145,-4.8096714925,-8.545710943,0.009998,0.51261,2.0765,9.999999999998899e-05,-0.00039999999999995595,-0.00031999999999998696,0.0013946688984911582,-0.0026983811311531714,0.00299808033712487
149570000000.0,2,-0.10529400104999999,-0.14413814169999997,0.34600803195,-0.041024,0.31036,0.18767,0.10319537794999999,-4.806827564,-8.5471819405,0.012074,0.51227,2.0786,9.999999999998899e-05,-0.00039999999999995595,-0.00024000000000001798,0.0016470299136452926,-0.0007820425673079612,0.0028939987770387754
149570000000.0,2,0.013611630199999999,-0.1280944623,0.17992260754999997,-0.064724,0.28392,0.19088,0.11896447114999999,-4.801826172499999,-8.5497316695,0.013914,0.51169,2.0808,9.999999999998899e-05,-0.00039999999999995595,-0.00017999999999995797,0.001622088492337248,-0.00023064634479785795,0.003064996326859859
149570000000.0,2,0.09350640774999999,-0.06987238125,0.1036955171,-0.085281,0.23616,0.17278,0.13453743135,-4.797805446,-8.551791066,0.015731,0.51122,2.0827,9.999999999998899e-05,-0.000300000000000189,-0.0003300000000000525,-0.0015508243900725915,-0.002723746783124259,0.0028055054513472233
149570000000.0,2,0.15175790874999998,0.0662733407,0.026389695149999996,-0.079249,0.16476,0.13235,0.14332418975,-4.791038857499999,-8.5554195265,0.016751,0.51043,2.0844,0.00019999999999997797,-0.0002999999999997449,-0.00044999999999995044,-0.0030840759194020184,-0.0034979833176171926,0.0016953830976847162
149570000000.0,2,0.1487080406,0.20407638649999998,0.05212234475,-0.07634,0.097649,0.083377,0.148472681,-4.7847626015,-8.558851853999998,0.017346,0.5097,2.0855,9.999999999998899e-05,-0.000500000000000167,-0.00024999999999997247,0.0004005260009331546,0.0011780837804020727,0.0015826125331686591
149570000000.0,2,0.0835722713,0.30464358225,0.04066817755,-0.087213,0.04025,0.032224,0.1509047302,-4.777603747,-8.562872580499999,0.017622,0.50886,2.086,5.0000000000105516e-05,-0.00039999999999995595,-0.00038000000000004697,0.002271472073043679,0.0004266141010667024,-7.510879629604728e-05
149570000000.0,2,-0.0029419949999999998,0.33420082534999995,0.00014709975,-0.10126,-0.008602,-0.014676,0.15138525604999997,-4.761716974,-8.5716985655,0.017659,0.507,2.086,4.999999999988347e-05,-0.0004999999999997229,-0.00041999999999997595,0.0050881831946789635,0.0020670899759538397,-0.00048107895008950297
149570000000.0,2,-0.0534070159,0.3267379647,0.02986124925,-0.11728,-0.036135,-0.054149,0.15097337675,-4.751812257499999,-8.577190289499999,0.0176,0.50585,2.0855,-9.999999999998899e-05,-0.00040000000000040004,-0.00038000000000004697,0.00048303645491409863,-0.0006268266309430448,-2.196800836648527e-05
149570000000.0,2,-0.0879656505,0.32686545115,0.049739328799999996,-0.12248,-0.038191,-0.085109,0.15126757624999998,-4.741319142,-8.582976213,0.017622,0.50463,2.0847,-5.0000000000105516e-05,-0.00019999999999997797,-0.0005300000000000304,-0.001763905649637021,-0.0020336694264575517,-0.0006893259734906398
149570000000.0,2,-0.08224837355,0.31586238985,0.07197100434999999,-0.12539,-0.016829,-0.1097,0.15437628429999997,-4.7304337604999995,-8.588860203,0.017972,0.50336,2.0835,-4.999999999988347e-05,-0.00039999999999995595,-0.00039000000000000146,0.0030769794216001234,0.0012222887422763673,-0.0010853929686554797
149570000000.0,2,-0.10300905159999998,0.27512556574999997,0.04396321195,-0.12412,0.004476,-0.11827,0.15703388645,-4.713860522,-8.5979803875,0.018262,0.50143,2.0823,-3.333333333332966e-05,-0.00039999999999995595,-0.00047999999999992493,-0.00015660443829723647,-0.0003249927045989587,-0.0012796018977191403
149570000000.0,2,-0.15832836425,0.27287003624999995,0.01315071765,-0.11869,0.017217,-0.11722,0.16385931485,-4.7031712735,-8.6036682445,0.019043,0.50019,2.081,-3.333333333332966e-05,-0.00039999999999995595,-0.0006099999999999994,-0.0008180757668834193,-0.0036935039784475876,-0.0015629277973345512
149570000000.0,2,-0.1969959852,0.27249738354999997,-0.03368584275,-0.1124,0.006505,-0.11292,0.17005711764999998,-4.693070423999999,-8.609061901999999,0.019751,0.49902,2.0797,-3.333333333332966e-05,-0.0002999999999997449,-0.00045000000000006146,0.003358191396596877,-0.000712025815176931,-0.000746143139721045
149570000000.0,2,-0.21763898345,0.24384235225,-0.10589220669999999,-0.11143,-0.003098,-0.10863,0.175146769,-4.683459907,-8.6142594265,0.020329,0.4979,2.0785,-9.999999999998899e-05,-0.000300000000000189,-0.00036999999999998145,0.0004726491003449462,-0.00026043975390122043,-0.0003319198804259127
149570000000.0,2,-0.18915066519999998,0.2284557184,-0.1668111165,-0.10521,-0.022342,-0.10645,0.17313640575,-4.6666905355,-8.623379610999999,0.020075,0.49595,2.0777,-9.999999999998899e-05,-0.000300000000000189,-0.00039999999999995595,0.0005821598142305984,0.0006964640660966914,-0.0005859545263388055
149570000000.0,2,-0.14761950245,0.2507364272,-0.14899243345,-0.087244,-0.052314,-0.11917,0.17470546975,-4.658649082499999,-8.627694537,0.020246,0.49502,2.0764,-9.999999999998899e-05,-0.0002999999999997449,-0.00045000000000006146,0.00171106429575274,0.0008973581908580108,-0.0017950917394340404
149570000000.0,2,-0.1521795947,0.24105726364999996,-0.1403527748,-0.077789,-0.083273,-0.13938,0.17447011015,-4.651490228,-8.6315191305,0.02021,0.49419,2.0749,-0.00019999999999997797,-0.000300000000000189,-0.0005699999999999594,-0.00024306036357329974,-0.0011918075820878116,-0.003112975298621895
149570000000.0,2,-0.1813053452,0.21547171379999996,-0.20487072515,-0.060892,-0.11643,-0.15744,0.1720282543,-4.6455081714999995,-8.6348533915,0.019919,0.4935,2.0731,-9.999999999998899e-05,-0.0002999999999997449,-0.00046000000000001595,0.0008035582685707587,-0.00029620260091123285,-0.0025093479612860736
149570000000.0,2,-0.16888031965,0.2149225414,-0.1641240944,-0.055457,-0.11114,-0.17238,0.16498707959999998,-4.6334459919999995,-8.641423846999999,0.01909,0.4921,2.0715,-9.999999999998899e-05,-0.000300000000000189,-0.00031000000000003247,0.002567701152624058,0.0024842815946233276,-0.0022947017945528225
149570000000.0,2,-0.12003339599999999,0.19543672784999996,-0.1251132407,-0.046775,-0.099476,-0.18306,0.1647713333,-4.6287388,-8.643973575999999,0.01906,0.49156,2.0695,-0.0004999999999999449,-9.999999999976694e-05,-0.00019999999999997797,0.0018313636289640223,0.0022606605549317926,-9.521998256603603e-05
149570000000.0,2,-0.17475450299999998,0.1288201544,-0.09670337564999999,-0.028545,-0.086849,-0.18305,0.160240661,-4.621678011999999,-8.6477981695,0.018528,0.49074,2.0677,-0.000300000000000189,-0.00010000000000021103,-0.00036999999999998145,-0.0008901177343119682,-0.000948353721324624,-0.0018282176990803145
149570000000.0,2,-0.12631945865,0.13489047075,-0.03658861115,-0.024159,-0.067717,-0.17773,0.15893637654999998,-4.615597889,-8.651034364000001,0.01837,0.49004,2.0658,-0.00029999999999996696,-0.00019999999999997797,-0.00043999999999999595,0.0013050423241276476,-0.0007035747843462392,-0.002179691146345558
149570000000.0,2,-0.1154438838,0.10098888169999999,-0.10633350594999999,-0.011315,-0.060371,-0.17559,0.15838720415,-4.610890696999999,-8.653584093,0.018301,0.4895,2.064,-0.00019999999999997797,-0.00019999999999997797,-0.00048000000000003595,-0.0019659859336453867,-0.002179447894972153,-0.0022106277145962916
149570000000.0,2,-0.04455161095,0.0419136221,-0.06932320885,-0.02188,-0.042179,-0.16816,0.16096635310000001,-4.607360303,-8.6554473565,0.018595,0.48909,2.0621,-0.00039999999999995595,-0.00019999999999997797,-0.00029000000000001247,0.0008052286888174942,0.0002234203633617593,-0.00155282992920458
149570000000.0,2,-0.021564823349999998,0.0036971070499999996,-0.09312394839999999,-0.018727,-0.041151,-0.15749,0.1643202274,-4.6041241085,-8.657114487,0.018979,0.48872,2.0604,-0.00019999999999997797,-0.000300000000000189,-0.00015999999999993797,0.0037810290468046626,0.002506390070749376,-0.0009681638789282299
149570000000.0,2,-0.0883775298,-0.0720788775,-0.0872987983,-0.026228,-0.034719,-0.14043,0.16543818549999997,-4.602456978,-8.6579970855,0.019106,0.48852,2.0588,-0.00019999999999997797,-0.00019999999999997797,-0.00017000000000000348,-0.0005781412065910541,0.0005476903610259765,-0.0009516886236764222
149570000000.0,2,-0.00995374975,-0.0639981979,-0.04972952215,-0.043164,-0.004765,-0.11916,0.16991982455,-4.599416916499999,-8.659468083,0.01962,0.48817,2.0574,-0.00029999999999996696,-0.0002999999999997449,-0.00031000000000003247,0.0004015310017164708,-7.162852668285424e-05,-0.0007674001401005992
149570000000.0,2,0.03530394,-0.07336354865,-0.0439730186,-0.042012,0.017585,-0.09999,0.1767354463,-4.596572988,-8.660841013999999,0.020403,0.48784,2.0562,-0.00029999999999996696,-0.00019999999999997797,-0.00034000000000000696,0.0009686771841806996,-0.0004918716851676219,-0.00018661333728536844
149570000000.0,2,0.10727494435,-0.08377821095,0.04606183504999999,-0.038712,0.036732,-0.088278,0.18662054949999998,-4.5951019905,-8.661429412999999,0.021542,0.48767,2.055,-0.00010000000000021103,-0.00010000000000021103,-0.00026999999999999247,-0.00015922041621452276,-0.00010960978925989018,-0.0006044383272829912
149570000000.0,2,0.15822049109999997,-0.0732164489,0.02801759905,-0.031327,0.032406,-0.077586,0.1974667044,-4.593630993,-8.661919745499999,0.022793,0.48751,2.0539,-0.00019999999999997797,-0.00019999999999997797,-0.00044999999999995044,-0.001991510497741822,-0.003920730690878171,-0.0018094262662592397
149570000000.0,2,0.1756174882,-0.05984998495,-0.0374221764,-0.020858,0.013137,-0.067928,0.20655746894999996,-4.592258061999999,-8.662508144499999,0.023841,0.48734,2.0529,-9.999999999998899e-05,-0.00019999999999997797,-0.00026999999999999247,0.0005295483969088854,-0.00043852141542566336,-0.0006242585041827675
149570000000.0,2,0.21958070015,-0.018044235999999998,-0.039962098749999994,-0.025347,-0.003882,-0.050829,0.21452046874999997,-4.589904466,-8.663586876,0.024756,0.48707,2.052,9.999999999998899e-05,-0.00039999999999995595,-0.0003300000000000525,0.0017187524001445742,-0.0002887392231902819,-0.0010125255476491624
149570000000.0,2,0.21537364729999997,0.0077864801,-0.052210604599999995,-0.027547,-0.000675,-0.032694,0.22126744394999998,-4.5866682715,-8.665057873499999,0.02553,0.4867,2.0513,-4.999999999988347e-05,-0.000300000000000189,-0.00031000000000003247,-0.00011351032251000204,-0.0005150363482044895,-0.001100758415519848
149570000000.0,2,0.1426279176,-0.022388581949999996,-0.039648285949999994,-0.023298,0.008867,-0.013491,0.2260825091,-4.5845108085,-8.666136605,0.026082,0.48645,2.0509,-5.0000000000105516e-05,-0.00019999999999997797,-0.00017000000000000348,0.00039486621494694285,0.0011604762273731417,0.0005262932639391871
149570000000.0,2,0.026262208699999998,-0.0023339827,-0.01701453775,-0.005113,0.026814,0.005722,0.22856359155,-4.583432077,-8.6666269375,0.026367,0.48633,2.0509,-5.0000000000105516e-05,-0.00019999999999997797,-0.00019999999999997797,4.577933836918957e-05,1.800335146606713e-05,0.0004962418051195627
149570000000.0,2,-0.03839303475,0.0569374099,0.0132193642,0.015242,0.039429,0.008938,0.23052492154999998,-4.58362821,-8.6664308045,0.026594,0.48635,2.051,-4.999999999988347e-05,-9.999999999976694e-05,-0.00019999999999997797,-0.0009367018159980867,-0.00014530215858843398,0.0007102609455391373
149570000000.0,2,-0.0635667053,0.08789700395,0.020005566,0.037726,0.05096,0.011092,0.23280006434999997,-4.5850992075,-8.6656462725,0.026859,0.48652,2.0512,-4.999999999988347e-05,-0.00010000000000021103,-0.000260000000000038,-0.0020680934362949377,-0.0016400458727576783,0.0004020531184714682
149570000000.0,2,-0.06983315464999999,0.1263684919,0.00797280645,0.042092,0.060518,0.005747,0.2360852921,-4.586766338,-8.664665607499998,0.02724,0.48671,2.0514,-5.0000000000105516e-05,-9.999999999976694e-05,-0.00021999999999999797,-0.0009237193880379246,-0.0007971948638143544,0.0005509491837402403
149570000000.0,2,-0.045934348599999994,0.13022250535,-0.019436780299999998,0.017613,0.068178,0.004625,0.24061596439999997,-4.586276005499999,-8.664763674,0.027762,0.48665,2.0515,5.0000000000105516e-05,-0.00010000000000021103,-0.00031999999999998696,-0.001273882575575258,-0.0023432162322847283,0.00034166679238784026
149570000000.0,2,-0.060605097,0.14605043845,-0.0490724766,0.009241,0.087429,0.001376,0.24630382139999998,-4.5843146755,-8.6656462725,0.028416,0.48643,2.0516,4.999999999988347e-05,-0.00019999999999997797,-0.00019000000000002348,0.0004092436058343307,-0.0005318827937526027,0.0009998601229902204
149570000000.0,2,-0.06369419174999999,0.15247379419999998,0.01909354755,0.006119,0.095981,-0.001846,0.25343325595,-4.5823533455,-8.666528870999999,0.029234,0.4862,2.0516,-9.999999999998899e-05,-0.00019999999999997797,-0.00029999999999996696,-0.00037235495123810747,-0.001446957947019989,0.0002395933753907009
149570000000.0,2,-0.10093004180000001,0.14253965775,-0.01601425945,0.005004,0.092786,0.001362,0.25955260555,-4.5801958825,-8.667509535999999,0.029936,0.48595,2.0517,-5.0000000000105516e-05,-0.00019999999999997797,-0.00026999999999999247,0.0009251824513481499,-0.0006920636004514868,0.0004088775139992895
149570000000.0,2,-0.10958931374999999,0.1845415397,-0.05021985464999999,0.004835,0.069345,-0.003932,0.26386753155,-4.577057754499999,-8.6689805335,0.030428,0.48558,2.0518,-4.999999999988347e-05,-0.00010000000000021103,-0.00021999999999999797,0.00046501220955041944,0.00032452169866692415,0.00022811916816939393
149570000000.0,2,-0.09633072294999999,0.16399660794999998,-0.07259862995,0.006912,0.056548,-0.014578,0.26751560535,-4.5741157595,-8.670451531,0.030844,0.48525,2.0518,-4.999999999988347e-05,-0.00019999999999997797,-0.00021999999999999797,-0.000820678213160897,-0.0004143447542304113,-4.2364434637648385e-05
149570000000.0,2,-0.023212340550000002,0.16340820895,-0.05100438665,0.003757,0.054457,-0.028455,0.27310539585,-4.571467964,-8.671628329,0.031483,0.48494,2.0516,-5.0000000000105516e-05,-9.999999999976694e-05,-0.00026999999999999247,0.0003070363331227899,-0.0006916223287347645,-0.00019281941651916323
149570000000.0,2,-0.0376183094,0.08299367895,-0.03607866535,-0.008935,0.066286,-0.032767,0.27928358535,-4.569114368,-8.672707060499999,0.032192,0.48468,2.0513,-9.999999999998899e-05,-0.00010000000000021103,-0.00029000000000001247,-0.0011564113143351928,-0.001166195950034643,-0.0002309272841621579
149570000000.0,2,-0.0557998385,0.08331729839999999,-0.0167889848,-0.019481,0.078099,-0.03921,0.28654050634999995,-4.566172373,-8.673981925,0.033022,0.48433,2.0509,-9.999999999998899e-05,-9.999999999976694e-05,-0.00024000000000001798,0.0009331459991723801,-0.00033760131576276997,6.120759880395843e-05
149570000000.0,2,-0.021809989599999996,0.02676234785,0.0233202137,-0.037552,0.087836,-0.037123,0.2953566847,-4.563034245,-8.675354855999998,0.034032,0.48397,2.0505,1.999999999990898e-05,-0.00019999999999997797,-0.00030999999999992145,-0.00021275046553809185,-0.0014923576475540656,-0.00048529194711180446
149570000000.0,2,-0.0130624578,-0.0458755087,0.011640493549999999,-0.044925,0.10494,-0.028627,0.30516333469999996,-4.56009225,-8.676531654,0.035156,0.48364,2.0502,2.0000000000131024e-05,-0.00010000000000021103,-0.00024000000000001798,0.0016191203546040978,-0.0008075636618611881,0.00041613472275403574
149570000000.0,2,0.0230848541,-0.045306723,0.02301620755,-0.049228,0.10497,-0.021163,0.31598987629999997,-4.556757989,-8.677904585,0.036397,0.48325,2.0499,1.999999999990898e-05,-0.0002999999999997449,-0.00021999999999999797,0.00281884271334093,0.0007559944828243736,0.00036198567830886264
149570000000.0,2,0.0337741026,-0.12790813595,-0.0410898635,-0.059191,0.066675,-0.009372,0.324011716,-4.5535217945,-8.679375582499999,0.037314,0.48288,2.0497,2.0000000000131024e-05,-0.00010000000000021103,-0.00026999999999999247,-0.0023483489307475347,-0.003002024811216808,0.00016780906863253509
149570000000.0,2,0.026644668049999997,-0.1198568763,-0.09532063799999999,-0.073461,0.023093,0.001354,0.32739501024999995,-4.5485204029999995,-8.681827245,0.037692,0.4823,2.0497,1.999999999990898e-05,-9.999999999976694e-05,-0.000300000000000078,-0.00018256796117716023,-0.0013141383327184286,0.00013333714151661513
149570000000.0,2,0.054024834849999995,-0.06088948985,-0.10958931374999999,-0.091937,-0.022568,-0.003935,0.32740481689999995,-4.540871216,-8.6858479715,0.037676,0.48143,2.0497,3.333333333332966e-05,-0.00019999999999997797,-0.00022999999999995246,8.955340042793303e-05,1.5117431904521084e-05,0.00014702716946179972
149570000000.0,2,0.0605854837,-0.032577691299999996,-0.0934769878,-0.10482,-0.040561,-0.016735,0.325776913,-4.531652965,-8.6907512965,0.037468,0.48036,2.0495,3.333333333332966e-05,-0.00010000000000021103,-0.00021999999999999797,0.0019618202977255694,0.0007106778583223505,0.00042282075580218903
149570000000.0,2,0.0829250324,0.01442558215,-0.05375024864999999,-0.11111,-0.033035,-0.028501,0.3252865805,-4.5211598495,-8.696144954,0.037388,0.47916,2.0492,3.333333333332966e-05,-0.000300000000000189,-0.00026999999999999247,0.0012768085630258108,0.000255860505157246,-0.000532506683432965
149570000000.0,2,0.000784532,0.026232788749999996,0.03611789195,-0.10862,0.008507,-0.031772,0.32631627874999997,-4.511451266,-8.7011463455,0.037485,0.47804,2.0489,1.666666666655381e-05,-0.00019999999999997797,-0.00012999999999996348,0.004370825653576715,0.003356951386664253,0.00019712105340866093
149570000000.0,2,-0.11278628165,0.00583495675,0.3426051244,-0.1091,0.088415,-0.02124,0.33125883035000003,-4.504684677499999,-8.704480606499999,0.038038,0.47726,2.0487,1.6666666666775853e-05,-0.0002999999999997449,-0.00019000000000002348,0.0016234748279703726,0.0007735926344618616,0.0005003268847351416
149570000000.0,2,-0.17095932945,-0.0638216782,0.56589273825,-0.12456,0.16099,-0.011788,0.3413890998,-4.500075552,-8.7064419365,0.039191,0.47674,2.0488,1.6666666666775853e-05,-0.000300000000000189,-0.0003500000000000725,0.0009225641646845584,-0.0007317114164717697,0.0004136715118308598
149570000000.0,2,-0.09895890514999998,-0.050808253649999996,0.5231259376,-0.17778,0.17421,-0.01404,0.35573622875,-4.490857301,-8.710658796,0.040817,0.47568,2.0488,1.666666666655381e-05,-0.00019999999999997797,-0.0004899999999999904,0.0022384462288956852,-0.00178787484777021,0.00030568488273760575
149570000000.0,2,-0.0228298812,0.00342252085,0.13133065679999997,-0.21241,0.10737,-0.021454,0.36744536885,-4.473695663499999,-8.7189944485,0.042118,0.47371,2.0487,1.666666666655381e-05,-9.999999999976694e-05,-0.0005499999999999394,-0.002644532457900195,-0.0052916599775600925,-0.00020750337422015264
149570000000.0,2,0.026517181599999995,0.05266171049999999,-0.17188115455,-0.22059,0.01474,-0.028776,0.3724173404,-4.4520229669999996,-8.72987983,0.042634,0.47123,2.0485,1.6666666666775853e-05,-0.000300000000000189,-0.00046000000000001595,0.0016308018375194022,-0.0016040858717130124,0.00016120784643952613
149570000000.0,2,0.0467384939,0.08820101009999999,-0.34443896795,-0.2019,-0.053605,-0.036095,0.37059330349999997,-4.4336845315,-8.739294214,0.04238,0.46913,2.0482,1.6666666666775853e-05,-0.00019999999999997797,-0.00039000000000000146,0.002188990336408847,0.0009649250514052188,-0.0010487896193792923
149570000000.0,2,0.0774136951,0.1084811623,-0.4341207822,-0.15726,-0.077412,-0.039178,0.36596456469999994,-4.4187784235,-8.747041467499999,0.041814,0.46743,2.0478,1.666666666655381e-05,-0.00019999999999997797,-0.00021999999999999797,0.0020542754900521043,0.0011738070478737317,-0.0004983578097716712
149570000000.0,2,0.0789631458,0.09034866645,-0.48442889669999994,-0.10069,-0.070426,-0.032687,0.36097297985,-4.4085795075,-8.752435125,0.041219,0.46626,2.0475,1.666666666655381e-05,-9.999999999976694e-05,-0.00019999999999997797,0.00018142491403461136,0.0006011767336302487,-0.00045457162480380675
149570000000.0,2,0.039206986699999995,0.06830331725,-0.48112405565,-0.034371,-0.040082,-0.019816,0.35808001809999995,-4.39926319,-8.7572403835,0.040867,0.4652,2.0472,1.6666666666775853e-05,-0.00010000000000021103,-6.0000000000060005e-05,0.0011741239963313221,0.0010704819917737307,8.184347341741449e-05
149570000000.0,2,-0.00048052584999999995,0.06116407605,-0.40553439745,0.014877,-0.006409,0.000491,0.35706993314999996,-4.399655456,-8.7570442505,0.040752,0.46524,2.0472,1.6666666666775853e-05,-4.999999999988347e-05,-0.00012999999999996348,-0.00017208825511799697,-0.0011890864052386263,-0.0001423038050725467
149570000000.0,2,-0.0399130655,0.00726672765,-0.3662587642,0.054418,0.020939,0.031466,0.3572954861,-4.403578115999999,-8.7550829205,0.040787,0.4657,2.0474,1.666666666655381e-05,-5.000000000032756e-05,9.00000000000345e-05,-0.0004952159734338268,0.000902280866092342,0.0007457935985415443
149570000000.0,2,-0.07901217904999999,-0.0737656213,-0.3113611375,0.082162,0.044116,0.067764,0.35808001809999995,-4.410442771,-8.7515525265,0.040894,0.46647,2.048,9.999999999998899e-05,-0.00010000000000021103,5.999999999994898e-05,-0.0015637437759865036,-0.0005377199510729902,0.0007559119641498968
149570000000.0,2,-0.07248095015,-0.09629149634999999,-0.2517759321,0.094968,0.057838,0.089111,0.35754065235,-4.4183861575,-8.747531799999999,0.040851,0.46739,2.049,9.999999999998899e-05,-9.999999999976694e-05,0.00022999999999995246,0.001999917488236913,0.0029022208665760996,0.0013134893494584632
149570000000.0,2,-0.024026292499999997,-0.05331875605,-0.21421646259999996,0.1023,0.04392,0.093418,0.35771717205,-4.4276044085,-8.742922674499999,0.040892,0.46843,2.05,9.999999999998899e-05,-9.999999999976694e-05,0.00017000000000000348,-0.0006097337599033636,0.0012304055304923622,0.0009670383731101295
149570000000.0,2,0.011110934449999998,0.009532063799999999,-0.23500656059999997,0.1021,0.0109,0.081735,0.3556479689,-4.4368226595,-8.738313548999999,0.040678,0.46949,2.0509,4.999999999988347e-05,3.333333333310762e-05,0.000180000000000069,-0.0014460762071641375,0.0003646392821645694,0.0008193075051493859
149570000000.0,2,0.02464411145,0.08443525649999999,-0.21292198479999996,0.095439,-0.035907,0.058323,0.3508034838,-4.445648644499999,-8.7340966895,0.040143,0.4705,2.0516,5.0000000000105516e-05,3.333333333355171e-05,9.00000000000345e-05,-0.00041365160984724314,0.0009461423973509131,0.00023685017509697537
149570000000.0,2,0.0018142302499999999,0.13933288319999998,-0.1329585607,0.069656,-0.072964,0.032727,0.34310526354999993,-4.449080972,-8.732625692,0.03927,0.47089,2.052,1.4285714285744433e-05,3.333333333310762e-05,0.00010999999999994348,-0.0018411270094141896,-0.00024030355974824502,6.195565255268098e-05
149570000000.0,2,-0.023967452599999998,0.14457944094999997,-0.08132654845,0.035632,-0.076915,0.002788,0.33596602234999995,-4.4528074989999995,-8.7309585615,0.038461,0.47132,2.0521,1.4285714285744433e-05,3.333333333355171e-05,4.0000000000040004e-05,-0.0006722981651869908,0.00022089917158796268,-0.0005493794557886733
149570000000.0,2,-0.02566400305,0.114345539,0.024595078199999995,0.005956,-0.0628,-0.014367,0.33062139809999996,-4.453788164,-8.730664361999999,0.037851,0.47143,2.052,1.4285714285744433e-05,3.333333333310762e-05,2.999999999997449e-05,-0.00018672592307455993,0.00031364952255419354,-0.00029925621579929285
149570000000.0,2,-0.07124531225,0.10725533105,0.15332697274999998,-0.007573,-0.025383,-0.022996,0.32847374174999994,-4.4532978315,-8.7309585615,0.037603,0.47138,2.0518,1.4285714285522388e-05,3.333333333355171e-05,4.0000000000040004e-05,-0.0020552530586925855,-0.0006405644930154164,-0.0002691717111134029
149570000000.0,2,-0.09068209255,0.08539630819999999,0.27505691919999997,-0.010398,0.022586,-0.02095,0.32845412845,-4.4534939645,-8.7309585615,0.037602,0.47139,2.0516,1.4285714285744433e-05,-0.00019999999999997797,7.999999999996898e-05,0.002334505973499601,0.0010121321398370853,0.0004186849518370839
149570000000.0,2,-0.0857885742,0.0324403982,0.31631349574999995,-0.014396,0.060973,-0.013553,0.3337399128,-4.4523171665,-8.7313508275,0.038204,0.47126,2.0514,1.4285714285744433e-05,-4.999999999988347e-05,2.0000000000020002e-05,0.0004314033454614896,6.222196482918996e-05,0.00019408909989773737
149570000000.0,2,-0.041844975549999996,0.0047660318999999994,0.2788815127,-0.020714,0.078064,-0.00292,0.3405261146,-4.450650036,-8.7319392265,0.038978,0.47107,2.0514,1.4285714285744433e-05,-5.000000000032756e-05,-6.0000000000060005e-05,-0.0007038850270554287,-0.0014574161529399277,6.701487210436508e-05
149570000000.0,2,0.022221868899999997,-0.01876012145,0.21042128905,-0.025074,0.073825,0.008822,0.34693966369999996,-4.448492573,-8.732723758499999,0.039707,0.47083,2.0515,0.00010000000000021103,0.00010000000000021103,-7.00000000000145e-05,-0.0019936852456581833,-0.0020527000361099113,0.0005485335233222366
149570000000.0,2,0.061791701649999996,-0.0373437232,0.15832836425,-0.027369,0.061046,0.021648,0.3534512793,-4.44829644,-8.7325276255,0.040453,0.47081,2.0516,4.999999999988347e-05,-0.00010000000000021103,-3.999999999992898e-05,0.0006258577261282761,-0.00010697998108932794,0.00033594177468915243
149570000000.0,2,0.0802968502,-0.039295246549999996,0.12120038735,-0.026492,0.043978,0.032354,0.35634424105,-4.4460409105,-8.733606357,0.040779,0.47055,2.0519,5.0000000000105516e-05,-9.999999999976694e-05,-9.00000000000345e-05,0.0007530682269316635,-0.0003377225269161066,0.0003394027215471995
149570000000.0,2,0.08148345485,-0.012062179499999999,0.1183662655,-0.043793,0.02386,0.046235,0.35695225334999997,-4.4428047159999995,-8.7352734875,0.040841,0.47017,2.0524,5.0000000000105516e-05,-5.000000000032756e-05,-0.000160000000000049,0.00014059261199778073,-0.0007710645417855488,0.00028528748531428394
149570000000.0,2,0.0147295883,0.043168873299999994,0.03158721965,-0.058699,0.030372,0.050468,0.35727587279999995,-4.4379994575,-8.7376270835,0.040866,0.46963,2.053,4.999999999988347e-05,-4.999999999988347e-05,-0.00017999999999995797,0.0015574548131412902,-0.0005185437011814287,0.00018028481134202412
149570000000.0,2,0.02217283565,0.04872924385,0.01807365595,-0.060722,0.043179,0.048307,0.3592568161,-4.4320174009999995,-8.7405690785,0.041079,0.46894,2.0536,9.999999999998899e-05,-9.999999999976694e-05,-2.999999999997449e-05,0.001353950050884345,0.0009613453655707982,0.0008622784747378542
149570000000.0,2,-0.021682503149999997,0.047944711849999995,0.024516625,-0.058576,0.044228,0.047241,0.36046303404999996,-4.426329544,-8.743413007,0.041203,0.46829,2.0541,0.00019999999999997797,-0.00010000000000021103,-7.00000000000145e-05,0.0013363948329206954,0.00034967750886338855,0.0004886045274495598
149570000000.0,2,-0.0994590443,0.11227633585,-0.03978557905,-0.045699,0.049453,0.039784,0.3604336141,-4.419759088499999,-8.746747268,0.041184,0.46754,2.0548,9.999999999998899e-05,-9.999999999976694e-05,-4.0000000000040004e-05,0.0027134481212924833,0.0007630323141045725,0.0010674809174851252
149570000000.0,2,-0.0373241099,0.09428113309999998,-0.0637824516,-0.02641,0.051439,0.024872,0.36293430984999997,-4.41495383,-8.749100863999999,0.041459,0.46698,2.0551,9.999999999998899e-05,-0.00010000000000021103,-0.00012999999999996348,-0.0005872352199625119,-0.0010265528852355654,0.00031926791650144226
149570000000.0,2,-0.01832862885,0.06514557594999999,-0.10776527685,-0.014869,0.028964,0.027067,0.3642974342,-4.4112273029999995,-8.7509641275,0.041605,0.46656,2.0555,0.00019999999999997797,-1.6666666666775853e-05,-0.00014999999999998348,-0.0017469407206971432,-0.0021554879997169873,9.662178874694782e-05
149570000000.0,2,-0.08199340064999999,0.06834254384999999,-0.1512969962,0.004322,0.029864,0.030302,0.36346386895,-4.408873707,-8.7521409255,0.041505,0.4663,2.0559,5.0000000000105516e-05,-1.6666666666331764e-05,5.999999999994898e-05,0.001897864283564643,0.001289274410294583,0.0011371192780801065
149570000000.0,2,-0.02283968785,0.019181807399999997,-0.10096926839999999,0.003123,0.01708,0.03566,0.36356193545,-4.4081872415,-8.752435125,0.041514,0.46622,2.0563,4.999999999988347e-05,-1.6666666666775853e-05,-5.000000000032756e-06,-0.0017616687581321622,-0.0006777865927718452,0.00021938035717480875
149570000000.0,2,-0.1077554702,-0.019809433,-0.17315601904999997,0.000733,-0.005298,0.050641,0.35884493679999996,-4.407206576499999,-8.753219657,0.040973,0.46611,2.057,0.00019999999999997797,-1.6666666666775853e-05,-4.999999999921734e-06,-0.0016108908591255244,-0.0009678520551015257,8.220754489660087e-05
149570000000.0,2,-0.11804264605,0.02387919275,-0.1821094905,0.015603,-0.011821,0.052815,0.3528236537,-4.4064220445,-8.753808055999999,0.040284,0.46602,2.0577,9.999999999998899e-05,-1.6666666666331764e-05,4.0000000000040004e-05,-0.0007087147254209447,0.00019617805644567277,0.0006780596419984353
149570000000.0,2,0.0031969679,-0.01122861425,-0.1467859372,0.027153,-0.032167,0.057141,0.34800858854999994,-4.407696909,-8.753317723499999,0.039736,0.46616,2.0583,0.00019999999999997797,-1.6666666666775853e-05,0.00011999999999989797,-0.00037227962818869864,0.0012068620231948657,0.0005981282826224843
149570000000.0,2,-0.0251834772,-0.0349705139,-0.23106428729999998,0.053609,-0.053708,0.065764,0.34016326855,-4.4107369704999995,-8.7521409255,0.038847,0.46651,2.059,5.0000000000105516e-05,4.999999999988347e-05,0.000200000000000089,0.0022399659754696044,0.0030870222484757903,0.0008772225991432181
149570000000.0,2,-0.0364611247,-0.0046875787,-0.2001341132,0.078015,-0.064575,0.074366,0.3305037183,-4.415738362,-8.7499834625,0.037754,0.46708,2.0599,4.999999999988347e-05,4.999999999988347e-05,7.00000000000145e-05,-0.0025750039640133338,-0.0004947099918857223,0.0002109672980654953
149570000000.0,2,-0.07150028515,0.0127094184,-0.15299354665,0.096265,-0.056194,0.064777,0.32064803504999995,-4.4227010835,-8.7468453345,0.036642,0.46787,2.0607,9.999999999998899e-05,0.00010000000000021103,0.00016999999999989246,-0.001879551845601457,0.0011839522598409147,0.0001687877712424346
149570000000.0,2,-0.08755377119999999,0.060742390099999995,-0.04914112314999999,0.10935,-0.033906,0.043414,0.31305768795,-4.4309386695,-8.742922674499999,0.035791,0.46881,2.0613,9.999999999998899e-05,4.999999999988347e-05,0.0001300000000000745,0.00015471933116389947,0.000890148503306154,0.0003511970364256656
149570000000.0,2,-0.027517459899999996,0.10015531644999999,0.0410898635,0.10971,-0.004047,0.018812,0.310478539,-4.4393723885,-8.738803881499999,0.035514,0.46978,2.0616,-9.999999999998899e-05,4.999999999988347e-05,0.00014999999999998348,-0.0027465984221500817,-0.0007215703475877966,2.9564520747094036e-06
149570000000.0,2,-0.014788428199999998,0.07247114349999999,0.06604778774999999,0.10891,0.020482,0.004892,0.31107674464999996,-4.448492573,-8.7340966895,0.035601,0.47082,2.0616,9.999999999998899e-05,0.00010000000000021103,0.00019999999999997797,-0.0010678821693035356,0.00022949813421768717,0.00029243988749616534
149570000000.0,2,-0.025203090499999997,0.032283491799999994,0.1116192903,0.09627,0.038705,0.000568,0.31370492684999995,-4.457808890499999,-8.729291431,0.035922,0.47189,2.0616,3.333333333332966e-05,4.999999999988347e-05,0.000160000000000049,-0.0013858351890401188,-0.0006614568250453701,0.0006916143142045028
149570000000.0,2,-0.0334602898,-0.0191621941,0.10394068335000001,0.072745,0.037822,0.010136,0.31627426915,-4.46594841,-8.724976505,0.036233,0.47282,2.0617,3.333333333332966e-05,4.999999999988347e-05,8.999999999992347e-05,-0.001354986726732954,-0.0006690604974868286,0.0002559371330331517
149570000000.0,2,-0.08879921575,-0.04458103089999999,0.08717131184999999,0.052315,0.026251,0.023997,0.31624484919999996,-4.472420799,-8.7217403105,0.036244,0.47356,2.062,3.333333333332966e-05,-2.0000000000131024e-05,4.0000000000040004e-05,-0.0010875053467081508,-0.000731890062577012,6.910160382730957e-05
149570000000.0,2,-0.0651357693,-0.03223445855,0.155925735,0.03728,0.016776,0.029325,0.3153230241,-4.4778144565,-8.718896381999999,0.03615,0.47419,2.0624,0.00010000000000021103,-1.9999999999686935e-05,0.000140000000000029,0.00015987464806860308,0.00043765953405228153,0.00029713411270176904
149570000000.0,2,0.001569064,0.00587418335,0.21708981105,0.023386,0.01263,0.028241,0.31536225069999996,-4.4823255154999995,-8.7166408525,0.036163,0.47469,2.0626,5.0000000000105516e-05,-2.0000000000131024e-05,-2.0000000000020002e-05,-0.0006636556635024604,-0.0007237143494511766,0.00029242998678824517
149570000000.0,2,0.02797837245,0.0300868022,0.18632634999999997,-0.000142,0.010685,0.036742,0.3154407039,-4.4838945795,-8.715856320499999,0.036176,0.47488,2.063,4.999999999988347e-05,-1.9999999999686935e-05,7.999999999996898e-05,-0.0002289746288485217,0.0006771033444907815,0.0006628683088917287
149570000000.0,2,-0.0595655921,-0.0151610809,0.11006003295,-0.011991,0.002245,0.046343,0.31260658205,-4.4842868455,-8.715758253999999,0.035852,0.47492,2.0636,9.999999999998899e-05,-2.0000000000131024e-05,4.0000000000040004e-05,0.00047677041598004344,0.0004625858167983665,0.0006202646680543156
149570000000.0,2,-0.0736087149,-0.008472945599999998,0.13587113574999998,-0.009873,-0.002034,0.043153,0.30913502795000003,-4.484679111499999,-8.7156601875,0.035454,0.47497,2.0641,5.0000000000105516e-05,-4.999999999988347e-05,7.00000000000145e-05,0.00041795463829980006,0.0008638877354814056,0.0005931063793954139
149570000000.0,2,-0.0019221033999999998,0.03296015065,0.17356789834999997,-0.007694,8.5e-05,0.037816,0.30733060435,-4.485169443999999,-8.7154640545,0.035248,0.47502,2.0646,4.999999999988347e-05,-5.000000000032756e-05,-4.0000000000040004e-05,-0.00022618980927996413,9.700145082969236e-05,0.0001460603866892396
149570000000.0,2,0.00405014645,0.04586570204999999,0.19098450874999998,-0.005411,0.011799,0.027124,0.3068893051,-4.4856597764999995,-8.715267921499999,0.035199,0.47508,2.0649,4.999999999988347e-05,-3.333333333310762e-05,-2.0000000000020002e-05,-0.0003284974391818407,-0.00024917131788271263,0.00036957001058016137
149570000000.0,2,-0.00848275225,0.04778780544999999,0.20847957234999998,-0.017019,0.023623,0.020679,0.30776209695,-4.48556171,-8.715267921499999,0.035298,0.47507,2.0651,5.0000000000105516e-05,-3.333333333355171e-05,-4.999999999999449e-05,-0.00017129828688433602,-0.0003431305357455283,0.0003058989933934497
149570000000.0,2,-0.052544030699999994,0.029949509099999997,0.1906805026,-0.029777,0.032245,0.025979,0.30841914249999997,-4.484384912,-8.715856320499999,0.035372,0.47493,2.0655,9.999999999998899e-05,-3.333333333310762e-05,-5.999999999994898e-05,0.0009357941651035873,2.1892505723153377e-05,0.0004473906707688491
149570000000.0,2,-0.08999562704999998,-0.0046287388,0.18912124525,-0.030793,0.03758,0.024901,0.3087721819,-4.4833061805,-8.716346653,0.035409,0.47481,2.0658,4.999999999988347e-05,-5.000000000032756e-05,-6.0000000000060005e-05,-0.000181101057656341,-0.00031498547366792806,0.0006717678157985574
149570000000.0,2,-0.0423058881,-0.0080610663,0.19910441495,-0.033982,0.036542,0.021695,0.3103020193,-4.4821293825,-8.716935052,0.035583,0.47467,2.0662,5.0000000000105516e-05,-4.999999999988347e-05,-0.00010999999999994348,0.000661210927660083,-0.0002024607388155797,0.0002671648058968079
149570000000.0,2,0.0034617474499999998,0.026477955,0.1365281813,-0.034049,0.028018,0.02171,0.3121260562,-4.4799719195,-8.717915716999999,0.035787,0.47443,2.0664,9.999999999998899e-05,-9.999999999976694e-05,-9.999999999998899e-05,0.00019296774361104996,-0.00024117334738682494,-1.048071578962917e-05
149570000000.0,2,-0.0081002929,0.016279039,0.042090141799999994,-0.029954,0.007736,0.023888,0.31201818304999995,-4.4774221905,-8.719288648,0.035769,0.47414,2.0667,9.999999999998899e-05,-0.00010000000000021103,-0.000160000000000049,-0.0002649750390331107,-0.00101878709762393,0.00021408715698753578
149570000000.0,2,0.0121014061,0.019348520449999997,0.00104931155,-0.02688,-0.009336,0.021788,0.3108119651,-4.474676328499999,-8.7207596455,0.035626,0.47382,2.0669,5.0000000000105516e-05,-4.999999999988347e-05,-9.999999999998899e-05,0.0007207535479446525,0.0005485741269124489,0.0002532090877541693
149570000000.0,2,0.0748443528,0.022006122599999997,-0.01583773975,-0.026978,-0.022119,0.020742,0.30972342695,-4.4717343335,-8.722230643,0.035495,0.47349,2.0671,4.999999999988347e-05,-4.999999999988347e-05,-5.999999999994898e-05,0.0008195994099050585,0.0008219688545290094,7.009534314655896e-05
149570000000.0,2,0.06168382849999999,-0.024889277699999997,-0.04351210605,-0.026057,-0.037048,0.026107,0.30687949845,-4.4695768705,-8.723505507499999,0.035164,0.47324,2.0673,9.999999999998899e-05,-0.00010000000000021103,-7.00000000000145e-05,0.00036600145739462686,0.0006437401022487688,-4.835106914796716e-05
149570000000.0,2,0.009924329800000001,-0.04980797535,-0.06686173969999999,-0.017567,-0.043511,0.025065,0.30207423995,-4.4682039394999995,-8.724388106,0.03461,0.47308,2.0676,9.999999999998899e-05,-4.999999999988347e-05,-4.0000000000040004e-05,0.0008896470186144922,0.0009441900864759489,-4.168538776383457e-07
149570000000.0,2,0.05120051965,-0.029292463549999998,-0.06700883945,-0.011159,-0.044624,0.021875,0.2979064137,-4.4670271415,-8.725074571499999,0.03413,0.47294,2.0679,9.999999999998899e-05,-4.999999999988347e-05,-2.0000000000020002e-05,0.0006859021301958146,0.0009733445851007883,6.046339588641758e-05
149570000000.0,2,0.047532832549999994,-0.027252680349999996,-0.10661789879999999,-0.005862,-0.047865,0.024025,0.2934934212,-4.4660464765,-8.725761037,0.033623,0.47283,2.0681,9.999999999998899e-05,-0.00010000000000021103,4.999999999999449e-05,0.0026188037122470975,0.0021800516236114564,0.0006801654312746652
149570000000.0,2,0.00946341725,-0.02701732075,-0.1386464177,0.007931,-0.06076,0.018735,0.28771730435,-4.4658503435,-8.726055236499999,0.032961,0.47281,2.0683,4.999999999988347e-05,-9.999999999976694e-05,2.999999999997449e-05,0.0006772236565879552,0.000985886160138838,-0.00030356170856946085
149570000000.0,2,0.0197702064,0.005668243699999999,-0.155337336,0.009903,-0.085277,0.01131,0.28040154345,-4.465654210499999,-8.7264475025,0.032122,0.47278,2.0684,5.0000000000105516e-05,9.999999999976694e-05,3.0000000000085514e-05,-0.001527385909313006,-2.3521737133380682e-05,-0.0006252136721480728
149570000000.0,2,0.00328522775,0.03800076875,-0.2062142362,0.019311,-0.11093,0.008169,0.2707027666,-4.4650658115,-8.727035901499999,0.031009,0.47272,2.0686,9.999999999998899e-05,-9.999999999976694e-05,2.999999999997449e-05,0.0010080605410839327,0.0020511277068875344,8.281598623202657e-05
149570000000.0,2,-0.010895188149999999,0.05127897285,-0.16072118685,0.02131,-0.13331,-0.001394,0.2591505329,-4.4648696784999995,-8.7274281675,0.029685,0.47269,2.0686,9.999999999998899e-05,4.999999999988347e-05,0.0001100000000000545,0.0007559427698631271,0.002263570541815696,-0.0003066010194759383
149570000000.0,2,0.01573967325,0.061056202899999995,-0.1474331761,0.025421,-0.15572,-0.006684,0.24643130784999998,-4.4650658115,-8.727722367,0.028228,0.47272,2.0685,3.333333333332966e-05,4.999999999988347e-05,0.00012999999999996348,-0.001952308718151552,0.0015205039929069297,-0.0001984521948265039
149570000000.0,2,-0.0117875933,0.05012178815,-0.12932029355,0.023237,-0.16209,-0.007743,0.23234895844999998,-4.465458077499999,-8.7279185,0.026615,0.47277,2.0684,3.333333333332966e-05,-1.2499999999970868e-05,9.00000000000345e-05,0.000447456747507069,0.0017372162755862064,-0.0006688361520954256
149570000000.0,2,-0.03458805455,0.0472484397,-0.08622987345,0.024373,-0.15251,-0.00669,0.21834506225,-4.4662426095,-8.7279185,0.025012,0.47285,2.0684,3.333333333332966e-05,-1.2499999999970868e-05,1.999999999990898e-05,-0.0006038335251486449,0.0009116580006971464,-0.0004837676585669193
149570000000.0,2,-0.0453263363,0.029890669199999997,0.0027850886,0.033068,-0.13234,-0.00671,0.20573371035,-4.4685962055,-8.726937835,0.023571,0.47312,2.0684,9.999999999998899e-05,-1.2499999999970868e-05,7.00000000000145e-05,-0.0005935003453357846,0.000970615430402777,-0.0008395415990000987
149570000000.0,2,-0.03849110124999999,0.00436395925,0.0676854983,0.040607,-0.11643,0.005017,0.1944070296,-4.472420799,-8.7252707045,0.022277,0.47356,2.0684,9.999999999998899e-05,-1.2499999999970868e-05,-9.99999999995449e-06,-0.0007833454650885141,-0.00034372263441384554,-0.0005232140953775055
149570000000.0,2,-0.049415709349999996,-0.0578984616,0.03989345219999999,0.045926,-0.1101,0.018892,0.18288421584999998,-4.477520256999999,-8.722917108499999,0.020963,0.47414,2.0686,5.0000000000105516e-05,-1.2499999999970868e-05,7.999999999996898e-05,0.00025847254506516926,0.0013272709248561831,-0.00045170093711310866
149570000000.0,2,-0.0565451439,-0.0737656213,0.06644005374999999,0.055584,-0.094211,0.033825,0.17176347474999998,-4.4838945795,-8.719877046999999,0.019695,0.47488,2.069,5.0000000000105516e-05,-1.2499999999970868e-05,-2.0000000000020002e-05,-0.0014914027574202682,-0.00030065903340270594,-0.00035765439460158643
149570000000.0,2,-0.06747955865,-0.0433061664,0.1291731938,0.060064,-0.060165,0.046582,0.1624961905,-4.490857301,-8.7164447195,0.01864,0.47568,2.0695,9.999999999998899e-05,-1.2499999999970868e-05,9.00000000000345e-05,-5.947567792652375e-05,0.0014158290380874572,-3.025163970882261e-05
149570000000.0,2,-0.0904957662,-0.0393835064,0.190837409,0.055974,-0.034566,0.052935,0.1549842966,-4.498114222,-8.712816259,0.017787,0.47651,2.0702,9.999999999998899e-05,-1.2499999999970868e-05,0.00010999999999994348,-0.0001154387033255877,0.0007212353392418436,0.0005586707441386507
149570000000.0,2,-0.09278071565,-0.04796432515,0.19601532019999998,0.047564,-0.017454,0.056093,0.14889436695,-4.504782744,-8.709481998,0.017093,0.47727,2.0709,9.999999999998899e-05,-5.000000000032756e-05,1.0000000000065512e-05,-0.0010797630548196047,-0.00023489786197838924,6.906903777492701e-05
149570000000.0,2,-0.10660809215,0.005540757249999999,0.18264885625,0.038154,0.002872,0.050705,0.1443146614,-4.509686069,-8.7070303355,0.016573,0.47783,2.0716,9.999999999998899e-05,-4.999999999988347e-05,7.00000000000145e-05,0.0017990569567870596,0.0013061295773140191,0.0005266692934730588
149570000000.0,2,-0.12251447845,0.041884202149999994,0.23791913565,0.029819,0.018935,0.036788,0.1415099595,-4.5136087289999995,-8.704970938999999,0.016255,0.47829,2.0722,9.999999999998899e-05,-4.999999999988347e-05,9.99999999995449e-06,-0.00038077027748684156,-8.747759621430262e-05,0.0003829717608563321
149570000000.0,2,-0.1274276101,0.05043560095,0.2705654735,0.012919,0.028679,0.018597,0.1404508413,-4.516550724,-8.703598007999998,0.016136,0.47862,2.0725,5.0000000000105516e-05,-5.000000000032756e-05,2.0000000000020002e-05,0.0006962947251889506,0.0006598513066395917,0.0006292461465692012
149570000000.0,2,-0.06914668915,0.06277236665,0.2280830657,-0.000928,0.021348,0.002576,0.14112750014999997,-4.5176294555,-8.702911542499999,0.016214,0.47875,2.0727,4.999999999988347e-05,-9.999999999976694e-05,-0.0001100000000000545,0.0010525928688023267,-7.28776479237414e-05,-0.00031729474801747704
149570000000.0,2,-0.01093441475,0.0413056098,0.1797166679,-0.019244,-0.005135,-0.003814,0.1412745999,-4.517139123,-8.703205742,0.016231,0.47869,2.0727,3.333333333332966e-05,-0.00010000000000021103,-6.999999999990347e-05,-0.0007149576210533359,-0.0005014383619454943,-0.00037600468496429285
149570000000.0,2,0.058153434500000004,-0.036529771249999995,0.093751574,-0.038766,-0.039081,0.005818,0.13951920955,-4.5152758595,-8.704186407,0.016028,0.47848,2.0726,3.333333333332966e-05,-9.999999999976694e-05,-9.999999999998899e-05,0.0019381884719492093,0.001348846137876114,-0.00024950606247250984
149570000000.0,2,0.11189387649999999,-0.1250347875,0.00659987545,-0.062603,-0.071937,0.02718,0.1347041444,-4.512039665,-8.705951604,0.015472,0.47811,2.0728,3.333333333332966e-05,-0.00019999999999997797,-3.500000000000725e-05,0.0010668996397595332,0.0017671146552744599,9.08815191416612e-06
149570000000.0,2,0.09097629205,-0.15807339135,-0.09415364664999999,-0.072335,-0.077201,0.045317,0.12748644999999997,-4.507528605999999,-8.7084032665,0.014639,0.47758,2.0732,9.999999999998899e-05,-3.333333333355171e-05,-3.500000000000725e-05,-1.1814360264039703e-05,0.0004627960950567278,0.00012164788524224313
149570000000.0,2,0.0035500073,-0.07196119769999999,-0.09254535604999999,-0.065838,-0.063405,0.048506,0.11930770389999999,-4.5017426825,-8.7115413945,0.013694,0.47692,2.0737,9.999999999998899e-05,-3.333333333310762e-05,-4.0000000000040004e-05,0.00031771646679246146,0.0012556390246023508,5.580356427981048e-05
149570000000.0,2,0.05647649735,0.058378987449999996,-0.05043560095,-0.038889,-0.035907,0.036762,0.11470838505,-4.496447091499999,-8.7142872565,0.013163,0.47632,2.0741,9.999999999998899e-05,-3.333333333355171e-05,-2.999999999997449e-05,-0.00022662044437760098,0.0004906721538440184,0.0002928316475629966
149570000000.0,2,0.05324030285,0.13598881555,0.04588531535,-0.010909,-0.012681,0.025028,0.11285492819999998,-4.493407029999999,-8.715856320499999,0.012948,0.47597,2.0744,4.999999999988347e-05,-4.999999999988347e-05,-4.999999999999449e-05,-0.001455487377817699,-0.0008346149357454369,-0.00019426515926651566
149570000000.0,2,-0.07536410525,0.19365191755,0.06260565359999999,0.003092,-0.001068,0.016494,0.1103836524,-4.491249567,-8.7170331185,0.012662,0.47572,2.0747,5.0000000000105516e-05,-4.999999999988347e-05,-9.00000000000345e-05,-0.0009326646360873214,-0.0006656067967232282,-0.00022268344795159378
149570000000.0,2,-0.15600418819999998,0.17960879475,0.019485813549999998,0.005329,0.003187,0.00155,0.107677017,-4.489288237,-8.71811185,0.01235,0.4755,2.0749,5.0000000000105516e-05,-2.0000000000131024e-05,2.999999999997449e-05,2.612000973833961e-05,0.00032597152536362195,0.0006492011511431972
149570000000.0,2,-0.12080812134999999,0.12604487244999998,0.024016485849999998,-0.006385,0.001157,-0.007004,0.1059902732,-4.48752304,-8.7189944485,0.012156,0.4753,2.075,4.999999999988347e-05,-2.0000000000131024e-05,-0.00012000000000000899,-0.0010193583012098606,-0.0009275293016075548,-0.0007741086923866713
149570000000.0,2,-0.041207543299999996,0.04955300245,-0.0145334553,-0.016068,-0.00942,-0.008069,0.1051076747,-4.485365577,-8.7201712465,0.012053,0.47505,2.0749,9.999999999998899e-05,-1.9999999999686935e-05,-4.999999999999449e-05,-0.00027200081735734294,-0.00021152479376995714,-4.360185287632934e-05
149570000000.0,2,-0.00381478685,-0.04000132535,-0.052308671099999995,-0.019412,-0.02006,0.003685,0.10346996415,-4.483796513,-8.7209557785,0.011864,0.47487,2.0749,3.333333333332966e-05,-2.0000000000131024e-05,-2.999999999997449e-05,0.00042558818344834437,0.0008133756726227404,5.2769122593304685e-05
149570000000.0,2,-0.0062566426999999996,-0.0862396801,-0.0236144132,-0.024788,-0.022153,0.009017,0.10113598144999998,-4.482815848,-8.721544177499998,0.011595,0.47475,2.075,3.333333333332966e-05,-2.0000000000131024e-05,-2.999999999997449e-05,-0.00039591267272037767,-0.00018790211125341294,-0.0002209322901789157
149570000000.0,2,0.0235555733,-0.10291098509999999,-0.03572562595,-0.027048,-0.034927,0.014372,0.09825282634999999,-4.48163905,-8.7221325765,0.011264,0.47463,2.0751,3.333333333332966e-05,-3.333333333310762e-05,-9.00000000000345e-05,-0.0004559448108028552,-0.000246408680482757,-0.0003956051067288413
149570000000.0,2,0.0637236117,-0.056054811399999994,-0.0840626038,-0.03255,-0.051936,0.020796,0.09429093975,-4.4791873875,-8.723505507499999,0.010809,0.47434,2.0753,9.999999999998899e-05,-3.333333333355171e-05,2.999999999997449e-05,0.00043315979669700244,0.0010051950618572558,0.0002152550085801619
149570000000.0,2,0.029115943849999996,-0.008825985,-0.10399952324999999,-0.025098,-0.053063,0.021878,0.0891032219,-4.4761473259999995,-8.725074571499999,0.010212,0.47399,2.0755,9.999999999998899e-05,-3.333333333310762e-05,8.000000000008001e-05,0.0009095985879093993,0.0014074300963988762,-0.0001031762977313222
149570000000.0,2,-0.01640652545,-0.0040403398,-0.03403888215,-0.016463,-0.039284,0.024004,0.08389589075,-4.4742840625,-8.726055236499999,0.009614,0.47378,2.0758,3.333333333332966e-05,-2.4999999999941735e-05,3.999999999992898e-05,0.0010728584700404609,0.0009603642458391182,7.489516741193691e-05
149570000000.0,2,-0.06955856845,0.05066115389999999,0.07071575315,-0.004499,-0.012741,0.020776,0.08003207065,-4.4734995305,-8.7264475025,0.009171,0.47369,2.0761,3.333333333332966e-05,-2.5000000000385825e-05,-2.0000000000020002e-05,-0.0005774895362499199,1.2540663149929188e-05,6.780001685532944e-05
149570000000.0,2,-0.09354563435,0.0742951804,0.1293889401,0.002127,0.010652,0.013276,0.07828648695,-4.4734995305,-8.726545568999999,0.008971,0.47369,2.0764,3.333333333332966e-05,-2.4999999999941735e-05,1.0000000000065512e-05,0.00016465813973742804,6.735581966399451e-06,0.00015784273287924866
149570000000.0,2,-0.09207463684999999,0.07091188614999999,0.13503757049999998,0.009718,0.023378,0.008999,0.07815900049999999,-4.474185995999999,-8.726153303,0.008957,0.47376,2.0766,6.249999999985434e-06,-2.4999999999941735e-05,-1.666666666666483e-05,-1.7446365888684756e-05,0.00015841754151790788,0.00014888674582472228
149570000000.0,2,-0.0944772661,0.0388539473,0.1185820118,0.012906,0.022282,0.010075,0.07787460765,-4.475558927,-8.725466837499999,0.008924,0.47393,2.0768,6.249999999985434e-06,-2.0000000000131024e-05,-1.666666666666483e-05,8.71327814456202e-05,-0.00030728662127166295,0.00018058769494058713
149570000000.0,2,-0.11349236045,0.014239255799999998,0.11051113884999998,0.007715,0.036181,0.003639,0.07848261995,-4.4770299245,-8.724682305499998,0.008995,0.47409,2.0769,6.249999999985434e-06,-1.9999999999686935e-05,-1.666666666666483e-05,-0.00021993197812608667,-0.000657201883629277,0.00013765866408699257
149570000000.0,2,-0.08992698049999999,0.00510926465,0.1151104577,-0.001592,0.06823,-0.003905,0.0822974068,-4.477912523,-8.724191973,0.009433,0.47419,2.077,6.249999999985434e-06,-2.0000000000131024e-05,-4.999999999999449e-05,7.72588723613743e-05,-0.000936632759287459,0.00023003187263001545
149570000000.0,2,-0.084141057,0.0170243444,0.11298241464999999,-0.013154,0.086444,-0.009293,0.08863250269999999,-4.4776183235,-8.7242900395,0.010158,0.47415,2.077,6.249999999985434e-06,-1.9999999999686935e-05,-7.00000000000145e-05,0.0004024675136551914,-0.0010945264630237705,0.00016992439279187033
149570000000.0,2,-0.0242224255,-0.01568083335,0.08556302125,-0.013197,0.082179,-0.00715,0.09588942369999999,-4.4772260575,-8.7244861725,0.010991,0.47411,2.0769,6.249999999985434e-06,-2.0000000000131024e-05,9.99999999995449e-06,0.0004962589076077939,-9.976682406809267e-05,0.00043936447712697446
149570000000.0,2,-0.0651946092,-0.0621937743,0.063350959,-0.019638,0.076902,-0.007152,0.10185186689999999,-4.4769318579999995,-8.7244861725,0.011674,0.47408,2.0769,6.249999999985434e-06,-0.00010000000000021103,-4.999999999921734e-06,0.0006604983919752949,-0.00015863387105663485,0.00048417033709871604
149570000000.0,2,-0.04916073645,-0.057653295349999995,0.0742363405,-0.019518,0.092881,-0.005044,0.10901072139999998,-4.476539592,-8.724682305499998,0.012494,0.47403,2.0769,6.2500000002074785e-06,-9.999999999976694e-05,-5.000000000032756e-06,0.0012005560117090974,-0.00042360126648666174,0.0006814584042245109
149570000000.0,2,-0.016239812399999998,-0.03331319005,0.13259571465,-0.029028,0.10468,-0.004014,0.11799361279999998,-4.4754608605,-8.725074571499999,0.013522,0.47391,2.0768,6.249999999985434e-06,-5.000000000032756e-05,-2.999999999997449e-05,0.0002938121621726131,-0.0012785729819713154,0.0009135976806588231
149570000000.0,2,-0.0552506661,-0.0419136221,0.14091175385,-0.053489,0.11341,-0.005139,0.1270745707,-4.4729111315,-8.7262513695,0.014561,0.47362,2.0768,6.249999999985434e-06,-4.999999999988347e-05,-8.000000000008001e-05,0.00015159053048463544,-0.0008126598889179881,0.00033805038803347287
149570000000.0,2,0.015553346899999999,-0.03572562595,0.0944772661,-0.081268,0.11363,0.003351,0.13751865295,-4.4674194074999996,-8.728899165,0.015754,0.473,2.0768,6.249999999985434e-06,-0.00019999999999997797,-1.999999999990898e-05,0.0023949358997110703,-0.0003167635298340077,0.0009849236373846437
149570000000.0,2,0.012356378999999999,-0.044335864649999994,0.0598794049,-0.094148,0.1084,0.010809,0.14685458375,-4.460554752499999,-8.732331492499998,0.016816,0.4722,2.0769,6.249999999985434e-06,-4.999999999988347e-05,-0.0001300000000000745,0.0007812793348767055,-0.0010585158520353133,0.0004799698204589753
149570000000.0,2,-0.04822910469999999,-0.03348970975,0.0769429759,-0.11025,0.094678,0.008671,0.15417034464999999,-4.4520229669999996,-8.7364502855,0.017645,0.47123,2.0771,6.249999999985434e-06,-4.999999999988347e-05,-0.00019999999999997797,0.000541467823758468,-0.0018468304161824989,0.0001362632713023948
149570000000.0,2,-0.02676234785,0.013856796449999998,0.03496070725,-0.10918,0.092541,0.004408,0.16159397869999997,-4.4425105165,-8.7411574775,0.018484,0.47014,2.0772,6.249999999985434e-06,-0.00010000000000021103,-0.00012000000000000899,0.0015793447713112752,-0.0007358207760574942,0.00032873050389514713
149570000000.0,2,-0.021584436649999997,0.026115108949999997,0.03296015065,-0.1156,0.091526,0.006533,0.1691254859,-4.432311600499999,-8.7462569355,0.019335,0.46898,2.0773,6.249999999985434e-06,-9.999999999976694e-05,-9.999999999998899e-05,0.0030817915730969037,0.0001802090341271878,0.00026021090107322675
149570000000.0,2,-0.014288289049999998,-0.00784532,-0.08697517885,-0.10397,0.081833,0.012975,0.17574497465,-4.422210751,-8.751258326999999,0.02008,0.46781,2.0774,6.249999999985434e-06,-4.999999999988347e-05,-7.00000000000145e-05,-0.0003839082172114594,-0.0009230495620839996,0.00045247427336150836
149570000000.0,2,0.025458063399999998,-0.0235947999,-0.109638347,-0.071033,0.067705,0.017327,0.18164857795,-4.4146596305,-8.7548867875,0.020745,0.46696,2.0776,3.333333333332966e-05,-5.000000000032756e-05,-3.999999999992898e-05,0.001743333483162246,0.0001433006194422326,0.0003525562340864763
149570000000.0,2,0.06944088864999999,0.022702394749999997,-0.06673425325,-0.033844,0.051413,0.021688,0.18673822929999997,-4.410050505,-8.7570442505,0.021321,0.46643,2.0778,3.333333333332966e-05,-5.000000000032756e-05,-2.0000000000020002e-05,-0.0002658614290887984,-0.0005737797226894603,0.0005247430028411382
149570000000.0,2,0.0034715540999999996,0.06341960555,-0.0595655921,0.000353,0.055399,0.016404,0.19061185604999997,-4.4081872415,-8.7580249155,0.021761,0.46621,2.078,3.333333333332966e-05,-4.999999999988347e-05,-1.0000000000065512e-05,0.0009962095413084682,0.00024279510326929987,0.00019272133056694174
149570000000.0,2,-0.0577023286,0.08288580579999999,0.016190779149999997,0.031455,0.071133,0.008959,0.19521117489999998,-4.4093640395,-8.7572403835,0.022288,0.46635,2.0782,-2.4999999999941735e-05,4.999999999988347e-05,4.999999999999449e-05,-0.0008080818927477251,-0.0005570203553872943,0.0009244574037441389
149570000000.0,2,-0.09719370814999999,0.07943386499999999,0.0569962498,0.064619,0.080451,0.0058,0.2002910196,-4.4136789655,-8.754984854,0.022874,0.46685,2.0783,-2.500000000016378e-05,5.000000000032756e-05,-5.999999999994898e-05,-0.0011992800453121677,-0.0017421252437537227,1.4887321843598533e-05
149570000000.0,2,-0.07095111275,0.0452086565,0.029792602699999997,0.089177,0.08557,0.010104,0.20622404284999998,-4.4207397535,-8.751258326999999,0.02356,0.46765,2.0784,-2.4999999999941735e-05,2.4999999999941735e-05,9.99999999995449e-06,-0.0014438772926033128,-0.0008799432736577018,9.204029292184113e-05
149570000000.0,2,-0.05488782005,0.0324011716,-0.0044718324,0.095575,0.086579,0.012249,0.21230416585,-4.4287812065,-8.747041467499999,0.024267,0.46857,2.0786,-2.4999999999941735e-05,2.5000000000385825e-05,0.00014999999999998348,0.00099716781954029,0.0007254030096894848,0.0010884021077819661
149570000000.0,2,-0.032146198699999996,0.0206724182,-0.0676462717,0.090196,0.079166,0.009051,0.21859022849999998,-4.4361361939999995,-8.743118807499998,0.024997,0.46942,2.0787,9.999999999998899e-05,2.4999999999941735e-05,4.499999999996174e-05,-0.002307249965509628,-0.0015921705634622807,0.0001986758012935408
149570000000.0,2,-0.04819968475,0.038559747799999995,-0.05667263035,0.074246,0.083563,0.004747,0.22476841799999997,-4.442216317,-8.739882612999999,0.025712,0.47011,2.0788,-9.999999999998899e-05,2.4999999999941735e-05,4.500000000007276e-05,-0.00027043022959299945,-0.00045840837311583726,0.0008478985693945729
149570000000.0,2,-0.03862839435,0.0141019627,-0.04823891135,0.040134,0.082785,-0.002782,0.23150558654999998,-4.445942843999999,-8.737921283,0.026489,0.47053,2.0788,-3.333333333332966e-05,-8.333333333165882e-06,4.0000000000040004e-05,0.00034101783963691457,-0.00038114107630660143,0.0003578291762665886
149570000000.0,2,-0.00013729309999999998,-0.037461403,-0.06793066454999999,0.014488,0.074477,-0.008149,0.23866444105,-4.4478061075,-8.736744485,0.02731,0.47074,2.0787,-3.333333333332966e-05,-8.333333333609971e-06,7.999999999996898e-05,0.0007365177523028787,0.00013253871909402193,0.00036322287795576
149570000000.0,2,0.013278204099999998,-0.01062060195,-0.061379822349999995,0.002566,0.047942,-0.01346,0.24425423154999998,-4.4478061075,-8.736548352,0.02795,0.47075,2.0786,-3.333333333332966e-05,-8.333333333165882e-06,0.0001100000000000545,0.0003231544913974149,0.0004225880710702068,0.00040312683176718656
149570000000.0,2,0.039736545799999995,-0.006246836049999999,-0.054328840999999996,0.000276,0.024525,-0.019827,0.24831418465,-4.4476099745,-8.736548352,0.028414,0.47072,2.0783,5.0000000000105516e-05,-8.333333333609971e-06,1.999999999990898e-05,3.6463740573200454e-05,-0.00016779441023828667,-0.00013552813586537038
149570000000.0,2,0.08126770854999998,-0.018534568499999998,-0.023006400899999998,0.011886,0.007385,-0.021913,0.2516778656,-4.448492573,-8.7360580195,0.028801,0.47082,2.078,4.999999999988347e-05,-8.333333333165882e-06,-1.999999999990898e-05,-0.0009362241843240415,-0.001420351349850968,-0.00012497853486015398
149570000000.0,2,0.089828914,-0.0409133438,0.07645264339999999,0.017163,0.005204,-0.013362,0.25433546775,-4.451042301999999,-8.734587022,0.02911,0.47112,2.0777,1.999999999990898e-05,-8.333333333165882e-06,1.999999999990898e-05,-0.00017513658825507594,-0.0002182280447391438,-9.362301033050136e-05
149570000000.0,2,0.0423058881,-0.0527990036,0.1039308767,0.018236,0.011581,-0.003766,0.2562281512,-4.4542784965,-8.7329198915,0.029332,0.47149,2.0776,2.0000000000131024e-05,-8.333333333609971e-06,4.999999999999449e-05,-0.0001646773740138774,2.4114675698960752e-05,6.224936646018198e-05
149570000000.0,2,0.008257199299999999,-0.052387124300000004,0.11172716345,0.008677,0.021242,0.003672,0.25794431495,-4.4568282255,-8.731645026999999,0.029533,0.47177,2.0776,1.999999999990898e-05,-8.333333333165882e-06,8.000000000008001e-05,0.000171747434806524,0.0005188359589456404,4.180835142642003e-05
149570000000.0,2,0.00879656505,-0.03379371589999999,0.10450946905,-0.004045,0.033066,0.006831,0.26055288384999997,-4.457906957,-8.7309585615,0.029834,0.4719,2.0777,2.0000000000131024e-05,-8.333333333609971e-06,5.000000000032756e-06,-0.00024531109828890285,-0.0005420819496344542,0.0003393131020240914
149570000000.0,2,0.0033734876,-0.02752726655,0.11849375194999999,-0.016819,0.036368,0.006803,0.26357333205,-4.457906957,-8.730860495,0.03018,0.4719,2.0778,1.999999999990898e-05,-8.333333333165882e-06,4.999999999921734e-06,0.000177219804975981,-0.00010311125705930735,0.0001624150754911402
149570000000.0,2,0.00869849855,-0.01062060195,0.1092264677,-0.019031,0.023604,0.002551,0.2660348012,-4.457122425,-8.731154694499999,0.03046,0.47181,2.0778,5.0000000000105516e-05,-8.333333333609971e-06,-4.999999999999449e-05,8.462985947282897e-05,-0.0007461011301506115,-0.00011960426711829508
149570000000.0,2,0.0302633219,-0.005501530649999999,0.090025047,-0.022382,0.003389,0.000446,0.26735869895,-4.455945627,-8.7317430935,0.03061,0.47168,2.0778,5.0000000000105516e-05,-8.333333333165882e-06,9.99999999995449e-06,-0.00041737844903194654,-0.000815071581824478,0.0001120077649458262
149570000000.0,2,0.06953895515,-0.028125472199999998,0.040599530999999994,-0.022561,-0.017922,0.002617,0.26729985905,-4.454572696,-8.732429559,0.0306,0.47152,2.0778,9.999999999998899e-05,-2.4999999999941735e-05,-9.99999999995449e-06,6.24071001640858e-05,0.0003588799624996142,-2.6057841023968686e-05
149570000000.0,2,0.07605057074999999,-0.0346567011,0.038736267500000005,-0.023629,-0.016847,0.004746,0.26677029995,-4.4532978315,-8.7331160245,0.030538,0.47137,2.0777,4.999999999988347e-05,-2.5000000000385825e-05,2.999999999997449e-05,0.0009020456928742759,0.0010935921384169767,-2.898358301767212e-05
149570000000.0,2,0.03064578125,-0.02495792425,0.1160518961,-0.032043,0.001333,0.010036,0.26669184674999996,-4.4519249005,-8.733802489999999,0.030526,0.47121,2.0778,5.0000000000105516e-05,-2.4999999999941735e-05,4.0000000000040004e-05,0.0008765368242644178,0.0008919201934338705,0.0004664851309955087
149570000000.0,2,-0.03317589695,-0.062340874049999995,0.14014683514999998,-0.04578,0.022748,0.018514,0.26690759305,-4.4501597035,-8.734783155,0.030548,0.47101,2.078,9.999999999998899e-05,-2.4999999999941735e-05,-2.999999999997449e-05,0.0006990053814850405,9.126318483154705e-07,4.6029228102595354e-05
149570000000.0,2,-0.035372586549999994,-0.046424681100000004,0.0742755671,-0.052168,0.028121,0.024898,0.26776077159999995,-4.446923508999999,-8.736352218999999,0.030639,0.47064,2.0783,4.999999999988347e-05,-4.999999999988347e-05,-4.0000000000040004e-05,0.00029811030073251255,-0.0003098397510723494,0.0005677952603076464
149570000000.0,2,-0.0175539035,-0.0558782917,0.024242038799999997,-0.054332,0.028132,0.031299,0.2686433701,-4.443098915499999,-8.7382154825,0.030734,0.47021,2.0787,5.0000000000105516e-05,-4.999999999988347e-05,-9.99999999995449e-06,0.00026440010848305384,-0.00010663133071142639,0.0006256940657791976
149570000000.0,2,0.0049915848499999995,-0.03861858769999999,-0.03525490675,-0.05222,0.025982,0.032374,0.26959461515,-4.438882056,-8.740372945499999,0.030835,0.46972,2.0791,9.999999999998899e-05,-4.999999999988347e-05,-2.5000000000052758e-05,0.0007398981461202991,0.0003919791474209511,0.0008397135239961162
149570000000.0,2,0.006433162399999999,-0.00361865385,-0.04166845585,-0.044782,0.019532,0.028129,0.27024185405,-4.4346651965,-8.7425304085,0.030902,0.46924,2.0794,9.999999999998899e-05,-5.000000000032756e-05,-2.4999999999941735e-05,-0.00030616255330750963,-0.0007206675560869069,5.893320019889625e-05
149570000000.0,2,-0.0307732677,0.01372931,-0.046571780849999994,-0.042657,0.015257,0.022803,0.2701928208,-4.430448337,-8.744589805,0.030888,0.46876,2.0797,9.999999999998899e-05,0.00010000000000021103,-3.0000000000085514e-05,0.000564286456609886,-0.0003141156610104723,0.0005923288249221892
149570000000.0,2,-0.0876910643,0.05667263035,-0.0783747468,-0.028758,0.017274,0.019623,0.26890814965,-4.426231477499999,-8.746747268,0.030734,0.46828,2.0801,4.999999999988347e-05,-0.00010000000000021103,2.0000000000020002e-05,0.0010712385944584013,0.0003223698885561621,0.0004717781356610995
149570000000.0,2,-0.1361947552,0.07442266685,-0.00352058735,-0.004017,0.039449,0.014293,0.26877085655,-4.424368213999999,-8.747727933,0.030715,0.46807,2.0804,5.0000000000105516e-05,-1.1111111111183902e-05,1.0000000000065512e-05,-0.00026690708658350104,-0.0002960706749761677,0.0002574928821659217
149570000000.0,2,-0.0919275371,0.05630978429999999,0.0912606849,0.024967,0.056266,0.005775,0.27164420499999997,-4.4258392115,-8.746943401,0.031046,0.46824,2.0805,9.999999999998899e-05,-1.1111111111183902e-05,6.999999999990347e-05,-0.00011401792694082369,5.120498027832987e-05,0.00045178751748325974
149570000000.0,2,-0.0912606849,0.04180574895,0.08580818750000001,0.036779,0.063629,0.002582,0.2753118921,-4.429075406,-8.745178204,0.031471,0.4686,2.0806,3.333333333332966e-05,-1.1111111110739813e-05,-2.999999999997449e-05,-0.0004094774037313176,-0.001483793887592899,-5.373024580790364e-05
149570000000.0,2,-0.06836215714999999,0.0477583855,0.0636451585,0.033689,0.074314,-0.002778,0.2805486432,-4.4320174009999995,-8.743511073499999,0.032075,0.46894,2.0806,3.333333333332966e-05,-1.1111111111183902e-05,7.00000000000145e-05,-0.00021060763253311077,-0.0005670327729829783,0.0004378293022191393
149570000000.0,2,-0.019407360349999996,0.0108265416,0.039834612299999995,0.0326,0.07219,-0.001708,0.2869621923,-4.4348613295,-8.741843943,0.032814,0.46926,2.0806,3.333333333332966e-05,-1.1111111111183902e-05,1.0000000000065512e-05,-0.00015692538399120215,-0.0008698243785485449,0.00023295591299382634
149570000000.0,2,0.0097870367,-0.022702394749999997,0.02564438975,0.034586,0.050867,-0.005937,0.29233623649999996,-4.438293657,-8.739980679499999,0.033435,0.46966,2.0806,1.999999999990898e-05,-1.1111111111183902e-05,-1.0000000000065512e-05,-0.000473698715549864,-0.0009766051257094066,0.00023559075617593517
149570000000.0,2,0.006060509699999999,-0.0064920023,0.0337741026,0.018437,0.028629,-0.012331,0.2960627635,-4.440549186499999,-8.7386077485,0.033867,0.46992,2.0804,2.0000000000131024e-05,-1.1111111110739813e-05,4.0000000000040004e-05,0.00018138410007484396,-8.196671667382027e-05,-7.657431595289865e-05
149570000000.0,2,-0.011052094549999999,-0.010463695549999999,-0.052524417399999995,0.002381,0.01492,-0.024075,0.29835751959999995,-4.440647253,-8.738509682,0.034129,0.46993,2.0802,1.999999999990898e-05,-1.1111111111183902e-05,3.999999999992898e-05,-0.0002590493644215597,-0.0003449737804210873,-0.00019661227895820255
149570000000.0,2,0.0065116155999999994,0.023761512949999997,-0.01179739995,-0.000833,0.00537,-0.036873,0.30054440255,-4.4401569205,-8.738705815,0.034378,0.46987,2.0798,2.0000000000131024e-05,-1.1111111111183902e-05,4.0000000000040004e-05,0.0001556759379051087,0.000523726938161273,-8.365658964726297e-05
149570000000.0,2,-0.0014219642499999998,0.021829602899999998,0.11449263874999999,-0.004031,0.002205,-0.04221,0.30263321899999995,-4.4403530535,-8.738509682,0.034619,0.46989,2.0793,1.999999999990898e-05,-3.333333333355171e-05,-9.99999999995449e-06,0.00016300229858762227,-0.0003031166371654237,-0.0006540897956473224
149570000000.0,2,-0.0644296905,0.025948395899999997,0.12975178615,-0.007218,0.001168,-0.046482,0.30370214385,-4.440254987,-8.738509682,0.034741,0.46988,2.0789,1.6666666666775853e-05,-3.333333333310762e-05,1.999999999990898e-05,0.0003274100050131845,0.00024590196243390317,-0.00023051407866206408
149570000000.0,2,-0.06145827555,0.0158279331,0.1471782032,-0.021009,0.010871,-0.046523,0.30552618075,-4.4393723885,-8.738901948,0.034947,0.46979,2.0784,1.666666666655381e-05,-3.333333333355171e-05,-1.999999999990898e-05,-1.7292799131207737e-05,-0.0003346597108311311,-3.3470721982231666e-05
149570000000.0,2,-0.023428086849999998,0.0044914457,0.0938496405,-0.036914,0.026978,-0.040174,0.3090859947,-4.436920725999999,-8.740078746,0.03535,0.4695,2.078,1.666666666655381e-05,-4.999999999988347e-05,-6.0000000000060005e-05,0.0006991542006977158,-0.0005762968500340193,-0.00043497791029808996
149570000000.0,2,-0.042178401649999996,-0.012621158549999999,0.0574081291,-0.044369,0.034488,-0.030593,0.3128713616,-4.433586464999999,-8.74164781,0.035776,0.46912,2.0777,1.6666666666775853e-05,-4.999999999988347e-05,-4.999999999999449e-05,0.0019391851669143256,0.00013666352674790438,-0.00016635532044478873
149570000000.0,2,-0.0743540203,-0.0405799177,0.0362453784,-0.045559,0.024895,-0.02097,0.3149699847,-4.430252203999999,-8.743216874,0.036009,0.46874,2.0775,1.6666666666775853e-05,-3.333333333355171e-05,-2.999999999997449e-05,-0.0007370634061532599,-0.00033216722341311566,1.1567766391828993e-05
149570000000.0,2,-0.0366180311,-0.0328718908,0.0125328987,-0.036104,0.010956,-0.013457,0.31629388244999995,-4.4274082754999995,-8.744589805,0.036154,0.46841,2.0774,1.666666666655381e-05,-3.333333333310762e-05,-6.0000000000060005e-05,-0.00045368552007502005,-0.0007913381856925472,-8.639818198749594e-05
149570000000.0,2,-0.0125328987,-0.0359707922,0.0324992381,-0.026679,-0.009372,-0.010202,0.31630368909999995,-4.4254469455,-8.74557047,0.036151,0.46819,2.0773,3.333333333332966e-05,-3.333333333355171e-05,-9.99999999995449e-06,0.00040901239494117725,0.0002905474557060028,-1.561664958016351e-05
149570000000.0,2,-0.0628998531,-0.03297976395,0.0023339827,-0.010925,-0.041471,-0.011184,0.31264580864999997,-4.42476048,-8.7460608025,0.035731,0.46811,2.0772,3.333333333332966e-05,-4.999999999988347e-05,-4.0000000000040004e-05,0.000266501742821168,0.00014932664107836224,-0.0004124759710538717
149570000000.0,2,-0.0605266438,-0.0195936867,-0.045365562899999996,-0.007905,-0.071322,-0.022867,0.30668336545,-4.4238778815,-8.746747268,0.035048,0.46801,2.077,3.333333333332966e-05,-4.999999999988347e-05,-9.99999999995449e-06,0.0008303146100587799,0.0010246516318987986,-0.0005865184647687594
149570000000.0,2,-0.03631402495,-0.01034601575,-0.0373437232,-0.012198,-0.079804,-0.031398,0.30042672275,-4.4227010835,-8.747629866499999,0.03433,0.46787,2.0767,2.4999999999941735e-05,-2.0000000000131024e-05,-9.99999999995449e-06,5.207085871927752e-06,0.0005078041561541458,-0.0005864227758234086
149570000000.0,2,0.0193975537,0.01675956485,-0.0013533177,-0.023836,-0.070113,-0.035705,0.2960431502,-4.420445554,-8.748904731,0.033825,0.46762,2.0763,2.4999999999941735e-05,-2.0000000000131024e-05,-0.00010000000000010001,-0.002426326620303121,-0.0015888665399530488,-0.0015945033576541534
149570000000.0,2,0.03252865805,-0.033430869849999996,-0.0169655045,-0.030252,-0.070062,-0.032514,0.2918851306,-4.418190024499999,-8.750179595499999,0.033346,0.46735,2.0759,2.500000000016378e-05,-1.9999999999686935e-05,-2.999999999997449e-05,-0.0003476685844884253,0.00040773483106559816,-0.0007290759534287483
149570000000.0,2,-0.0024320492,-0.05339720925,-0.0347743809,-0.03564,-0.077476,-0.033578,0.2865895396,-4.415542229,-8.751650592999999,0.032735,0.46706,2.0756,2.4999999999941735e-05,-2.0000000000131024e-05,-7.999999999996898e-05,-0.0007004479537974784,-0.0002855479511962855,-0.0012833228039559885
149570000000.0,2,0.026713314599999996,-0.007129434549999999,-0.033009183899999996,-0.044277,-0.093383,-0.038902,0.28079380945,-4.4115215025,-8.7539061225,0.032065,0.4666,2.0752,-5.0000000000105516e-05,-2.0000000000131024e-05,9.999999999998899e-05,0.0006887977743276208,0.0019098834215940386,-0.00035753531403895367
149570000000.0,2,0.03564717275,-0.022231675549999996,-0.039814999,-0.049682,-0.10293,-0.039963,0.27410567415,-4.4070104435,-8.756357785,0.031293,0.46609,2.0747,-4.999999999988347e-05,1.0000000000065512e-05,7.00000000000145e-05,0.001277912132462311,0.002033638632262358,1.0209476622002889e-05
149570000000.0,2,0.028213732049999996,0.01726951065,0.009610516999999999,-0.042108,-0.087009,-0.035709,0.2680745844,-4.4028916505,-8.7586133145,0.030597,0.46561,2.0743,9.999999999998899e-05,1.0000000000065512e-05,-2.999999999997449e-05,-0.00017448992389096363,0.0007597400773065033,-0.0010440889640306594
149570000000.0,2,-0.014749201599999998,0.0423058881,0.0680189244,-0.029141,-0.060486,-0.026126,0.26329874585,-4.399753522499999,-8.760280445,0.030047,0.46525,2.074,-1.999999999990898e-05,1.0000000000065512e-05,9.99999999995449e-06,-0.0002720016449330731,-0.0002337666699718799,-0.000434437331615134
149570000000.0,2,-0.09232960974999999,0.0029714149499999996,0.028282378599999998,-0.020511,-0.041391,-0.014402,0.25843464745,-4.3977921925,-8.761457242999999,0.029488,0.46503,2.0739,-2.0000000000131024e-05,1.0000000000065512e-05,-2.0000000000020002e-05,-0.0004607649133114844,-3.529792192891179e-05,-0.0005919880558642732
149570000000.0,2,-0.11845452534999999,0.0384224547,-0.00579573015,-0.009687,-0.01592,-0.004819,0.25477676699999996,-4.396125061999999,-8.7623398415,0.029068,0.46485,2.0739,-1.999999999990898e-05,9.999999999621423e-06,4.0000000000040004e-05,0.0009016680287965984,0.0003371615093412661,-6.715241198343436e-05
149570000000.0,2,-0.12227911884999998,0.07250056345,0.03423501515,-0.008433,0.009637,-0.001657,0.25306060325,-4.394654064499999,-8.76322244,0.02887,0.46467,2.074,-2.0000000000131024e-05,1.0000000000065512e-05,-2.0000000000020002e-05,-0.0002604003602087457,3.6436118973082188e-06,-0.00016728990534511934
149570000000.0,2,-0.12211240579999999,0.0839645373,0.040040551949999996,-0.010532,0.014978,-0.000601,0.25229568455,-4.3928888675,-8.764105038499999,0.02878,0.46448,2.0741,-1.999999999990898e-05,1.0000000000065512e-05,6.0000000000060005e-05,0.0006204620794733051,0.0003717420717068709,0.00046228008567561485
149570000000.0,2,-0.08395473064999999,0.0841018304,0.0180638493,-0.023356,0.014013,0.001515,0.25214858479999996,-4.390241072,-8.765379903,0.028758,0.46417,2.0742,1.999999999990898e-05,1.0000000000065512e-05,2.999999999997449e-05,0.00023721639840545983,-0.00017085064309818598,0.0001467977527142561
149570000000.0,2,-0.027958759149999995,0.04992565515,0.01075789505,-0.029835,0.004475,0.001521,0.2522662646,-4.387201010499999,-8.766948967,0.028766,0.46382,2.0742,2.0000000000131024e-05,1.0000000000065512e-05,-9.99999999995449e-06,0.0005031069396119747,5.2290548339550824e-05,0.0004238414778775512
149570000000.0,2,0.03927563325,0.0053642375499999995,0.0417959423,-0.03634,-0.007194,0.003665,0.2523643311,-4.384357081999999,-8.768321898,0.028773,0.4635,2.0742,1.999999999990898e-05,1.0000000000065512e-05,-1.0000000000065512e-05,-0.0005217205369025812,-0.0003400475239341283,-0.0004277884758148165
149570000000.0,2,0.08786758399999998,-0.01501398115,0.05376986195,-0.033181,-0.012545,0.003678,0.25270756385,-4.3819054195,-8.769596762499999,0.028809,0.46322,2.0742,2.0000000000131024e-05,-2.0000000000131024e-05,-1.4999999999987246e-05,0.00032253274405974475,0.00022798087951403367,-4.2979941972581814e-05
149570000000.0,2,0.05907525959999999,-0.03176373935,0.054976079899999995,-0.032158,-0.018944,0.002623,0.2518739986,-4.379846023,-8.770675494,0.02871,0.46298,2.0742,1.999999999990898e-05,-2.0000000000131024e-05,-1.4999999999987246e-05,-0.00014755949008310454,-3.607321393328533e-05,-0.000635295314973916
149570000000.0,2,0.02458527155,-0.0182011424,0.05226944449999999,-0.028904,-0.015767,-0.002715,0.2508933336,-4.3778846929999995,-8.771656158999999,0.028595,0.46276,2.0742,-1.999999999990898e-05,-1.9999999999686935e-05,-4.0000000000040004e-05,4.287514018386229e-05,-0.00043124308639552744,-0.0002485006128932765
149570000000.0,2,0.01372931,0.0031185146999999996,0.046326614599999996,-0.023478,-0.008346,-0.009123,0.2506775873,-4.375923363,-8.772636824,0.028567,0.46254,2.0741,-2.0000000000131024e-05,-2.0000000000131024e-05,-2.0000000000020002e-05,-0.0006761320727481923,-0.0002359320430074252,-0.0004888379167857504
149570000000.0,2,-0.0155925735,0.01987807955,0.041001603649999996,-0.02552,-0.000863,-0.015544,0.25082468705,-4.3737658999999995,-8.773715555499999,0.028581,0.46229,2.0739,-1.999999999990898e-05,-2.0000000000131024e-05,-9.99999999995449e-06,0.0027027801838915844,0.0011393122317797655,6.322759776908327e-05
149570000000.0,2,-0.0451302033,0.03029274185,0.009992976349999998,-0.025531,-0.006186,-0.021938,0.25057952079999996,-4.3711181045,-8.77499042,0.028548,0.46199,2.0737,-2.0000000000131024e-05,0.00019999999999997797,9.99999999995449e-06,-0.0025635956027399986,-0.0012168794566453922,-0.00019619200869180897
149570000000.0,2,-0.0398738389,0.0223983886,-0.03423501515,-0.023431,-0.01153,-0.024059,0.25011860825,-4.368274176,-8.7764614175,0.028491,0.46167,2.0735,-1.999999999990898e-05,5.000000000032756e-05,2.0000000000020002e-05,0.0008176290639833605,0.0005845106687665247,-0.00020301258009719492
149570000000.0,2,-0.037932122199999994,0.01775984315,-0.04215878835,-0.014894,-0.010537,-0.022978,0.2495204026,-4.3662147795,-8.7774420825,0.028419,0.46143,2.0733,-3.333333333332966e-05,4.999999999988347e-05,7.00000000000145e-05,0.0002744718992128692,0.0002900017231384222,0.00018947168660640723
149570000000.0,2,-0.02893942415,-0.0023634026499999997,-0.054250387799999994,-0.007388,-0.003145,-0.018708,0.24950078929999997,-4.364939915,-8.778128548,0.028416,0.46129,2.0731,-3.333333333332966e-05,-0.00010000000000021103,5.999999999994898e-05,0.002723359397289127,0.0018995154484899857,0.0001733048800467707
149570000000.0,2,-0.041766522349999995,-0.006276256,-0.0408348906,0.006479,-7e-05,-0.013352,0.24931446295,-4.3650379814999996,-8.778030481499998,0.028395,0.4613,2.073,-3.333333333332966e-05,0.00019999999999997797,8.000000000008001e-05,-0.001975583089014632,-0.0008121895042663141,0.0002089835335298551
149570000000.0,2,-0.05399541489999999,0.020495898499999998,-0.0256149698,0.02134,-0.010848,-0.015441,0.24837302454999996,-4.366116712999999,-8.777540149,0.028288,0.46142,2.0728,-9.999999999998899e-05,0.00010000000000021103,0.00012000000000000899,0.0003178096113412576,0.0008386261057276023,0.0004701258348031867
149570000000.0,2,-0.0346174745,0.035588332849999994,-0.0224964551,0.02665,-0.018344,-0.022889,0.24725506644999998,-4.3677838435,-8.776755617,0.028164,0.4616,2.0726,-4.999999999988347e-05,-0.00010000000000021103,0.00013999999999991797,0.0029596277986908004,0.0026533054608224305,0.0003415555542929105
149570000000.0,2,-0.021711923099999995,-0.014337322299999998,-0.030714427799999996,0.026611,-0.022608,-0.021814,0.24601942855,-4.36984324,-8.775774951999999,0.028027,0.46185,2.0724,-5.0000000000105516e-05,0.00010000000000021103,0.00012000000000000899,-0.00016885248313924794,0.0006381910937487412,5.5901198884406034e-05
149570000000.0,2,-0.03774579585,-0.0186522483,0.023192727249999996,0.028752,-0.020498,-0.019679,0.2442444249,-4.372883301499999,-8.7743039545,0.027829,0.46219,2.0722,-9.999999999998899e-05,9.999999999976694e-05,9.00000000000345e-05,-0.0006105495331725774,0.0003182074853131933,0.0004923283895927333
149570000000.0,2,-0.039030467,-0.0203782187,0.06255662035,0.02983,-0.017314,-0.01648,0.2428322673,-4.376315629,-8.772636824,0.027674,0.46258,2.072,-4.999999999988347e-05,5.000000000032756e-05,7.00000000000145e-05,-0.0007844387250421359,0.00034282274053443196,4.4218370257032014e-07
149570000000.0,2,-0.0264975683,-0.05020024135,0.0542307745,0.024513,-0.014077,-0.01436,0.241831989,-4.3795518235,-8.77106776,0.027564,0.46295,2.0719,-5.0000000000105516e-05,4.999999999988347e-05,7.999999999996898e-05,0.00018660371387646535,5.5211933922327816e-05,7.588414845494107e-05
149570000000.0,2,-0.008825985,-0.0453263363,0.04478697055,0.020231,-0.016173,-0.014363,0.2409101639,-4.382297685499999,-8.769694829,0.027464,0.46326,2.0717,-6.666666666665932e-05,9.999999999976694e-05,2.0000000000020002e-05,-0.0001931817293656657,-0.0003096664013721995,-0.00024535185427959627
149570000000.0,2,-0.00252030905,-0.0443064447,0.041011410299999995,0.014892,-0.018258,-0.016504,0.2398510457,-4.3845532149999995,-8.768616097499999,0.027346,0.46352,2.0715,-6.666666666665932e-05,0.00010000000000021103,7.00000000000145e-05,-0.00014670980251796362,0.0003412638375952515,-0.00013784172584663246
149570000000.0,2,0.0059624432,-0.0387166542,0.05491724,0.009584,-0.017145,-0.019717,0.23929206664999997,-4.386318412,-8.767733498999998,0.027286,0.46373,2.0713,-6.666666666665932e-05,0.00010000000000021103,9.00000000000345e-05,-0.001160866334196542,-0.0001558767410609896,0.00018665506673093413
149570000000.0,2,0.02311427405,-0.03988364555,0.0736087149,0.005357,-0.011782,-0.018667,0.23949800629999998,-4.3878874759999995,-8.766948967,0.027311,0.4639,2.0711,-5.0000000000105516e-05,4.999999999988347e-05,-4.0000000000040004e-05,0.0003342787908193201,-0.0009028000658937163,-0.0005196168141554935
149570000000.0,2,0.017455837,-0.05227925115,0.06429239739999999,-0.004166,-0.002113,-0.018701,0.24021389175,-4.388868141,-8.7664586345,0.027395,0.46401,2.0708,-4.999999999988347e-05,4.999999999988347e-05,5.999999999994898e-05,-4.885069681587195e-05,4.9956880267654213e-05,-7.548006621657666e-05
149570000000.0,2,0.024389138549999998,-0.04477716389999999,0.06328231245,-0.010558,6.9e-05,-0.016582,0.24136126979999997,-4.3889662075,-8.766360568,0.027526,0.46403,2.0706,-3.333333333332966e-05,4.999999999988347e-05,-1.999999999990898e-05,0.00020861323832421785,-0.0003442599294936066,-0.00037537021726585795
149570000000.0,2,0.0203193788,-0.02772339955,0.07142183195,-0.011666,-0.005249,-0.016575,0.24214580179999998,-4.388868141,-8.766360568,0.027615,0.46401,2.0704,-3.333333333332966e-05,5.000000000032756e-05,3.999999999992898e-05,5.790812772493714e-05,-0.00012074062278966124,-7.912048051086917e-05
149570000000.0,2,0.022574908299999998,-0.027586106449999998,0.07120608565,-0.011787,-0.018039,-0.012283,0.241831989,-4.3886720079999995,-8.7664586345,0.027579,0.46399,2.0703,-3.333333333332966e-05,3.333333333310762e-05,-2.0000000000020002e-05,0.00013185089588901855,-0.00035203301892750005,-0.00032828331291648305
149570000000.0,2,0.044022051849999994,-0.0322050386,0.07966922459999999,-0.013993,-0.023354,-0.005874,0.24103765035,-4.3885739415,-8.766556700999999,0.027488,0.46398,2.0702,1.999999999990898e-05,3.333333333355171e-05,2.0000000000020002e-05,0.00019084544311065432,9.355044817871416e-05,-0.00014774949473489452
149570000000.0,2,0.037608502749999995,-0.04008958519999999,0.07737446849999999,-0.01724,-0.025463,0.000527,0.2395176196,-4.388181675499999,-8.7668509005,0.027314,0.46393,2.0701,2.0000000000131024e-05,3.333333333310762e-05,1.0000000000065512e-05,0.0003575258977612239,0.00015715811511940458,-1.2184942596832338e-05
149570000000.0,2,0.013503757049999999,-0.05161239895,0.06455717695,-0.019367,-0.022253,0.004787,0.23758570954999997,-4.38749521,-8.7671451,0.027093,0.46386,2.0702,1.999999999990898e-05,0.00010000000000021103,-2.0000000000020002e-05,-0.0014784420306490076,-0.0009766885903808031,-0.0002544020068796782
149570000000.0,2,0.0122779258,-0.036235571749999994,0.0738244612,-0.024668,-0.019011,0.003705,0.2359676123,-4.3864164785,-8.767733498999998,0.026907,0.46374,2.0702,2.0000000000131024e-05,3.333333333310762e-05,-5.000000000032756e-06,0.000351422009813418,3.0879506139447344e-05,-1.8987245625240456e-05
149570000000.0,2,0.007766866799999999,-0.03301899055,0.04958242239999999,-0.025686,-0.013673,0.002626,0.23464371455,-4.3850435475,-8.768518031,0.026754,0.46358,2.0702,1.999999999990898e-05,3.333333333355171e-05,-5.000000000032756e-06,6.456418758538085e-05,-5.389730578575502e-05,-0.00036635753399447135
149570000000.0,2,-0.00295180165,-0.0237909329,0.043561139299999996,-0.02667,-0.006202,-0.001658,0.23399647564999998,-4.383376417,-8.7694006295,0.026677,0.46338,2.0702,1.2499999999970868e-05,3.333333333310762e-05,-1.999999999990898e-05,0.00018101636968748114,-7.177606207386944e-05,9.880773726045344e-06
149570000000.0,2,-0.03095959405,-0.033126863699999995,0.05714334954999999,-0.024489,0.000172,-0.000598,0.23356498305,-4.3819054195,-8.770087095,0.026626,0.46322,2.0703,1.2499999999970868e-05,1.2499999999970868e-05,2.999999999997449e-05,0.00014759326812419093,-0.00023379846739057797,0.00015169279823692983
149570000000.0,2,-0.04254124769999999,-0.0453263363,0.048817503699999994,-0.017009,0.003303,0.002612,0.23302561729999996,-4.3812189539999995,-8.770479361,0.026563,0.46314,2.0703,1.2499999999970868e-05,1.2499999999970868e-05,2.999999999997449e-05,0.0003277110620363288,0.0003325157731102202,-7.971795309572038e-05
149570000000.0,2,-0.029292463549999998,-0.03707894365,0.0642335575,-0.009556,0.001109,0.00263,0.23250586485,-4.3813170205,-8.770479361,0.026503,0.46315,2.0704,1.2499999999970868e-05,1.2499999999970868e-05,-2.0000000000020002e-05,-4.5424498075541386e-05,-0.0003372650292559065,-0.0004943676998480084
149570000000.0,2,-0.0131997509,-0.01791674955,0.05451516734999999,-0.007475,-0.006366,0.001579,0.23181939934999998,-4.3813170205,-8.770479361,0.026426,0.46315,2.0704,1.2500000000192912e-05,1.2499999999970868e-05,2.0000000000020002e-05,-0.0004233088306262456,-0.00018391589908461903,0.00014703146030264902
149570000000.0,2,-0.0117091401,-0.012895744749999999,0.018593408399999997,-0.005356,-0.011707,-0.003744,0.23077989444999997,-4.381022821,-8.7705774275,0.026307,0.46312,2.0704,1.2499999999970868e-05,1.2500000000414957e-05,2.0000000000020002e-05,0.00019134427781519747,0.00011425091168382195,-0.00010131359607218338
149570000000.0,2,0.02009382585,-0.00871811185,0.03835380815,-0.00213,-0.010664,-0.006943,0.23054453484999998,-4.381022821,-8.7705774275,0.02628,0.46312,2.0703,1.2499999999970868e-05,1.2499999999970868e-05,5.000000000032756e-06,-4.693741595485079e-05,-0.00013421798161261655,-0.00013266798444772077
149570000000.0,2,0.046248161399999994,-0.024948117599999996,0.04534594959999999,0.00215,-0.008567,-0.005873,0.23087796095,-4.3817092865,-8.770283228,0.026319,0.4632,2.0702,1.2499999999970868e-05,1.2499999999970868e-05,4.999999999921734e-06,-8.219813043497393e-05,0.00015439400669681191,-0.00010235404524985836
149570000000.0,2,0.028056825649999995,-0.0324207849,0.048690017249999995,0.005402,-0.001136,-0.003746,0.23140752004999998,-4.382788017999999,-8.769694829,0.026381,0.46332,2.0701,3.333333333332966e-05,1.2499999999970868e-05,6.0000000000060005e-05,-8.228481502897678e-05,0.00017441496362669007,-1.2664789891092543e-05
149570000000.0,2,-0.006060509699999999,-0.02670350795,0.0684896436,0.00228,0.00848,-0.003769,0.23201553234999997,-4.383866749499999,-8.769204496499999,0.026451,0.46344,2.0701,3.333333333332966e-05,-1.4285714285744433e-05,2.999999999997449e-05,0.0005355005774781985,8.978124613756577e-05,0.00027289928205431746
149570000000.0,2,-0.0181423025,-0.011395327299999999,0.050170821399999996,-0.006143,0.022402,-0.003807,0.23346691654999996,-4.383866749499999,-8.769106429999999,0.026618,0.46345,2.0701,3.333333333332966e-05,-1.4285714285744433e-05,-2.999999999997449e-05,-0.0007149121559856808,-0.0007970218402588714,-0.0002975013336729837
149570000000.0,2,-0.025203090499999997,0.0096301303,0.0419136221,-0.009272,0.032016,-0.002762,0.23588915909999997,-4.3832783504999995,-8.7694006295,0.026893,0.46337,2.0701,2.4999999999941735e-05,-1.4285714285744433e-05,2.999999999997449e-05,0.0002531875528233307,-0.00024383469052446927,0.000181404246924588
149570000000.0,2,-0.0372456567,0.0186718616,0.0511710997,-0.008226,0.026683,-0.00702,0.23820352849999998,-4.382591885,-8.769694829,0.027156,0.46329,2.07,2.4999999999941735e-05,-1.4285714285744433e-05,1.0000000000065512e-05,-0.0005087881345372525,-0.0006898762497944411,-2.2442221789542582e-05
149570000000.0,2,-0.03296015065,0.0054426907500000005,0.0165340119,-0.006247,0.010676,-0.00165,0.23916458019999998,-4.3820034859999994,-8.769890962,0.027264,0.46323,2.07,2.500000000016378e-05,-1.4285714285744433e-05,9.99999999995449e-06,0.00019899267051826097,-8.084745996828069e-05,0.0001015960949362904
149570000000.0,2,-0.01389602305,-0.0048248718,-0.00675678185,-0.004259,-0.004265,0.003717,0.23880173415,-4.38161122,-8.770087095,0.027222,0.46319,2.07,2.4999999999941735e-05,-1.4285714285744433e-05,2.999999999997449e-05,-0.0001811850532936754,6.21730993395353e-05,-3.4201213317069934e-05
149570000000.0,2,0.0164947853,-0.02644853505,-0.00856120545,-0.003281,-0.012802,0.008003,0.23788971569999998,-4.3817092865,-8.770087095,0.027119,0.4632,2.0701,9.999999999998899e-05,-1.4285714285744433e-05,4.999999999999449e-05,0.0014039186407452942,0.0009263335668474593,5.1551661982340846e-05
149570000000.0,2,0.016073099349999998,-0.0316950928,0.020270345549999996,-0.001117,-0.008558,0.009066,0.23695808394999998,-4.382199619,-8.769890962,0.027013,0.46325,2.0702,3.333333333332966e-05,0.00010000000000021103,4.0000000000040004e-05,-0.0013316991986961901,7.499048883241599e-05,-3.718279031159066e-05
149570000000.0,2,0.0231829206,-0.0113168741,0.045493049349999995,-4.4e-05,-0.008565,0.008,0.2362814251,-4.3826899515,-8.769694829,0.026937,0.4633,2.0702,3.333333333332966e-05,3.333333333310762e-05,3.999999999992898e-05,-0.00033856921661740147,-8.111435815871815e-05,0.0003761357885281036
149570000000.0,2,-0.0011277647499999999,-0.005197524499999999,0.07200042429999999,2.2e-05,-0.001105,0.00692,0.23560476625,-4.3832783504999995,-8.7694006295,0.02686,0.46337,2.0703,3.333333333332966e-05,3.333333333355171e-05,2.999999999997449e-05,0.001486027035887627,0.0009889674226326584,-5.892249421601825e-06
149570000000.0,2,-0.04186458885,-0.004314926,0.1046369555,-0.005191,0.013855,0.006885,0.2354968931,-4.3837686829999996,-8.769106429999999,0.026848,0.46343,2.0704,2.4999999999941735e-05,3.333333333310762e-05,3.0000000000085514e-05,-0.001716435805252714,-0.0003963140827520917,0.0006294895325530958
149570000000.0,2,-0.06669502664999999,0.01530818065,0.14463828085,-0.00831,0.024534,0.00793,0.23593819235,-4.383964816,-8.7690083635,0.026899,0.46346,2.0706,2.500000000016378e-05,-9.999999999976694e-05,2.0000000000020002e-05,0.000132040867464156,-0.00012667401491550656,0.00025089860320423596
149570000000.0,2,-0.09238844965,0.00318716125,0.1534740725,-0.013678,0.021377,0.010062,0.23588915909999997,-4.383964816,-8.7690083635,0.026894,0.46345,2.0708,2.4999999999941735e-05,-2.4999999999941735e-05,-5.000000000032756e-06,0.0006253876315284734,0.00046179077159136384,0.00047418676662541737
149570000000.0,2,-0.0888678623,-0.0187110882,0.12569183305,-0.028724,0.010836,0.015394,0.23477120099999998,-4.382984151,-8.769498696,0.026764,0.46335,2.071,2.4999999999941735e-05,-2.5000000000385825e-05,-5.000000000032756e-06,-0.00012125401855489493,-0.0002135521946009522,0.00037030931897871766
149570000000.0,2,-0.05484859345,-0.02362421985,0.1004789359,-0.042613,0.008817,0.016441,0.23411415544999997,-4.380532488499999,-8.7707735605,0.026687,0.46306,2.0712,3.333333333332966e-05,-2.4999999999941735e-05,-2.0000000000020002e-05,0.0009779376357509362,0.00037941658763229746,0.0002707445484739224
149570000000.0,2,-0.05907525959999999,-0.06338037895,0.07970845119999999,-0.036289,-0.00402,0.012206,0.23250586485,-4.3787672915,-8.771656158999999,0.026501,0.46286,2.0714,3.333333333332966e-05,-2.4999999999941735e-05,-5.999999999994898e-05,-7.067038130970094e-06,-0.0002766775517342168,-0.00021452024332443975
149570000000.0,2,-0.0411487034,-0.01797558945,0.08368995109999999,-0.034201,-0.012559,0.007956,0.2304366617,-4.3766098285,-8.772832957,0.026261,0.46261,2.0716,3.333333333332966e-05,-9.999999999976694e-05,-3.500000000000725e-05,0.0036296412145607193,0.002280039789372079,0.0006340299523418802
149570000000.0,2,-0.029351303449999998,0.020142859099999997,0.04790548524999999,-0.029847,-0.005131,0.002614,0.2289656642,-4.373962033,-8.774205888,0.026089,0.46232,2.0717,1.4285714285744433e-05,-2.0000000000131024e-05,-3.500000000000725e-05,-0.0025356497333121064,-0.0016566601488869903,-0.0005127716500653023
149570000000.0,2,-0.029370916749999997,0.019966339399999998,0.08427835009999998,-0.016949,0.003293,-0.002715,0.22883817775,-4.3724910354999995,-8.774892353499999,0.026072,0.46214,2.0717,1.4285714285744433e-05,-2.0000000000131024e-05,-0.00012999999999996348,-0.0012441180269014973,-0.0015378050958290146,-0.00024062218827514137
149570000000.0,2,-0.04706211335,0.027478233299999995,0.09497740524999998,-0.005231,-0.001064,-0.005888,0.22841649179999998,-4.3720987695,-8.775186553,0.026024,0.4621,2.0717,1.4285714285744433e-05,-1.9999999999686935e-05,-3.0000000000085514e-05,2.6089726459344043e-05,1.5587546104978145e-05,-0.00011937339292267257
149570000000.0,2,-0.03861858769999999,0.03054771475,0.0982430197,-0.005234,-0.00213,-0.006953,0.22791635265,-4.371804569999999,-8.775284619499999,0.025966,0.46207,2.0716,1.4285714285522388e-05,-2.0000000000131024e-05,-5.999999999994898e-05,-0.0003196035743434633,-0.00016047327400348088,8.859937483160496e-05
149570000000.0,2,-0.006933301549999999,-0.01721067075,0.06338037895,-0.011602,0.00112,-0.008037,0.2282399721,-4.371510370499999,-8.7754807525,0.026004,0.46203,2.0715,1.4285714285744433e-05,-2.0000000000131024e-05,2.999999999997449e-05,0.0010619942924623427,0.0012208228349099848,0.0003536850353732246
149570000000.0,2,0.0332837701,-0.0662733407,0.09402616019999999,-0.029773,0.001263,-0.000598,0.22887740434999998,-4.3709219715,-8.7756768855,0.026075,0.46197,2.0715,1.4285714285744433e-05,-4.999999999988347e-05,-7.00000000000145e-05,0.00035466581817944487,0.0002202229362311403,0.0001445440766857653
149570000000.0,2,0.05025908125,-0.05610384465,0.0732360622,-0.055236,0.02278,0.005724,0.23121138705,-4.3677838435,-8.7772459495,0.026336,0.46161,2.0715,1.4285714285744433e-05,-4.999999999988347e-05,-4.999999999999449e-05,0.0003386519763401985,-5.820672370071556e-05,0.0003375091934412211
149570000000.0,2,0.0046875787,-0.11940577039999999,0.027831272699999996,-0.066936,0.033522,0.016358,0.23338846335,-4.3638611835,-8.779109213,0.026578,0.46117,2.0717,2.4999999999941735e-05,-0.00019999999999997797,-0.00014999999999998348,0.0026992262073797235,0.0008898114200448504,-0.0002510811754635467
149570000000.0,2,-0.04847427095,-0.12068063489999999,0.036873003999999994,-0.066935,0.035647,0.020625,0.2349281074,-4.3597423905,-8.781070543,0.026747,0.4607,2.0719,2.4999999999941735e-05,-4.999999999988347e-05,-9.99999999995449e-06,-0.001268538263252017,-0.00047772467630036175,0.000603146161848811
149570000000.0,2,-0.03733391655,-0.0758446311,0.0150826277,-0.05421,0.024886,0.019599,0.2359087724,-4.3560158635,-8.782933806499999,0.026853,0.46026,2.0722,2.500000000016378e-05,-5.000000000032756e-05,-4.999999999999449e-05,0.001989261302039913,0.0006057733527446985,0.000435698883887059
149570000000.0,2,0.00514849125,-0.0693134022,-0.019005287699999998,-0.025577,0.002274,0.018621,0.23576167264999998,-4.353858400499999,-8.784012537999999,0.026834,0.46002,2.0724,2.4999999999941735e-05,-0.00010000000000021103,-6.0000000000060005e-05,7.235429169644148e-05,-0.00024147225807835682,-0.00017780272631343075
149570000000.0,2,0.020240925599999997,-0.038893173899999994,-0.05424058115,0.009543,-0.012927,0.012304,0.23458487465,-4.354054533499999,-8.7839144715,0.0267,0.46004,2.0726,-9.999999999998899e-05,-9.999999999976694e-05,-2.0000000000020002e-05,-0.0009907769767488195,-0.00019330435808795343,-6.921529545725336e-05
149570000000.0,2,-0.05130839279999999,-0.080806796,-0.055427185799999994,0.029875,-0.008828,0.006996,0.23236857175,-4.357192661499999,-8.782443473999999,0.026452,0.4604,2.0727,9.999999999998899e-05,-0.00010000000000021103,-2.999999999997449e-05,0.0011627214787255369,0.0002857628826165026,-0.00013504411576059638
149570000000.0,2,-0.18592427735,-0.09036827974999999,-0.05970288519999999,0.027987,0.013573,-0.005852,0.22991690925,-4.3607230555,-8.7807763435,0.026178,0.46081,2.0728,1.4285714285744433e-05,-9.999999999976694e-05,-9.99999999995449e-06,-0.0007499364975475653,-0.0007808786313587834,-0.00033838920803738737
149570000000.0,2,-0.05237731765,-0.0766487764,-0.050465020900000004,0.027186,0.041292,-0.01444,0.23269219119999998,-4.3636650505,-8.7792072795,0.026498,0.46114,2.0727,1.4285714285744433e-05,-0.00010000000000021103,-3.500000000000725e-05,0.00026359598892022884,-0.0002104957329394086,-0.0002307063790060182
149570000000.0,2,0.06664599339999999,-0.08454312964999999,0.01587696635,0.028306,0.05087,-0.00912,0.2387723142,-4.367489644,-8.777147883,0.027197,0.46158,2.0725,1.4285714285744433e-05,-9.999999999976694e-05,-3.500000000000725e-05,-0.0010708261673186836,-0.0018261652030235886,-0.0005025043768794868
149570000000.0,2,0.08397434394999999,-0.07182390459999999,0.024850051099999996,0.018636,0.054129,0.010069,0.24477398399999997,-4.3704316389999995,-8.7754807525,0.027886,0.46192,2.0725,1.4285714285522388e-05,-0.00010000000000021103,0.00012000000000000899,0.00033004191237018254,0.0007547513165073738,0.0007787762540854004
149570000000.0,2,0.0260268491,-0.054672073749999994,-0.06410607105,0.020601,0.040249,0.021838,0.24825534475,-4.3724910354999995,-8.774402020999998,0.028286,0.46215,2.0727,1.4285714285744433e-05,-4.999999999988347e-05,0.00012000000000000899,-0.0013146178155427068,-0.00031987420099088837,0.00015696433179604452
149570000000.0,2,0.033528936349999997,-0.05054347409999999,-0.0881421702,0.02791,0.024199,0.028283,0.2501872548,-4.374942698,-8.7731271565,0.02851,0.46243,2.073,1.4285714285744433e-05,-4.999999999988347e-05,5.999999999994898e-05,0.0005600367460963929,-0.00018184642438545673,0.000354610752500345
149570000000.0,2,0.0014808041500000001,-0.0034127142,-0.0893974214,0.040539,0.005974,0.033674,0.2497557622,-4.3777866265,-8.771656158999999,0.028466,0.46275,2.0733,1.4285714285744433e-05,-0.00010000000000021103,9.00000000000345e-05,0.0005178857052896557,0.0006242768457946912,0.0003663780352718693
149570000000.0,2,-0.02317311395,0.006472388999999999,-0.08716150519999999,0.064961,-0.011273,0.029478,0.2474806194,-4.3824938184999995,-8.7694006295,0.028214,0.46328,2.0737,4.999999999988347e-05,-9.999999999976694e-05,9.999999999998899e-05,-0.0009221611514990125,0.00016362807421588244,0.00024591284912656164
149570000000.0,2,-0.0045698989,-0.0034323275,-0.04235492135,0.071415,-0.005996,0.027345,0.24548986944999998,-4.3883778085,-8.766556700999999,0.027995,0.46396,2.074,5.0000000000105516e-05,-0.00019999999999997797,0.000160000000000049,0.00010167818446343846,0.0008015573880069127,0.0007487228528687828
149570000000.0,2,-0.0605658704,-0.0029812216,-0.05045521425,0.085384,0.004547,0.02415,0.24342066629999998,-4.3954385965,-8.763026307,0.027771,0.46476,2.0743,-1.2499999999970868e-05,-5.000000000032756e-05,0.00012999999999996348,-0.0010794029766774682,0.00013568281060671872,0.000189802516144838
149570000000.0,2,-0.07547197839999999,-0.0680973776,0.0017063571,0.073787,0.019562,0.020902,0.242616521,-4.403381982999999,-8.759103647,0.027692,0.46567,2.0745,-1.2499999999970868e-05,-4.999999999988347e-05,9.00000000000345e-05,-0.001659033378290875,-0.0007211973171779018,-3.326876052317518e-05
149570000000.0,2,-0.1532387129,-0.10092023515,-0.043894565399999995,0.007783,0.038215,0.021826,0.24182218235,-4.407206576499999,-8.7572403835,0.027607,0.46611,2.0749,-1.2499999999970868e-05,-9.999999999976694e-05,0.00012999999999996348,-0.003351381157100153,-0.0011457295652006483,0.000338729691441525
149570000000.0,2,-0.22571966305,-0.150630144,-0.1726362666,-0.067759,0.067596,0.026984,0.24202812199999998,-4.4034800495,-8.759103647,0.027625,0.46568,2.0754,-1.2500000000192912e-05,-0.00010000000000021103,0.00015999999999993797,0.00029575994575176123,5.314862054595082e-05,0.0007234333842087992
149570000000.0,2,-0.19203382029999996,-0.20299765499999997,-0.08744589804999998,-0.049736,0.052523,0.027046,0.24291072049999998,-4.4009303205,-8.7603785115,0.027722,0.46539,2.0759,-1.2499999999970868e-05,-9.999999999976694e-05,0.0001300000000000745,-0.0002693408796182739,-0.0004830276517477916,0.000610159534164767
149570000000.0,2,-0.04780741875,-0.12096502775,0.21782530979999998,-0.083191,0.002716,0.024942,0.24248903454999998,-4.397988325499999,-8.761849509,0.027668,0.46505,2.0762,-1.2499999999970868e-05,-0.00019999999999997797,8.999999999992347e-05,-5.0910054192110366e-05,-0.0004479146950469026,0.0002986511739003217
149570000000.0,2,-0.02113333075,-0.1540232449,-0.17369538479999996,-0.15478,-0.005228,0.032304,0.23990007894999998,-4.3866126114999995,-8.767635432499999,0.027356,0.46375,2.0766,-1.2499999999970868e-05,-0.00020000000000042206,6.0000000000060005e-05,0.001712789354702593,-0.0006627185329448615,-0.00021120461171883487
149570000000.0,2,-0.1700080844,-0.26744695879999997,-0.30715408465,-0.18636,0.049368,0.036426,0.23853695459999996,-4.3719026365,-8.77499042,0.027178,0.46208,2.0773,-1.2499999999970868e-05,-0.00019999999999997797,0.00014999999999998348,0.0029212448010934033,0.0006647094479852456,0.00036682708016863574
149570000000.0,2,-0.21461853525,-0.2332805902,-0.01868166825,-0.22132,0.079487,0.036316,0.23976278584999997,-4.3562119965,-8.7827376735,0.027292,0.4603,2.0779,-9.999999999998899e-05,-0.00019999999999997797,0.000160000000000049,0.0025768403005769214,-0.00024398076164899862,0.0005129036062230807
149570000000.0,2,-0.18425714685,-0.18493380569999998,-0.10956970045,-0.19794,0.056929,0.018255,0.2414201097,-4.3396387579999995,-8.790877193,0.027455,0.45841,2.0784,-5.0000000000105516e-05,-0.00019999999999997797,0.00015999999999993797,0.0008404488229447615,-0.0003985075727008791,0.00076680966241649
149570000000.0,2,-0.0167301449,-0.1821291038,-0.11690507464999998,-0.10972,-0.006634,-0.01457,0.24238116139999996,-4.3293417755,-8.795976650999998,0.027549,0.45723,2.0784,-4.999999999988347e-05,-0.0002999999999997449,0.0002300000000000635,0.0016206975558760162,0.000483313828126386,0.00029025254444298154
149570000000.0,2,0.12730012364999999,-0.15907366964999997,0.0069627215,-0.037696,-0.088184,-0.038855,0.2397529792,-4.3267920465,-8.7972515155,0.027247,0.45694,2.0779,-9.999999999998899e-05,-0.00019999999999997797,0.00017999999999995797,0.0004819830483688281,1.5335814622652322e-06,-0.0004832648486507718
149570000000.0,2,0.10778489015,-0.1083438692,-0.2703105006,-0.002687,-0.1183,-0.047282,0.23353556309999998,-4.3252229825,-8.798134114,0.026537,0.45677,2.0773,-5.0000000000105516e-05,-0.00039999999999995595,0.00022999999999995246,0.002325394690352145,0.0016925365579656404,-0.0015780365318538159
149570000000.0,2,-0.0075511204999999994,-0.15050265754999997,-0.39549238784999996,0.028625,-0.073797,-0.050508,0.22766137974999998,-4.3263997805,-8.797741848,0.025872,0.4569,2.0768,-4.999999999988347e-05,-0.00019999999999997797,0.00036000000000002697,8.730110037269423e-05,0.0006518707511402599,-0.0005088859980479365
149570000000.0,2,-0.18059926639999999,-0.2049001451,-0.2712715523,0.064332,-0.014419,-0.054817,0.22444479855,-4.3322837705,-8.794995986,0.025514,0.45757,2.0763,-0.00029999999999996696,-0.00019999999999997797,0.0004899999999999904,-0.002355173330390148,-0.0001289869006797506,-0.0003587700581091646
149570000000.0,2,-0.23236857175,-0.2303189819,-0.24409732515,0.10828,0.010786,-0.053713,0.2232385806,-4.342188487,-8.790092661,0.025391,0.45869,2.0759,-0.00019999999999997797,-0.00020000000000042206,0.00043000000000004146,-0.0022064943580081264,-0.0011245168398907879,-0.00032448622484837486
149570000000.0,2,-0.1890918253,-0.21775666324999998,-0.2449112771,0.23631,0.008663,-0.056685,0.2233562604,-4.3618998535,-8.780286011,0.025433,0.46094,2.0754,-0.00019999999999997797,-0.0002999999999997449,0.0007699999999999374,0.0008018155366864566,0.0017307807736250957,0.0005037044354450071
149570000000.0,2,-0.11233517574999999,-0.216923098,-0.020084019199999997,0.27888,-0.015119,-0.071511,0.22336606704999998,-4.389652673,-8.7664586345,0.025474,0.4641,2.0747,-0.00019999999999997797,-0.000300000000000189,0.0005700000000000705,-0.003080980547927714,-0.001292097377085577,-0.0011359277527500378
149570000000.0,2,0.01177778665,-0.19355385105,-0.4163707457,0.30027,-0.017411,-0.086414,0.22510184409999998,-4.4161306279999994,-8.7531215905,0.025711,0.46713,2.0736,-0.000300000000000189,-0.00019999999999997797,0.0007500000000000284,-0.0022241224187977138,6.87529890399663e-05,-0.0002756565051336979
149570000000.0,2,-0.027125193899999997,-0.25471792709999996,-0.44493751715,0.37527,0.02778,-0.075689,0.22958348315,-4.448100307,-8.736842551499999,0.026272,0.47078,2.0727,-0.00019999999999997797,-0.0002999999999997449,0.0006999999999999229,-0.003307953530597263,-0.0008386146223620106,-0.0008262104240890078
149570000000.0,2,-0.1208963812,-0.2942779532,-0.11790535295,0.32972,0.081409,-0.054513,0.23627161845,-4.4809525845,-8.719877046999999,0.027089,0.47454,2.072,-9.999999999998899e-05,-0.000300000000000189,0.0007400000000000739,-0.0039374972841232925,-0.002675201518071768,-0.0008276644829736668
149570000000.0,2,-0.1601229812,-0.39208948029999996,-0.42553015679999995,0.3045,0.15297,-0.015186,0.24660782754999996,-4.511059,-8.703990273999999,0.028326,0.478,2.0717,-0.00019999999999997797,-0.00019999999999997797,0.0008399999999999519,-0.00656073096373283,-0.0027610402135838097,0.0001028378426278509
149570000000.0,2,-0.25808160804999997,-0.4272561272,-0.30254495914999996,0.17992,0.20616,0.019733,0.25898381984999996,-4.5348891595,-8.691241629,0.029789,0.48073,2.072,-9.999999999998899e-05,-0.00039999999999995595,0.0008899999999999464,-0.005286899791057564,-0.0032026710591313012,0.0007555048927914143
149570000000.0,2,-0.28177447445,-0.25411972144999995,-0.5247538415,0.15853,0.21696,0.048503,0.27145787865,-4.547343605,-8.684376974,0.031248,0.48216,2.0726,-0.00019999999999997797,-0.000300000000000189,0.0009900000000000464,-0.0009266072070577835,-0.0009948019255980878,0.001031847230159838
