Time,placement_label,user_acc_x(m/s^2),user_acc_y(m/s^2),user_acc_z(m/s^2),rotation_rate_x(rad/s),rotation_rate_y(rad/s),rotation_rate_z(rad/s),gravity_x(m/s^2),gravity_y(m/s^2),gravity_z(m/s^2),attitude_roll(rad),attitude_pitch(rad),attitude_yaw(rad),target_delta_x,target_delta_y,target_delta_z,target_delta_roll,target_delta_pitch,target_delta_yaw
149550000000.0,2,0.04378669225,-0.1103248125,0.25706171645,-0.10838,-0.12644,0.015185,0.5137605868499999,-5.2368491665,-8.275439669,0.062004,0.56333,-0.42808,0.0,0.0,0.0,0.0,0.0,0.0
149550000000.0,2,0.01415099595,-0.056045004749999995,0.23630103839999997,-0.071665,-0.058565,0.036477,0.5056897139,-5.230180644499999,-8.280048794499999,0.060997,0.56254,-0.42764,3.333333333332966e-05,-2.4999999999941735e-05,-0.00019999999999997797,0.0013816824707721942,0.0014856839871346672,-0.001984636438544296
149550000000.0,2,-0.055083953049999995,0.0030302548499999997,0.23715421694999997,-0.028385,0.022056,0.04495,0.5035518642,-5.227140583000001,-8.282108190999999,0.060725,0.56217,-0.42709,3.333333333332966e-05,-2.4999999999941735e-05,-9.999999999998899e-05,0.0020256429515911334,0.0021110347349462266,-0.0022920057895059742
149550000000.0,2,-0.10656886554999999,0.0015494506999999998,0.303810017,0.015825,0.085619,0.053453,0.5066997988499999,-5.227925115,-8.2814217255,0.061109,0.56226,-0.42648,3.333333333332966e-05,-2.500000000016378e-05,-0.00019999999999997797,0.002158463788055509,0.001842463943657835,-0.0013986881270224294
149550000000.0,2,-0.15245418089999999,-0.03180296595,0.2911790518,0.042726,0.11629,0.058785,0.50993599335,-5.23478977,-8.2769106665,0.061532,0.56309,-0.42565,4.999999999988347e-05,-2.4999999999941735e-05,-9.999999999998899e-05,0.0009709258392731623,0.0014034437145566958,-0.0010908335668684543
149550000000.0,2,-0.16254522375,-0.03458805455,0.18372758775,0.038513,0.12378,0.059832,0.5170360079499999,-5.2386143635,-8.274066738,0.062408,0.56355,-0.42498,5.0000000000105516e-05,3.333333333332966e-05,-0.00019999999999997797,0.0005579634095835839,0.0013871520405561721,-0.00020421503713727307
149550000000.0,2,-0.12519169389999998,-0.00954187045,0.043041386849999995,0.020308,0.11009,0.051286,0.5238320164,-5.241066026,-8.272105408,0.063241,0.56385,-0.42437,9.999999999998899e-05,3.333333333332966e-05,-9.999999999998899e-05,0.00014950160771276533,0.0005356251505741483,-1.5611519316255373e-05
149550000000.0,2,-0.0791200522,0.0181226892,-0.055387959199999996,-0.003437,0.068736,0.039576,0.52833326875,-5.2415563585,-8.271517009,0.063787,0.5639,-0.42387,9.999999999998899e-05,3.333333333332966e-05,-9.999999999998899e-05,-0.00032058765035636316,0.00011281548841823863,0.0006781628978128618
149550000000.0,2,-0.026115108949999997,0.040991796999999996,-0.1077750835,-0.034756,0.00934,0.019346,0.52845094855,-5.2377317649999995,-8.273870604999999,0.063783,0.56345,-0.42352,5.0000000000105516e-05,1.999999999990898e-05,-3.333333333332966e-05,-0.0003850347884125638,-0.0004472152124130879,0.0006663606873903438
149550000000.0,2,0.008571012099999999,0.05076902705,-0.14605043845,-0.066009,-0.043659,-0.00303,0.5256266333499999,-5.233024573,-8.277106799499999,0.063419,0.56287,-0.42345,4.999999999988347e-05,2.0000000000131024e-05,-3.333333333332966e-05,-0.0003853335962756832,-0.0005148381404194158,0.0010724620737204704
149550000000.0,2,-0.006903881599999999,0.03307783045,-0.14564836579999998,-0.097093,-0.072157,-0.020112,0.52105673445,-5.2254734525,-8.282108190999999,0.062831,0.56197,-0.42358,9.999999999998899e-05,1.999999999990898e-05,-3.333333333332966e-05,-0.0003064756477892949,-0.000493240419680685,0.0011405554734046919
149550000000.0,2,-0.026791767799999998,0.01548470035,-0.10620601949999998,-0.11419,-0.078405,-0.0244,0.51595727645,-5.2161571350000004,-8.288286380499999,0.062171,0.56084,-0.42378,3.333333333332966e-05,2.0000000000131024e-05,-5.0000000000105516e-05,-6.587533604307527e-05,-0.0009065971355719515,0.0010563602530763438
149550000000.0,2,-0.045728408949999994,-0.00267721545,-0.08016936375,-0.10986,-0.067791,-0.021208,0.5100536731499999,-5.205762085999999,-8.295249102,0.061411,0.55959,-0.42387,3.333333333332966e-05,1.999999999990898e-05,-4.999999999988347e-05,-9.72377660302115e-06,-0.00022907653911619086,0.0007432755790266199
149550000000.0,2,-0.054220967849999996,-0.000980665,-0.0244577851,-0.084142,-0.046703,-0.00946,0.5062781128999999,-5.1982109655,-8.300152427,0.060921,0.55868,-0.42395,3.333333333332966e-05,-5.0000000000105516e-05,-9.999999999998899e-05,7.702289798217077e-05,0.00035970773233207076,4.481163451461323e-05
149550000000.0,2,-0.049327449499999995,0.0026281822,0.03115572705,-0.049783,-0.012898,0.001214,0.50452272255,-5.193405707,-8.303290555,0.060688,0.55811,-0.42391,1.6666666666775853e-05,-4.999999999988347e-05,-9.999999999998899e-05,0.000579751257564376,0.0005584015161801403,-0.0004274925745339775
149550000000.0,2,-0.05557428555,0.011611073599999999,0.06232126075,-0.014307,0.023034,0.005483,0.5043363962,-5.191934709499999,-8.3041731535,0.060659,0.55793,-0.42377,1.666666666655381e-05,9.999999999998899e-05,-0.00019999999999997797,0.001425483553824991,0.0007980821169666363,-0.00029295274145133
149550000000.0,2,-0.054338647649999995,0.02001537265,0.06957818175,0.016801,0.04515,0.007634,0.5062388863,-5.1933076405,-8.3031924885,0.060894,0.55809,-0.42363,1.666666666655381e-05,-9.999999999998899e-05,-4.999999999988347e-05,0.0008588449552860977,0.0005305015226788612,-0.0006630795163011793
149550000000.0,2,-0.041129090099999994,0.0254188368,0.06420413755,0.035039,0.058849,0.009777,0.50964179385,-5.196249635499999,-8.301133091999999,0.061317,0.55845,-0.4235,1.6666666666775853e-05,3.333333333332966e-05,-5.0000000000105516e-05,0.001148320269319214,0.0007208475843036855,-0.0005174978856755108
149550000000.0,2,-0.020005566,0.02650737495,0.00281450855,0.041378,0.054528,0.015133,0.5133585142,-5.199289696999999,-8.299073695499999,0.061779,0.55882,-0.42335,1.6666666666775853e-05,3.333333333332966e-05,-0.00020000000000020002,0.000234059833584932,0.0006820319956049037,-0.0001996217362391639
149550000000.0,2,0.004834678449999999,0.00295180165,-0.0654299688,0.036948,0.036446,0.018359,0.5159082432,-5.201937492499999,-8.297210432,0.062098,0.55914,-0.42317,1.666666666655381e-05,3.333333333332966e-05,-4.999999999988347e-05,-6.734039575406747e-06,0.0002230866435657397,-5.225569655320506e-07
149550000000.0,2,0.019887886199999996,-0.025624776449999997,-0.10150863415,0.028211,0.012009,0.019454,0.5167123885,-5.2040949555,-8.295837501,0.062206,0.55939,-0.42298,-9.999999999998899e-05,3.333333333332966e-05,-5.0000000000105516e-05,-0.00021505725492365624,5.531594909369275e-05,0.00013798573405213177
149550000000.0,2,0.028713871199999998,-0.02101565095,-0.11149180385,0.019567,-0.003898,0.015197,0.51627108925,-5.2052717535,-8.2951510355,0.062157,0.55953,-0.42282,9.999999999998899e-05,3.333333333332966e-05,1.2499999999970868e-05,0.0002530332503315469,0.00018431308437882876,0.00036305933389690903
149550000000.0,2,-0.00656064885,-0.02091758445,-0.0938692538,0.013137,-0.011298,0.008795,0.5145745387999999,-5.205958218999999,-8.294856836,0.061957,0.55961,-0.42268,-9.999999999998899e-05,3.333333333332966e-05,1.2499999999970868e-05,-0.0002482374026965273,-0.00046987809796750213,0.0005763514154210336
149550000000.0,2,-0.040481851199999995,-0.0158671597,-0.03735352985,0.013163,-0.011295,0.003458,0.51244649575,-5.2069388839999995,-8.2943665035,0.061704,0.55973,-0.42258,9.999999999998899e-05,4.999999999988347e-05,1.2499999999970868e-05,-0.0007722189678763813,-0.0004415690515120474,5.902781146788216e-05
149550000000.0,2,-0.06498866955,0.0035500073,0.02503637745,0.016429,-0.005993,-0.000814,0.5106126522,-5.208507948,-8.2933858385,0.061491,0.55993,-0.42251,-1.999999999990898e-05,5.0000000000105516e-05,1.2500000000192912e-05,-0.0003320359450191823,-0.0001443535323042422,0.0005345622392860794
149550000000.0,2,-0.08633774659999999,0.006982334799999999,0.0536423755,0.016503,0.002529,-0.001894,0.5090632015,-5.210371211499999,-8.292405173499999,0.061313,0.56014,-0.42244,-2.0000000000131024e-05,9.999999999998899e-05,1.2499999999970868e-05,-0.000497681777819281,-0.00014044444965488623,0.00019985818441201064
149550000000.0,2,-0.09484991879999999,0.0015494506999999998,0.057006056449999995,0.019667,0.000363,0.002386,0.50724897125,-5.212528674499999,-8.291130309,0.061103,0.56041,-0.42231,-1.999999999990898e-05,4.999999999988347e-05,1.2499999999970868e-05,0.00047011524274542804,0.00033960584963987905,0.00040950546307699787
149550000000.0,2,-0.0899073672,-0.0085906254,0.050013915,0.018569,-0.001767,0.005592,0.5051503481499999,-5.214784204,-8.289757378,0.060861,0.56068,-0.42215,-2.0000000000131024e-05,5.0000000000105516e-05,1.2499999999970868e-05,9.296669488145781e-05,4.77889190553249e-06,0.0001628732319559345
149550000000.0,2,-0.0828465792,-0.01226811915,0.04278641395,0.014233,-0.009196,0.007734,0.5024339060999999,-5.2168436005,-8.2886786465,0.060542,0.56092,-0.42196,-1.999999999990898e-05,9.999999999998899e-05,1.2499999999970868e-05,0.00024222758271719158,-0.00033769048303322613,0.00014519791630107637
149550000000.0,2,-0.0757857912,-0.017848103,0.0352843267,0.000381,-0.009082,0.004509,0.4997076574,-5.2178242655,-8.288286380499999,0.060218,0.56104,-0.4218,-1.6666666666775853e-05,4.999999999988347e-05,1.1111111111183902e-05,-0.00016177504495029638,0.000152531832359859,3.1220793510866596e-05
149550000000.0,2,-0.08329768509999999,-0.0119248864,0.0133174307,-0.014535,-0.007895,0.002348,0.49704024859999996,-5.217333933,-8.288776712999999,0.059894,0.56098,-0.42165,-1.666666666655381e-05,5.0000000000105516e-05,1.1111111111183902e-05,0.0002228663171709444,0.0002706569144312887,1.48843868264803e-05
149550000000.0,2,-0.10612756629999999,-0.00440318585,0.0037363336499999997,-0.015588,-0.006824,0.001279,0.49428457995,-5.2161571350000004,-8.2896593115,0.059557,0.56084,-0.42148,-1.666666666655381e-05,5.0000000000105516e-05,1.1111111110961858e-05,-0.0007005421904966447,0.0004471682567444013,-5.595557947701835e-05
149550000000.0,2,-0.09843915269999999,0.022447421849999996,0.01515127425,-0.011285,-0.005793,-0.004051,0.49198001719999995,-5.2148822704999995,-8.29054191,0.059273,0.56069,-0.42137,-1.6666666666775853e-05,4.999999999988347e-05,1.1111111111183902e-05,-0.00045798135339758517,0.00023706741808871,0.00016227022550832637
149550000000.0,2,-0.09185889055,0.04972952215,0.015357213899999998,-0.011209,0.000601,-0.009398,0.49049921304999994,-5.2133132065,-8.2916206415,0.059087,0.56049,-0.42133,-1.6666666666775853e-05,4.999999999988347e-05,1.1111111111183902e-05,9.583288797920808e-05,0.00013913924431641078,-5.7026334479653995e-05
149550000000.0,2,-0.0826112196,0.07730582194999999,0.011110934449999998,-0.00692,0.001631,-0.012593,0.4896264212,-5.2115480094999995,-8.2927974395,0.058974,0.56029,-0.42137,-1.666666666655381e-05,5.0000000000105516e-05,1.1111111111183902e-05,-4.616129728574059e-06,0.00035200024678783137,4.6879653837289537e-05
149550000000.0,2,-0.0834938181,0.0759819242,0.0128859381,-0.002635,-0.000531,-0.020052,0.48900860225,-5.2101750785,-8.293680038,0.058894,0.56012,-0.42149,-5.0000000000105516e-05,5.0000000000105516e-05,1.1111111110961858e-05,0.00013911809998712332,0.0001265658300813044,0.0001061442149604408
149550000000.0,2,-0.10090062184999998,0.0839645373,0.0226533615,0.005881,-0.005928,-0.025363,0.4880181306,-5.2094886129999995,-8.2941703705,0.05877,0.56004,-0.42165,-4.999999999988347e-05,4.999999999988347e-05,1.1111111111183902e-05,0.0008584343714496123,-9.492188725235273e-05,0.0004994828002250207
149550000000.0,2,-0.09409480674999998,0.0883383032,0.036333638249999994,0.004923,0.00261,-0.033917,0.4879396774,-5.208900213999999,-8.294562636499998,0.058759,0.55997,-0.42191,-9.999999999998899e-05,3.333333333332966e-05,1.1111111111183902e-05,5.9811332927539596e-05,0.000177651276679347,-0.00017486843051217615
149550000000.0,2,-0.1020676132,0.0963993695,0.05266171049999999,-0.00137,0.011191,-0.042481,0.48887130915,-5.207919549,-8.2951510355,0.058867,0.55985,-0.42226,-5.0000000000105516e-05,3.333333333332966e-05,-1.4285714285744433e-05,7.89930664677474e-05,0.00010519241317274997,-0.00012343425967303867
149550000000.0,2,-0.10260697895,0.08273870605,0.041854782199999996,-0.007721,0.014442,-0.047833,0.49061689284999993,-5.206350485,-8.296033634,0.05907,0.55966,-0.42268,-4.999999999988347e-05,3.333333333332966e-05,-1.4285714285744433e-05,0.00011683711207188807,0.0001483286871100109,-8.140492205169214e-05
149550000000.0,2,-0.08433718999999999,0.06691077295,0.00793357985,-0.002405,0.009072,-0.05315,0.49269590264999996,-5.2048794875,-8.296818166,0.059315,0.55948,-0.4232,-9.999999999998899e-05,9.999999999998899e-05,-1.4285714285744433e-05,0.0002995038795093885,-0.0002920947039783961,-6.600183655142144e-05
149550000000.0,2,-0.060850263249999995,0.034284048399999996,-0.0329699573,0.012412,-0.007034,-0.055229,0.4941963201,-5.204585288,-8.2969162325,0.059494,0.55945,-0.42377,-9.999999999998899e-05,4.999999999988347e-05,-1.4285714285744433e-05,-0.00019364721186432288,0.00018655621577257087,-6.963487273489721e-05
149550000000.0,2,-0.030096608849999998,0.0065704555,-0.0593694591,0.032566,-0.018927,-0.050903,0.4950200787,-5.206056285499999,-8.295935567499999,0.059599,0.55962,-0.42437,-0.00019999999999997797,5.0000000000105516e-05,-1.4285714285744433e-05,-0.00017234309110358836,-0.000329752860791066,-0.00017047297614947166
149550000000.0,2,-0.031077273849999996,-0.00901231135,-0.048905763549999995,0.042174,-0.014751,-0.045557,0.4955496378,-5.208900213999999,-8.2941703705,0.059676,0.55996,-0.42491,-0.00010000000000021103,9.999999999998899e-05,-1.4285714285744433e-05,-0.000555176929828205,-0.0003322555822147244,-0.00036691318829540354
149550000000.0,2,-0.04908228325,-0.029243430299999998,-0.01660265845,0.038992,-0.007277,-0.037035,0.4959026772,-5.212430608,-8.291914840999999,0.059734,0.56039,-0.42534,-0.00019999999999997797,9.999999999998899e-05,-1.4285714285744433e-05,0.0005794614951473154,-0.0002362624831715454,-0.000163943308752329
149550000000.0,2,-0.062027061249999994,-0.054319034349999996,-0.01207198615,0.021928,-0.003946,-0.0328,0.49627532989999995,-5.21517647,-8.290149644,0.059792,0.56072,-0.42569,-0.00019999999999997797,5.0000000000105516e-05,-4.999999999988347e-05,-0.0006208598064926241,-0.0006902423241152977,-0.0005366213313733881
149550000000.0,2,-0.046885593649999995,-0.0442672181,-0.0370887503,0.001568,-0.014438,-0.031748,0.49609881019999996,-5.215961002,-8.2896593115,0.059774,0.56082,-0.426,-0.00019999999999997797,4.999999999988347e-05,-5.0000000000105516e-05,-0.00029091204527187386,-0.00020658455586852753,-0.00048279427817918275
149550000000.0,2,-0.031969678999999994,-0.026948674199999998,-0.06208590115,-0.013486,-0.030297,-0.033881,0.4950985319,-5.2148822704999995,-8.290345776999999,0.059649,0.56069,-0.42635,-0.00019999999999997797,9.999999999998899e-05,9.999999999998899e-05,-0.0007612238594544296,-0.0004502381064037664,-0.0007320407870610723
149550000000.0,2,0.01038524235,-0.0072961475999999996,-0.07403040085,-0.023238,-0.051524,-0.03813,0.49344120804999997,-5.2123325415,-8.2920129075,0.059438,0.56039,-0.42679,-0.00019999999999997797,0.00010000000000021103,2.0000000000131024e-05,-0.0007702598138796812,7.773070658467773e-05,-0.000508881418146756
149550000000.0,2,0.038157675149999994,0.0324011716,-0.09159411099999999,-0.019072,-0.07179,-0.050896,0.49096012559999996,-5.209096346999999,-8.294268437,0.059124,0.56,-0.42737,-0.00019999999999997797,9.999999999998899e-05,1.999999999990898e-05,0.0010815739784532097,-0.00042661798372800597,-3.882818925135534e-05
149550000000.0,2,0.06001669799999999,0.054632847150000004,-0.058251501,-0.00946,-0.076119,-0.060479,0.4887045961,-5.206546617999999,-8.296033634,0.058841,0.55968,-0.4281,-9.999999999998899e-05,4.999999999988347e-05,2.0000000000131024e-05,-0.0002394247040800046,0.0002672531079184193,-0.0002425460835990545
149550000000.0,2,0.09225115655,0.08205224054999999,0.0008727918499999999,0.007708,-0.065597,-0.063672,0.48804755055,-5.2053698200000005,-8.296818166,0.058756,0.55954,-0.42895,-0.00019999999999997797,5.0000000000105516e-05,1.999999999990898e-05,-0.0005989298730770809,0.00019120662661187282,-0.0005511154241651106
149550000000.0,2,0.0857885742,0.05908506625,0.03943253965,0.025998,-0.044436,-0.060477,0.48866536949999995,-5.206350485,-8.2961317005,0.058835,0.55966,-0.4298,-0.00019999999999997797,9.999999999998899e-05,2.0000000000131024e-05,-0.0005000963784256296,0.0002082077193954479,-0.00048757370101015773
149550000000.0,2,0.06322347254999999,0.027095773949999995,0.0897700741,0.037923,-0.013641,-0.04877,0.49089147904999997,-5.209390546499999,-8.294072303999998,0.059116,0.56002,-0.43052,-9.999999999998899e-05,9.999999999998899e-05,2.4999999999941735e-05,1.1849832277310846e-05,0.000678841912312933,-0.0006670910721453815
149550000000.0,2,0.04394359864999999,-0.00120621795,0.08962297435,0.045554,0.015055,-0.034932,0.4946081994,-5.2135093395,-8.2912283755,0.059583,0.56053,-0.43107,-0.00020000000000020002,9.999999999998899e-05,2.4999999999941735e-05,-0.000774531636531739,-0.0001380034476763381,-0.0006532630415153895
149550000000.0,2,0.024732371299999997,-0.024928504299999998,0.07820803374999999,0.059516,0.034109,-0.022134,0.49900157859999994,-5.21909913,-8.2875018485,0.060139,0.5612,-0.43144,-0.00019999999999997797,9.999999999998899e-05,2.500000000016378e-05,0.00012172674386612403,0.000774662991849695,-0.0010186069737259107
149550000000.0,2,0.0171224109,-0.0210646842,0.0867888525,0.069179,0.044681,-0.016799,0.50391471025,-5.2256695854999995,-8.283088855999999,0.060762,0.56199,-0.43173,-0.00019999999999997797,9.999999999998899e-05,2.4999999999941735e-05,-0.00014265951182768077,6.424147647998701e-05,-0.0006212766212771448
149550000000.0,2,0.0099047165,-0.01770100325,0.0655476486,0.07352,0.054235,-0.015741,0.5093377876999999,-5.232436174,-8.278381664,0.061448,0.56281,-0.43199,-9.999999999998899e-05,9.999999999998899e-05,5.0000000000105516e-05,-0.00032549653972524517,-0.0001272378214909331,-0.0008516668210772071
149550000000.0,2,0.0070313680499999994,-0.0149649479,0.0509553534,0.072497,0.057444,-0.01895,0.5153492641499999,-5.239104696,-8.273870604999999,0.062206,0.56361,-0.43229,-0.00019999999999997797,0.00019999999999997797,4.999999999988347e-05,-0.0005230624018098817,-0.0003399719898269371,-0.00013461117785465437
149550000000.0,2,-0.0024320492,-0.01020872265,0.04090353715,0.066054,0.050042,-0.022151,0.520929248,-5.245184818999999,-8.2696537455,0.06291,0.56435,-0.4326,-9.999999999998899e-05,0.00019999999999997797,9.999999999998899e-05,-4.09230642582914e-05,-0.00018012273154721647,-0.00015119746760650088
149550000000.0,2,0.012856518150000001,-0.0325188514,0.04204110855,0.055262,0.033084,-0.024275,0.5256854732499999,-5.2507746095,-8.265829151999998,0.063512,0.56501,-0.43295,-0.00019999999999997797,9.999999999998899e-05,9.999999999998899e-05,-0.0007103590605445076,-0.0006037132960576841,-7.000030319359585e-05
149550000000.0,2,0.059673465249999995,-0.024830437799999997,0.013582210249999999,0.035883,0.009805,-0.026403,0.5295983266,-5.25440307,-8.263279423,0.064003,0.56545,-0.43336,-9.999999999998899e-05,9.999999999998899e-05,4.999999999988347e-05,-0.00042986734391148307,-0.0007336472397578842,6.0099851870776266e-05
149550000000.0,2,0.0661164343,-0.03666706435,-0.0385401345,0.01647,-0.015608,-0.025326,0.5313831368999999,-5.256168267,-8.2620045585,0.064228,0.56567,-0.43376,-9.999999999998899e-05,0.00019999999999997797,5.0000000000105516e-05,-1.7804441244662073e-05,-0.0007845194762812202,4.973348593784177e-05
149550000000.0,2,0.08064008294999998,-0.060605097,-0.0598794049,0.002449,-0.032542,-0.022119,0.53153023665,-5.256756665999999,-8.2616122925,0.064249,0.56574,-0.43412,-9.999999999998899e-05,0.00019999999999997797,9.999999999998899e-05,0.00021282388501708827,-0.0004491794886842815,0.0001893478965339923
149550000000.0,2,0.0910253253,-0.043688625749999994,-0.04947454925,-0.00617,-0.040996,-0.018919,0.5307260913499999,-5.2564624664999995,-8.2618084255,0.06415,0.56571,-0.43444,-0.00019999999999997797,9.999999999998899e-05,4.999999999988347e-05,-0.0010896011724982335,-0.0005972800283540192,0.0003512126591038722
149550000000.0,2,0.0916921775,-0.0226925881,0.007600153749999999,-0.006134,-0.034603,-0.015729,0.5300494325,-5.256266333499999,-8.2620045585,0.064067,0.56567,-0.43474,-9.999999999998899e-05,0.00020000000000020002,5.0000000000105516e-05,4.5362577876240096e-06,-0.00029892502068284976,0.00015797491927699303
149550000000.0,2,0.06796989114999999,0.01275845165,0.0619191881,0.000363,-0.020804,-0.012541,0.5301278857,-5.256168267,-8.2620045585,0.064077,0.56567,-0.43498,-9.999999999998899e-05,9.999999999998899e-05,5.0000000000105516e-05,-0.0003594097315318123,-0.0003185282551354529,8.84292804727016e-05
149550000000.0,2,0.0433061664,0.0273605535,0.10527438774999999,0.01868,0.001425,-0.01255,0.5313046837,-5.2578353975,-8.261023893499999,0.064226,0.56586,-0.4352,-9.999999999998899e-05,9.999999999998899e-05,4.999999999988347e-05,-5.954817065889628e-05,0.00015060654908904958,-0.00013586540215154708
149550000000.0,2,0.038118448549999996,0.0373044966,0.15464106384999998,0.038016,0.021507,-0.006148,0.5339524792,-5.261267725,-8.258572230999999,0.064564,0.56629,-0.43538,-9.999999999998899e-05,0.00019999999999997797,3.333333333332966e-05,0.00012997784996171546,0.00017881820358223166,-5.5729803915965936e-05
149550000000.0,2,0.00969877685,0.0380890286,0.15927960929999999,0.052004,0.040566,0.001314,0.5373848067,-5.26617105,-8.25523797,0.065004,0.56687,-0.43546,-5.0000000000105516e-05,9.999999999998899e-05,3.333333333332966e-05,-0.0008921046811158906,0.0005990080777644735,-0.00021539116776705947
149550000000.0,2,0.00246146915,0.0146511351,0.15758305884999999,0.054231,0.056525,0.008761,0.5416212794999999,-5.2718589069999995,-8.25131531,0.065546,0.56757,-0.43544,-5.0000000000105516e-05,9.999999999998899e-05,3.333333333332966e-05,0.00016882674479612447,0.000151389080102593,1.7706034210390742e-05
149550000000.0,2,0.0025987622499999996,-0.01856398845,0.12655481824999998,0.049968,0.06188,0.017284,0.54612253185,-5.277546763999999,-8.24739265,0.066121,0.56825,-0.43531,-9.999999999998899e-05,0.00019999999999997797,0.00045000000000006146,-3.620642721524625e-06,0.00027596451863853844,-3.489148634980288e-05
149550000000.0,2,-0.006943108199999999,-0.046650234049999996,0.05631959095,0.036027,0.05666,0.023673,0.5498294455499999,-5.2819597565,-8.2443525885,0.066593,0.56878,-0.43507,-9.999999999998899e-05,0.0004999999999999449,0.0004499999999998394,0.006463084586126433,0.012705784717067958,-0.0058501668341036095
149550000000.0,2,-0.0066979419499999995,-0.0531324297,0.011581653649999999,0.025257,0.041833,0.020479,0.55228110805,-5.2851959509999995,-8.242097058999999,0.066907,0.56918,-0.43483,2.4999999999941735e-05,9.999999999998899e-05,-0.00019999999999997797,-0.001850256102096659,-0.003904244939467727,0.0014299227533255132
149550000000.0,2,0.020123245799999998,-0.023506540049999997,-0.006413549099999999,0.016639,0.028058,0.015151,0.55434050455,-5.287157280999999,-8.240724127999998,0.067167,0.56941,-0.43467,2.4999999999941735e-05,-0.00019999999999997797,-0.0005999999999999339,-0.006317606925227537,-0.01041230098870427,0.004837285557158816
149550000000.0,2,0.005060231399999999,-0.0017848103,-0.007109821249999999,0.009171,0.022801,0.006608,0.5559389884999999,-5.288039879499999,-8.2400376625,0.067366,0.56952,-0.43459,2.500000000016378e-05,0.00019999999999997797,9.999999999998899e-05,-0.00029855573878734276,-0.0006046013512190918,0.0006082684147557804
149550000000.0,2,-0.0237909329,0.0018828768,0.005275977699999999,0.006996,0.014299,0.001283,0.55665487395,-5.288726345,-8.239547329999999,0.067456,0.56961,-0.43453,2.4999999999941735e-05,9.999999999998899e-05,9.999999999998899e-05,-6.0594125215862604e-05,-0.00019211222587567356,0.0005126534179451248
149550000000.0,2,-0.024193005549999997,0.00418743955,0.031322440099999994,0.003735,0.004738,-0.001908,0.5569000402,-5.2894128105,-8.239056997499999,0.06749,0.56969,-0.43453,5.0000000000105516e-05,0.00019999999999997797,4.999999999988347e-05,-0.0003542588830330873,0.00013922148723799488,0.00072090351211479
149550000000.0,2,0.00150041745,0.011934693049999999,0.029949509099999997,0.001534,-0.001641,0.001302,0.55694907345,-5.2896089435,-8.238958930999999,0.067497,0.56972,-0.43453,4.999999999988347e-05,9.999999999998899e-05,5.0000000000105516e-05,-0.000715052069793165,-0.0001956900378463633,0.0003063321202468883
149550000000.0,2,0.0025693423,-0.02582090945,0.034519408,0.002565,-0.001657,0.008775,0.5564783542499999,-5.290491541999999,-8.238370532,0.067445,0.56982,-0.43445,2.0000000000131024e-05,0.00020000000000020002,1.999999999990898e-05,0.0003025796317834839,1.4950804453128796e-05,0.0004847455460098571
149550000000.0,2,-0.013003617899999998,-0.05490743334999999,0.0449340703,0.004705,0.004708,0.018375,0.5555859491,-5.292060606,-8.237487933499999,0.067344,0.57001,-0.43426,1.999999999990898e-05,0.00019999999999997797,2.0000000000131024e-05,-0.00017598702519583398,-0.0001800760783532418,0.0002329604530550422
149550000000.0,2,-0.0300868022,-0.06394916465,0.0724907568,0.004776,0.016423,0.023692,0.5550171634,-5.2939238695,-8.2363111355,0.067285,0.57024,-0.43396,2.0000000000131024e-05,0.00019999999999997797,1.999999999990898e-05,0.0004876736456175257,0.00027392920386315467,0.0003792073663563822
149550000000.0,2,-0.060212830999999994,-0.0664106338,0.07880623939999999,0.002696,0.026023,0.02901,0.554467991,-5.2958851995,-8.2351343375,0.067229,0.57047,-0.43358,1.999999999990898e-05,9.999999999998899e-05,2.0000000000131024e-05,0.0002678087964074205,0.0002960451184683688,0.0002445391532991392
149550000000.0,2,-0.0723142371,-0.06257623365,0.0583495675,0.001667,0.030291,0.029002,0.55414437155,-5.297454263499999,-8.234055606,0.067198,0.57066,-0.43316,2.0000000000131024e-05,9.999999999998899e-05,1.999999999990898e-05,-0.00020018463820659083,0.00013588403639208657,-0.00031968505206539377
149550000000.0,2,-0.08763222439999999,-0.03763792269999999,0.03019467535,0.000637,0.031368,0.023663,0.5538992052999999,-5.2984349285,-8.233467206999999,0.067173,0.57078,-0.43276,9.999999999998899e-05,9.999999999998899e-05,9.999999999998899e-05,0.0004142352648791592,9.474664737663119e-05,0.0001244474579340793
149550000000.0,2,-0.0933396947,-0.013082071099999999,0.00387362675,0.017672,0.022706,0.017306,0.5533304196,-5.300102059,-8.232486542,0.067112,0.57098,-0.43244,5.0000000000105516e-05,0.00019999999999997797,5.0000000000105516e-05,-0.0001628220897856858,0.0002298556067956703,8.622774236888286e-05
149550000000.0,2,-0.0795711581,0.010885381500000001,-0.019505426849999997,0.020844,0.015224,0.010922,0.55257530755,-5.3015730565,-8.231505877,0.067028,0.57117,-0.43222,4.999999999988347e-05,5.0000000000105516e-05,4.999999999988347e-05,-0.000248256460600893,5.397039005550219e-05,3.684955192143069e-05
149550000000.0,2,-0.07936521845,0.02470295135,-0.045502855999999994,0.017666,0.016317,0.007714,0.55192806865,-5.3025537215,-8.230917477999999,0.066954,0.57128,-0.43203,9.999999999998899e-05,4.999999999988347e-05,4.999999999988347e-05,0.0005213817178172375,8.796564144786245e-05,0.00036459455123313833
149550000000.0,2,-0.09962575735,0.0134939504,-0.0599186315,0.013416,0.017416,0.005572,0.5512317965,-5.3031421205,-8.2306232785,0.066874,0.57136,-0.43185,9.999999999998899e-05,9.999999999998899e-05,5.0000000000105516e-05,-0.0002547721203273179,-0.00018303015687881619,0.0002572581952677011
149550000000.0,2,-0.08593567395,0.0324992381,-0.0651946092,0.012271,0.009959,0.008787,0.55026093815,-5.3033382535,-8.230525212,0.066756,0.57138,-0.43167,2.4999999999941735e-05,9.999999999998899e-05,5.0000000000105516e-05,-0.00011977369101645596,-0.00034483634978133004,0.0005927879318997076
149550000000.0,2,-0.06722458575,0.053063783149999995,-0.0671559392,0.018554,-0.001821,0.013089,0.54845651455,-5.3035343865,-8.230525212,0.066539,0.5714,-0.43145,2.4999999999941735e-05,9.999999999998899e-05,4.999999999988347e-05,-0.00024348196713130932,-0.0001515556780502525,0.0004100638411131119
149550000000.0,2,-0.06450814369999999,0.050906320149999996,-0.07408924075,0.023791,-0.013588,0.013121,0.54559297275,-5.3044169850000005,-8.2302310125,0.066195,0.5715,-0.43123,2.500000000016378e-05,9.999999999998899e-05,4.999999999988347e-05,-0.0002252820487581575,0.00018570441466780885,0.00038130175593478755
149550000000.0,2,-0.06309598609999999,0.0709609194,-0.08234644005,0.032318,-0.016854,0.008873,0.5425332979499999,-5.30539765,-8.229740679999999,0.065829,0.57163,-0.43105,2.4999999999941735e-05,0.00019999999999997797,5.0000000000105516e-05,-7.522846232044245e-05,3.163386067295271e-05,0.0002228232392454399
149550000000.0,2,-0.08123828859999999,0.09701718845,-0.05812401455,0.038743,-0.017967,0.001416,0.5394343965499999,-5.306966714,-8.228956148,0.065459,0.57181,-0.43094,-1.999999999990898e-05,9.999999999998899e-05,5.0000000000105516e-05,-0.0007701275115966633,-0.000564574594240419,-5.234775009896331e-05
149550000000.0,2,-0.1111289578,0.09129010484999998,-0.040893730499999996,0.046261,-0.018022,-0.009243,0.5364041417,-5.3093203099999995,-8.227583217,0.065103,0.5721,-0.43092,-2.0000000000131024e-05,0.00019999999999997797,5.0000000000105516e-05,0.00021602110970908583,0.0005905802755841183,-1.742702576348898e-05
149550000000.0,2,-0.13179156935,0.08697517885,-0.007766866799999999,0.045276,-0.012682,-0.017791,0.53386421935,-5.312066172,-8.226014153,0.064808,0.57243,-0.431,-1.999999999990898e-05,0.00010000000000021103,5.0000000000105516e-05,-0.0014765465039545678,0.0005441116414648395,-0.0002027017886704341
149550000000.0,2,-0.14868842729999998,0.057525808899999996,-0.00042168595,0.038956,-0.006236,-0.024214,0.5319126959999999,-5.3147139675,-8.224445089,0.064585,0.57276,-0.43113,-2.0000000000131024e-05,0.00019999999999997797,4.999999999988347e-05,-0.0002671303770830358,0.00034203063872983996,0.0001965760793121718
149550000000.0,2,-0.14204932525,0.04463006415,-0.00583495675,0.03148,-0.008308,-0.026356,0.5302063389,-5.3167733639999994,-8.223170224499999,0.064388,0.57301,-0.4313,-1.999999999990898e-05,9.999999999998899e-05,9.999999999998899e-05,-4.314770692093184e-05,0.000317979794581813,3.112765330040568e-05
149550000000.0,2,-0.13139930335,0.0364415114,-0.02307504745,0.029336,-0.009361,-0.026355,0.5285392084,-5.3186366275,-8.222091493,0.064195,0.57323,-0.43148,-4.999999999988347e-05,0.00019999999999997797,9.999999999998899e-05,-0.00039720613552218786,0.00010961907960860273,1.983622797877005e-05
149550000000.0,2,-0.112580342,0.034823414149999996,-0.030890947499999998,0.03145,-0.013642,-0.029544,0.5270780175499999,-5.320499891,-8.221012761499999,0.064025,0.57345,-0.43171,-5.0000000000105516e-05,0.00019999999999997797,9.999999999998899e-05,-0.0008838402288382508,-5.03104319462544e-05,-0.00021996874180463255
149550000000.0,2,-0.0815324881,0.03992287215,-0.0309301741,0.038887,-0.020095,-0.033787,0.5258129597,-5.322755420499999,-8.219639830499998,0.063883,0.57373,-0.43203,-9.999999999998899e-05,0.00029999999999996696,9.999999999998899e-05,-0.0004985363528613451,-0.0008199665441692705,5.7909975548220416e-05
149550000000.0,2,-0.050170821399999996,0.0274193934,-0.03264633785,0.043103,-0.027589,-0.0359,0.5246753882999999,-5.3255012825,-8.217972699999999,0.063759,0.57406,-0.43242,-4.999999999988347e-05,9.999999999998899e-05,9.999999999998899e-05,-0.000477310648950513,-0.0001254831771571041,-0.0001487453123094895
149550000000.0,2,-0.0283412185,0.0111207411,-0.028596191400000002,0.055957,-0.024493,-0.04122,0.52393988955,-5.329227809499999,-8.2155210375,0.063688,0.57452,-0.4329,-5.0000000000105516e-05,0.00019999999999997797,9.999999999998899e-05,-9.86541735912283e-05,0.0003232387240266199,-0.00030558044350856295
149550000000.0,2,-0.00987529655,-0.0039422733,0.027389973449999997,0.077568,0.014747,-0.032712,0.5265778783999999,-5.3362885975,-8.210813845499999,0.064045,0.57538,-0.43344,-9.999999999998899e-05,0.00019999999999997797,4.999999999988347e-05,0.00017673267660978098,0.00020284400641434885,-0.0001288079559806643
149550000000.0,2,0.08526882174999999,-0.12954584649999998,0.9131854413499999,0.008499,0.073884,0.010824,0.5339328659,-5.347664311499999,-8.2029685255,0.064998,0.57676,-0.43365,-0.00010000000000021103,0.00019999999999997797,5.0000000000105516e-05,-0.0010470864308730343,-0.00018621361317161522,-0.0006637439520562338
149550000000.0,2,-0.08532766165,-0.45509720654999997,0.7062357063999999,-0.069318,0.10113,0.040528,0.5399345356999999,-5.343349385499999,-8.205322121499998,0.065708,0.57624,-0.4332,-9.999999999998899e-05,0.00019999999999997797,9.999999999998899e-05,-0.0004857697317003362,-0.0002543754598132164,-7.456671373190504e-05
149550000000.0,2,-0.10669635200000001,-0.1800697073,0.5426705910499999,-0.078057,0.067121,0.026697,0.5446809543,-5.336876996499999,-8.209244781499999,0.066253,0.57545,-0.43274,-0.00019999999999997797,0.000300000000000189,0.00019999999999997797,-0.001126402482827471,-0.00041108086336172356,-0.0006028712785771939
149550000000.0,2,-0.07866894629999999,0.01638691215,0.2190021078,-0.041186,-0.015195,-0.010453,0.5453870330999999,-5.332660137,-8.211892577,0.066317,0.57494,-0.43271,-9.999999999998899e-05,0.00019999999999997797,4.999999999988347e-05,-0.0009033701901852709,-0.0002137280146243814,-0.0003033615624659647
149550000000.0,2,0.03035158175,0.08981910735,0.06683231975,-0.015029,-0.097431,-0.039083,0.5411211403499999,-5.3301104079999995,-8.213853906999999,0.065784,0.57463,-0.43311,-9.999999999998899e-05,9.999999999998899e-05,5.0000000000105516e-05,-0.0007909935696285286,-0.00033747056265709396,1.8138218235180803e-05
149550000000.0,2,0.24505837684999998,0.1540036316,-0.1448638338,-0.012985,-0.11662,-0.051855,0.5341093856,-5.32893361,-8.2151287715,0.064924,0.57448,-0.43368,-9.999999999998899e-05,9.999999999998899e-05,-5.0000000000105516e-05,0.0001348161110187318,-0.0005883496916090358,0.0006530709135714463
149550000000.0,2,0.19294583875000001,0.12427967545,-0.1490022401,-0.021254,-0.081385,-0.048729,0.5292060606,-5.327070346499999,-8.216599769,0.064318,0.57425,-0.43427,-1.999999999990898e-05,3.333333333332966e-05,-4.999999999988347e-05,0.0010272168045497576,0.00020178163086037593,0.0010137159651700256
149550000000.0,2,0.024761791249999998,-0.01171894675,-0.05535853925,-0.029535,-0.03552,-0.026409,0.5270976308499999,-5.3245206175,-8.218364966,0.064049,0.57394,-0.43465,-2.0000000000131024e-05,3.333333333332966e-05,-9.999999999998899e-05,0.00021673219567586166,-0.0006739863391878043,0.00029275919273744067
149550000000.0,2,-0.03464689445,-0.08184630089999999,0.05551544565,-0.030511,-0.001453,0.01089,0.5256168267,-5.3235399525,-8.219149498,0.063863,0.57382,-0.43457,-1.999999999990898e-05,3.333333333332966e-05,-9.999999999998899e-05,0.0008795343613972051,-2.670762252376946e-05,-8.173092293628503e-05
149550000000.0,2,-0.0600755379,-0.11988629625,0.08150306815,-0.025123,0.02511,0.042874,0.52529320725,-5.3215786225,-8.2204243625,0.063814,0.57358,-0.43414,-2.0000000000131024e-05,9.999999999998899e-05,-9.999999999998899e-05,0.0004258842701835297,0.0008506064657998191,-0.0007770390190525167
149550000000.0,2,-0.06879364975,-0.1417257058,0.04311984005,-0.012284,0.03565,0.052484,0.52533243385,-5.320499891,-8.221110827999999,0.063814,0.57346,-0.43351,-1.999999999990898e-05,9.999999999998899e-05,-5.0000000000105516e-05,0.0005170464374455452,0.0006304925328042277,-0.0007269167276448552
149550000000.0,2,-0.07158854499999999,-0.0936731208,0.035451039749999996,0.006988,0.038697,0.043973,0.5258914129,-5.3209902235,-8.2208166285,0.063884,0.57351,-0.43295,1.666666666655381e-05,9.999999999998899e-05,-4.999999999988347e-05,0.00018533333361503423,0.0005485185369216161,-0.000851598004465437
149550000000.0,2,-0.036941650549999996,-0.0255365166,0.03543142645,0.018758,0.030095,0.023729,0.5262640656,-5.323245752999999,-8.2192475645,0.06394,0.57379,-0.43257,1.6666666666775853e-05,4.999999999988347e-05,-3.333333333332966e-05,-0.00015011106924012196,0.00028586714220901754,-0.00034319889711070806
149550000000.0,2,-0.02970434285,0.016661498349999998,0.041246769899999994,0.01979,0.018377,0.01201,0.5272545372499999,-5.32501095,-8.2180707665,0.06407,0.57401,-0.43241,1.6666666666775853e-05,5.0000000000105516e-05,-3.333333333332966e-05,-8.627323714338608e-05,-0.00014411845282880087,-1.614671056032746e-05
149550000000.0,2,-0.052298864449999996,0.0118072066,0.04494387695,0.00581,0.00464,0.01201,0.5272545372499999,-5.3259916149999995,-8.217384301,0.064075,0.57413,-0.43228,1.666666666655381e-05,5.0000000000105516e-05,-3.333333333332966e-05,-0.00011006306717398218,-0.00016048353517228442,0.0002919089069048364
149550000000.0,2,-0.049739328799999996,-0.016622271749999997,0.01883857465,-0.017829,-0.012222,0.018403,0.5257443131499999,-5.3251090165,-8.2180707665,0.063887,0.57402,-0.43207,1.666666666655381e-05,4.999999999988347e-05,-1.999999999990898e-05,-0.0009656918297664685,-0.00015222935758485434,0.0006176278628390874
149550000000.0,2,-0.03443114814999999,-0.0502688879,-0.00863965865,-0.040308,-0.021629,0.018382,0.5224002455,-5.323049619999999,-8.219639830499998,0.06347,0.57377,-0.43177,1.6666666666775853e-05,9.999999999998899e-05,-2.0000000000131024e-05,-0.000634558886286718,-2.6646573317856692e-05,0.0004351931375480289
149550000000.0,2,-0.029194397049999998,-0.0640178112,-0.01203275955,-0.047789,-0.025825,0.014107,0.5195563169999999,-5.3193230929999995,-8.2221895595,0.063105,0.57332,-0.43156,1.6666666666775853e-05,9.999999999998899e-05,-1.999999999990898e-05,-0.00018195431620915414,0.00017619426652437653,0.00038678117894017094
149550000000.0,2,-0.02776262615,-0.045689182349999996,0.030714427799999996,-0.049844,-0.0226,0.003424,0.5173694340499999,-5.3152043,-8.225033488,0.062819,0.57282,-0.43145,1.666666666655381e-05,9.999999999998899e-05,-2.0000000000131024e-05,-0.0005965952059558965,-7.04411047562914e-05,8.945399070975357e-05
149550000000.0,2,-0.0341075287,-0.01609271265,0.07860029974999999,-0.049697,-0.010869,-0.007271,0.51638876905,-5.3111835735,-8.227681283499999,0.06268,0.57232,-0.43146,1.666666666655381e-05,5.0000000000105516e-05,-1.999999999990898e-05,-0.0006050669451368451,-0.00013165192627839772,-3.864467863276544e-05
149550000000.0,2,-0.05100438665,0.012425025549999998,0.10299924495,-0.045285,0.002952,-0.013691,0.5159278565,-5.307947378999999,-8.2298387465,0.062608,0.57194,-0.43151,1.6666666666775853e-05,4.999999999988347e-05,-3.333333333332966e-05,0.0001702203699177618,0.0005786715625351047,9.475622735694023e-05
149550000000.0,2,-0.03805960865,0.0356373661,0.11018751939999999,-0.029255,0.006016,-0.013668,0.51644760895,-5.305593782999999,-8.231309743999999,0.06266,0.57165,-0.43161,1.6666666666775853e-05,9.999999999998899e-05,-3.333333333332966e-05,0.00047847674949952346,0.00036855648861378043,-6.777194621176985e-05
149550000000.0,2,-0.0067862018,0.0548191735,0.10573530029999999,-0.006864,0.010084,-0.004029,0.5175067271499999,-5.3047111845,-8.231800076499999,0.062784,0.57154,-0.43168,1.666666666655381e-05,3.333333333332966e-05,-3.333333333332966e-05,0.0010612675614884992,0.0009382235719195275,3.0001241418636804e-05
149550000000.0,2,0.0166516917,0.03201871225,0.11356100699999999,0.011324,0.024839,0.009852,0.5194974770999999,-5.3058879825,-8.230917477999999,0.063032,0.57168,-0.43166,1.999999999990898e-05,3.333333333332966e-05,-5.0000000000105516e-05,0.000408592056697632,0.0002464946608626839,-0.0002676857033329927
149550000000.0,2,0.00658026215,-0.013346850649999999,0.0997728571,0.027405,0.04068,0.020525,0.52193933295,-5.309124176999999,-8.2286619485,0.063344,0.57208,-0.43149,2.0000000000131024e-05,3.333333333332966e-05,-4.999999999988347e-05,0.0006571586285880615,2.1922503861793174e-05,-0.0001661924576881746
149550000000.0,2,-0.0228887211,-0.03817728845,0.10057700239999999,0.039194,0.053359,0.031198,0.5241752491499999,-5.3139294354999995,-8.225425754,0.06364,0.57266,-0.43115,1.999999999990898e-05,9.999999999998899e-05,-9.999999999998899e-05,0.00029763370225555086,-0.0002721896044688421,-0.000350444939006489
149550000000.0,2,-0.03313667035,-0.053485469099999995,0.09428113309999998,0.040278,0.057607,0.035463,0.52648961855,-5.319225026499999,-8.22189536,0.063948,0.57331,-0.43074,2.0000000000131024e-05,0.00010000000000021103,-9.999999999998899e-05,0.0007483312596104907,0.00018082059952839735,-0.00013185990863534558
149550000000.0,2,-0.04141348295,-0.0699410278,0.07909063224999999,0.034812,0.043792,0.040816,0.5275781567,-5.3243244845,-8.218463032499999,0.064107,0.57392,-0.43025,1.999999999990898e-05,9.999999999998899e-05,-4.999999999988347e-05,0.0002351563246753008,-0.00046173156428386264,-0.0001329772487954073
149550000000.0,2,-0.01307226445,-0.0564078508,0.04490465034999999,0.01534,0.01198,0.044041,0.5266367182999999,-5.327560678999999,-8.216501702499999,0.064007,0.57431,-0.42974,3.333333333332966e-05,9.999999999998899e-05,-5.0000000000105516e-05,-0.00011072007643597725,-0.00029153841995532837,-0.00010402026962091915
149550000000.0,2,0.0042560861,-0.05763368205,-0.006903881599999999,-0.006299,-0.025139,0.045136,0.52291999795,-5.3284432775,-8.2161094365,0.063559,0.57442,-0.4292,3.333333333332966e-05,9.999999999998899e-05,-2.0000000000131024e-05,0.00010020721338932503,0.0001872668960738455,0.000471215458033164
149550000000.0,2,0.01717144415,-0.0693330155,-0.043737659,-0.029988,-0.053712,0.04301,0.5168791015499999,-5.327168413,-8.2172862345,0.062819,0.57427,-0.42867,3.333333333332966e-05,9.999999999998899e-05,-1.999999999990898e-05,-0.00025601116486440034,-0.0005028493682184276,0.0006767128809439527
149550000000.0,2,0.0130624578,-0.08075776274999999,-0.053152043,-0.051352,-0.057797,0.041913,0.50991638005,-5.3241283515,-8.219737897,0.061956,0.5739,-0.42814,5.0000000000105516e-05,5.0000000000105516e-05,-2.0000000000131024e-05,-0.00042066421693220946,-0.00037349176828338493,0.0007347048552066859
149550000000.0,2,-0.017779456449999998,-0.0938300272,-0.03327396345,-0.057619,-0.03857,0.046139,0.5033557312,-5.320696024,-8.2223856925,0.061142,0.57348,-0.42753,4.999999999988347e-05,4.999999999988347e-05,-1.999999999990898e-05,-0.00030279238021280186,-0.00015992941788289805,0.0006709426492634007
149550000000.0,2,-0.08017917039999999,-0.084141057,0.02093719775,-0.046656,-0.000306,0.049295,0.49826607985,-5.3180482285,-8.2243470225,0.06051,0.57316,-0.42682,9.999999999998899e-05,4.999999999988347e-05,-2.0000000000131024e-05,0.0002487821534500334,9.939451012086487e-05,0.0007084108242143006
149550000000.0,2,-0.12712360395,-0.06778356479999999,0.10656886554999999,-0.019812,0.025035,0.056772,0.49448071295,-5.318146295,-8.2245431555,0.06005,0.57317,-0.42598,9.999999999998899e-05,5.0000000000105516e-05,-2.4999999999941735e-05,0.00015367104171881696,0.00023461226952070646,0.0003376331981199687
149550000000.0,2,-0.1254074402,-0.0383243882,0.153572139,0.010175,0.041827,0.062134,0.4920192438,-5.320696024,-8.223072158,0.059763,0.57348,-0.4251,0.00010000000000021103,1.999999999990898e-05,-2.500000000016378e-05,0.0008095768366541689,0.0011579136968897785,4.1411779855560216e-06
149550000000.0,2,-0.11437495895,0.00771783355,0.1213671004,0.033758,0.051226,0.055757,0.49086205909999997,-5.3245206175,-8.220620495499999,0.05964,0.57394,-0.4243,9.999999999998899e-05,2.0000000000131024e-05,-2.4999999999941735e-05,0.0009664410489135244,0.0011074529215953088,2.5904366727586003e-05
149550000000.0,2,-0.07171603145,0.0479152919,0.09586000375,0.043448,0.055417,0.045094,0.49159755785,-5.3284432775,-8.2180707665,0.059749,0.57443,-0.42368,9.999999999998899e-05,1.999999999990898e-05,-2.4999999999941735e-05,0.0005184136553787466,0.0009682623506912513,0.00012436834665149887
149550000000.0,2,-0.04458103089999999,0.08699479215,0.05276958365,0.041375,0.053318,0.029084,0.49364714769999996,-5.331483339,-8.2159133035,0.060011,0.57479,-0.42327,9.999999999998899e-05,2.0000000000131024e-05,-1.999999999990898e-05,0.0006168467486060702,0.0002666034377354354,0.00035457941198635545
149550000000.0,2,-0.06566532839999999,0.06208590115,-0.0025497289999999997,0.034959,0.043791,0.016283,0.49527505159999996,-5.333836935,-8.214344239499999,0.060221,0.57508,-0.42299,5.0000000000105516e-05,1.999999999990898e-05,-2.0000000000131024e-05,0.00019776925782688526,0.00010613345807142238,0.0005189252869279293
149550000000.0,2,-0.0781393872,0.041011410299999995,-0.016082905999999998,0.018936,0.034342,0.004532,0.4963733964,-5.335209866,-8.213363574499999,0.060361,0.57524,-0.42282,4.999999999988347e-05,3.333333333332966e-05,-1.999999999990898e-05,-0.00034689935250986625,0.00026538241029538945,0.0010546244977692187
149550000000.0,2,-0.06526325575,0.03943253965,-0.0413644497,-0.001419,0.019596,-0.002947,0.4971187018,-5.334621467,-8.213657774,0.060449,0.57518,-0.42275,4.999999999988347e-05,3.333333333332966e-05,-2.0000000000131024e-05,-0.0003629034335330683,0.00028005622700644217,0.0006627119638340506
149550000000.0,2,-0.0654691954,0.025350190249999998,-0.06280178659999999,-0.019615,0.00803,-0.010429,0.49732464145,-5.3323659375,-8.2151287715,0.060463,0.5749,-0.42275,5.0000000000105516e-05,3.333333333332966e-05,-1.999999999990898e-05,-0.00012111341439557943,-0.0004783171687623433,0.0008845632482530619
149550000000.0,2,-0.0734125819,0.02468333805,-0.07171603145,-0.023923,-0.004711,-0.023221,0.49688334219999997,-5.329325876,-8.217188168,0.060396,0.57453,-0.42289,3.333333333332966e-05,2.4999999999941735e-05,9.999999999998899e-05,-0.0006829736365643324,-0.0003488874095014527,0.0005718303956280257
149550000000.0,2,-0.0644689171,0.00867888525,-0.0481310382,-0.026107,-0.017472,-0.033874,0.49602035699999997,-5.3264819475,-8.2190514315,0.060277,0.57419,-0.42315,3.333333333332966e-05,2.500000000016378e-05,-4.999999999988347e-05,-0.0003061654511234968,-0.00022053646457820264,0.00036108402205456414
149550000000.0,2,-0.062370294,-0.00128467115,-0.0117483667,-0.027185,-0.022787,-0.040269,0.49511814519999997,-5.324030285,-8.220718562,0.060156,0.57388,-0.42351,3.333333333332966e-05,2.4999999999941735e-05,-5.0000000000105516e-05,-0.0006288338780686686,-0.0002391735797595551,0.00020887748071082846
149550000000.0,2,-0.09617381654999999,-0.009169217749999998,-0.00516810455,-0.025025,-0.022803,-0.0456,0.49391192725,-5.3218728220000004,-8.2221895595,0.059998,0.57362,-0.4239,-9.999999999998899e-05,2.4999999999941735e-05,-3.333333333332966e-05,-0.00024182539276418336,-0.0003454465144065999,0.00025898827172107786
149550000000.0,2,-0.09853721919999998,-0.00271644205,-0.030528101449999998,-0.004833,-0.029372,-0.040214,0.49194079059999996,-5.320499891,-8.223170224499999,0.059752,0.57346,-0.42428,-1.666666666655381e-05,2.4999999999941735e-05,-3.333333333332966e-05,0.0005046432199021789,0.00012341081000322163,1.690406980292547e-05
149550000000.0,2,-0.048837117,0.02595820255,-0.013131104349999999,0.005768,-0.028412,-0.025253,0.49011675369999996,-5.3201076249999995,-8.223562490499999,0.059529,0.57341,-0.42457,-1.6666666666775853e-05,2.4999999999941735e-05,-3.333333333332966e-05,0.0003609718891295355,-1.5853275717736537e-05,-0.00011321752823442721
149550000000.0,2,-0.05995785809999999,0.010728475099999999,-0.00140235095,0.013278,-0.014637,-0.011386,0.48822407025,-5.320892156999999,-8.223170224499999,0.059302,0.57351,-0.42468,-1.6666666666775853e-05,2.500000000016378e-05,9.090909090847532e-06,0.0002129260517148568,-6.5253657504094065e-06,-0.0004116192185200096
149550000000.0,2,-0.09212367009999999,-0.01905432095,0.009943943099999998,0.016593,0.005568,-0.001807,0.4867236528,-5.322755420499999,-8.222091493,0.059128,0.57373,-0.42462,-1.666666666655381e-05,2.4999999999941735e-05,9.090909091069577e-06,0.00016045715108359282,0.0002132121796274422,-0.0003681021366447046
149550000000.0,2,-0.12017068909999999,-0.0076099604,0.02215322235,0.020973,0.021508,0.001377,0.4860371873,-5.3247167504999995,-8.2208166285,0.059054,0.57397,-0.42449,-1.666666666655381e-05,-9.999999999998899e-05,9.090909090847532e-06,0.0005390136532084089,0.0001536609980459236,-0.00048034770627788936
149550000000.0,2,-0.13591036234999998,-0.0038834333999999996,0.0395011862,0.019992,0.03004,-0.001838,0.48606660724999995,-5.3267761469999995,-8.2194436975,0.059067,0.57422,-0.42435,-1.6666666666775853e-05,9.999999999998899e-05,9.090909090847532e-06,0.00023857315159891979,9.629172794900498e-05,-0.00036530667631129443
149550000000.0,2,-0.14306921684999999,-0.0046581587499999995,0.04039359135,0.017869,0.027926,-0.007172,0.48619409369999994,-5.3288355435,-8.2180707665,0.059092,0.57447,-0.42426,-4.999999999988347e-05,2.4999999999941735e-05,9.090909090847532e-06,-0.00031269299268388284,-4.5800699068676565e-05,-0.0003449832750311299
149550000000.0,2,-0.14396162199999998,-0.0004707192,0.0224376152,0.009269,0.013084,-0.017831,0.48589008754999996,-5.3301104079999995,-8.2172862345,0.059061,0.57462,-0.42428,-5.0000000000105516e-05,2.500000000016378e-05,9.090909091069577e-06,-0.0003356142392205719,-1.9296767356458133e-05,-1.587964046231849e-05
149550000000.0,2,-0.11438476560000001,0.0093751574,-0.014298095700000001,0.001669,-0.009225,-0.027409,0.48488000259999997,-5.3300123415,-8.217384301,0.058938,0.57462,-0.42445,-5.0000000000105516e-05,2.4999999999941735e-05,9.090909090847532e-06,0.0001396474591276453,-0.0001644209067477309,7.66306939364858e-06
149550000000.0,2,-0.08287599914999999,0.017377383799999997,-0.05039637435,-0.007054,-0.035791,-0.032712,0.48255582654999996,-5.32893361,-8.2182668995,0.05865,0.57448,-0.42471,-4.999999999988347e-05,2.4999999999941735e-05,9.090909090847532e-06,-0.0006633365363883925,-8.299254949295509e-05,0.00023771013134654684
149550000000.0,2,-0.07440305355,0.010924608099999998,-0.06325289249999999,-0.013514,-0.047455,-0.040172,0.47946673179999993,-5.327070346499999,-8.219639830499998,0.058266,0.57426,-0.42507,-9.999999999998899e-05,3.333333333332966e-05,9.090909090847532e-06,0.00023480533284481186,-0.0007922794664259047,0.0002240524552608314
149550000000.0,2,-0.07716852884999999,0.0057859235,-0.03213639205,-0.018836,-0.048475,-0.044447,0.4762501506,-5.3251090165,-8.221110827999999,0.057866,0.57402,-0.42548,-9.999999999998899e-05,3.333333333332966e-05,9.090909091069577e-06,-0.00021108754191390133,0.00014166574098806173,0.00012204963917777922
149550000000.0,2,-0.08083621595,0.0080022264,0.00507003805,-0.01976,-0.032483,-0.047677,0.47422998069999994,-5.323245752999999,-8.2223856925,0.057611,0.5738,-0.42593,-0.00010000000000021103,3.333333333332966e-05,9.090909090847532e-06,0.0004904362382546212,-0.00011724496277776275,1.9133306451896148e-05
149550000000.0,2,-0.0967916355,0.0032950343999999998,0.0572512227,-0.01748,-0.01439,-0.047703,0.4735827418,-5.322068954999999,-8.223268290999998,0.057527,0.57364,-0.42637,-9.999999999998899e-05,1.2499999999970868e-05,1.1111111111183902e-05,-9.149613641401544e-06,0.0003143229848552309,-0.000227225700751843
149550000000.0,2,-0.10186167355,-0.008492558899999999,0.08167958784999999,-0.013095,0.002615,-0.043453,0.47416133414999995,-5.321480556,-8.223562490499999,0.057594,0.57357,-0.42678,-9.999999999998899e-05,1.2499999999970868e-05,1.1111111110961858e-05,-5.316038202529683e-06,-0.00045828416259263705,-0.0004869332179675556
149550000000.0,2,-0.07616825055,-0.00946341725,0.0821405004,-0.004521,0.007869,-0.042379,0.4757009782,-5.3215786225,-8.223464424,0.057783,0.57358,-0.4272,-9.999999999998899e-05,1.2499999999970868e-05,1.1111111111183902e-05,9.13258314794163e-06,0.000639622959433872,-0.0003962042541656441
149550000000.0,2,-0.0358334991,0.0017357770499999998,0.068450417,-0.001326,0.008904,-0.039172,0.47800554095,-5.321676689,-8.223268290999998,0.058063,0.5736,-0.42763,-9.999999999998899e-05,1.2500000000192912e-05,1.1111111111183902e-05,0.00020518106710598616,0.00036431224489952285,-0.000538592339373728
149550000000.0,2,-0.0137685366,0.005687856999999999,0.0332053169,0.011383,-0.002923,-0.039129,0.47988841774999996,-5.3223631545000005,-8.222679892,0.058295,0.57368,-0.42809,-0.00019999999999997797,1.2499999999970868e-05,1.1111111110961858e-05,-0.0005994365780225275,-6.472462685125357e-05,-0.00044549720316056085
149550000000.0,2,0.0071000146,-0.0025889556,0.008757338449999999,0.007067,-0.010344,-0.041259,0.48146728839999997,-5.322755420499999,-8.2223856925,0.058489,0.57373,-0.42858,-9.999999999998899e-05,1.2499999999970868e-05,1.1111111111183902e-05,-3.7701621042107725e-05,5.456076922660813e-05,-0.0005057607267103248
149550000000.0,2,0.0231829206,0.013817569850000001,0.0192014207,0.01772,-0.013625,-0.04337,0.48304615905,-5.324030285,-8.2214050275,0.058687,0.57388,-0.42914,-0.00019999999999997797,1.2499999999970868e-05,1.1111111111183902e-05,-0.0008255977760853739,-0.0002769972877090243,-0.00043562405508082436
149550000000.0,2,0.02372228635,0.0243597186,0.0531324297,0.00493,-0.011389,-0.042329,0.4847427095,-5.3243244845,-8.221110827999999,0.058895,0.57393,-0.42967,-9.999999999998899e-05,1.2499999999970868e-05,1.1111111110961858e-05,-7.732659166403977e-05,-0.00010453270823873595,-0.00015687847863116167
149550000000.0,2,0.0008335652500000001,0.01162088025,0.0615269221,0.003834,-0.01245,-0.03806,0.4857822143999999,-5.3249128835,-8.220620495499999,0.059025,0.574,-0.43013,-0.00019999999999997797,0.00024999999999986144,1.1111111111183902e-05,-0.0005550349531330268,-0.0004523408389256467,-0.0001912334545141059
149550000000.0,2,-0.02207476915,-0.0032558077999999997,0.04841543105,0.003827,-0.013516,-0.038057,0.4864098399999999,-5.3255012825,-8.2202282295,0.059102,0.57406,-0.43057,-0.00029999999999996696,0.0002500000000000835,0.0008000000000001339,0.00676440424981628,0.01299009916408611,-0.006913969017858457
149550000000.0,2,-0.028713871199999998,0.00053936575,0.05119071299999999,-0.004674,-0.011312,-0.041278,0.4870570789,-5.3255012825,-8.2202282295,0.059182,0.57407,-0.43102,-5.0000000000105516e-05,-0.00039999999999995595,-0.0008000000000001339,-0.0072468489226383825,-0.013225530432076749,0.006200797893249538
149550000000.0,2,-0.033009183899999996,-0.00167693715,0.04790548524999999,0.009165,-0.016753,-0.043378,0.4876062513,-5.326187748,-8.219737897,0.059252,0.57415,-0.4315,-4.999999999988347e-05,-9.999999999998899e-05,-9.999999999998899e-05,0.0006696523531887211,0.00015783603361607668,-0.0005508054973772936
149550000000.0,2,-0.05266171049999999,-0.004707192,0.02737036015,-0.003632,-0.018776,-0.047665,0.4876650912,-5.3259916149999995,-8.21993403,0.059258,0.57412,-0.43199,-9.999999999998899e-05,9.999999999998899e-05,9.999999999998899e-05,-0.0005251215673075516,-9.834697564214956e-05,-0.0006531605415196762
149550000000.0,2,-0.06328231245,-0.0007256920999999999,0.02170211645,0.002756,-0.023089,-0.051915,0.4873512783999999,-5.326187748,-8.219737897,0.059221,0.57415,-0.43252,-9.999999999998899e-05,1.999999999990898e-05,-1.999999999990898e-05,0.00029479568355350594,0.000511462568323795,-0.0009273386310569842
149550000000.0,2,-0.06122291595,0.0013337044,0.0175342902,-0.006842,-0.021948,-0.050865,0.48724340525,-5.3256974155000005,-8.220032096499999,0.059206,0.57409,-0.43305,-9.999999999998899e-05,2.0000000000131024e-05,-2.0000000000131024e-05,0.0006385609694902206,0.0007391238066853933,-0.00035606600212242934
149550000000.0,2,-0.06426297745,-0.0126113519,0.025173670549999996,-0.015373,-0.020815,-0.049812,0.4871355321,-5.324814817,-8.220620495499999,0.059188,0.57398,-0.43357,-0.00010000000000021103,1.999999999990898e-05,-1.999999999990898e-05,0.00026149272762321374,7.503256564489469e-05,-0.0004479671987320799
149550000000.0,2,-0.060820843299999997,-0.0112776475,0.0205351251,-0.01541,-0.022953,-0.045538,0.48684133259999995,-5.3234418859999995,-8.221601160499999,0.059146,0.57382,-0.43405,-0.00019999999999997797,2.0000000000131024e-05,-2.0000000000131024e-05,-0.00011433517509973345,-0.00042369787216367527,-0.00045989433619589293
149550000000.0,2,-0.0253403836,0.0077864801,-0.0020201699,-0.027194,-0.028186,-0.044481,0.4863706134,-5.32108829,-8.223072158,0.059078,0.57353,-0.43453,-9.999999999998899e-05,1.999999999990898e-05,-1.999999999990898e-05,-0.00018630789823403937,0.0002970334570637778,-0.00038996899726562173
149550000000.0,2,0.0132389775,0.0243008787,-0.010787315,-0.009051,-0.029397,-0.04765,0.48670403949999996,-5.319421159499999,-8.224248956,0.05911,0.57332,-0.4351,-0.00019999999999997797,4.999999999988347e-05,-5.0000000000105516e-05,0.00035491585815083937,-0.0002329338876829734,-0.00022364646271305633
149550000000.0,2,0.028115665550000002,0.043041386849999995,-0.00932612415,-0.011109,-0.02298,-0.053002,0.48783180424999995,-5.3174598295,-8.225425754,0.059239,0.57309,-0.43574,-0.00019999999999997797,5.0000000000105516e-05,-4.999999999988347e-05,-0.0006966005350582671,0.00011787268223795166,-0.0004225434220879454
149550000000.0,2,0.0288511643,0.048572337449999996,-0.01754409685,0.004983,-0.015645,-0.059392,0.48995004065,-5.316577230999999,-8.22581802,0.059492,0.57298,-0.43646,-0.00019999999999997797,-9.999999999998899e-05,-4.999999999988347e-05,0.0017586005340821664,-0.0006065670158168501,-0.00022910470953274586
149550000000.0,2,0.0091201845,0.05684915005,-0.016141745899999997,0.016798,-0.008278,-0.063655,0.49260764279999997,-5.3164791645,-8.2257199535,0.059815,0.57297,-0.43722,-9.999999999998899e-05,9.999999999998899e-05,-5.0000000000105516e-05,-0.0008503215238001571,0.0006047232898616084,-0.0006033013529997411
149550000000.0,2,-0.00946341725,0.0499354618,-0.0044522191,0.027515,-0.004101,-0.066845,0.49563789765,-5.317754029,-8.2247392885,0.060189,0.57313,-0.43801,-0.00019999999999997797,-5.0000000000105516e-05,9.999999999998899e-05,0.0013023471594962865,-0.00017722756367444248,-0.0005923103920961181
149550000000.0,2,-0.0038245934999999996,0.032705177749999995,-0.0055309506,0.044563,-0.002118,-0.059347,0.49883486555,-5.320303758,-8.222876025,0.060589,0.57343,-0.43877,-9.999999999998899e-05,-4.999999999988347e-05,9.999999999998899e-05,-8.838998994764591e-05,-0.0006859265811784976,-0.0007997466912713636
149550000000.0,2,0.0115522337,0.0081983594,-0.00042168595,0.035954,-0.005253,-0.049751,0.5015513076,-5.323049619999999,-8.220914695,0.060934,0.57376,-0.43944,-0.00019999999999997797,9.999999999998899e-05,5.0000000000105516e-05,-6.657128662634904e-05,0.00015018643471664817,-0.0006476600471763405
149550000000.0,2,0.016455558699999998,-0.02356537995,-0.020623384949999997,0.027345,-0.010516,-0.043352,0.5033851511499999,-5.325403216,-8.219345631,0.061168,0.57405,-0.44001,-9.999999999998899e-05,3.333333333332966e-05,4.999999999988347e-05,0.00011205455228568972,0.0001954295620079094,-0.0007107102037823276
149550000000.0,2,0.023908612699999998,-0.0566039838,-0.05694721654999999,0.016613,-0.017887,-0.042291,0.5046109824,-5.327070346499999,-8.218168833,0.061325,0.57425,-0.44055,-9.999999999998899e-05,3.333333333332966e-05,3.333333333332966e-05,-0.00047300084258583563,-0.0006049093203035483,-0.0008082276347640416
149550000000.0,2,0.03158721965,-0.04790548524999999,-0.047179793149999996,0.014441,-0.025323,-0.046552,0.50575836045,-5.3282471445,-8.2172862345,0.061471,0.5744,-0.44114,-0.00019999999999997797,3.333333333332966e-05,3.333333333332966e-05,-0.00024299520432691235,0.00010627874354862676,-0.0003696723064834373
149550000000.0,2,0.041452709549999994,-0.024987344199999997,-0.022418001899999998,0.021933,-0.026442,-0.052942,0.5071214848,-5.329620075499999,-8.2163055695,0.061643,0.57457,-0.44181,-0.00020000000000020002,9.999999999998899e-05,3.333333333332966e-05,-0.0007343303318089189,-0.0005378480699052002,-0.0002835831848984893
149550000000.0,2,0.059330232499999996,-0.0114933938,0.0017455836999999998,0.019794,-0.026424,-0.05188,0.5086905488,-5.331483339,-8.215030705,0.061843,0.57479,-0.44252,-9.999999999998899e-05,5.0000000000105516e-05,5.0000000000105516e-05,-0.0007837699215598182,-0.000337367177708936,-0.00032824117667387687
149550000000.0,2,0.068254284,-0.011365907350000001,0.03146953985,0.03045,-0.022256,-0.042264,0.5103969059,-5.333640802,-8.213461640999999,0.062061,0.57506,-0.44316,-9.999999999998899e-05,4.999999999988347e-05,5.0000000000105516e-05,-0.0006872732389143765,-0.00023180960503266235,-0.0005158581829580178
149550000000.0,2,0.05610384465,-0.013739116649999997,0.0225356817,0.019772,-0.016849,-0.031619,0.51162273715,-5.335798265,-8.21208871,0.062221,0.57532,-0.44364,-0.00019999999999997797,0.00010000000000021103,9.999999999998899e-05,-0.0005838230038676118,-0.0003885978894331288,-0.0005243076365803179
149550000000.0,2,0.032901310749999996,-0.03813806185,0.0160044528,0.022967,-0.010493,-0.019884,0.5123778492,-5.338151861,-8.2104215795,0.062324,0.57561,-0.44396,-9.999999999998899e-05,9.999999999998899e-05,4.999999999988347e-05,-5.0075855612008446e-05,-0.00010782559969424454,-0.00028248375224354527
149550000000.0,2,0.0309301741,-0.0458755087,0.037461403,0.020851,-0.00728,-0.017759,0.51315257455,-5.3407996565,-8.208754449,0.062432,0.57592,-0.44422,-9.999999999998899e-05,5.0000000000105516e-05,5.0000000000105516e-05,-0.0005838351705493849,-0.00015950679501974818,-0.0007427731823762829
149550000000.0,2,0.0308321076,-0.03745159635,0.0289100042,0.024048,-0.007306,-0.016687,0.5138488467,-5.343545518499999,-8.2068911855,0.06253,0.57625,-0.44446,-9.999999999998899e-05,4.999999999988347e-05,9.999999999998899e-05,0.0004524468438125151,7.242693163678204e-05,-0.0004621773773963722
149550000000.0,2,0.0137489233,-0.028292185249999997,0.014788428199999998,0.038975,-0.01275,-0.023056,0.5143195658999999,-5.3464875135,-8.2049298555,0.062603,0.57662,-0.44476,-9.999999999998899e-05,9.999999999998899e-05,4.999999999988347e-05,-0.0009135015837934413,8.357073046649788e-05,-0.0003031700376428803
149550000000.0,2,0.01927006725,-0.0011964113,0.028762904449999998,0.042172,-0.015968,-0.027315,0.5147902850999999,-5.350312106999999,-8.2023801265,0.062678,0.57708,-0.44512,-9.999999999998899e-05,9.999999999998899e-05,5.0000000000105516e-05,0.0007728128022637115,0.0003098695955596753,-0.0005124330304084879
149550000000.0,2,0.0242616521,0.020201699,0.06264488019999999,0.052839,-0.017119,-0.028363,0.5154767506,-5.354528966499999,-8.1996342645,0.062783,0.57759,-0.44553,-4.999999999988347e-05,4.999999999988347e-05,9.999999999998899e-05,-0.0006046987820113037,-0.0002714028185404338,-9.633384905421982e-05
149550000000.0,2,0.019819239649999997,0.0273017136,0.080022264,0.047551,-0.010682,-0.027317,0.51632992915,-5.358745826,-8.196790336,0.062909,0.57811,-0.44594,-5.0000000000105516e-05,5.0000000000105516e-05,4.999999999988347e-05,-0.000539914757239135,-0.00010169540811810762,-0.00013569477928851437
149550000000.0,2,-0.005236751099999999,0.00718827445,0.09242767625,0.041197,-0.001046,-0.02094,0.5171438811,-5.363060752,-8.1939464075,0.063029,0.57863,-0.44624,-5.0000000000105516e-05,9.999999999998899e-05,5.0000000000105516e-05,-0.0008118858936021489,-0.0002660390790056866,-0.00012774734757814432
149550000000.0,2,-0.0330680238,-0.0466012008,0.09895890514999998,0.030568,0.007559,-0.014569,0.51789899315,-5.367179545,-8.1912005455,0.063142,0.57913,-0.44642,-4.999999999988347e-05,0.00019999999999997797,9.999999999998899e-05,0.000641916637109663,0.0008016603449654269,-0.00011485408367153949
149550000000.0,2,-0.0432669398,-0.061066009549999994,0.11878795145,0.01239,0.009825,-0.001794,0.51836971235,-5.3702196065,-8.189141149,0.063215,0.5795,-0.44646,-1.999999999990898e-05,4.999999999988347e-05,4.999999999988347e-05,-0.0003447929365590907,0.00015594853287970167,-0.0003486151760850875
149550000000.0,2,-0.0295180165,-0.06130136914999999,0.1028129186,0.000559,0.00139,0.004605,0.5180853195,-5.371690604,-8.188160483999999,0.063188,0.57969,-0.44639,-2.0000000000131024e-05,5.0000000000105516e-05,5.0000000000105516e-05,-3.11724228012622e-05,0.000540180563596282,-0.00045847733424170256
149550000000.0,2,-0.01673995155,-0.07226520384999999,0.0695291485,-0.013457,-0.016611,0.00568,0.51652606215,-5.372475135999999,-8.187866284499998,0.063001,0.57978,-0.4463,-1.999999999990898e-05,0.00019999999999997797,9.999999999998899e-05,-0.0003178379606459947,7.17992943188861e-05,-0.00018637996774292787
149550000000.0,2,0.008973084749999999,-0.0373633365,0.03651015795,-0.015648,-0.029371,-0.00284,0.5144568589999999,-5.3718867370000005,-8.188356617,0.062746,0.57971,-0.4463,-2.0000000000131024e-05,9.999999999998899e-05,4.999999999988347e-05,-0.0002733097333526002,7.118595226396351e-05,-0.0001960603856403509
149550000000.0,2,0.006168382849999999,0.0045698989,0.0177108099,-0.018844,-0.036791,-0.015642,0.5121817162,-5.370415739499999,-8.1894353485,0.06246,0.57953,-0.44643,-1.999999999990898e-05,9.999999999998899e-05,5.0000000000105516e-05,-0.0003143494471348207,3.5624363221575805e-06,5.931991990754115e-05
149550000000.0,2,-0.0165340119,0.04610106165,0.03723585005,-0.014469,-0.032549,-0.030585,0.5106322655,-5.3688466754999995,-8.19051408,0.062264,0.57934,-0.44673,3.333333333332966e-05,5.0000000000105516e-05,9.999999999998899e-05,0.00022670237241417812,0.0003717233643185658,-4.056980696168222e-05
149550000000.0,2,-0.01919161405,0.0669794195,0.06055606374999999,-0.011212,-0.029373,-0.036989,0.5098477335,-5.367179545,-8.191690878,0.06216,0.57913,-0.44713,3.333333333332966e-05,4.999999999988347e-05,4.999999999988347e-05,-8.243359605697442e-05,-2.025563500884786e-05,0.0002322386587312042
149550000000.0,2,-0.023388860249999997,0.051661432199999996,0.06236048735,-0.003692,-0.020914,-0.033788,0.50940643425,-5.3664930795,-8.1921812105,0.062103,0.57905,-0.44752,3.333333333332966e-05,9.999999999998899e-05,5.0000000000105516e-05,0.00011123626045694834,0.0003868751661171288,-0.0001338939890925539
149550000000.0,2,-0.02117255735,0.029184590399999998,0.06948011525,0.008062,-0.011434,-0.022042,0.50928875445,-5.3670814785,-8.191788944499999,0.06209,0.57912,-0.4478,-1.999999999990898e-05,5.0000000000105516e-05,3.333333333332966e-05,0.0002048122135058783,0.00041918788583128475,-6.856196007712367e-05
149550000000.0,2,-0.013827376499999999,-0.0009218250999999998,0.0635274787,0.01769,0.000194,-0.00817,0.50942604755,-5.3688466754999995,-8.1906121465,0.062116,0.57934,-0.44794,-2.0000000000131024e-05,4.999999999988347e-05,3.333333333332966e-05,0.00010539606547321778,0.0004739950787140401,-0.00033455166009060955
149550000000.0,2,-0.03368584275,-0.021790376299999997,0.06526325575,0.018839,0.016157,0.001411,0.50983792685,-5.371102205,-8.1890430825,0.062178,0.57962,-0.44792,-1.999999999990898e-05,9.999999999998899e-05,3.333333333332966e-05,0.00020422810376474754,0.0002728000743281722,-0.00032200690273367916
149550000000.0,2,-0.0516418189,-0.0245362383,0.0919471504,0.013565,0.024722,0.003523,0.51087743175,-5.3734558009999995,-8.1874740185,0.062317,0.5799,-0.44783,-2.0000000000131024e-05,5.0000000000105516e-05,3.333333333332966e-05,0.000243656007282822,0.00029010926253425495,-0.00044012584860406156
149550000000.0,2,-0.0564078508,-0.0085513988,0.09081938565,0.008228,0.019444,-0.003947,0.51190713,-5.3751229315,-8.186395287,0.062451,0.5801,-0.4478,-1.999999999990898e-05,4.999999999988347e-05,3.333333333332966e-05,-0.0007424831927846931,-0.00041272703173400593,-0.00039695831730685027
149550000000.0,2,-0.053259916149999996,0.00399130655,0.054985886549999995,-0.000348,0.005674,-0.017813,0.512495529,-5.375417130999999,-8.186199153999999,0.062524,0.58013,-0.44791,5.0000000000105516e-05,9.999999999998899e-05,3.333333333332966e-05,-8.353388565418562e-05,0.00012905449290423476,-0.00026855249689303196
149550000000.0,2,-0.0261445289,0.026330855249999997,0.03892259385,-0.000432,-0.013492,-0.031655,0.51291721495,-5.375417130999999,-8.186101087499999,0.062575,0.58014,-0.44823,4.999999999988347e-05,0.00010000000000021103,3.333333333332966e-05,-0.0003625921182648373,-0.00010040551627721328,8.903141953833793e-05
149550000000.0,2,-0.0079237732,0.0436003659,0.0041972462,-0.006894,-0.026218,-0.040183,0.51295644155,-5.3742403329999995,-8.1868856195,0.062574,0.58,-0.44868,2.4999999999941735e-05,9.999999999998899e-05,3.333333333332966e-05,0.0005848656622728932,-2.4723915843738453e-05,0.00030863203611486423
149550000000.0,2,-0.011032481249999998,0.01501398115,0.0033538743,0.000505,-0.034804,-0.040154,0.51217190955,-5.373848067,-8.187179819,0.062476,0.57995,-0.44916,2.4999999999941735e-05,9.999999999998899e-05,3.333333333332966e-05,-0.0005535728058096989,-0.0002464613937451787,0.0003846790266142097
149550000000.0,2,-0.0301260288,0.006864655,0.00811009955,0.011181,-0.030636,-0.034805,0.5110637580999999,-5.3742403329999995,-8.186983686,0.062343,0.57999,-0.44956,2.500000000016378e-05,9.999999999998899e-05,-9.999999999998899e-05,-2.374715493358437e-06,-0.00023173964155387416,0.0005247446882974405
149550000000.0,2,-0.036480738,-0.018524761849999998,0.041854782199999996,0.020862,-0.013679,-0.023076,0.51038709925,-5.376201663,-8.185708821499999,0.06227,0.58024,-0.44986,2.4999999999941735e-05,4.999999999988347e-05,9.999999999998899e-05,7.518022440144989e-05,8.60650967906551e-05,-0.00017131664011282854
149550000000.0,2,-0.06269391345,-0.037608502749999995,0.07930637855,0.029523,0.007549,-0.013491,0.5104165192,-5.379535924,-8.183551358499999,0.06229,0.58064,-0.45,1.2499999999970868e-05,5.0000000000105516e-05,2.4999999999941735e-05,-0.0001318383633740483,-7.224466362476534e-05,-0.00028287619763806005
149550000000.0,2,-0.09599729685,-0.045365562899999996,0.09388886709999998,0.031783,0.028829,-0.003915,0.51109317805,-5.3834585839999995,-8.180903563,0.062393,0.58112,-0.45,1.2499999999970868e-05,9.999999999998899e-05,2.4999999999941735e-05,0.000937421685851203,-0.0001441960048056412,-4.585453156136232e-05
149550000000.0,2,-0.11421805254999999,-0.0377556025,0.12238699199999999,0.026519,0.038457,-0.001804,0.5123974625,-5.387381243999999,-8.1782557675,0.062572,0.58159,-0.44992,1.2499999999970868e-05,4.999999999988347e-05,2.500000000016378e-05,-2.105099021654233e-05,1.1930236105905934e-05,-0.0004978074029534374
149550000000.0,2,-0.1109720514,-0.017142024199999998,0.0983410862,0.018975,0.029989,0.000335,0.5132016077999999,-5.390127106,-8.176392503999999,0.062684,0.58194,-0.44981,1.2500000000192912e-05,5.0000000000105516e-05,2.4999999999941735e-05,-0.00029189804863438695,-1.1092903419163136e-05,-0.0004950359040283014
149550000000.0,2,-0.07835513350000001,0.00055897905,0.029214010349999996,-0.002575,0.003523,0.000346,0.5127505018999999,-5.3906174385,-8.1760983045,0.062631,0.582,-0.44973,1.2499999999970868e-05,5.0000000000105516e-05,9.999999999998899e-05,-0.00019319263639161477,7.744705276424568e-05,-0.0004951259234012295
149550000000.0,2,-0.03530394,0.0069627215,-0.0594086857,-0.013522,-0.033679,-0.003875,0.5102498061499999,-5.389146441,-8.1772751025,0.062318,0.58181,-0.44971,1.2499999999970868e-05,4.999999999988347e-05,9.999999999998899e-05,-5.92697559916866e-05,2.011112063349252e-05,-6.246787947883359e-05
149550000000.0,2,-0.0034029075499999997,0.026105302299999997,-0.10752991725,-0.025395,-0.057014,-0.014529,0.5064938592,-5.3860083130000005,-8.179530632,0.061842,0.58143,-0.44981,1.2499999999970868e-05,4.999999999988347e-05,3.333333333332966e-05,-0.0002284856910276245,-0.00033764525618584784,9.596790558402679e-05
149550000000.0,2,0.0043737659,0.055211439499999994,-0.10627466605,-0.015869,-0.072001,-0.024092,0.5020024135,-5.382870185,-8.181884228,0.061279,0.58105,-0.45007,1.2499999999970868e-05,5.0000000000105516e-05,3.333333333332966e-05,-1.5584551027902904e-05,-0.0003489708711859052,0.0003649911091169744
149550000000.0,2,-0.01679879145,0.0578003951,-0.0675089786,-0.008335,-0.069921,-0.034756,0.49757961435,-5.380516589,-8.183649425,0.060727,0.58077,-0.45041,-1.1111111111183902e-05,3.333333333332966e-05,3.333333333332966e-05,-0.0005053939221629777,-0.0005362923883318604,8.320932102534595e-05
149550000000.0,2,-0.0806695029,0.05131819945,0.0078649333,-0.000687,-0.048673,-0.036913,0.49382366739999994,-5.3796339904999995,-8.1845320235,0.060263,0.58065,-0.45076,-1.1111111110961858e-05,3.333333333332966e-05,3.333333333332966e-05,-0.00012434884378931255,-0.0002485581057973807,9.310748361107679e-05
149550000000.0,2,-0.1201118492,0.047728965549999995,0.07100995265,0.013388,-0.021091,-0.033732,0.49150929799999993,-5.3800262565,-8.1843358905,0.059983,0.58071,-0.45105,-1.1111111111183902e-05,3.333333333332966e-05,3.333333333355171e-05,-8.481264608373174e-05,0.00031869970263476155,-0.00011494495223102197
149550000000.0,2,-0.1420787452,0.0385989744,0.10358764394999999,0.001819,0.002438,-0.029521,0.4905874729,-5.380712721999999,-8.184041691,0.059873,0.58078,-0.45126,-1.1111111111183902e-05,9.999999999998899e-05,3.333333333332966e-05,0.00033175630513526677,0.000612775235043328,-0.0005281790231361772
149550000000.0,2,-0.1471389766,0.04423779815,0.10015531644999999,0.012538,0.009802,-0.027377,0.49040114655,-5.3817914535,-8.183257159,0.059856,0.58092,-0.45143,-1.1111111110961858e-05,5.0000000000105516e-05,4.999999999988347e-05,-2.4046117246490084e-05,0.00046140537216099453,-0.0006407781161382742
149550000000.0,2,-0.1087949751,0.06950953519999999,0.0765899365,0.018836,-0.003041,-0.027341,0.49022462684999996,-5.382870185,-8.182570693499999,0.059839,0.58104,-0.45165,-1.1111111111183902e-05,4.999999999988347e-05,5.0000000000105516e-05,-0.00046731945702616073,0.0004063152767743716,-0.0005693415849954975
149550000000.0,2,-0.05127897285,0.07589366435,0.049984495049999994,0.020837,-0.020107,-0.028374,0.4895675813,-5.3839489165,-8.181884228,0.059765,0.58118,-0.45194,-1.1111111111183902e-05,9.999999999998899e-05,2.4999999999941735e-05,0.00016972327646536112,0.00030905258582980544,-0.0005383294310214448
149550000000.0,2,-0.029567049749999998,0.07030387384999999,0.0170831843,0.023948,-0.035046,-0.034746,0.48836136335,-5.385027648,-8.181295829,0.059621,0.58131,-0.45232,-1.1111111110961858e-05,9.999999999998899e-05,2.500000000016378e-05,-0.00011610071043077763,-2.5811481283444238e-06,-0.0004358512048183161
149550000000.0,2,-0.03531374665,0.09079977234999999,0.023212340550000002,0.023858,-0.049958,-0.041123,0.4861744804,-5.385910246499999,-8.180903563,0.059358,0.58142,-0.45277,-1.1111111111183902e-05,9.999999999998899e-05,2.4999999999941735e-05,-0.00015216742775769898,0.0001467836005828449,-0.0001693166933371404
149550000000.0,2,-0.046287388,0.0897308475,0.05612345795,0.012192,-0.045593,-0.048622,0.48412489054999996,-5.3863025124999995,-8.18070743,0.05911,0.58147,-0.4533,-9.999999999998899e-05,9.999999999998899e-05,2.4999999999941735e-05,-5.601073581906757e-05,-0.0004293632994396557,3.096419872777867e-05
149550000000.0,2,-0.06804834435,0.0599186315,0.0960267168,-0.010116,-0.034753,-0.050813,0.48269311965,-5.38581218,-8.181099695999999,0.058933,0.58141,-0.45381,-3.333333333332966e-05,9.999999999998899e-05,4.999999999988347e-05,-7.422201715678867e-06,0.00018323141507226026,-0.0002304305984008881
149550000000.0,2,-0.11349236045,0.03992287215,0.08902476869999999,-0.017478,-0.020845,-0.04978,0.48144767509999997,-5.384537315499999,-8.1819822945,0.058775,0.58125,-0.45427,-3.333333333332966e-05,9.999999999998899e-05,5.0000000000105516e-05,-0.00014342983865367476,-0.0002599029695500299,-0.00040027048909624385
149550000000.0,2,-0.1305853514,0.024604884849999998,0.10725533105,-0.026,-0.018649,-0.048728,0.48043759015,-5.382870185,-8.1831590925,0.058643,0.58104,-0.4547,-3.333333333332966e-05,9.999999999998899e-05,3.333333333332966e-05,-0.0005211679577538098,-3.126987771429057e-05,-0.00033894476234069826
149550000000.0,2,-0.10204799989999999,0.027233067049999997,0.0898681406,-0.020671,-0.020826,-0.050848,0.4797315113499999,-5.381104988,-8.1843358905,0.058549,0.58083,-0.45515,-5.0000000000105516e-05,9.999999999998899e-05,3.333333333332966e-05,-0.0006041517560146925,1.2634800011568359e-05,-0.0006565000575726176
149550000000.0,2,-0.0846510028,0.0192994872,0.06334115235,-0.011061,-0.02197,-0.054029,0.47939808524999994,-5.3800262565,-8.185022356,0.058503,0.58071,-0.45568,-4.999999999988347e-05,0.00010000000000021103,3.333333333332966e-05,-0.00046001618604107897,0.0002163447560030729,-0.0008867085158657528
149550000000.0,2,-0.06521422249999999,0.052544030699999994,0.0616642152,0.00282,-0.023148,-0.058271,0.47971189805,-5.3796339904999995,-8.1853165555,0.058539,0.58065,-0.4563,-9.999999999998899e-05,9.999999999998899e-05,-2.4999999999941735e-05,0.00026435522816514734,5.515609941486588e-05,-0.0005213300070887605
149550000000.0,2,-0.0450321368,0.0664106338,0.055623318799999995,0.012422,-0.026419,-0.063585,0.480329717,-5.379928189999999,-8.185120422499999,0.058616,0.58068,-0.45702,-9.999999999998899e-05,9.999999999998899e-05,-2.4999999999941735e-05,-0.0006930385517622817,-0.0002836189639923159,-0.0007591364009765789
149550000000.0,2,-0.035372586549999994,0.0625075871,0.0627821733,0.017748,-0.025402,-0.060374,0.4809965692,-5.3808107885,-8.1845320235,0.058702,0.58079,-0.45773,-9.999999999998899e-05,4.999999999988347e-05,-2.500000000016378e-05,-2.6819692828805586e-06,-0.0004164287014789547,-0.0008956623043187006
149550000000.0,2,-0.02346731345,0.0366180311,0.061595568649999995,0.012425,-0.020037,-0.053988,0.48180071449999995,-5.3817914535,-8.1837474915,0.058805,0.58092,-0.45839,-5.0000000000105516e-05,5.0000000000105516e-05,-2.4999999999941735e-05,7.716912594291081e-05,-0.00016920280834442636,-0.0003103490921808061
149550000000.0,2,-0.0368141641,-0.0016082905999999998,0.0526813238,0.001756,-0.016759,-0.048675,0.48242834009999996,-5.382379852499999,-8.1833552255,0.058884,0.58098,-0.45895,-4.999999999988347e-05,9.999999999998899e-05,-2.4999999999941735e-05,0.00029032477558676995,-0.00026269368925357917,-0.000755759138404144
149550000000.0,2,-0.0274193934,-0.01215043935,0.07263785655,-0.008925,-0.014548,-0.042292,0.48321287209999997,-5.382477918999999,-8.183257159,0.05898,0.581,-0.45946,-0.00020000000000020002,9.999999999998899e-05,-2.500000000016378e-05,-1.0668324519347294e-06,-0.00013087296294878037,-0.0004662252810889722
149550000000.0,2,-0.0155925735,-0.02442836515,0.058947773149999994,-0.02287,-0.020833,-0.036968,0.48351687825,-5.3813991875,-8.1839436245,0.059012,0.58087,-0.45988,-9.999999999998899e-05,9.999999999998899e-05,-2.4999999999941735e-05,0.00010361750830467642,-2.8963444705931707e-05,-0.0006258473548819143
149550000000.0,2,-0.01972117315,-0.046660040699999995,0.031508766449999996,-0.033658,-0.034599,-0.034827,0.48255582654999996,-5.379535924,-8.185218488999999,0.058886,0.58064,-0.46026,-9.999999999998899e-05,9.999999999998899e-05,-2.4999999999941735e-05,0.0006515876494929129,4.3798402345585075e-05,-0.0004097986209422033
149550000000.0,2,0.01623000575,-0.0419136221,0.0037559469499999997,-0.045484,-0.047287,-0.03696,0.48116328224999994,-5.3762997294999995,-8.1874740185,0.058701,0.58025,-0.46069,-9.999999999998899e-05,0.00019999999999997797,-4.999999999988347e-05,0.0002553717145584722,0.00024706141064556597,-0.0006325208665679538
149550000000.0,2,0.056290171,-0.02923362365,-0.01993691945,-0.049892,-0.064299,-0.035872,0.47911369239999996,-5.372279002999999,-8.190219880499999,0.058431,0.57975,-0.46115,-9.999999999998899e-05,9.999999999998899e-05,-5.0000000000105516e-05,-0.00043487525642227354,-0.0001246423627776494,-0.00043259647073945473
149550000000.0,2,0.06309598609999999,-0.00732556755,-0.006952914849999999,-0.052159,-0.080264,-0.034781,0.47559310504999996,-5.367767944,-8.193358008499999,0.057981,0.57921,-0.4616,-9.999999999998899e-05,9.999999999998899e-05,-3.333333333332966e-05,0.0007229017289945849,0.0005384760994586735,-0.000627745780707123
149550000000.0,2,0.055182019549999996,-0.00658026215,-0.03721623675,-0.05011,-0.088807,-0.031561,0.47094475295,-5.363060752,-8.196790336,0.057392,0.57863,-0.462,-9.999999999998899e-05,9.999999999998899e-05,-3.333333333332966e-05,-6.8363551895545e-05,-0.00019655880545754734,-0.0006612438180367275
149550000000.0,2,0.0524459642,-0.0026281822,-0.0162201991,-0.04798,-0.084568,-0.024095,0.4660512345999999,-5.3590400255,-8.1996342645,0.056777,0.57814,-0.46234,-5.0000000000105516e-05,0.00019999999999997797,-3.333333333332966e-05,0.0011142965182503461,0.00026812304076928584,-0.0003453937835374288
149550000000.0,2,0.0254384501,-0.0011081514499999999,0.025732649599999997,-0.050045,-0.070706,-0.015584,0.46117732954999996,-5.355019298999999,-8.202478193,0.056165,0.57765,-0.46254,-4.999999999988347e-05,9.999999999998899e-05,-0.00010000000000021103,0.00030243298887067116,0.00034370265934469124,-0.0003219686661802279
149550000000.0,2,-0.0203782187,-0.013827376499999999,0.041884202149999994,-0.05954,-0.04933,-0.002829,0.45656820405,-5.350802439499999,-8.2055182545,0.055584,0.57715,-0.46255,-3.333333333332966e-05,9.999999999998899e-05,-4.999999999988347e-05,0.0001917896844791933,0.0009661758424326372,-0.0009003114976948723
149550000000.0,2,-0.0391481468,0.0022751428,0.0673716855,-0.074286,-0.01832,0.008834,0.45334181619999997,-5.3455068484999995,-8.209146715,0.055168,0.5765,-0.46237,-3.333333333332966e-05,9.999999999998899e-05,-5.0000000000105516e-05,0.00015845462298424984,0.0004385580851471449,-0.0006806428448549173
149550000000.0,2,-0.08607296704999999,-0.0407760507,0.09458513925,-0.082826,-0.00868,0.025882,0.44984084215,-5.340309324,-8.212677109,0.054719,0.57587,-0.46198,-3.333333333332966e-05,9.999999999998899e-05,-5.0000000000105516e-05,-7.065270354122966e-05,0.0005393833241231771,-0.0005428178238093828
149550000000.0,2,-0.062958693,-0.0756484981,0.10484289515,-0.10004,-0.011763,0.05041,0.44543765629999993,-5.3343272675,-8.216893968499999,0.054157,0.57514,-0.46132,-3.333333333332966e-05,9.999999999998899e-05,-4.999999999988347e-05,-0.00011905411618984285,0.0010880096228709224,-0.0007500309292716723
149550000000.0,2,-0.07267708315,-0.08042433665,0.07761963475,-0.10554,-0.030904,0.053638,0.43914178699999995,-5.3274626125,-8.221601160499999,0.053362,0.5743,-0.46052,-3.333333333332966e-05,0.00020000000000020002,-4.999999999988347e-05,0.00012055363442387002,0.0010413489129419418,-0.0005750385194511209
149550000000.0,2,-0.04054069109999999,-0.08827946329999999,0.049229383,-0.091732,-0.051246,0.034486,0.4322967453,-5.321284423,-8.226014153,0.052504,0.57355,-0.45992,-3.333333333332966e-05,9.999999999998899e-05,-5.0000000000105516e-05,-4.701346814761642e-05,0.0004233159950837173,-0.00012803164788210974
149550000000.0,2,-0.01458248855,-0.0569177966,0.09517353825,-0.052023,-0.041952,0.003584,0.42772684639999997,-5.3174598295,-8.228760014999999,0.051933,0.57309,-0.45973,-1.4285714285744433e-05,9.999999999998899e-05,-5.0000000000105516e-05,0.0009491575704605459,0.00017393961202882835,-8.668893670044087e-05
149550000000.0,2,-0.036745517549999995,-0.014366742249999998,0.1397447625,-0.012562,-0.063558,-0.027264,0.42355902014999997,-5.3168714305,-8.229250347499999,0.051424,0.57302,-0.4599,-1.4285714285744433e-05,9.999999999998899e-05,-4.999999999988347e-05,0.0009377395930869614,9.729320455442725e-05,4.042379114338468e-05
149550000000.0,2,-0.054220967849999996,-0.06016379775,0.12229873214999999,-0.008423,-0.095536,-0.051749,0.41784174319999995,-5.317950162,-8.228956148,0.050733,0.57315,-0.46039,-1.4285714285744433e-05,9.999999999998899e-05,-9.999999999998899e-05,0.0005992215380913324,0.0006957904695332751,0.00048705151051503526
149550000000.0,2,0.04435547795,0.0264975683,-0.0070411747,-0.008301,-0.084872,-0.059241,0.41413482949999997,-5.3164791645,-8.2300348795,0.050277,0.57297,-0.46113,-1.4285714285522388e-05,0.00019999999999997797,-9.999999999998899e-05,0.001428677310923443,0.0008840646020291665,0.0005838125259929883
149550000000.0,2,-0.00304986815,-0.01658304515,-0.10380339025,-0.004835,-0.045484,-0.049697,0.4123009859499999,-5.3152043,-8.2310155445,0.05005,0.57281,-0.46176,-1.4285714285744433e-05,9.999999999998899e-05,-4.999999999988347e-05,0.0006442931645609384,0.0008864549566116597,0.00017621927585637076
149550000000.0,2,-0.0606835502,-0.052848036849999995,0.050180628049999995,-0.00808,-0.032703,-0.019836,0.40993758329999996,-5.315596565999999,-8.230917477999999,0.049764,0.57286,-0.46203,-1.4285714285744433e-05,9.999999999998899e-05,-5.0000000000105516e-05,0.0013386269654098726,0.0007136115109052099,0.00021045289816040702
149550000000.0,2,0.0061879961500000006,-0.016514398599999997,0.06285081984999999,-0.004992,-0.023178,0.018578,0.40740746759999996,-5.315792698999999,-8.230819411499999,0.049458,0.57289,-0.46191,-1.4285714285744433e-05,9.999999999998899e-05,5.0000000000105516e-05,-7.195284144057013e-05,0.00020682786913561735,-0.00045285778505876895
149550000000.0,2,0.0023928226,-0.027831272699999996,-0.028517738199999997,0.004634,-0.01155,0.032451,0.404622379,-5.316184965,-8.230721345,0.049121,0.57293,-0.46156,-5.0000000000105516e-05,9.999999999998899e-05,4.999999999988347e-05,-0.00016276399112280515,0.0007024526256362851,-0.0011459730060034423
149550000000.0,2,0.024340105299999998,-0.0004903325,-0.0244185585,0.015325,-0.009505,0.031398,0.4024256894,-5.31716563,-8.2302310125,0.048858,0.57305,-0.4612,-4.999999999988347e-05,9.999999999998899e-05,-9.999999999998899e-05,0.00024886558913550516,0.00039902942686631526,-0.0008084213851539679
149550000000.0,2,0.04123696325,0.0385009079,-0.02387919275,0.041041,-0.007564,0.012225,0.40153328425,-5.319617292499999,-8.2286619485,0.048759,0.57336,-0.46107,-9.999999999998899e-05,9.999999999998899e-05,9.999999999998899e-05,0.00025257624692409664,7.342430052492688e-05,-0.000822434785435644
149550000000.0,2,0.00658026215,0.08482752249999999,0.0245558516,0.047573,-0.002271,-0.005919,0.40147444435,-5.322755420499999,-8.226602552,0.048764,0.57373,-0.46111,-1.2499999999970868e-05,9.999999999998899e-05,2.4999999999941735e-05,-9.098727944478746e-05,0.00029049790660939934,-0.0006018084739893848
149550000000.0,2,-0.021741343049999997,0.07729601529999999,0.04019745835,0.042271,-0.003284,-0.014465,0.40167057735,-5.325795482,-8.224641221999999,0.048798,0.57411,-0.46127,-1.2499999999970868e-05,9.999999999998899e-05,2.4999999999941735e-05,-0.00024744927081798984,-0.00033879234932321367,0.0003716349470267444
149550000000.0,2,-0.03494109395,0.04076624405,0.03668667765,0.030371,-0.02237,-0.012317,0.40035648625,-5.328345211,-8.223072158,0.048649,0.57441,-0.46141,-1.2499999999970868e-05,9.999999999998899e-05,2.500000000016378e-05,-0.00024016735837295577,0.00021145826465418516,0.0002955599211384996
149550000000.0,2,-0.04118793,-0.0013140911,-0.0105127288,0.019439,-0.053188,-0.009078,0.3964240196,-5.3301104079999995,-8.222091493,0.048178,0.57463,-0.46149,-1.2500000000192912e-05,0.00019999999999997797,2.4999999999941735e-05,0.00011567134443835059,0.00018074075219698393,0.0002682794602038019
149550000000.0,2,-0.017259704,-0.0225356817,-0.015759286549999998,0.011638,-0.096811,-0.012216,0.3895593646,-5.3313852724999995,-8.221601160499999,0.047346,0.57478,-0.4616,-1.2499999999970868e-05,9.999999999998899e-05,5.0000000000105516e-05,-0.0001283616193158421,0.0004076271786350727,1.7060573197447138e-05
149550000000.0,2,0.017043957699999997,0.0095712904,-0.0440710851,-0.004464,-0.11691,-0.025017,0.3814394584,-5.3307968735,-8.2223856925,0.046358,0.57471,-0.46187,-1.2499999999970868e-05,0.00020000000000020002,4.999999999988347e-05,-0.0008482035638045504,-0.0006102654919990513,-0.00018849762909384227
149550000000.0,2,0.0195740734,0.025850329399999997,-0.06006573125,-0.015169,-0.12109,-0.025029,0.3729272862,-5.3288355435,-8.224052823,0.045315,0.57447,-0.46215,-1.2499999999970868e-05,9.999999999998899e-05,4.999999999988347e-05,-0.000696045262603473,0.0004639370291052991,-0.0002883027649157599
149550000000.0,2,-0.0774136951,0.0081591328,-0.02262394155,-0.005503,-0.11903,-0.03462,0.36336580245,-5.3276587455,-8.225229621,0.044149,0.57432,-0.46243,-1.2499999999970868e-05,0.00019999999999997797,5.0000000000105516e-05,-0.000557453167324029,-0.0001953216150929471,-0.00018774656323716776
149550000000.0,2,-0.08307213214999999,0.016720338249999998,-0.021378497,0.021218,-0.11286,-0.034583,0.354216198,-5.3284432775,-8.225131554499999,0.043038,0.57442,-0.46274,9.999999999998899e-05,9.999999999998899e-05,2.4999999999941735e-05,-9.886193965336076e-05,0.0007753007459572192,-0.00036248996589083315
149550000000.0,2,-0.07224559055,0.0192406473,0.07921811869999999,0.041674,-0.090648,-0.035652,0.34683179055,-5.3317775385,-8.223268290999998,0.042152,0.57483,-0.4631,-5.0000000000105516e-05,0.00019999999999997797,2.500000000016378e-05,0.0002991158324355814,0.0008155586908429324,-0.0005526582599036378
149550000000.0,2,-0.123956056,0.01554354025,0.06828370395,0.067456,-0.069552,-0.036709,0.34033978825,-5.337073129499999,-8.220130162999999,0.041379,0.57547,-0.4634,-4.999999999988347e-05,9.999999999998899e-05,2.4999999999941735e-05,-0.0010161745964598623,0.0002094172938962302,-0.0006831799163335983
149550000000.0,2,-0.15845585069999998,0.04972952215,0.06198783465,0.083732,-0.044103,-0.050598,0.33608370215,-5.343643585000001,-8.216011369999999,0.040883,0.57627,-0.46383,9.999999999998899e-05,0.00019999999999997797,2.4999999999941735e-05,-0.0003848026399698723,0.001334989770717332,-0.0006061302361614618
149550000000.0,2,-0.15364078555,0.09825282634999999,0.093751574,0.089119,-0.038823,-0.052729,0.3332103537,-5.3504101735,-8.211794510499999,0.040555,0.57709,-0.46433,-9.999999999998899e-05,9.999999999998899e-05,-4.999999999988347e-05,0.00021336300810026465,0.0007739164523432596,-0.000809882811388718
149550000000.0,2,-0.12757470985,0.077080269,0.037196623449999994,0.083752,-0.041981,-0.051662,0.330484105,-5.3567844959999995,-8.207675717499999,0.040243,0.57786,-0.46485,0.00019999999999997797,-9.999999999998899e-05,-5.0000000000105516e-05,-0.005749009982541242,0.002758373792109081,-0.003607285243957592
149550000000.0,2,-0.1333312134,0.10275407869999999,-0.0072961475999999996,0.066739,-0.037577,-0.057033,0.32801282919999997,-5.361295554999999,-8.204831789,0.039956,0.57842,-0.4654,-0.00029999999999996696,0.00039999999999995595,0.00019999999999997797,0.005370971300949212,-0.0012146827856018838,0.002095039990922698
149550000000.0,2,-0.10294040504999999,0.0788650793,-0.0044326057999999995,0.031673,-0.018113,-0.05499,0.32755191665,-5.363649151,-8.2033607915,0.039908,0.5787,-0.46598,-5.0000000000105516e-05,0.00019999999999997797,9.999999999998899e-05,0.0002705924740292742,0.0007023954091944784,-0.00045466581941439044
149550000000.0,2,-0.09089783885,0.046650234049999996,0.062429133899999996,0.012522,-0.017948,-0.065696,0.32792456935000003,-5.3647278825,-8.202576259499999,0.039957,0.57884,-0.46662,-4.999999999988347e-05,0.00019999999999997797,0.00010000000000021103,-0.0007267254275069579,0.0003269772061020859,-0.0002432234141450107
149550000000.0,2,-0.10264620555,-0.02501676415,0.036833777399999997,0.015568,-0.038222,-0.06672,0.32724791049999996,-5.366395013,-8.201497527999999,0.03988,0.57904,-0.46733,-9.999999999998899e-05,0.00019999999999997797,4.999999999988347e-05,-0.000907070311515823,0.0002343595186220515,-0.0004666778220815404
149550000000.0,2,0.0170047311,-0.018387468749999997,0.0996159507,0.016398,-0.064874,-0.061335,0.32626724549999997,-5.368454409499999,-8.2002226635,0.039766,0.57929,-0.46814,-9.999999999998899e-05,0.000300000000000189,5.0000000000105516e-05,-0.0010706223298221351,-0.00017437503717565583,-0.00032057554777897845
149550000000.0,2,-0.02157463,-0.0569962498,0.06946050194999999,0.006679,-0.071203,-0.047464,0.32264859165,-5.370317673,-8.199143932,0.039331,0.57952,-0.46872,-9.999999999998899e-05,9.999999999998899e-05,9.999999999998899e-05,-0.00079679169191893,2.603628239206124e-05,-0.0007005299594378678
149550000000.0,2,-0.059575398749999994,-0.1431967033,0.0821993403,-0.002821,-0.051958,-0.035772,0.31890245134999995,-5.372573202499999,-8.197771001,0.038881,0.57979,-0.46912,9.999999999998899e-05,5.0000000000105516e-05,-9.999999999998899e-05,-0.006185528227475867,0.0015726900721648729,-0.003619591303686165
149550000000.0,2,-0.058614347049999994,-0.11619899585,0.15875985684999996,-0.004734,-0.019986,-0.027291,0.31719609424999995,-5.374632599,-8.1964961365,0.038679,0.58004,-0.46941,-9.999999999998899e-05,4.999999999988347e-05,5.0000000000105516e-05,-0.0015592168932492267,-4.113510581715829e-06,-0.0013485123387442788
149550000000.0,2,-0.05731986925,-0.0689407495,0.20885222504999998,-0.005556,0.013047,-0.022013,0.3179904329,-5.3766919955,-8.1951232055,0.038783,0.58029,-0.46964,-0.000300000000000189,0.00019999999999997797,4.999999999988347e-05,-0.0018257824698593161,-0.0008527535887745685,-0.0013476650982447436
149550000000.0,2,-0.08948568124999999,-0.0687446165,0.22190487619999996,0.004287,0.042799,-0.020979,0.32082455475,-5.379437857499999,-8.193259942,0.039137,0.58063,-0.4698,-9.999999999998899e-05,9.999999999998899e-05,9.999999999998899e-05,-0.00102096540649943,-0.0007942065351236316,-0.0011770913894639246
149550000000.0,2,-0.0722946238,-0.04394359864999999,0.1991926748,0.015046,0.051236,-0.024176,0.32517870735,-5.382477918999999,-8.1910044125,0.039679,0.581,-0.47003,-9.999999999998899e-05,0.00019999999999997797,-9.999999999998899e-05,-0.0018354423085016336,0.0022226322516778474,-0.0010833872048334192
149550000000.0,2,-0.01756371015,-0.021564823349999998,0.134743371,0.030952,0.037254,-0.026259,0.32985647939999996,-5.3860083130000005,-8.18855275,0.040261,0.58144,-0.47034,-9.999999999998899e-05,9.999999999998899e-05,9.999999999998899e-05,-0.00033892335142982066,3.26872756100105e-05,-0.0007438989415358699
149550000000.0,2,0.04006016525,-0.024497011699999998,0.05631959095,0.044656,0.014767,-0.028331,0.3337399128,-5.390127106,-8.185708821499999,0.040748,0.58193,-0.47074,-4.999999999988347e-05,9.999999999998899e-05,5.0000000000105516e-05,-5.735181371535614e-05,8.991007049763411e-05,-0.0005223781746009903
149550000000.0,2,0.07991439084999999,-0.029880862549999995,0.030047575599999998,0.046643,-0.004426,-0.029364,0.3366819078,-5.394638165,-8.182570693499999,0.041122,0.58248,-0.4712,-5.0000000000105516e-05,9.999999999998899e-05,4.999999999988347e-05,-0.00010558181099284969,-6.262472717954992e-05,-0.00033864718714271547
149550000000.0,2,0.09908639159999999,-0.038687234249999994,0.045051750099999996,0.034769,-0.016057,-0.01976,0.33845691145,-5.398560825,-8.179922898,0.041353,0.58296,-0.47161,-9.999999999998899e-05,9.999999999998899e-05,1.999999999990898e-05,0.0011438292015986118,-0.001345232007927688,0.0003126660217078747
149550000000.0,2,0.0810421556,-0.0745501533,0.05887912659999999,0.003782,-0.013682,-0.005944,0.3389962772,-5.401110554,-8.1782557675,0.041427,0.58328,-0.47181,-9.999999999998899e-05,9.999999999998899e-05,2.0000000000131024e-05,0.00011289842500084024,-0.00028004672382131446,0.00012495047345645327
149550000000.0,2,0.0141804159,-0.10299924495,0.0514849125,-0.020743,-0.007095,0.002541,0.33835884494999996,-5.401306687,-8.178157701,0.04135,0.58329,-0.47181,-9.999999999998899e-05,9.999999999998899e-05,1.999999999990898e-05,-0.00010314805654831893,-0.0007980621073326866,0.00018701072435833854
149550000000.0,2,-0.036745517549999995,-0.11145257724999999,0.04903325,-0.036733,-0.005899,0.002512,0.33706436715,-5.400326021999999,-8.1788441665,0.041188,0.58318,-0.47172,-9.999999999998899e-05,9.999999999998899e-05,2.0000000000131024e-05,-0.00011411301335584323,2.6330182402389823e-05,0.00043082915121267495
149550000000.0,2,-0.02605626905,-0.09786056035,0.06577320155,-0.034674,-0.016572,0.001468,0.33534820339999993,-5.3990511575,-8.179726765,0.040975,0.58303,-0.47164,-5.0000000000105516e-05,9.999999999998899e-05,1.999999999990898e-05,0.00015531831521564676,0.0003262597857165428,-2.8996239963219317e-05
149550000000.0,2,-0.005207331149999999,-0.08485694244999999,0.044208378199999995,-0.020835,-0.020949,0.0015,0.33351435984999994,-5.3983646919999995,-8.180315164,0.040747,0.58293,-0.4716,-4.999999999988347e-05,9.999999999998899e-05,5.0000000000105516e-05,-0.0004810166083529799,-0.0001168949998360258,-2.6396556144392402e-05
149550000000.0,2,0.0011179581,-0.044326057999999995,0.03231291175,-0.003722,-0.017889,-0.001678,0.3319747158,-5.3982666255,-8.1804132305,0.04056,0.58293,-0.47161,-1.6666666666775853e-05,9.999999999998899e-05,4.999999999988347e-05,0.00023514489293496865,9.669965687209015e-05,-1.1223133804805219e-05
149550000000.0,2,0.0017946169499999999,-0.01152281375,0.06187996149999999,0.013397,-0.00951,0.002606,0.33084695105,-5.399835689499999,-8.179432565499999,0.040427,0.58312,-0.4716,-1.666666666655381e-05,0.00010000000000021103,-3.333333333332966e-05,0.00043980914235297597,0.0004120610514857237,0.00013283658498347561
149550000000.0,2,-0.02185902285,-0.00363826715,0.1085792288,0.025234,0.007434,0.010069,0.3302683587,-5.4027776845,-8.177471235499999,0.040365,0.58348,-0.47149,-1.666666666655381e-05,5.0000000000105516e-05,-3.333333333332966e-05,0.000356718223465613,0.0002654794570393637,4.4505679186457314e-06
149550000000.0,2,-0.06713632589999999,-0.024712757999999998,0.14913953319999998,0.026462,0.027667,0.011104,0.3303468119,-5.406406145,-8.1751176395,0.040387,0.58392,-0.4713,-1.6666666666775853e-05,4.999999999988347e-05,-3.333333333332966e-05,0.00024159459203076938,0.0003618380918888331,0.00030336110754852763
149550000000.0,2,-0.1038524235,-0.036853390699999995,0.17460740325000002,0.011706,0.04697,0.006778,0.33160206309999996,-5.4096423394999995,-8.17286211,0.040552,0.58432,-0.47108,-1.6666666666775853e-05,4.999999999988347e-05,9.999999999998899e-05,0.0002787208460844903,0.0006500509825249079,-0.00019700905416114578
149550000000.0,2,-0.1011261748,-0.01562199345,0.1963683596,-0.009582,0.049279,0.001402,0.3341125655,-5.411015270499999,-8.171881445,0.040862,0.58448,-0.47093,-1.666666666655381e-05,5.0000000000105516e-05,3.333333333332966e-05,-0.0005422220352213625,-0.00010864815577216191,-6.894767620291287e-05
149550000000.0,2,-0.0808656359,0.0033440676499999996,0.1428828905,-0.027813,0.031321,-0.008203,0.3361523487,-5.4100346055,-8.172469844,0.041109,0.58437,-0.4709,9.999999999998899e-05,-1.0000000000065512e-05,3.333333333332966e-05,-0.00014330488482761083,0.0006285882642023122,-0.00023754909418127745
149550000000.0,2,-0.056907989949999994,0.00420705285,0.05055328075,-0.031224,-0.001675,-0.018823,0.33658384129999996,-5.407779076,-8.173940841499999,0.041154,0.58409,-0.47101,-1.6666666666775853e-05,-9.999999999843467e-06,3.333333333332966e-05,9.90665735465246e-05,0.00013112101701562295,0.0001983366858402391
149550000000.0,2,0.00656064885,0.014396162199999998,0.020829324599999997,-0.029305,-0.032587,-0.02517,0.33581892259999996,-5.405229347,-8.175607972,0.041052,0.58378,-0.47129,-1.666666666655381e-05,-1.0000000000065512e-05,-1.999999999990898e-05,-8.771788796280156e-05,-0.0006557335044843349,0.00017229091108389438
149550000000.0,2,0.0490724766,0.01927006725,0.0253992235,-0.03153,-0.043224,-0.024089,0.3344459916,-5.402483484999999,-8.177471235499999,0.040876,0.58344,-0.47162,-1.666666666655381e-05,-1.0000000000065512e-05,-2.0000000000131024e-05,9.093553011885191e-05,4.770693928701775e-05,0.00035627580584618457
149550000000.0,2,0.01834824215,0.02362421985,0.033215123549999996,-0.02933,-0.033653,-0.021967,0.33300441405,-5.399835689499999,-8.179334499,0.04069,0.58312,-0.47189,-1.6666666666775853e-05,-1.0000000000065512e-05,-1.999999999990898e-05,-0.0003909098693586355,-5.248205177821319e-05,0.0002314130703089945
149550000000.0,2,-0.027448813349999997,0.024212618849999996,0.0959874902,-0.030238,-0.011273,-0.017738,0.33225910864999997,-5.397678226499999,-8.18070743,0.040593,0.58286,-0.47208,-1.6666666666775853e-05,-9.999999999843467e-06,-2.0000000000131024e-05,0.0007758564745550256,-0.00013629814457361,0.0003208320048005975
149550000000.0,2,-0.0739813676,0.0182207557,0.15824991104999997,-0.021582,0.006763,-0.012416,0.33210220225,-5.396795628,-8.1813938955,0.04057,0.58275,-0.47215,-1.666666666655381e-05,-1.0000000000065512e-05,-1.999999999990898e-05,0.000716008303337845,-0.00041982980291410676,7.836301359204212e-05
149550000000.0,2,-0.1148162582,-0.000392266,0.1844238599,-0.033277,0.015373,-0.006044,0.3317981961,-5.3957168965,-8.182080360999999,0.040529,0.58261,-0.47211,3.333333333332966e-05,-1.0000000000065512e-05,-1.999999999990898e-05,-0.00028795895023348006,0.00039740561609247216,-0.00029436850036929085
149550000000.0,2,-0.12867305465,-0.0016573238499999997,0.15582766850000002,-0.040721,0.020754,-0.001794,0.3315824498,-5.3936575,-8.183453292,0.040497,0.58237,-0.47198,3.333333333332966e-05,-9.999999999843467e-06,-2.0000000000131024e-05,-0.00023477743802335915,-0.00033857388550617706,-0.0004470404019790708
149550000000.0,2,-0.14253965775,0.0014611908499999999,0.11016790609999999,-0.043955,0.012257,-0.008185,0.33078811114999995,-5.3908135715,-8.1853165555,0.04039,0.58202,-0.47188,3.333333333332966e-05,-1.0000000000065512e-05,-1.999999999990898e-05,0.0008109803036895347,0.00048787177689946226,-0.0006075006894905588
149550000000.0,2,-0.116503002,0.020309572149999996,0.07865913965,-0.039751,-0.003752,-0.020955,0.32988589935,-5.38777351,-8.187375951999998,0.04027,0.58165,-0.47194,3.333333333332966e-05,-4.999999999988347e-05,-2.0000000000131024e-05,-0.0006020621306789264,-0.000299221037747488,-0.0001728313399370074
149550000000.0,2,-0.08388608410000001,0.0712551189,0.04886653694999999,-0.035632,-0.031479,-0.035841,0.3283854819,-5.3842431159999995,-8.189729547999999,0.040076,0.58122,-0.47223,3.333333333332966e-05,-5.0000000000105516e-05,-1.999999999990898e-05,0.0003535057915194928,0.00036094778892392654,-0.000321884291697383
149550000000.0,2,-0.06438065724999999,0.0910449386,0.01599464615,-0.02723,-0.057109,-0.050723,0.32564942655,-5.380712721999999,-8.1921812105,0.03973,0.58079,-0.47271,3.333333333332966e-05,-0.00020000000000020002,-9.999999999998899e-05,0.0011802016400566107,0.0002900167955381949,-0.0005454036202890422
149550000000.0,2,-0.05290687674999999,0.1095206672,0.012944777999999999,-0.019799,-0.069945,-0.064562,0.32256033179999993,-5.377378461,-8.194534806499998,0.039342,0.58037,-0.47337,-0.00019999999999997797,9.999999999998899e-05,-4.999999999988347e-05,-0.00045580450207483025,-0.0008667611563730748,0.0008358228432577275
149550000000.0,2,-0.05204389155,0.11646377539999998,0.050935740099999995,-0.017791,-0.091265,-0.074126,0.31854941194999997,-5.374436466,-8.196594203,0.038844,0.58002,-0.47416,5.0000000000105516e-05,-9.999999999998899e-05,-5.0000000000105516e-05,0.0007136906407819721,-0.0005901963693497603,0.00010563000422397772
149550000000.0,2,-0.07355968165,0.13165427624999998,0.07753137489999999,-0.01247,-0.096632,-0.080509,0.31388144655,-5.372279002999999,-8.198163266999998,0.038268,0.57975,-0.47502,4.999999999988347e-05,-0.00019999999999997797,-0.00019999999999997797,0.00036975330406785467,0.0011667334139118246,-0.0011165123291436707
149550000000.0,2,-0.07967903125,0.1518461686,0.12552512,-0.009237,-0.095591,-0.08584,0.30922328779999997,-5.370317673,-8.1996342645,0.037694,0.57952,-0.47593,-4.999999999988347e-05,-9.999999999998899e-05,-9.999999999998899e-05,0.001110967774893168,0.00043191372237250114,-0.00039922881690473977
149550000000.0,2,-0.14224545824999998,0.0551329863,0.0708236263,-0.004907,-0.092427,-0.093307,0.30399634335,-5.369337008,-8.200516862999999,0.037054,0.5794,-0.47685,-5.0000000000105516e-05,-9.999999999998899e-05,-0.00010000000000021103,-0.00024361676418505063,0.0007641607737418621,-0.0010928242007622324
149550000000.0,2,-0.1320563489,0.009237864299999999,0.0526813238,-0.000543,-0.081809,-0.095449,0.29995600354999996,-5.369435074499999,-8.2006149295,0.036561,0.57941,-0.47785,-0.0004999999999999449,0.0004999999999999449,0.00020000000000020002,0.007295196818071448,-0.0026957973312919936,0.0037535572480989488
149550000000.0,2,-0.11588518304999999,0.032038325549999996,0.03773598919999999,0.013426,-0.062758,-0.084781,0.29724936814999997,-5.369729274,-8.200516862999999,0.036232,0.57945,-0.47877,-4.999999999988347e-05,-5.0000000000105516e-05,-5.0000000000105516e-05,0.0011577610099897662,0.001417126179498407,-0.0012688953698856698
149550000000.0,2,-0.11187426319999999,0.00475622525,0.0600559246,0.028478,-0.035203,-0.063453,0.29548417115,-5.372082869999999,-8.198947798999999,0.036023,0.57974,-0.47947,-5.0000000000105516e-05,-4.999999999988347e-05,-4.999999999988347e-05,0.0006282956438137255,0.0008769637669858721,-0.0010045736606144606
149550000000.0,2,-0.11505161779999999,-0.03552949295,0.12382856954999999,0.02861,-0.008586,-0.046419,0.2952193916,-5.37600553,-8.1964961365,0.036002,0.58021,-0.47996,-9.999999999998899e-05,-0.0001500000000000945,-0.00010000000000021103,0.00023135510570160278,0.000187646252093554,-0.0012799359758776663
149550000000.0,2,-0.16526166579999998,-0.025252123749999997,0.1490218534,0.034091,-9.7e-05,-0.061364,0.29559204429999997,-5.379928189999999,-8.193848340999999,0.03606,0.58069,-0.48047,-4.999999999988347e-05,-0.00014999999999987246,-0.00029999999999996696,-0.007665996467083325,0.0025089781634519692,-0.005016954438446575
149550000000.0,2,-0.16366318184999998,-0.00030400615,0.04629719465,0.039644,0.003089,-0.099782,0.2978868004,-5.3833605175,-8.191494745,0.036349,0.58111,-0.48138,-5.0000000000105516e-05,-5.0000000000105516e-05,-9.999999999998899e-05,0.0002448623591795318,-0.0002806890597062406,-0.0009368291381566807
149550000000.0,2,-0.13116394374999998,0.10566665374999999,0.04541459614999999,0.017394,0.002237,-0.13291,0.30279993205,-5.3839489165,-8.190906346,0.036951,0.58118,-0.48276,-9.999999999998899e-05,-4.999999999988347e-05,-9.999999999998899e-05,-0.0004393392876067548,0.0006929347470245872,-0.0010573541543789644
149550000000.0,2,-0.0672343924,0.20315456139999996,-0.0012356379,0.00865,-0.043479,-0.16593,0.3078503568,-5.3817914535,-8.1921812105,0.037561,0.58092,-0.48459,-0.00010000000000021103,-9.999999999998899e-05,-9.999999999998899e-05,1.5756150462120644e-07,-0.00012087399672555676,-0.00123273205573593
149550000000.0,2,-0.01344491715,0.20373315374999998,-0.13533177,-0.008779,-0.081706,-0.15735,0.31032163259999995,-5.3775745939999995,-8.194829006,0.03785,0.58041,-0.4865,-0.00019999999999997797,-9.999999999998899e-05,-9.999999999998899e-05,-0.0007616629590302404,-0.0006357648423045426,-0.0005812358962785091
149550000000.0,2,0.01258193195,0.12802581575,-0.06959779505,-0.043022,-0.083571,-0.14139,0.3113807508,-5.372279002999999,-8.1983594,0.037963,0.57975,-0.48822,-9.999999999998899e-05,-9.999999999998899e-05,-5.0000000000105516e-05,-0.0005298624709808575,6.823714738946052e-05,-0.0006220321741058354
149550000000.0,2,-0.0838664708,-0.019005287699999998,-0.07431479369999999,-0.070631,-0.060979,-0.13187,0.31176321014999997,-5.366100813499999,-8.20228206,0.037991,0.57901,-0.48971,-0.00029999999999996696,-9.999999999998899e-05,-4.999999999988347e-05,-0.0007398112662972967,-0.0016073884063487753,-0.0007224042552466114
149550000000.0,2,-0.06374322499999999,-0.0108461549,0.019221033999999998,-0.093043,-0.051224,-0.11485,0.31289097489999995,-5.358745826,-8.2070873185,0.038105,0.57811,-0.49103,-0.00019999999999997797,3.333333333332966e-05,-9.999999999998899e-05,0.0007599855120717924,-0.0007763736151100709,-0.00010637813138597574
149550000000.0,2,-0.029733762799999997,-0.01979962635,0.08311135874999999,-0.10064,-0.058637,-0.099905,0.31344014729999997,-5.350704372999999,-8.212284843,0.038149,0.57713,-0.49219,-0.00029999999999996696,3.333333333332966e-05,-0.00019999999999997797,-0.00011143832338111892,-0.00019236864513838547,-0.001153768624202578
149550000000.0,2,-0.02393803265,-0.00405014645,0.0757269513,-0.11046,-0.082006,-0.094543,0.31184166334999996,-5.341878388,-8.2180707665,0.037928,0.57606,-0.49324,-0.00019999999999997797,3.333333333332966e-05,-9.999999999998899e-05,0.0013652648737935147,0.0002000104432784422,-0.0015563833663234106
149550000000.0,2,-0.01011065615,-0.012385798949999999,0.0722750105,-0.12117,-0.096821,-0.10948,0.3095371006,-5.3323659375,-8.2243470225,0.037618,0.5749,-0.49443,-0.00019999999999997797,-9.999999999998899e-05,4.999999999988347e-05,-0.00010012543975890242,0.00040787213637383246,-0.002228202718545458
149550000000.0,2,0.0048248718,0.0016573238499999997,0.043365006299999995,-0.12432,-0.10529,-0.13402,0.3079091967,-5.3218728220000004,-8.2312116775,0.037391,0.57362,-0.49592,-0.000500000000000167,0.00019999999999997797,5.0000000000105516e-05,0.007041084123193042,-0.0012384896728125927,0.0004834433398017146
149550000000.0,2,0.0216334699,0.0419920753,0.032469818149999996,-0.12531,-0.10527,-0.1479,0.3074188642,-5.310693241,-8.238468598499999,0.037298,0.57227,-0.49762,-0.00019999999999997797,-9.999999999998899e-05,-0.00019999999999997797,0.0007044937786535588,9.432217885962935e-05,-0.0012412591446826493
149550000000.0,2,-0.052328284399999994,-0.05686876335,0.09038789304999999,-0.13159,-0.095621,-0.15646,0.30671278539999997,-5.300788524499999,-8.244842921,0.037183,0.57106,-0.49935,-0.00019999999999997797,-9.999999999998899e-05,-0.00019999999999997797,0.0001744631060753843,0.0006156054500645602,-0.0005168621767630555
149550000000.0,2,-0.039697319200000004,-0.07903179234999999,0.1082261894,-0.13569,-0.078533,-0.16291,0.30784055015,-5.290883807999999,-8.2512172435,0.037292,0.56986,-0.50117,-0.00019999999999997797,-9.999999999998899e-05,-0.00019999999999997797,0.0007238469861505781,-0.00036802006072900184,-0.0009366698250016237
149550000000.0,2,0.039285439899999997,-0.03956983275,0.15187558855,-0.14313,-0.064635,-0.14587,0.31131210425,-5.279704226999999,-8.258179964999998,0.03768,0.56852,-0.50298,-0.00019999999999997797,-3.333333333332966e-05,-9.999999999998899e-05,-8.970316672540779e-05,3.8714555923968774e-05,-0.0025509154207158935
149550000000.0,2,0.08619064685,-0.06077181005,0.1313110435,-0.1328,-0.08181,-0.10419,0.31258696874999997,-5.269897576999999,-8.264456221,0.037806,0.56733,-0.5044,-0.00019999999999997797,-3.333333333332966e-05,-0.000400000000000178,0.0028917489899907833,0.0010343735784097419,-0.0007009411863191373
149550000000.0,2,0.013827376499999999,-0.1835216481,0.017298930599999998,-0.10624,-0.076735,-0.071066,0.31013530624999996,-5.2625425895,-8.269261479499999,0.037488,0.56644,-0.50529,-0.00019999999999997797,-3.333333333332966e-05,-0.00029999999999996696,0.0013300453722833172,0.0009302814987905972,-0.001197443362600803
149550000000.0,2,0.032469818149999996,-0.1007339088,0.0553683459,-0.081484,-0.042852,-0.059342,0.3095959405,-5.256560533,-8.272988006499999,0.037405,0.56572,-0.50602,-0.00019999999999997797,-9.999999999998899e-05,-9.999999999998899e-05,0.00176550035869516,0.0008020265690513728,-0.0021372471030554063
149550000000.0,2,0.06002650464999999,-0.040697597499999995,0.1301538588,-0.047097,-0.010104,-0.055072,0.31227315595,-5.253226272,-8.275047403,0.037719,0.56531,-0.50673,-0.00019999999999997797,-0.00019999999999997797,-9.999999999998899e-05,0.0012230038793488163,0.0005427933043091748,-0.003155312373799013
149550000000.0,2,0.0155729602,-0.026615248099999995,0.16236870404999998,-0.010697,0.00558,-0.05397,0.3158721965,-5.252932072499999,-8.2751454695,0.038153,0.56527,-0.5074,-0.00019999999999997797,-9.999999999998899e-05,-0.00019999999999997797,0.001193671361782389,9.147607063164642e-05,-0.0021485633819524064
149550000000.0,2,0.0149845612,0.011503200449999999,0.1515519691,0.015917,-0.004226,-0.05711,0.31915742424999993,-5.2546972695,-8.273870604999999,0.038555,0.56549,-0.50808,-0.00020000000000020002,-0.00019999999999997797,-9.999999999998899e-05,0.0010066407573388059,0.00048681111416692957,-0.0016236710082456751
149550000000.0,2,0.02505599075,0.0418743955,0.09221192995,0.031903,-0.013934,-0.068807,0.32225632565,-5.257246998499999,-8.272105408,0.038937,0.56579,-0.5089,-9.999999999998899e-05,-9.999999999998899e-05,-0.00019999999999997797,0.0006700569991981986,0.0003499042440395783,-0.00060284709097147
149550000000.0,2,0.024712757999999998,0.0631352127,0.009983169699999999,0.014768,-0.016997,-0.06136,0.32468837484999996,-5.258129597,-8.271517009,0.039234,0.5659,-0.5097,-0.00019999999999997797,-5.0000000000105516e-05,-0.00019999999999997797,0.0015429097061976371,0.00059201889546312,-0.0006226745166572623
149550000000.0,2,0.0125328987,0.029527823149999997,-0.005668243699999999,-0.015161,-0.015697,-0.048606,0.32624763219999997,-5.256952799,-8.272105408,0.039419,0.56576,-0.51033,-9.999999999998899e-05,-4.999999999988347e-05,-0.00019999999999997797,0.00032515263408150474,-6.174619150733918e-05,-0.00031014111294624946
149550000000.0,2,-0.1089714948,-0.05184775855,-0.028066632299999998,-0.048169,0.000542,-0.03588,0.32594362605,-5.253814671,-8.2741648045,0.039373,0.56539,-0.51065,-0.00019999999999997797,-0.00010000000000021103,-0.00019999999999997797,0.00010217148879010374,-0.0009300717452012108,-0.00047532484779039264
149550000000.0,2,-0.142784824,-0.07483454614999999,0.0361473119,-0.092733,0.034996,-0.02961,0.32743423685,-5.248126813999999,-8.2776951985,0.039536,0.56469,-0.51082,-9.999999999998899e-05,-9.999999999998899e-05,-9.999999999998899e-05,5.4791275521770544e-05,0.0001809301251278761,-0.0002825040001058765
149550000000.0,2,-0.14242197794999997,-0.07032348715,0.1095991204,-0.11497,0.056485,-0.028616,0.33096463085,-5.2402814939999995,-8.282500457,0.039938,0.56376,-0.51096,-9.999999999998899e-05,-5.0000000000105516e-05,-0.00010000000000021103,0.0006261260652234979,0.0003026243001467144,-0.0006017442869292178
149550000000.0,2,-0.18119747205,-0.10246968584999999,0.03788308895,-0.10008,0.040389,-0.044568,0.33382817265,-5.23282844,-8.2871095825,0.040261,0.56285,-0.51117,-9.999999999998899e-05,-4.999999999988347e-05,-9.999999999998899e-05,-0.0002345566121323417,-0.00013303726311009179,-0.0008112034344033292
149550000000.0,2,-0.1140905661,0.01615155255,0.0027850886,-0.066198,-0.000374,-0.057243,0.33571104944999997,-5.2262579845,-8.2912283755,0.040467,0.56206,-0.51166,-9.999999999998899e-05,-9.999999999998899e-05,-9.999999999998899e-05,-6.344992844375952e-05,-7.641458705442972e-05,-0.0005268985355754152
149550000000.0,2,-0.0537796686,0.04347287945,-0.045365562899999996,-0.029315,-0.068859,-0.075203,0.33435773175,-5.2219430585,-8.293974237499999,0.040291,0.56154,-0.51241,-0.00019999999999997797,-9.999999999998899e-05,-0.00019999999999997797,0.0014051294731706188,0.00039019996789346756,0.0002124953387113715
149550000000.0,2,-0.004834678449999999,0.0204174453,-0.12063160164999999,-0.020476,-0.16058,-0.069688,0.326561445,-5.218706864,-8.2963278335,0.039342,0.56115,-0.51324,-9.999999999998899e-05,-0.0001500000000000945,-0.00019999999999997797,0.0016993347858901275,2.3279076959870082e-05,0.0005560823351810074
149550000000.0,2,0.33481864429999997,-0.1247602013,-0.2166877384,-0.062359,-0.19326,-0.067576,0.31940259049999997,-5.213901605499999,-8.2996620945,0.038465,0.56057,-0.51434,-5.0000000000105516e-05,-0.00014999999999987246,-9.999999999998899e-05,0.001624312783558013,6.751956785255864e-05,-5.6727952257973335e-05
149550000000.0,2,0.30487894185,-0.0906330593,-0.29303250865,-0.092061,-0.17063,-0.066607,0.31283213499999996,-5.2054678865,-8.3051538185,0.037649,0.55956,-0.51539,-4.999999999988347e-05,-0.00019999999999997797,-0.00019999999999997797,0.0013974659107922616,-0.0005896259102964319,0.00026358488361133414
149550000000.0,2,0.24374428574999998,-0.008953471449999998,-0.1515911957,-0.11554,-0.15979,-0.049594,0.3060263199,-5.1948767045,-8.312018473499998,0.036801,0.55828,-0.51623,-0.00019999999999997797,-9.999999999998899e-05,-0.00019999999999997797,0.0005924553008551658,-0.00038230518553739046,-0.0003551051708288733
149550000000.0,2,0.17570574804999997,-0.04594415524999999,-0.0646846634,-0.10383,-0.15776,-0.039975,0.2977495073,-5.185560387,-8.318196662999998,0.035779,0.55716,-0.51685,-0.00019999999999997797,-9.999999999998899e-05,-9.999999999998899e-05,0.0005635902545011451,0.00010269054818867751,-0.0009994573072354962
149550000000.0,2,0.05277939029999999,-0.03398004225,-0.01126784085,-0.088704,-0.1355,-0.042124,0.2886881627,-5.1779112,-8.323296121,0.034671,0.55624,-0.51735,-9.999999999998899e-05,-9.999999999998899e-05,-9.999999999998899e-05,-0.0004374143714693801,0.0009406066880082165,-0.0015357624891717547
149550000000.0,2,-0.00045110589999999997,0.021290237150000002,0.10120462799999999,-0.064725,-0.069635,-0.037929,0.28326508525,-5.172223343,-8.3269245815,0.034005,0.55557,-0.51777,-0.00010000000000021103,-4.999999999988347e-05,-9.999999999998899e-05,0.0005292623192987289,0.0016512343767636217,-0.0017569808047293023
149550000000.0,2,-0.16789965465,0.06938204875,0.23019149545,-0.034003,0.031345,-0.045521,0.2831179855,-5.169673614,-8.328591712,0.033981,0.55525,-0.51808,-9.999999999998899e-05,-5.0000000000105516e-05,-9.999999999998899e-05,0.0005128041292632446,0.001806445926354705,-0.0014902589480149109
149550000000.0,2,-0.3508034838,0.16897838615,0.37712453239999993,-0.002252,0.12911,-0.050967,0.28869796934999997,-5.1695755475,-8.328395579,0.034651,0.55524,-0.5183,-9.999999999998899e-05,-0.00019999999999997797,-2.4999999999941735e-05,0.0005625501947514877,0.0009054752916768383,-0.001179175243869679
149550000000.0,2,-0.36898501289999996,0.3333476468,0.4910778054,0.042031,0.19907,-0.046744,0.3064381992,-5.1720272099999995,-8.326238115999999,0.036787,0.55554,-0.51888,-5.0000000000105516e-05,-9.999999999998899e-05,-2.500000000016378e-05,0.0011876627758281577,0.0011938932798443158,-0.0013920818480609998
149550000000.0,2,-0.46482540334999994,0.34958745919999995,0.4867824927,0.088052,0.2083,-0.060557,0.32670854474999994,-5.1779112,-8.321825123499998,0.039239,0.55625,-0.51956,-4.999999999988347e-05,-9.999999999998899e-05,-2.4999999999941735e-05,0.0011992381424786869,0.001679276551511233,-0.0017738479793515949
149550000000.0,2,-0.43030599534999997,0.3916579877,0.34522349994999996,0.16369,0.17042,-0.097718,0.34636107135,-5.18967918,-8.313685604,0.041637,0.55765,-0.52065,-4.999999999988347e-05,-0.00019999999999997797,-2.4999999999941735e-05,0.0002539801336963743,0.0001768405099511483,-0.0006994730985863951
149550000000.0,2,-0.2562281512,0.45788229515,0.1881307736,0.22942,0.097446,-0.13376,0.35858015725,-5.202918157499999,-8.3049576855,0.043151,0.55925,-0.52196,-5.0000000000105516e-05,-0.00010000000000021103,-9.999999999998899e-05,0.0008268140638426624,-0.001137753752799897,-0.0003138133942530985
149550000000.0,2,-0.12746683669999997,0.4878612242,0.058378987449999996,0.2856,0.033077,-0.16237,0.37063253009999997,-5.22498312,-8.29054191,0.044676,0.5619,-0.52394,-9.999999999998899e-05,-9.999999999998899e-05,-9.999999999998899e-05,0.001113984566869175,-0.0006957646426726249,0.00021324218795013006
149550000000.0,2,-0.18588505074999997,0.40600511665,-0.19058243609999997,0.31125,0.02862,-0.17833,0.38191017759999996,-5.249597811499999,-8.274459003999999,0.046122,0.56488,-0.52619,-9.999999999998899e-05,2.4999999999941735e-05,-9.999999999998899e-05,0.000921748714944659,-0.0016414037304719464,0.0005075349207148416
149550000000.0,2,-0.18663035614999998,0.3267968046,-0.2008598053,0.30525,0.089391,-0.16137,0.3964240196,-5.274604769,-8.2578857655,0.047969,0.56789,-0.52836,-0.00019999999999997797,2.4999999999941735e-05,-0.00020000000000020002,0.00032920206417952347,-0.001446716464457598,0.0007610930084809286
149550000000.0,2,-0.24113571685,0.15550404904999998,-0.027389973449999997,0.22714,0.2402,-0.090247,0.41411521619999997,-5.293041271,-8.245137120499999,0.050183,0.57012,-0.52955,-0.00029999999999996696,2.500000000016378e-05,-0.00019999999999997797,-0.001920371834485235,-0.002562296683670917,0.00013559023170758855
149550000000.0,2,-0.3396239028,-0.0736283282,0.28946288805,0.092409,0.40636,0.021304,0.4448198373499999,-5.303436319999999,-8.2368995345,0.053951,0.57139,-0.52972,-0.00029999999999996696,2.4999999999941735e-05,-9.999999999998899e-05,-0.0010672156982455272,-0.0005283557974047337,-0.00029650320279173137
149550000000.0,2,-0.34339946304999996,-0.09105474525,0.5012963346999999,0.006371,0.52417,0.13303,0.48031991035,-5.305789915999999,-8.2333691405,0.058272,0.57167,-0.52847,-0.00029999999999996696,0.00010000000000021103,-9.999999999998899e-05,-0.00367212882006529,-0.0025357110001640315,-0.00077551929998676
149550000000.0,2,-0.51481970505,-0.2895119213,0.48280099279999994,-0.037275,0.58838,0.21609,0.51721252765,-5.3045150515,-8.231898143,0.062748,0.57152,-0.52609,-0.000400000000000178,9.999999999998899e-05,-0.00019999999999997797,-0.0035645374067759805,-0.0019264781829972932,-0.0014882625658051707
149550000000.0,2,-0.5752384757,-0.5287549547,0.4819968475,-0.095724,0.62719,0.23621,0.5487605206999999,-5.3072609134999995,-8.228171616,0.066594,0.57185,-0.52282,-0.0004999999999999449,0.00039999999999995595,0.0005999999999999339,0.00013051104216710296,0.008134473272459752,-0.005384775383545176
149550000000.0,2,-0.3225407185,-0.28622669355,0.16142726564999998,-0.15854,0.6405,0.23074,0.5888991391499999,-5.296767798,-8.232094276,0.071414,0.57058,-0.51993,-0.00019999999999997797,-0.00029999999999996696,-0.0006999999999999229,-0.006135913814427796,-0.01199347017660446,0.004834562596476938
