Time,placement_label,user_acc_x(m/s^2),user_acc_y(m/s^2),user_acc_z(m/s^2),rotation_rate_x(rad/s),rotation_rate_y(rad/s),rotation_rate_z(rad/s),gravity_x(m/s^2),gravity_y(m/s^2),gravity_z(m/s^2),attitude_roll(rad),attitude_pitch(rad),attitude_yaw(rad),target_delta_x,target_delta_y,target_delta_z,target_delta_roll,target_delta_pitch,target_delta_yaw
149570000000.0,2,-0.36130640594999996,-0.5311085507,-0.0250657974,-0.18295,0.17861,-0.033551,0.08775971084999999,-4.653255424999999,-8.6319113965,0.010167,0.49439,3.0708,0.0,0.0,0.0,0.0,0.0,0.0
149570000000.0,2,-0.28807034374999996,-0.4413580899,0.031528379749999995,-0.13199,0.13133,-0.057929,0.1028129186,-4.6406048465,-8.6385799185,0.011901,0.49293,3.0703,-9.999999999998899e-05,-9.999999999998899e-05,-0.00021999999999988695,0.0019333348598423727,-0.0012309213497847526,0.00014098994172265233
149570000000.0,2,-0.22588637609999998,-0.3877941676,0.03541181315,-0.065202,0.063671,-0.08011,0.1132079676,-4.6334459919999995,-8.6423064455,0.013099,0.4921,3.0694,-3.333333333332966e-05,-4.999999999988347e-05,-0.000220000000000109,0.0006100741820921352,-0.00023737578487592614,-0.0005515821655518727
149570000000.0,2,-0.1800108674,-0.34390940885,0.0023928226,0.001622,0.001317,-0.095889,0.11237440235,-4.641977777499999,-8.63769732,0.013009,0.49309,3.0687,-3.333333333332966e-05,-5.0000000000105516e-05,-0.00021999999999988695,0.00011484207416045944,-0.00023203396163018475,-0.000951645403036494
149570000000.0,2,-0.14608966504999998,-0.29552339774999997,-0.02625240205,0.064265,-0.042878,-0.10531,0.1143651523,-4.6462927034999995,-8.635343724,0.013243,0.49359,3.0676,-3.333333333332966e-05,-9.999999999998899e-05,-0.000220000000000109,-0.0005864209792825203,0.00017268314651808225,-0.0007334155359098038
149570000000.0,2,-0.10807908964999999,-0.26400482464999997,0.01448442205,0.097088,-0.072988,-0.10307,0.1134629405,-4.6539418905,-8.631224931,0.013145,0.49448,3.0664,0.0016000000000000458,-0.0013000000000000789,-0.00021999999999988695,-0.004412079426796556,-0.00031441739408655245,-0.0013608235992895457
149570000000.0,2,-0.09354563435,-0.27592971104999997,0.04392398535,0.10232,-0.079434,-0.093437,0.11120741099999999,-4.662669809,-8.626517738999999,0.01289,0.49549,3.0652,-0.0017000000000000348,0.0012000000000000899,0.0011999999999998678,0.002339668074443524,0.0013366731182102853,-0.0006885892934141435
149570000000.0,2,-0.0611346561,-0.2953370714,0.014896301349999998,0.088552,-0.063356,-0.082816,0.10692190495,-4.6796353134999995,-8.6173975545,0.012407,0.49746,3.0644,-5.0000000000105516e-05,-6.666666666665932e-05,9.999999999998899e-05,-0.0010316108610137764,0.00046029841250549985,-0.0008546544964683767
149570000000.0,2,-0.03413694865,-0.2992597314,0.04054069109999999,0.063052,-0.040783,-0.067957,0.10625505274999998,-4.68561737,-8.614161359999999,0.012335,0.49815,3.0635,-4.999999999988347e-05,-6.666666666665932e-05,9.999999999998899e-05,-0.0005242439413096767,0.0005180042007746355,-0.0005092140450491944
149570000000.0,2,-0.0063939358,-0.2982986797,0.09587961704999999,0.031109,-0.021358,-0.0499,0.106500219,-4.688951631,-8.6122980965,0.012365,0.49854,3.0629,2.4999999999941735e-05,-6.666666666665932e-05,9.999999999998899e-05,-0.0006581440602666522,0.0004265382083130653,-0.0007306832673599772
149570000000.0,2,0.052220411249999994,-0.2772143822,0.12083754129999999,0.000235,0.002314,-0.025445,0.10758875714999999,-4.68954003,-8.612003897,0.012492,0.49861,3.0625,2.4999999999941735e-05,-9.999999999998899e-05,9.999999999998899e-05,6.652489913749893e-05,0.00042160031518490015,-0.00047205524683097133
149570000000.0,2,0.11327661415,-0.26752541199999996,0.13670470099999998,-0.022095,0.022725,-0.003117,0.1138748198,-4.697875682499999,-8.6073947715,0.013229,0.49957,3.0622,2.500000000016378e-05,-9.999999999998899e-05,3.333333333332966e-05,-0.00045461545450997676,-0.0005675403499014742,0.00018876949777493768
149570000000.0,2,0.14326534985,-0.2336336296,0.18067771959999998,-0.035942,0.035609,0.012847,0.11620880249999999,-4.695129820499999,-8.608865769,0.013498,0.49925,3.0623,2.4999999999941735e-05,-0.00010000000000021103,3.333333333332966e-05,0.0005901320951728906,-0.00024183257394549962,0.00038883369745998375
149570000000.0,2,0.18493380569999998,-0.1668307298,0.196917532,-0.033888,0.035576,0.028862,0.11822897240000001,-4.6921878255,-8.610434833,0.01373,0.49891,3.0626,6.666666666665932e-05,-0.00019999999999997797,3.333333333332966e-05,-0.0003173248416165064,-0.0007036044455825952,0.00014954488254259601
149570000000.0,2,0.2327118045,-0.119837263,0.20163453064999998,-0.015979,0.016232,0.043871,0.1181897458,-4.6904226284999995,-8.611415498,0.013723,0.49871,3.0631,6.666666666665932e-05,-9.999999999998899e-05,9.999999999998899e-05,-0.000372724294555149,-7.35434601693008e-05,0.00017999850999847467
149570000000.0,2,0.23503598054999997,-0.05059250735,0.1735188651,0.012562,-0.011706,0.054626,0.1240933491,-4.695129820499999,-8.6087677025,0.014414,0.49926,3.0632,6.666666666665932e-05,-9.999999999998899e-05,9.999999999998899e-05,0.00024753290641776893,0.0005033271520475946,2.3614005468491905e-05
149570000000.0,2,0.24203792865,-0.01642613875,0.13271339445,0.047571,-0.033312,0.060061,0.11903311769999998,-4.698464081499999,-8.607002505499999,0.013829,0.49965,3.0638,9.999999999998899e-05,-9.999999999998899e-05,0.000400000000000178,0.00011266529718811924,0.002529254166474093,-0.00013306284259234635
149570000000.0,2,0.24197908875,0.013297817399999998,0.14454021435,0.069819,-0.048421,0.067598,0.11206058954999999,-4.7041519385,-8.603962444,0.013024,0.5003,3.0646,9.999999999998899e-05,-9.999999999998899e-05,4.999999999988347e-05,-0.00035353533870730036,0.0005204348282008553,0.0003060565114527125
149570000000.0,2,0.22787712605,0.015102240999999999,0.15495487665,0.077179,-0.055951,0.077231,0.1038720368,-4.710722394,-8.6005301165,0.012077,0.50107,3.0654,0.00019999999999997797,-9.999999999998899e-05,5.0000000000105516e-05,-0.0008527615821640744,5.598330107736693e-05,0.0004883473515236991
149570000000.0,2,0.18934679819999997,-0.0186718616,0.1553765626,0.074955,-0.060198,0.09003,0.10154786075,-4.7206271105,-8.5950383925,0.011814,0.50222,3.066,0.00039999999999995595,-9.999999999998899e-05,-2.4999999999941735e-05,-0.00107321667062521,0.0005253959368596295,0.0009268492940249229
149570000000.0,2,0.18367855449999998,-0.05707470299999999,0.20328204785,0.055651,-0.067499,0.10067,0.09779191379999999,-4.7310221595,-8.589448602,0.011385,0.50343,3.0668,0.00019999999999997797,-9.999999999998899e-05,-2.500000000016378e-05,0.00021996348263164656,0.00014070106696739693,0.0006628976753564331
149570000000.0,2,0.1763431803,-0.08801468375,0.22972077625,0.028839,-0.080068,0.11131,0.09195695705,-4.740142344,-8.584447210499999,0.010712,0.5045,3.0677,0.00029999999999996696,-0.00019999999999997797,-2.4999999999941735e-05,-6.111831447153104e-05,-0.0004726609872007792,8.304130252778652e-05
149570000000.0,2,0.18645383644999997,-0.11844471869999999,0.23038762845,0.007384,-0.092676,0.11768,0.08483732915,-4.747791531,-8.580328417499999,0.009888,0.50538,3.0687,0.000300000000000189,-9.999999999998899e-05,-2.4999999999941735e-05,0.0005077440484041462,0.002170087281282651,0.0008156622542470349
149570000000.0,2,0.17304814589999998,-0.1201510758,0.23852714795,-0.002199,-0.098972,0.10699,0.07655070989999999,-4.75426392,-8.576798023499999,0.008925,0.50614,3.0696,0.00029999999999996696,-9.999999999998899e-05,-4.999999999988347e-05,-0.00018055553936091595,0.0011997505380487716,0.0005361920177646418
149570000000.0,2,0.12292635774999998,-0.0913587514,0.23833101495,-0.001956,-0.085091,0.083478,0.0683131239,-4.7598537105,-8.573757961999998,0.007967,0.50679,3.0704,0.00029999999999996696,-9.999999999998899e-05,-5.0000000000105516e-05,-0.0008017555680649435,0.000929628375989866,-7.038047354579469e-06
149570000000.0,2,0.047081726649999996,-0.0577023286,0.2525800774,-0.004844,-0.059472,0.064212,0.06066393689999999,-4.7645609024999995,-8.571208233,0.007077,0.50733,3.0712,0.00019999999999997797,-0.00019999999999997797,-9.999999999998899e-05,3.593527756740045e-05,0.0020168748291948813,0.0002551777600666161
149570000000.0,2,-0.0258699427,-0.0563293976,0.27312500915,-0.019393,-0.016723,0.057709,0.0546034272,-4.7682874295,-8.5691488365,0.006371,0.50777,3.0719,0.00029999999999996696,-9.999999999998899e-05,-0.00010000000000021103,-0.00021734865582934138,0.0016168216315857187,0.0002822286432047627
149570000000.0,2,-0.0988118054,-0.08732821824999999,0.2676430918,-0.043597,0.023963,0.05867,0.0500335283,-4.7706410255,-8.567873972,0.00584,0.50805,3.0727,0.00039999999999995595,-0.000300000000000189,-9.999999999998899e-05,-0.00046566150106119863,0.0003089493833723367,0.0008061122778100227
149570000000.0,2,-0.14416756165,-0.11293338139999999,0.2419300555,-0.072155,0.055091,0.061777,0.04690520694999999,-4.7706410255,-8.567873972,0.005474,0.50804,3.0737,0.00019999999999997797,-9.999999999998899e-05,-9.999999999998899e-05,0.0006836938714982477,0.0010853963995427485,0.0009520094101070631
149570000000.0,2,-0.15142448265,-0.15163042229999998,0.19942803439999998,-0.090155,0.072279,0.064927,0.045179236549999995,-4.7690719615,-8.5687565705,0.005272,0.50786,3.0747,0.000300000000000189,-0.00019999999999997797,-0.00029999999999996696,0.0011099410147079602,0.0003208613899268187,0.001373363223522106
149570000000.0,2,-0.13838163814999999,-0.13072264449999998,0.18131515184999997,-0.10084,0.069164,0.064923,0.0441103117,-4.7655415675,-8.5707179005,0.005147,0.50745,3.0756,0.00019999999999997797,-0.00019999999999997797,-9.999999999998899e-05,0.0008520070289611548,-0.00037385518314625443,0.0009257758508909586
149570000000.0,2,-0.1156204035,-0.11396307965,0.1741268774,-0.092414,0.052042,0.06284,0.04274718735,-4.7618150405,-8.5728753635,0.004987,0.50702,3.0766,0.00019999999999997797,-0.00019999999999997797,-0.00019999999999997797,0.0010296200860646643,-0.0006898230700302932,0.0010688263560527655
149570000000.0,2,-0.08821081674999999,-0.09276110235,0.1586519837,-0.082905,0.031725,0.051156,0.040923150449999994,-4.75818658,-8.5748366935,0.004772,0.50659,3.0773,9.999999999998899e-05,-9.999999999998899e-05,-0.00019999999999997797,0.0009127267791578797,-0.00047390622801968263,0.00024506688344511085
149570000000.0,2,-0.08503346214999999,-0.04797413179999999,0.18478670594999996,-0.073441,0.006081,0.039481,0.0375986961,-4.7547542525,-8.576798023499999,0.004384,0.5062,3.0779,0.00019999999999997797,-0.00019999999999997797,-0.00019999999999997797,0.0010158528961540236,-0.0005218083239892923,0.0003543678218132784
149570000000.0,2,-0.07478551289999999,-0.0327345977,0.20159530404999998,-0.067113,-0.006757,0.03525,0.03348970975,-4.751812257499999,-8.578465154,0.003904,0.50584,3.0785,9.999999999998899e-05,-0.00019999999999997797,-0.00019999999999997797,0.0007847343374555171,-0.00043673783588116244,0.00021068482121580634
149570000000.0,2,-0.07713910889999999,-0.059624432,0.17711790565,-0.068188,-0.008883,0.035256,0.028959037449999996,-4.748968329,-8.580034218,0.003375,0.50552,3.079,0.0009999999999998899,-0.0008000000000001339,-0.000700000000000145,0.0034061352778631537,-0.000477590029197561,0.003443729248385541
149570000000.0,2,-0.10285214520000001,-0.08198359399999999,0.18441405325,-0.074654,-0.019488,0.033135,0.02309466075,-4.746418599999999,-8.5815052155,0.002691,0.50521,3.0795,-0.0005999999999999339,0.000300000000000189,0.00020000000000020002,-0.0018404930437520006,9.44502408142256e-05,-0.0034802714644330546
149570000000.0,2,-0.10307769815,-0.09020156669999999,0.19432857639999998,-0.084328,-0.031132,0.031009,0.0164359454,-4.743084338999999,-8.5832704125,0.001915,0.50483,3.0801,0.00019999999999997797,-0.00019999999999997797,-9.999999999998899e-05,0.001155452169386173,0.0010770656175675963,0.0003582629492456524
149570000000.0,2,-0.09492837199999998,-0.10107714155,0.12569183305,-0.085475,-0.044975,0.026768,0.0088848249,-4.738965545999999,-8.5856240085,0.001035,0.50435,3.0805,9.999999999998899e-05,-0.00020000000000020002,-0.000400000000000178,0.0009100143130642557,0.0010336541317448322,0.00036739415489628335
149570000000.0,2,-0.088063717,-0.0716669982,0.09853721919999998,-0.083363,-0.052448,0.020385,0.0011277647499999999,-4.7339641545,-8.5883698705,0.000131,0.50377,3.0809,9.999999999998899e-05,-0.00019999999999997797,-0.00029999999999996696,0.0004418280457766377,-0.0002020564678291148,-0.00018121580585772623
149570000000.0,2,-0.0676462717,-0.032587497949999995,0.11666971504999998,-0.079128,-0.05994,0.01614,-0.00658026215,-4.72876663,-8.591213798999998,-0.000765,0.50316,3.0812,9.999999999998899e-05,-0.00019999999999997797,-9.999999999998899e-05,0.0004921549427283622,0.0006423219264151125,-2.2532298248556515e-05
149570000000.0,2,-0.0620564812,-0.0159652262,0.09909619824999999,-0.068428,-0.061089,0.008693,-0.013954862949999999,-4.723667172,-8.5940577275,-0.001624,0.50257,3.0814,9.999999999998899e-05,-0.00019999999999997797,-0.00029999999999996696,0.002058421820304468,0.00164223065878355,-0.000485958901573047
149570000000.0,2,-0.07776673449999999,0.00414821295,0.046885593649999995,-0.044831,-0.051685,-0.000884,-0.0206920315,-4.719548379,-8.596313257,-0.002407,0.50209,3.0815,5.0000000000105516e-05,-0.00019999999999997797,-9.999999999998899e-05,0.0007824125149684669,0.0013923025535211853,-0.0006591356136694815
149570000000.0,2,-0.06487098975,0.043570945949999995,0.0417371024,-0.025535,-0.042253,-0.004065,-0.026115108949999997,-4.716606383999999,-8.597882320999998,-0.003037,0.50175,3.0816,5.0000000000105516e-05,-0.00019999999999997797,-0.00029999999999996696,-0.0006064607612248363,0.00022188598846839547,-8.764224738730397e-05
149570000000.0,2,-0.09060363935,0.07106879255,0.07099033934999999,-0.027539,-0.030509,-0.011555,-0.030753654399999997,-4.7137624554999995,-8.599451385,-0.003576,0.50141,3.0816,5.0000000000105516e-05,-0.00019999999999997797,-0.00019999999999997797,0.0003147985653652041,0.00036741848347476846,-0.00016648870272559235
149570000000.0,2,-0.0915156578,0.018966061099999997,0.026840801049999998,-0.035955,-0.017652,-0.014789,-0.0340290755,-4.710722394,-8.6011185155,-0.003957,0.50106,3.0816,4.999999999988347e-05,-0.00019999999999997797,-0.00019999999999997797,-0.0001180865126153563,0.00036153601049315753,9.841600737361955e-05
149570000000.0,2,-0.051690852149999994,-0.027693979599999998,-0.0014317708999999998,-0.054047,-0.010049,-0.011629,-0.035696206,-4.706799734,-8.603177912,-0.00415,0.50061,3.0815,4.999999999988347e-05,-0.00019999999999997797,-0.00020000000000020002,-0.0001196908233200844,-0.00023407538834741004,-0.0003587905737174324
149570000000.0,2,-0.03976596574999999,-0.0694703086,0.019701559849999998,-0.082779,0.000839,-0.008494,-0.0362453784,-4.7016022095,-8.606021840499999,-0.004212,0.5,3.0814,5.0000000000105516e-05,-0.00019999999999997797,-0.00029999999999996696,0.0008677166501319666,-0.000941570490195387,-0.00024548041764321793
149570000000.0,2,-0.006894074949999999,-0.11276666835,0.020299765499999997,-0.11473,0.01175,-0.001097,-0.03530394,-4.6941491555,-8.6101406335,-0.0041,0.49914,3.0814,9.999999999998899e-05,-0.00020000000000020002,-0.00029999999999996696,0.0009818300191172247,-0.00026309847739192094,0.0001833681732668624
149570000000.0,2,0.0150630144,-0.11830742559999999,0.005236751099999999,-0.13498,0.019368,0.006324,-0.03347009644999999,-4.6847347715,-8.6152400915,-0.003885,0.49805,3.0814,0.00019999999999997797,-0.00029999999999996696,-0.00039999999999995595,0.0006183590849796472,-0.0018635163598215154,0.00042914965501406055
149570000000.0,2,0.011581653649999999,-0.0868673057,0.006158576199999999,-0.14458,0.021573,0.011639,-0.03178335265,-4.673653257,-8.621222148,-0.003686,0.49677,3.0815,9.999999999998899e-05,-0.00019999999999997797,-0.00029999999999996696,0.0017251231044024262,-0.00018124507457240036,0.0003082723739315507
149570000000.0,2,0.0383047749,-0.06124252924999999,0.0141804159,-0.14143,0.019411,0.016983,-0.029920089149999995,-4.6621794764999995,-8.627498403999999,-0.003468,0.49543,3.0817,3.333333333332966e-05,-0.00019999999999997797,-0.00019999999999997797,0.0010250707897322409,-0.0007096396793517812,0.00020524307083569227
149570000000.0,2,0.05098477334999999,-0.025428643449999996,0.014896301349999998,-0.12752,0.02356,0.016997,-0.027644946349999998,-4.651196028499999,-8.633382394,-0.003202,0.49416,3.0818,3.333333333332966e-05,-9.999999999998899e-05,-0.00019999999999997797,0.0016176556935391662,0.0008466961097708392,0.0002500388737339543
149570000000.0,2,0.01958388005,0.032607111249999994,0.0337741026,-0.10614,0.027649,0.014891,-0.025713036300000002,-4.6411932455,-8.638874118,-0.002977,0.49299,3.0819,3.333333333332966e-05,-9.999999999998899e-05,-0.000300000000000189,0.0018422916857149252,0.0005273782749766198,0.0008352695280309241
149570000000.0,2,-0.012866324799999999,0.0564470774,0.02509521735,-0.08569,0.045604,0.007424,-0.022898527749999998,-4.6325633935,-8.6434832435,-0.002649,0.492,3.0821,-9.999999999998899e-05,-9.999999999998899e-05,-9.999999999998899e-05,0.0014396751131313112,0.0020178066635432312,-0.0003743273841722572
149570000000.0,2,-0.07510913235,0.05426019444999999,0.00244185585,-0.066319,0.064627,0.004226,-0.0194563936,-4.625404539,-8.647307837,-0.00225,0.49117,3.0822,2.4999999999941735e-05,-5.0000000000105516e-05,-9.999999999998899e-05,0.0009090714171988701,5.699514353252333e-05,0.00031187700862114753
149570000000.0,2,-0.1128157016,0.02609549565,-0.007453054,-0.055563,0.076256,0.005297,-0.015425860449999999,-4.6198147485,-8.650249832,-0.001783,0.49053,3.0824,2.500000000016378e-05,-4.999999999988347e-05,-0.00019999999999997797,0.0008581981828491569,0.00021165064281269963,0.00045158177825987966
149570000000.0,2,-0.13104626395,-0.0111403544,-0.037834055699999994,-0.040607,0.084644,0.014921,-0.011405133949999998,-4.6156959555,-8.6525053615,-0.001318,0.49005,3.0827,2.4999999999941735e-05,-9.999999999998899e-05,-9.999999999998899e-05,-0.00013462909912953513,-0.0006268292212179283,0.0002642142719182228
149570000000.0,2,-0.1198764896,-0.061821121599999994,-0.08791661725,-0.020475,0.07168,0.022456,-0.008208166049999998,-4.613636559,-8.653584093,-0.000949,0.48981,3.083,2.4999999999941735e-05,-9.999999999998899e-05,-9.999999999998899e-05,1.0434886818455613e-05,-0.000649240025520692,0.0005594318728924796
149570000000.0,2,-0.075315072,-0.0705686534,-0.08652407294999999,-0.003694,0.040628,0.031082,-0.006688135299999999,-4.613244293,-8.653780226,-0.000772,0.48977,3.0834,3.333333333332966e-05,-4.999999999988347e-05,-9.999999999998899e-05,8.6226533696665e-05,-0.00013219176570711255,0.00039830406182644884
149570000000.0,2,-0.0012160246,-0.058369180799999996,-0.07649186999999999,0.009794,-0.005307,0.034389,-0.0076099604,-4.614028824999999,-8.65338796,-0.00088,0.48986,3.0838,3.333333333332966e-05,-5.0000000000105516e-05,-9.999999999998899e-05,-0.0004990847535337184,0.0002104856932223509,-1.9814931762562882e-05
149570000000.0,2,0.0549956932,-0.045728408949999994,-0.06864655,0.014738,-0.055428,0.032348,-0.01175817335,-4.615303689499999,-8.652701494499999,-0.001358,0.49001,3.0841,3.333333333332966e-05,-9.999999999998899e-05,-9.999999999998899e-05,-0.0007445573416744455,0.0004724343502569006,0.0002950130702402687
149570000000.0,2,0.11406114615,-0.03667687099999999,-0.04808200495,0.011266,-0.092687,0.027066,-0.0181423025,-4.616578554,-8.652015029,-0.002097,0.49016,3.0843,9.999999999998899e-05,-4.999999999988347e-05,-9.999999999998899e-05,-0.00045515780075827683,0.0015024354546098184,-0.00027989929325861196
149570000000.0,2,0.1308599376,-0.012817291549999998,-0.007904159899999999,0.002747,-0.097929,0.015313,-0.025212897149999997,-4.6172650195,-8.651622762999999,-0.002915,0.49023,3.0844,4.999999999988347e-05,-5.0000000000105516e-05,-0.00019999999999997797,-0.0007556944815930722,0.0008915267656257608,-8.488868764566782e-05
149570000000.0,2,0.092967042,0.0020397832,0.0034323275,-0.004469,-0.072282,0.005645,-0.030714427799999996,-4.61697082,-8.651720829499999,-0.003551,0.4902,3.0844,5.0000000000105516e-05,-9.999999999998899e-05,-9.999999999998899e-05,-0.0008200388684778681,-0.00022197406574520073,-0.0002661504472649123
149570000000.0,2,0.02941995,0.0010395049,0.022810267899999997,-0.016915,-0.031679,-0.000854,-0.033764295949999995,-4.6159901549999995,-8.652211161999999,-0.003902,0.49009,3.0844,2.4999999999941735e-05,4.999999999988347e-05,-9.999999999998899e-05,-0.00012402403464911727,0.00043117432457351335,-0.00032884087608303636
149570000000.0,2,-0.038736267500000005,0.0121994726,0.038245934999999995,-0.025207,0.001417,0.003345,-0.0351862602,-4.614028824999999,-8.6532898935,-0.004066,0.48985,3.0845,2.500000000016378e-05,5.0000000000105516e-05,-4.999999999988347e-05,0.0005613568334360552,0.0013176176824798436,-0.00024392223923949685
149570000000.0,2,-0.06136020905,-0.0122583125,-0.03886375395,-0.020771,0.029073,0.013981,-0.034852834099999994,-4.611871362,-8.6544666915,-0.004028,0.4896,3.0846,2.4999999999941735e-05,5.0000000000105516e-05,-5.0000000000105516e-05,-4.371583104240129e-05,-0.0003020800573789728,0.00029943891641173725
149570000000.0,2,-0.04606183504999999,-0.03044964825,-0.07138260534999999,-0.01219,0.042841,0.026782,-0.033244543499999994,-4.610302298,-8.65534929,-0.003841,0.48942,3.0849,2.4999999999941735e-05,4.999999999988347e-05,-9.999999999998899e-05,5.408415388397092e-05,0.0001507527422348609,8.381237555610266e-05
149570000000.0,2,-0.010002783,-0.01913277415,-0.06622430745,-0.00577,0.049175,0.033187,-0.030694814499999997,-4.6093216329999995,-8.6558396225,-0.003546,0.48931,3.0853,1.999999999990898e-05,4.999999999988347e-05,-0.0001500000000000945,-0.0002790459764000497,-0.0012310859306265964,0.0003062613346640486
149570000000.0,2,0.010493115499999999,-0.00936535075,-0.07054904009999999,-0.004737,0.047032,0.036394,-0.027997985749999996,-4.6084390345,-8.656329955,-0.003234,0.48921,3.0857,2.0000000000131024e-05,5.0000000000105516e-05,-0.00014999999999987246,0.0013371127953995532,0.005092014689847879,0.0040226280919127
149570000000.0,2,0.0277920461,-0.0024124359,-0.06216435435,-0.006882,0.043857,0.033193,-0.02495792425,-4.607360303,-8.656918354,-0.002883,0.48908,3.0861,1.999999999990898e-05,9.999999999998899e-05,-5.0000000000105516e-05,0.00040736380176142895,-0.00023939538837303154,0.0005121860103183273
149570000000.0,2,0.0376183094,-0.0053936575,-0.050376761049999996,-0.007975,0.03748,0.027864,-0.022202255599999998,-4.6062815715,-8.657506753,-0.002565,0.48896,3.0863,2.0000000000131024e-05,9.999999999998899e-05,-5.0000000000105516e-05,0.00026069970612685456,-0.00021957747014056395,0.0006415420524454318
149570000000.0,2,0.0223983886,-0.017946169499999998,-0.034284048399999996,-0.003752,0.027862,0.021482,-0.02015266575,-4.6058893055,-8.657702886,-0.002328,0.48891,3.0866,1.999999999990898e-05,3.333333333332966e-05,-3.333333333332966e-05,-0.0006965501333289215,-0.0005601903080740822,0.00024033110250765155
149570000000.0,2,-0.011365907350000001,-0.035245100099999996,-0.0106696352,-0.002718,0.018272,0.012962,-0.0191621941,-4.6058893055,-8.657702886,-0.002213,0.48892,3.0868,9.999999999998899e-05,3.333333333332966e-05,-3.333333333332966e-05,0.00038416330678947563,-0.00015835263713293024,0.0006646408927014624
149570000000.0,2,-0.029194397049999998,-0.028655031299999998,-0.03515684025,0.00902,0.017111,0.010851,-0.01883857465,-4.6066738375,-8.65731062,-0.002176,0.48901,3.0869,4.999999999988347e-05,3.333333333332966e-05,-3.333333333332966e-05,-0.00016064292749495834,-0.0016300433750287002,0.0005431418087317175
149570000000.0,2,-0.0672343924,-0.0233594403,-0.0420509152,0.021905,0.026594,0.009792,-0.01850514855,-4.608340967999999,-8.656329955,-0.002138,0.4892,3.0871,5.0000000000105516e-05,9.999999999998899e-05,2.4999999999941735e-05,-0.00018870721933600398,0.0002079667204692992,0.00056958075841676
149570000000.0,2,-0.10183225359999999,-0.00634490255,0.01250347875,0.029433,0.033988,0.009796,-0.0180246227,-4.6109887635,-8.654957024,-0.002083,0.48951,3.0873,-3.333333333332966e-05,5.0000000000105516e-05,2.4999999999941735e-05,8.503349733240961e-05,-7.715325740842438e-05,0.0002405939469526941
149570000000.0,2,-0.11080533834999999,0.005668243699999999,0.025203090499999997,0.023143,0.051081,0.015096,-0.0166909183,-4.6133423595,-8.653780226,-0.001929,0.48977,3.0876,-3.333333333332966e-05,4.999999999988347e-05,2.500000000016378e-05,0.00014623305476579862,-0.0004325883321321111,0.0007025473923465697
149570000000.0,2,-0.10780450344999999,-0.0289688441,0.0214373369,0.014716,0.067127,0.019326,-0.01399408955,-4.615303689499999,-8.652701494499999,-0.001618,0.49001,3.0879,-3.333333333332966e-05,9.999999999998899e-05,2.4999999999941735e-05,-0.00021693987512622082,-0.0008267395635488395,0.00032803838512976413
149570000000.0,2,-0.1233284304,-0.0705882667,0.05354430899999999,0.00836,0.073567,0.021442,-0.010895188149999999,-4.6176572855,-8.65142663,-0.001259,0.49028,3.0882,-4.999999999988347e-05,9.999999999998899e-05,5.0000000000105516e-05,0.00020565782012982314,-0.0003495612537882664,0.0006677336442464377
149570000000.0,2,-0.11970977655000001,-0.085513988,0.10685325839999998,0.006228,0.070388,0.017178,-0.0077864801,-4.6204031475,-8.6499556325,-0.0009,0.4906,3.0886,-5.0000000000105516e-05,9.999999999998899e-05,5.0000000000105516e-05,0.000411215414195254,2.0555752408446537e-05,0.00022633409880995492
149570000000.0,2,-0.10788295665,-0.10714745789999999,0.11419843925,0.007289,0.060799,0.004391,-0.004648352099999999,-4.6235412755,-8.648288502,-0.000538,0.49095,3.0888,-9.999999999998899e-05,9.999999999998899e-05,3.333333333332966e-05,0.00026425738548302435,-0.000351592748199403,0.00046794400602162556
149570000000.0,2,-0.10682383844999999,-0.10682383844999999,0.10956970045,0.01475,0.049029,-0.011583,-0.0018142302499999999,-4.627169736,-8.646425238499999,-0.00021,0.49137,3.0888,-9.999999999998899e-05,4.999999999988347e-05,3.333333333332966e-05,-0.0001629134817265343,-5.1602872024325563e-05,-7.0514146144951e-05
149570000000.0,2,-0.09017214675,-0.07838455344999999,0.09686028205,0.024367,0.04363,-0.022229,0.0012944778,-4.630994329499999,-8.6442677755,0.000149,0.49182,3.0886,-9.999999999998899e-05,5.0000000000105516e-05,3.333333333332966e-05,2.777144930071751e-05,-0.0002540609272947414,-0.00019560382049726988
149570000000.0,2,-0.08723995839999998,-0.061056202899999995,0.08723995839999998,0.023326,0.04364,-0.026497,0.00463854545,-4.6347208564999995,-8.6423064455,0.000537,0.49225,3.0884,-9.999999999998899e-05,5.0000000000105516e-05,4.999999999988347e-05,3.676676506531029e-05,-0.0005076560262931018,-2.8806165465772304e-05
149570000000.0,2,-0.09444784615,-0.05681973009999999,0.07304973584999999,0.012718,0.05012,-0.027592,0.0085513988,-4.6374667185,-8.640835447999999,0.00099,0.49257,3.0882,-0.00019999999999997797,4.999999999988347e-05,5.0000000000105516e-05,-0.00047701955040169164,4.6822201859253454e-05,-0.0005931461308187613
149570000000.0,2,-0.07069613984999999,-0.06628314735,0.06185054155,-0.001155,0.051294,-0.024414,0.01293497135,-4.6390357825,-8.639952849499998,0.001498,0.49275,3.088,-9.999999999998899e-05,4.999999999988347e-05,-9.999999999998899e-05,-0.00017848136989850882,-0.0024057250107532013,0.00046828646920446526
149570000000.0,2,-0.05976172509999999,-0.09001524035,0.06709709929999999,-0.013977,0.050329,-0.021231,0.017416610399999997,-4.639918381,-8.6395605835,0.002016,0.49285,3.0878,-9.999999999998899e-05,5.0000000000105516e-05,-1.999999999990898e-05,0.0006146084849468769,-0.0009152172313064977,0.000439785340572485
149570000000.0,2,-0.03531374665,-0.1185820118,0.0918294706,-0.023651,0.04188,-0.019098,0.0216923098,-4.640310647,-8.639266383999999,0.002511,0.4929,3.0876,-9.999999999998899e-05,-9.999999999998899e-05,-2.0000000000131024e-05,0.00012878621424639025,-0.001171248076578646,-2.111620856715124e-05
149570000000.0,2,-0.009669356899999999,-0.1526699272,0.12771200295,-0.038703,0.023892,-0.023363,0.025085410699999998,-4.640408713499999,-8.639266383999999,0.002903,0.4929,3.0873,-9.999999999998899e-05,-3.333333333332966e-05,-1.999999999990898e-05,0.0008419676082757066,-0.0005372688620590704,0.00011167240912687837
149570000000.0,2,0.00732556755,-0.1394897896,0.11802303274999999,-0.048416,0.005862,-0.028687,0.0272428737,-4.6392319155,-8.639854783,0.003153,0.49277,3.087,-0.00019999999999997797,-3.333333333332966e-05,-2.0000000000131024e-05,0.0004563095215640023,-0.000698307776181073,-0.0005250110947417341
149570000000.0,2,0.04245298785,-0.10643157245,0.07807074064999998,-0.048404,0.002672,-0.035089,0.02982202265,-4.636976386,-8.641031581,0.003451,0.49251,3.0866,-0.00020000000000020002,-3.333333333332966e-05,-1.999999999990898e-05,0.0003519011605218614,-0.000641339425143217,-0.0004160235018809688
149570000000.0,2,0.0365003513,-0.06112484945,0.10226374619999999,-0.045174,0.005843,-0.035091,0.03262672455,-4.6345247235,-8.642404511999999,0.003775,0.49223,3.0862,-9.999999999998899e-05,5.0000000000105516e-05,9.999999999998899e-05,0.0006200180184846582,0.0010043786481532813,-0.00041895546275416695
149570000000.0,2,0.03965809259999999,0.0016279038999999999,0.11594402294999999,-0.041953,0.012205,-0.028694,0.0357550459,-4.6315827285,-8.643973575999999,0.004137,0.49189,3.0858,-0.00029999999999996696,4.999999999988347e-05,-4.999999999988347e-05,0.0006115940347057314,0.0013443368446606208,-0.0004302983547206929
149570000000.0,2,0.0168282114,0.019466200249999996,0.10351899739999999,-0.0355,0.021737,-0.023364,0.03898143375,-4.6287388,-8.645444573499999,0.004509,0.49156,3.0855,-9.999999999998899e-05,-4.999999999988347e-05,-5.0000000000105516e-05,0.0005622501475606168,-0.00020775157359786967,-0.00017711424272462417
149570000000.0,2,-0.0074432473499999995,0.0202801522,0.07527584539999999,-0.026949,0.026989,-0.018021,0.04215878835,-4.626385204,-8.6466213715,0.004876,0.49129,3.0853,-9.999999999998899e-05,-5.0000000000105516e-05,-3.333333333332966e-05,-7.182516710602105e-05,-0.000781987295067843,-5.022697269962961e-05
149570000000.0,2,-0.02746842665,0.027615526399999996,0.0746482198,-0.017408,0.020514,-0.015858,0.044522190999999996,-4.62481614,-8.647503969999999,0.005149,0.4911,3.0851,-0.00019999999999997797,9.999999999998899e-05,-3.333333333355171e-05,0.0002549423659347072,0.00035074722985828366,-0.00023908934039326701
149570000000.0,2,-0.01411176935,0.027801852749999998,0.052406737599999996,-0.001434,0.01612,-0.016889,0.04659139415,-4.6243258075,-8.647700103,0.005387,0.49105,3.0849,-9.999999999998899e-05,2.4999999999941735e-05,-3.333333333332966e-05,-0.00010015481640324175,-8.281503263618539e-05,0.00024497147193058844
149570000000.0,2,-0.00410898635,0.0226533615,0.03213639205,0.006012,0.010736,-0.021136,0.04855272415,-4.6247180734999995,-8.647503969999999,0.005614,0.4911,3.0847,-9.999999999998899e-05,2.4999999999941735e-05,-3.333333333332966e-05,-0.00027271423101604686,0.0011059243031594779,-0.0004900606475447267
149570000000.0,2,0.006903881599999999,0.03176373935,0.03756927615,0.01027,0.007507,-0.024326,0.05055328075,-4.6255026054999995,-8.647111703999999,0.005847,0.49118,3.0844,-9.999999999998899e-05,2.500000000016378e-05,-3.333333333332966e-05,-0.0004792982378181154,-0.00040082855477363566,-8.542020487700697e-05
149570000000.0,2,0.005952636549999999,0.02964550295,0.015249340749999998,0.014496,0.006401,-0.017912,0.052102731449999995,-4.626385204,-8.6466213715,0.006026,0.49128,3.0842,-0.00019999999999997797,2.4999999999941735e-05,-3.333333333332966e-05,-0.0001544460845868123,-0.0002516811195611979,-0.0001705956948393761
149570000000.0,2,0.0213196571,-0.021741343049999997,0.0133174307,0.021888,0.002069,-0.009354,0.053348176000000004,-4.628542667,-8.645444573499999,0.006171,0.49154,3.084,-9.999999999998899e-05,-1.666666666655381e-05,-4.999999999988347e-05,2.8510361384070926e-05,-8.39511776642432e-05,-0.00018763661022255795
149570000000.0,2,0.036333638249999994,-0.05681973009999999,0.047817225399999996,0.019628,-0.007513,0.001332,0.0536031489,-4.631484661999999,-8.6438755095,0.006201,0.49188,3.084,-9.999999999998899e-05,-1.6666666666775853e-05,-5.0000000000105516e-05,-0.00048298325583506774,4.6167598409363464e-05,0.0001164965175389221
149570000000.0,2,0.05438768089999999,-0.06891132955,0.0779236409,0.015197,-0.027723,0.002425,0.052308671099999995,-4.6345247235,-8.6423064455,0.006052,0.49223,3.084,-9.999999999998899e-05,-1.6666666666775853e-05,-1.999999999990898e-05,-0.0002974909116630897,0.0014126966477239211,6.228916689698938e-05
149570000000.0,2,0.05300494325,-0.10068487555,0.0830230989,0.004536,-0.037208,-0.013591,0.05054347409999999,-4.6372705855,-8.640835447999999,0.005849,0.49255,3.0838,-4.999999999988347e-05,-1.666666666655381e-05,-2.0000000000131024e-05,-0.0002384757523914427,0.00018821631057086563,-0.00038920010504214786
149570000000.0,2,0.11085437159999999,-0.13086974424999998,0.087475318,-0.006014,-0.031776,-0.0275,0.050602313999999995,-4.6396241814999994,-8.6395605835,0.005857,0.49281,3.0834,-5.0000000000105516e-05,-1.666666666655381e-05,-1.999999999990898e-05,0.00017404078225013997,0.0002937854102371684,-0.0002129227232883224
149570000000.0,2,0.0578003951,-0.12083754129999999,0.11261956859999998,-0.012203,-0.012532,-0.038221,0.051582978999999994,-4.6411932455,-8.638677985,0.005971,0.493,3.083,-0.00020000000000020002,-1.6666666666775853e-05,-2.0000000000131024e-05,-0.0006967502601006315,-0.00019918468206281403,-0.0009336054212011613
149570000000.0,2,0.0180638493,-0.12598603255,0.12728051035,-0.027942,0.016375,-0.043638,0.054662267099999995,-4.641781644499999,-8.6383837855,0.006328,0.49307,3.0825,-0.00019999999999997797,-4.999999999988347e-05,-1.999999999990898e-05,0.0003136208653359285,-0.00015548022370870385,-0.00036178623867533233
149570000000.0,2,0.01995653275,-0.13667528104999999,0.12131806715,-0.042698,0.042065,-0.037305,0.060095151199999995,-4.641095179,-8.638677985,0.006957,0.49299,3.082,-9.999999999998899e-05,-5.0000000000105516e-05,-9.999999999998899e-05,0.00020872469116589576,-0.001195424137652834,0.0006711342288140132
149570000000.0,2,0.017632356699999997,-0.13112471715,0.12335785034999999,-0.056534,0.052823,-0.025608,0.0663125673,-4.639133848999999,-8.63965865,0.007675,0.49277,3.0817,-9.999999999998899e-05,-3.333333333332966e-05,-9.999999999998899e-05,0.0005116522217270547,9.77101934716007e-05,-0.00017271138225735672
149570000000.0,2,0.04159000265,-0.13755787954999998,0.10748088399999998,-0.069379,0.056111,-0.010695,0.0727261164,-4.635995721,-8.641325780499999,0.008416,0.4924,3.0814,-9.999999999998899e-05,-3.333333333332966e-05,-9.999999999998899e-05,0.0009135674256880444,-0.00014123838250501564,-4.2969699061340405e-05
149570000000.0,2,0.0693330155,-0.1267215313,0.10478405525,-0.073849,0.038021,0.002135,0.0779040276,-4.632073061,-8.643385177,0.009013,0.49194,3.0814,-9.999999999998899e-05,-3.333333333332966e-05,-9.999999999998899e-05,0.0009408643444788201,-0.0013132907718353959,0.0006597792416140058
149570000000.0,2,0.0773352419,-0.08940722805,0.073157609,-0.063434,0.007033,0.004339,0.08038511004999999,-4.627954268,-8.64554264,0.009298,0.49146,3.0814,-9.999999999998899e-05,-9.999999999998899e-05,-2.4999999999941735e-05,0.0004490921642826273,9.897915230894228e-05,-0.0002498803091864621
149570000000.0,2,0.08218953365,-0.0428942871,0.06055606374999999,-0.037997,-0.022997,-0.009444,0.0807675694,-4.6249142065,-8.6472097705,0.00934,0.49111,3.0812,-9.999999999998899e-05,-5.0000000000105516e-05,-2.4999999999941735e-05,0.0003826720961072061,0.00021697699403677717,-0.0004793709629081766
149570000000.0,2,0.08999562704999998,0.013915636349999998,0.05343643585,-0.008098,-0.033874,-0.031792,0.08073814945,-4.623639342,-8.647896236,0.009336,0.49097,3.0808,-9.999999999998899e-05,-4.999999999988347e-05,-2.500000000016378e-05,0.0003213114838289677,0.0007717833570326516,-0.0003903881395322939
149570000000.0,2,0.06478272989999999,0.07650167664999999,0.05099458,0.021896,-0.026647,-0.044564,0.0812579019,-4.6243258075,-8.647503969999999,0.009397,0.49104,3.0803,-9.999999999998899e-05,-9.999999999998899e-05,-2.4999999999941735e-05,-0.0005765318493510252,-0.00016053772273116884,-0.0008209955608846631
149570000000.0,2,0.0274978466,0.09929233124999999,0.01079712165,0.036986,-0.004397,-0.040309,0.0827877393,-4.626091004499999,-8.646523305,0.009574,0.49126,3.0798,-9.999999999998899e-05,-9.999999999998899e-05,9.999999999998899e-05,-0.00034311487601818014,0.00029180171078135864,-0.0006537083985876657
149570000000.0,2,-0.007825706699999999,0.07878662609999999,-0.0012552511999999998,0.024308,0.020201,-0.026498,0.0853374683,-4.627660068499999,-8.645738773,0.00987,0.49143,3.0794,-9.999999999998899e-05,-4.999999999988347e-05,-4.999999999988347e-05,-0.000428309100926505,-0.0006937072251318455,-2.1158730463433084e-05
149570000000.0,2,-0.014396162199999998,0.02964550295,-0.051582978999999994,-0.007635,0.038563,-0.010574,0.08875998915,-4.6267774699999995,-8.646131039,0.010266,0.49134,3.0793,-4.999999999988347e-05,-5.0000000000105516e-05,-5.0000000000105516e-05,9.775815151874534e-05,-0.00041095270669933015,0.00022224039849863542
149570000000.0,2,0.0010002783,-0.0284588983,-0.10045932259999998,-0.032138,0.047283,-0.004228,0.09311414174999999,-4.624620007,-8.6472097705,0.010768,0.49109,3.0792,-5.0000000000105516e-05,-5.0000000000105516e-05,-5.0000000000105516e-05,0.0005295510970382833,-0.00029423239256831657,0.0002819468786843804
149570000000.0,2,0.0206920315,-0.044826197150000004,0.0975957808,-0.080322,0.027431,-0.001075,0.0964778227,-4.619716682,-8.649857566,0.011153,0.49051,3.0792,-1.999999999990898e-05,-4.999999999988347e-05,-4.999999999988347e-05,0.0007338548428378333,-0.0008212267903797699,0.00045029816441674586
149570000000.0,2,0.08409202375,-0.04394359864999999,0.09950807754999999,-0.087819,0.027488,0.005313,0.10010628319999999,-4.613244293,-8.653191827,0.011568,0.48976,3.0792,-2.0000000000131024e-05,-9.999999999998899e-05,-9.999999999998899e-05,0.0006637047579615141,-0.0005815014952870179,3.3497380226649165e-05
149570000000.0,2,0.08404299049999998,-0.01324878415,0.0066685220000000005,-0.074967,0.034842,0.007454,0.10404855649999999,-4.6064777045,-8.656722220999999,0.012019,0.48899,3.0792,-1.999999999990898e-05,-3.333333333332966e-05,-9.999999999998899e-05,0.0009826321842651975,0.000135159607810742,0.00035058565031695355
149570000000.0,2,0.05292649005,-0.011395327299999999,0.1262115855,-0.059928,0.045379,0.004257,0.10853019555,-4.6019666455,-8.6591738835,0.012533,0.48846,3.0792,-2.0000000000131024e-05,-3.333333333332966e-05,-4.999999999988347e-05,0.0011551697104866254,-0.00042384562876018883,0.0003461130229618081
149570000000.0,2,0.00705098135,0.0412271566,0.013484143749999998,-0.037408,0.055856,-0.002127,0.11340410059999999,-4.5976517195,-8.6613313465,0.013093,0.48797,3.0792,-1.999999999990898e-05,-3.333333333332966e-05,-5.0000000000105516e-05,0.00043228669985423407,-0.0006414813845496692,0.00011344259640183596
149570000000.0,2,-0.0243597186,0.0324403982,-0.01846592195,-0.02247,0.051478,-0.009565,0.11803283939999999,-4.5949058575,-8.662802344,0.013625,0.48765,3.0791,-3.333333333332966e-05,-3.333333333332966e-05,1.666666666655381e-05,0.0007611259907225332,7.251521254092452e-05,0.00041905877261882996
149570000000.0,2,-0.02399687255,0.02015266575,-0.006717555249999999,-0.011858,0.041804,-0.013798,0.12216143904999999,-4.593238727,-8.663586876,0.0141,0.48746,3.079,-3.333333333332966e-05,-3.333333333332966e-05,1.6666666666775853e-05,6.383401112208809e-05,-0.0005425386100588181,0.0001424046081108521
149570000000.0,2,-0.0187895414,-0.00426589275,-0.05790826824999999,-0.000178,0.034249,-0.014832,0.12563299314999998,-4.5925522615,-8.663881075499999,0.0145,0.48738,3.0788,-3.333333333332966e-05,-3.333333333332966e-05,1.6666666666775853e-05,1.6455367878864813e-05,-0.0002796309933768004,-6.542019782226904e-05
149570000000.0,2,-0.008521978849999999,-0.037481016299999996,-0.031950065699999995,0.008331,0.028854,-0.018009,0.1289770608,-4.5935329265,-8.6632926765,0.014887,0.48749,3.0787,-3.333333333332966e-05,-3.333333333332966e-05,1.666666666655381e-05,-0.00042398636202622964,-0.0009527127894106702,-1.2996791948854947e-05
149570000000.0,2,-0.0078649333,-0.0439926319,0.048366397799999995,0.005046,0.01397,-0.024393,0.1314679499,-4.5949058575,-8.662508144499999,0.015176,0.48765,3.0784,-3.333333333332966e-05,-3.333333333332966e-05,1.666666666655381e-05,0.00021816734550211825,0.00026423336342173975,-4.394169239327339e-05
149570000000.0,2,0.01738719045,-0.045600922499999995,0.0588399,-0.005736,0.000205,-0.02332,0.13314488705,-4.5956903895,-8.6621158785,0.01537,0.48774,3.0781,-3.333333333332966e-05,-3.333333333332966e-05,1.6666666666775853e-05,0.00023821212355240595,0.00014169296632005057,-0.00012375876943854225
149570000000.0,2,0.041776328999999994,-0.0865534929,0.04000132535,-0.011116,-0.007206,-0.025453,0.13449820475,-4.596180722,-8.661821678999999,0.015527,0.4878,3.0778,-4.999999999988347e-05,-4.999999999988347e-05,1.6666666666775853e-05,-0.0001286343047327554,0.00018912311824692551,-0.0006400572483364619
149570000000.0,2,0.03831458155,-0.09781152709999999,0.030989014,-0.005715,-0.000853,-0.02759,0.13616533525,-4.5970633205,-8.6613313465,0.01572,0.4879,3.0774,-5.0000000000105516e-05,-5.0000000000105516e-05,1.666666666655381e-05,6.357898466680112e-05,-0.00019357450691726008,-0.00030970549599329544
149570000000.0,2,0.014337322299999998,-0.07093149944999999,0.0342448218,0.000769,0.009749,-0.026531,0.13813647189999997,-4.5982401185,-8.6607429475,0.015949,0.48803,3.0771,-1.4285714285744433e-05,-9.999999999998899e-05,1.666666666655381e-05,-5.9286659103263695e-05,-2.2784318700175277e-05,-0.00036934092258883444
149570000000.0,2,0.00214765635,-0.044963490249999995,0.0451890432,0.008275,0.016078,-0.023327,0.14046064795,-4.5998091825,-8.659860348999999,0.016218,0.48821,3.0768,-1.4285714285744433e-05,-4.999999999988347e-05,1.6666666666775853e-05,-0.0002784223980092926,-0.00020938641540246827,3.907528933730364e-05
149570000000.0,2,0.0036676871,-0.042609894249999995,0.02549729,0.011558,0.028834,-0.019074,0.1437262624,-4.6015743795,-8.658879683999999,0.016597,0.48841,3.0766,-1.4285714285744433e-05,-5.0000000000105516e-05,1.6666666666775853e-05,0.00012562739744437224,-0.0006304308749136567,0.00017389425435676564
149570000000.0,2,-0.019417167,-0.034303661699999995,-0.0035794272499999995,-9.6e-05,0.039584,-0.018045,0.14750182265,-4.6023589115,-8.658389351499999,0.017035,0.48851,3.0764,-1.4285714285522388e-05,-5.0000000000105516e-05,1.666666666655381e-05,0.00011860671404595458,-0.0003975453560960407,-9.969460931469332e-05
149570000000.0,2,-0.033440676499999995,-0.0203782187,-0.02366344645,-0.019303,0.041868,-0.013812,0.15120873634999998,-4.601182113499999,-8.658879683999999,0.017461,0.48837,3.0763,-1.4285714285744433e-05,-5.0000000000105516e-05,3.333333333332966e-05,2.8370695041302074e-05,-0.001325030362005597,1.2908775223030577e-05
149570000000.0,2,-0.03835380815,-0.03411733535,-0.07408924075,-0.036357,0.04733,-0.008513,0.15507255645,-4.5982401185,-8.660448748,0.017904,0.48803,3.0762,-1.4285714285744433e-05,-9.999999999998899e-05,3.333333333332966e-05,0.0003393947489395144,-0.0007527294385929473,0.0001301607038589614
149570000000.0,2,-0.0540346415,-0.04285506049999999,-0.10215587304999998,-0.036333,0.053717,-0.003185,0.15893637654999998,-4.5949058575,-8.6621158785,0.018346,0.48764,3.0762,-1.4285714285744433e-05,-4.999999999988347e-05,3.333333333332966e-05,0.0009801146980100706,-0.00027868328880864546,0.0001945812872214958
149570000000.0,2,-0.07701162245,-0.012915358049999999,-0.0705686534,-0.022454,0.053603,-0.005293,0.16260406364999996,-4.5921599955,-8.6634888095,0.018767,0.48733,3.0762,9.999999999998899e-05,-5.0000000000105516e-05,-4.999999999988347e-05,0.0004955890220732506,-0.001756983022425107,0.0005791631588672186
149570000000.0,2,-0.10477424860000001,0.0145530686,-0.06236048735,0.01271,0.046919,-0.007352,0.165536252,-4.5918657959999996,-8.663586876,0.019104,0.48729,3.0763,-3.333333333332966e-05,-0.00013333333333331865,-5.0000000000105516e-05,-0.0003911723747291873,-0.002828193080707253,0.0006042399077448857
149570000000.0,2,-0.11954306349999999,0.036755324199999995,-0.05867318694999999,0.049958,0.030633,-0.014727,0.16713473594999997,-4.594415525,-8.662213945,0.019292,0.48759,3.0762,-3.333333333332966e-05,-0.00013333333333331865,9.999999999998899e-05,-0.00024268314743391972,-0.0007655566134017189,6.041587778071733e-05
149570000000.0,2,-0.13288991415,0.07856107315000001,-0.01368027675,0.077583,0.011229,-0.023179,0.167301449,-4.599613049499999,-8.659468083,0.019318,0.48819,3.0761,-3.333333333332966e-05,-0.00013333333333331865,0.00039999999999995595,-0.0016902834470121086,-0.005156033283728156,-0.004001457123696511
149570000000.0,2,-0.10160670064999999,0.0804733699,-0.01564160675,0.087033,-0.010159,-0.027392,0.1663992372,-4.605791239,-8.656133822,0.019221,0.48891,3.0759,-9.999999999998899e-05,5.0000000000105516e-05,9.999999999998899e-05,-0.0008878438802995547,1.10060970870407e-05,-7.495922765571317e-05
149570000000.0,2,-0.09562464415,0.04370823905,-0.0085121722,0.084778,-0.027189,-0.030565,0.164163321,-4.6127539605,-8.6525053615,0.01897,0.48971,3.0756,-9.999999999998899e-05,4.999999999988347e-05,9.999999999998899e-05,-0.0009534471870751293,0.0001640126238149353,-0.00033103363429756727
149570000000.0,2,-0.08772048425,0.00467777205,-0.0008335652500000001,0.070879,-0.033467,-0.034844,0.16149591219999998,-4.6192263495,-8.6491711005,0.018669,0.49045,3.0753,-0.00010000000000021103,1.999999999990898e-05,9.999999999998899e-05,-0.0008109412101344193,0.0006993570938813587,-0.0003060908123303785
149570000000.0,2,-0.08672020594999999,-0.01611232595,0.011954306349999999,0.063471,-0.028077,-0.038066,0.1591423162,-4.625012272999999,-8.6460329725,0.018405,0.49113,3.0749,-0.00019999999999997797,2.0000000000131024e-05,0.00019999999999997797,-9.280914717701982e-05,0.00031795848605709054,-0.0005385585324887421
149570000000.0,2,-0.085121722,-0.025909169299999996,0.0363434449,0.060325,-0.019532,-0.034882,0.15739673249999997,-4.630994329499999,-8.642894844499999,0.018209,0.49182,3.0746,-0.00029999999999996696,1.999999999990898e-05,0.000300000000000189,-0.00041867771509346285,0.0018982390861104204,-0.0011044841392048588
149570000000.0,2,-0.07828648695,-0.03370545605,0.07981632435,0.06783,-0.010014,-0.026344,0.15624935445,-4.6378589845,-8.639266383999999,0.018084,0.49261,3.0743,-9.999999999998899e-05,2.0000000000131024e-05,9.999999999998899e-05,-0.0006134425453181436,0.00038616770416366464,-5.46573834506181e-06
149570000000.0,2,-0.0786885596,-0.02737036015,0.11215865604999999,0.068932,-0.001509,-0.018883,0.15560211554999998,-4.645017839,-8.635343724,0.018017,0.49345,3.0741,-9.999999999998899e-05,1.999999999990898e-05,4.999999999988347e-05,-0.001291301318041005,-0.00016003162740951815,0.00012429290135410054
149570000000.0,2,-0.053691408749999996,-0.026134722249999996,0.14442253455,0.062482,-0.001468,-0.008218,0.15515100965,-4.6521766934999995,-8.631617196999999,0.017972,0.49427,3.0741,-0.00019999999999997797,-5.0000000000105516e-05,5.0000000000105516e-05,-0.0013374601030010091,-0.0001524477451790851,-0.0004459494739398051
149570000000.0,2,-0.01630845895,-0.02346731345,0.1626138703,0.045349,-0.007724,-0.005034,0.15457241730000001,-4.6580606835,-8.6283810025,0.017913,0.49496,3.074,-0.00019999999999997797,-4.999999999988347e-05,0.00019999999999997797,3.2680172098453752e-06,0.0010303423856199423,-0.00024884916890255404
149570000000.0,2,0.015984839499999997,-0.03392120235,0.1612605526,0.017582,-0.014949,-0.010407,0.1540036316,-4.661983343499999,-8.6262235395,0.017851,0.49541,3.0739,-9.999999999998899e-05,-4.999999999988347e-05,3.333333333332966e-05,-0.0006049840540708895,0.0001918494845141172,-2.9967912409084585e-05
149570000000.0,2,0.0364611247,-0.0442279915,0.16754661524999998,-0.013265,-0.015739,-0.029674,0.15432725105,-4.6633562745,-8.625537074,0.01789,0.49557,3.0736,-0.00019999999999997797,-5.0000000000105516e-05,3.333333333332966e-05,-0.000333768962663461,-0.0009776999516404317,-0.0006302199325805002
149570000000.0,2,0.024712757999999998,-0.029439563299999996,0.1464328978,-0.041891,-0.004828,-0.04789,0.15605322145,-4.6616891439999995,-8.626419672499999,0.018088,0.49537,3.0731,-9.999999999998899e-05,-9.999999999998899e-05,3.333333333332966e-05,0.0007598140922300267,0.0006920893377138082,-0.0005977146833436309
149570000000.0,2,-0.0101793027,-0.010022396299999998,0.11641474214999999,-0.065184,0.00923,-0.060764,0.15906386299999997,-4.6572761515,-8.628675202,0.018433,0.49487,3.0724,-0.00019999999999997797,-4.999999999988347e-05,-9.999999999998899e-05,0.0005508667204566775,-0.0003033681734383453,-0.0006559465782980112
149570000000.0,2,-0.05686876335,-0.0042855060499999995,0.08362130455,-0.079895,0.030673,-0.071499,0.16356511534999998,-4.651097962,-8.632009463,0.018946,0.49415,3.0717,-0.00019999999999997797,-5.0000000000105516e-05,-9.999999999998899e-05,0.001071990377217058,-0.0010387707039081207,-0.0005304947768383084
149570000000.0,2,-0.0800026507,0.020309572149999996,0.05546641239999999,-0.081835,0.056259,-0.069411,0.1699296312,-4.6439391075,-8.63573599,0.019676,0.49332,3.071,-0.00020000000000020002,-5.0000000000105516e-05,-4.999999999988347e-05,0.0004493447677511586,-0.0008996777397289879,-0.00015298015525697095
149570000000.0,2,-0.11772883325,0.057849428349999996,0.0473661195,-0.073184,0.077486,-0.058755,0.17728461869999998,-4.6367802529999995,-8.6393644505,0.020517,0.49249,3.0704,-9.999999999998899e-05,-4.999999999988347e-05,-5.0000000000105516e-05,-0.0002397727211623235,-0.0007020802919852631,-9.902710136208692e-05
149570000000.0,2,-0.12730993029999998,0.05790826824999999,0.040677984199999996,-0.065694,0.087,-0.048081,0.1850710988,-4.6302097975,-8.6426987115,0.02141,0.49173,3.0699,-0.00019999999999997797,-9.999999999998899e-05,-5.0000000000105516e-05,0.0009486363825133015,-9.137967216688025e-06,0.0002445617944221157
149570000000.0,2,-0.10421526954999999,0.04712095325,0.03817728845,-0.05832,0.080534,-0.039515,0.19249473285,-4.624521940499999,-8.6456407065,0.022262,0.49107,3.0696,-0.00019999999999997797,-5.0000000000105516e-05,-4.999999999988347e-05,0.0009243074746789759,-0.0004367518237224921,0.00019370224639592148
149570000000.0,2,-0.0788650793,0.06312540605,0.024232232149999998,-0.053106,0.067699,-0.036278,0.1991730615,-4.6190302165,-8.648484634999999,0.023026,0.49043,3.0692,-0.00019999999999997797,-4.999999999988347e-05,-9.999999999998899e-05,0.0006206753986466862,-0.0015105459608926175,-7.967762852617577e-05
149570000000.0,2,-0.047934905199999996,0.06905842929999999,0.0497589421,-0.05544,0.038952,-0.042635,0.20430193945,-4.613538492499999,-8.651230496999998,0.023611,0.4898,3.0688,-0.00029999999999996696,9.999999999998899e-05,1.999999999990898e-05,0.0006844862800506335,-0.0010694249702163372,-0.00040920226110735536
149570000000.0,2,-0.06065413025,0.058055367999999996,0.046012801799999996,-0.051339,0.006968,-0.060715,0.2072929677,-4.608340967999999,-8.653878292499998,0.023949,0.48921,3.0683,-0.00029999999999996696,-2.4999999999941735e-05,2.0000000000131024e-05,0.00011689099928818836,-0.0007298688898735861,-0.00103545686021847
149570000000.0,2,-0.0403445581,0.07030387384999999,0.017043957699999997,-0.037705,-0.0283,-0.070235,0.20809711299999997,-4.603731842499999,-8.656329955,0.024035,0.48867,3.0675,-0.00019999999999997797,-2.500000000016378e-05,1.999999999990898e-05,0.0010369235255736076,0.0009684971449417379,-0.0007310169997229443
149570000000.0,2,-0.023153500649999995,0.08043414329999998,0.0569374099,-0.022978,-0.06038,-0.079758,0.2066065022,-4.600495648,-8.658095152,0.023858,0.4883,3.0667,-0.00029999999999996696,-2.4999999999941735e-05,2.0000000000131024e-05,0.0004351023216433436,0.0009682488120281718,-0.0007959760995746024
149570000000.0,2,-0.034499794699999996,0.07967903125,0.07840416675,-0.016696,-0.076415,-0.081853,0.2034487609,-4.598338184999999,-8.659370016499999,0.02349,0.48804,3.0658,-0.00020000000000020002,-2.4999999999941735e-05,1.999999999990898e-05,0.0003177449448119596,-9.820569963880921e-05,-0.0016174819676067764
149570000000.0,2,-0.0526420972,0.08064008294999998,0.10081236199999999,-0.018775,-0.066813,-0.077602,0.20003604669999997,-4.596278788499999,-8.6605468145,0.023093,0.4878,3.065,-0.00019999999999997797,-9.999999999998899e-05,-9.999999999998899e-05,0.00023053112003706966,-0.0004247636275382938,-0.0012639377839182564
149570000000.0,2,-0.0770214291,0.08301329225,0.11724830739999999,-0.018605,-0.040186,-0.069107,0.19778051719999998,-4.5941213255,-8.6617236125,0.02283,0.48756,3.0642,-9.999999999998899e-05,1.666666666655381e-05,-0.00019999999999997797,-0.0009930900818352906,-0.0012681635238256384,-3.09807914479765e-05
149570000000.0,2,-0.1166599084,0.07810996725,0.112580342,-0.01201,-0.012544,-0.063804,0.19716269825,-4.5925522615,-8.662606211,0.022756,0.48737,3.0636,-0.00039999999999995595,1.6666666666775853e-05,-0.00010000000000021103,0.0010254194753190338,0.0005872768686359109,-0.0005378000956592355
149570000000.0,2,-0.1362928217,0.08968181424999999,0.17049841689999998,-0.013021,-0.002953,-0.05955,0.19733921794999998,-4.5913754634999995,-8.66319461,0.022775,0.48724,3.0631,-9.999999999998899e-05,1.6666666666775853e-05,-0.00039999999999995595,-0.0007961354035806445,-0.0031459254892574062,0.00036153315395306973
149570000000.0,2,-0.12274983804999999,0.09082919229999999,0.19010191024999998,-0.017402,-0.017838,-0.060595,0.19696656524999998,-4.5900025325,-8.663979142,0.02273,0.48708,3.0625,-0.00029999999999996696,1.666666666655381e-05,-9.999999999998899e-05,-0.00033624462471382177,-0.001143143654283918,-0.0004767257860763263
149570000000.0,2,-0.0645865969,0.044836003799999996,0.1406665876,-0.021813,-0.041238,-0.069099,0.19596628694999998,-4.5884334685,-8.664763674,0.022613,0.4869,3.0618,-0.00039999999999995595,1.666666666655381e-05,-9.999999999998899e-05,-5.875259395310417e-05,0.0005920843635587314,-0.0012617692209019038
149570000000.0,2,0.0160044528,0.00771783355,0.11323738755,-0.028445,-0.07421,-0.075457,0.19393631039999998,-4.5866682715,-8.665744339,0.022376,0.48669,3.061,-0.000400000000000178,1.6666666666775853e-05,-6.666666666665932e-05,0.0004490913821151854,0.001650342822291373,-0.0010384456943712539
149570000000.0,2,0.05976172509999999,-0.0101596894,0.11878795145,-0.033924,-0.096534,-0.081834,0.19072953585,-4.584412742,-8.667019203499999,0.022003,0.48644,3.06,-0.00039999999999995595,3.333333333332966e-05,-6.666666666665932e-05,0.0007316400334991258,0.0009235442607489208,-0.00199049909044699
149570000000.0,2,0.0919471504,-0.03817728845,0.07906121229999999,-0.037109,-0.097567,-0.08611,0.18757179455,-4.582157212499999,-8.668294068,0.021636,0.48618,3.059,-0.00029999999999996696,3.333333333332966e-05,-6.666666666665932e-05,0.0008717959824876553,-0.0002839252110347079,-0.0013033284647404886
149570000000.0,2,0.08566108774999999,-0.0600755379,0.06145827555,-0.039029,-0.075164,-0.09256,0.18608118375,-4.579901682999999,-8.669470866,0.021461,0.48592,3.0579,-0.00029999999999996696,3.333333333332966e-05,-5.0000000000105516e-05,0.0008707131582004202,0.002023784741002732,-0.0009624782764872108
149570000000.0,2,0.05174969204999999,-0.0418743955,0.05938907239999999,-0.043066,-0.045295,-0.090486,0.18662054949999998,-4.576959688,-8.67103993,0.021519,0.48558,3.0568,-0.00029999999999996696,-9.999999999998899e-05,-4.999999999988347e-05,0.0013445625366015346,0.0009309399690118347,-0.0014109580479836903
149570000000.0,2,0.05035714775,-0.028243152,0.032263878499999996,-0.047168,-0.015438,-0.075604,0.18920950509999998,-4.573233160999999,-8.6729031935,0.021813,0.48515,3.0558,-0.00019999999999997797,-9.999999999998899e-05,-0.00019999999999997797,2.9084577780613685e-06,-0.000943419647908339,-0.0005207305557093644
149570000000.0,2,0.037490822949999995,-0.037814442399999995,0.01134629405,-0.050344,-0.000512,-0.056424,0.19234763309999997,-4.569408567499999,-8.67496259,0.02217,0.48471,3.0551,-0.00019999999999997797,3.333333333332966e-05,-0.00019999999999997797,0.00046536694235865816,-0.0006675135098719309,-0.0002283481644679286
149570000000.0,2,0.05127897285,-0.06689115964999999,-0.01927006725,-0.047249,-0.002686,-0.03827,0.19502484854999996,-4.565780106999999,-8.676825853499999,0.022473,0.48429,3.0546,-0.000400000000000178,3.333333333332966e-05,-9.999999999998899e-05,0.0001829516436438472,-0.0016189151032048876,-0.0007297663614992955
149570000000.0,2,0.06000689135,-0.08135596839999999,-0.0453851762,-0.031324,-0.008151,-0.030763,0.196917532,-4.563230378,-8.6780026515,0.022688,0.484,3.0542,-0.00019999999999997797,3.333333333332966e-05,-5.0000000000105516e-05,0.0009197684483542301,-0.00026096453949087106,-0.00015693047620851663
149570000000.0,2,0.018436501999999997,-0.070411747,-0.0824739265,-0.011157,-0.028551,-0.042434,0.19704501845,-4.56205358,-8.678689117,0.0227,0.48386,3.0538,-0.00029999999999996696,4.999999999988347e-05,-4.999999999988347e-05,0.0001339657721507459,-0.00019863315871981868,-0.0001295391207113139
149570000000.0,2,-0.0030792880999999995,-0.0341075287,-0.08236605335,0.009144,-0.041478,-0.069061,0.19656449259999997,-4.5621516465,-8.6785910505,0.022645,0.48387,3.0531,-0.0004999999999999449,5.0000000000105516e-05,9.999999999998899e-05,0.0002361197853199548,0.001239622783600458,-0.0011287738614211562
149570000000.0,2,-0.0175539035,-0.01648497865,-0.14036258145,0.026335,-0.041594,-0.09358,0.19667236575,-4.5631323114999995,-8.678100718,0.022659,0.48399,3.0521,-0.00029999999999996696,9.999999999998899e-05,0.0002500000000000835,-0.00044614330223252674,-0.00012416555989713807,-0.0011133465028680678
149570000000.0,2,-0.045600922499999995,-0.02199631595,-0.14767834235,0.028528,-0.040537,-0.10425,0.19703521179999997,-4.564799442,-8.677218119499999,0.022703,0.48418,3.051,-9.999999999998899e-05,-0.00019999999999997797,0.00024999999999986144,0.00222435974452595,0.008359883193695072,0.0007513732090760894
149570000000.0,2,-0.050504247499999995,-0.04563034245,-0.1075593372,0.018899,-0.042593,-0.10213,0.1971528916,-4.5664665724999995,-8.676335520999999,0.022719,0.48437,3.0498,-0.0013000000000000789,0.0004999999999999449,0.00039999999999995595,0.0015486166974518767,0.0026490750706127386,-0.005396124845308742
149570000000.0,2,-0.0482879446,-0.0881029436,-0.12157304005,0.003927,-0.040351,-0.091482,0.19702540515,-4.5672511044999995,-8.675943255,0.022706,0.48446,3.0488,0.00039999999999995595,-0.00019999999999997797,-0.0008999999999999009,-0.003073464523319136,-0.010758335455812507,0.0009103176856529449
149570000000.0,2,-0.0359315656,-0.11370810674999998,-0.12771200295,-0.001423,-0.033929,-0.077626,0.19693714529999998,-4.567545303999999,-8.675747121999999,0.022696,0.4845,3.0479,-0.00029999999999996696,-5.0000000000105516e-05,9.999999999998899e-05,-7.911570702368032e-05,4.0667023286866666e-05,-0.000937076674210835
149570000000.0,2,-0.03166567285,-0.11349236045,-0.061183689349999994,0.002881,-0.024384,-0.069095,0.19731960464999998,-4.5685259689999995,-8.6752567895,0.022741,0.48461,3.0472,-9.999999999998899e-05,-4.999999999988347e-05,-3.333333333332966e-05,-0.00043329035858707954,-6.020578444498881e-05,-3.6546253134261963e-05
149570000000.0,2,-0.027213453749999998,-0.08139519499999999,-0.0001765197,0.014694,-0.013828,-0.066958,0.19854543589999998,-4.5705853654999995,-8.674178057999999,0.022885,0.48484,3.0464,-0.00029999999999996696,-1.999999999990898e-05,-3.333333333332966e-05,-0.000538896212602058,-0.0007398553847837164,-0.00018960487507171941
149570000000.0,2,-0.03796154215,-0.04919996305,0.057986721449999994,0.020095,-0.008541,-0.071226,0.20032043955,-4.5731350944999996,-8.672805127,0.023094,0.48513,3.0457,-0.00029999999999996696,-2.0000000000131024e-05,-3.333333333332966e-05,3.841793785730463e-05,-0.0010776260547873395,-0.00017219752992994608
149570000000.0,2,-0.01968194655,-0.045473436049999996,0.06969586154999999,0.023212,-0.01816,-0.069069,0.20194834344999998,-4.5760770895,-8.6711379965,0.023285,0.48548,3.0449,-0.00039999999999995595,-1.999999999990898e-05,9.999999999998899e-05,-0.00014997864772370306,-0.0005984849183995333,-0.0011758798925908809
149570000000.0,2,0.0388539473,-0.06653812025,0.0802576236,0.019845,-0.034124,-0.060508,0.20295842839999997,-4.5793132839999995,-8.669470866,0.023407,0.48584,3.0441,-0.000300000000000189,-2.0000000000131024e-05,9.999999999998899e-05,-0.0003597479399896075,-0.0001456335610106052,-0.0011680608279424631
149570000000.0,2,0.09199618365,-0.10256775234999999,0.09773307389999998,0.011162,-0.047912,-0.051963,0.20308591485,-4.582451411999999,-8.6678037355,0.023426,0.48621,3.0434,-0.00019999999999997797,-1.999999999990898e-05,9.999999999998899e-05,-0.001584696226094584,-0.00043643498712953033,-0.0007523672467962261
149570000000.0,2,0.12005300929999999,-0.12155342674999998,0.08381743755,0.007828,-0.055357,-0.035948,0.20227196289999996,-4.585295340499999,-8.666332738,0.023335,0.48654,3.0428,-0.00019999999999997797,-1.999999999990898e-05,-9.999999999998899e-05,-0.000351652523003565,-0.0003910582679518271,-0.00027697875659513094
149570000000.0,2,0.12170052649999999,-0.12223989225,0.08785777735,0.011964,-0.063926,-0.022052,0.20016353314999996,-4.5885315349999996,-8.664665607499998,0.023097,0.48691,3.0424,-0.00039999999999995595,-2.0000000000131024e-05,0.00019999999999997797,0.0008708907601602811,0.002734704043071856,-0.000701694776407219
149570000000.0,2,0.1045781156,-0.1083242559,0.12449542174999999,0.015116,-0.066088,-0.014574,0.19694695194999998,-4.592061929,-8.662802344,0.02273,0.48732,3.0421,-0.00029999999999996696,-1.999999999990898e-05,9.999999999998899e-05,-0.0002508947584868859,0.0015850111548116885,-0.0006494203359360962
149570000000.0,2,0.08764203105,-0.08150306815,0.11149180385,0.016281,-0.056501,-0.017794,0.19397553699999998,-4.5952981235,-8.66123328,0.022392,0.48769,3.0419,-0.00029999999999996696,-2.0000000000131024e-05,9.999999999998899e-05,0.0004747225064561378,0.0015303641880848318,-0.0009296834931599995
149570000000.0,2,0.0679600845,-0.05347566245,0.10745146404999999,0.015427,-0.033045,-0.022108,0.19255357274999998,-4.598142052,-8.659664216,0.022232,0.48802,3.0416,-0.00019999999999997797,-1.999999999990898e-05,-5.0000000000105516e-05,-0.0002285974618706499,7.505931962792367e-05,-0.0005954127474254722
149570000000.0,2,0.05842802069999999,-0.028772711099999997,0.1264077185,0.014683,-0.001055,-0.034976,0.19430896309999998,-4.600691781,-8.658291284999999,0.022439,0.48832,3.0411,-0.00029999999999996696,-9.999999999998899e-05,-4.999999999988347e-05,-0.0005780463596704033,-0.0015279701357444608,-0.0004868927198337647
149570000000.0,2,0.044198571549999996,-0.0158475464,0.10549013404999999,0.012817,0.023485,-0.0489,0.19896712185,-4.6027511775,-8.657114487,0.022979,0.48855,3.0406,-0.000300000000000189,-6.666666666665932e-05,9.999999999998899e-05,0.0007039540674451672,0.0010762551245708796,-0.0005962474710295429
149570000000.0,2,0.05607442469999999,-0.007472667299999999,0.0916921775,0.007506,0.023535,-0.053181,0.20459613894999998,-4.604222174999999,-8.656231888499999,0.023631,0.48872,3.0399,-0.00019999999999997797,-6.666666666665932e-05,5.0000000000105516e-05,5.017727118455939e-05,0.0002530747339413164,-0.0001314442930942239
149570000000.0,2,0.12377953629999999,-0.02109410415,0.0668421264,0.001998,0.002271,-0.05209,0.20991134325,-4.6051047735,-8.655545423,0.024246,0.48883,3.0392,-0.00019999999999997797,-6.666666666665932e-05,4.999999999988347e-05,-0.00029087821847134654,-0.0021458537302792013,-0.0008823801072986026
149570000000.0,2,0.18413946704999998,-0.04514000995,0.0067763951499999996,-0.000297,-0.014759,-0.046732,0.21434394905,-4.605595106,-8.655251223499999,0.02476,0.48888,3.0385,-0.00019999999999997797,-9.999999999998899e-05,-9.999999999998899e-05,-0.0005909574807195783,-0.0005424287547475259,-0.000796017375521374
149570000000.0,2,0.20224254294999996,-0.055701772,-0.01781868305,-0.003592,-0.023257,-0.041392,0.2179429896,-4.605791239,-8.6550550905,0.025175,0.48891,3.0378,-9.999999999998899e-05,-9.999999999998899e-05,9.999999999998899e-05,-8.799909485368573e-05,-0.0002789402706817601,-0.00012784270719917723
149570000000.0,2,0.18958215779999998,-0.021143137399999998,-0.0146707484,-0.00571,-0.020039,-0.039273,0.2211791841,-4.605398973,-8.655153156999999,0.025548,0.48885,3.0372,-5.0000000000105516e-05,-0.00019999999999997797,-0.00019999999999997797,-0.0016708926703723481,-0.0018348725414916167,0.0006877104589720351
149570000000.0,2,0.14102943364999998,0.03231291175,-0.041452709549999994,-0.000251,-0.004096,-0.039296,0.22468996479999997,-4.6043202415,-8.6556434895,0.025953,0.48874,3.0366,-4.999999999988347e-05,-5.0000000000105516e-05,-9.999999999998899e-05,0.00014732428444519385,0.0002823271044887221,0.0003366401993833701
149570000000.0,2,0.0667636732,0.07420692055,-0.04908228325,0.011619,0.011794,-0.041441,0.2283184253,-4.6035357095,-8.655937689,0.026371,0.48865,3.0361,-9.999999999998899e-05,-4.999999999988347e-05,5.0000000000105516e-05,-4.134637214991965e-05,3.1584357956360165e-05,4.3232614021837534e-05
149570000000.0,2,0.0457186023,0.10353861069999999,-0.0655868752,0.028739,0.02124,-0.037161,0.23245683159999997,-4.603731842499999,-8.655741555999999,0.02685,0.48867,3.0356,-0.00019999999999997797,-9.999999999998899e-05,4.999999999988347e-05,-1.7664145185891655e-05,0.0006958940014487602,-0.00024434217368599076
149570000000.0,2,0.04681694709999999,0.1262115855,-0.08368014445000001,0.046919,0.028548,-0.035011,0.23735034994999998,-4.60520284,-8.654858957499998,0.027417,0.48883,3.0351,-9.999999999998899e-05,-1.2499999999970868e-05,9.999999999998899e-05,-0.0008337043394245902,-0.0006083098947999854,-0.0002944186809728244
149570000000.0,2,0.03282285755,0.11981764969999999,-0.08586702739999999,0.059724,0.031637,-0.031794,0.24221444834999997,-4.6078506355,-8.6532898935,0.027984,0.48915,3.0347,-9.999999999998899e-05,-1.2500000000192912e-05,9.999999999998899e-05,-0.0003585792231605711,0.0001403952411338505,1.3888648482368593e-05
149570000000.0,2,0.0661948875,0.11000119304999999,-0.0965562759,0.066058,0.03051,-0.02111,0.24729429304999997,-4.6113810294999995,-8.651230496999998,0.028578,0.48955,3.0343,-9.999999999998899e-05,-1.2499999999970868e-05,0.00019999999999997797,-0.0009604841688665156,-0.0005651816148044553,-0.0006642835725757523
149570000000.0,2,0.1015576674,0.08554340795,-0.06224280755,0.064912,0.030506,-0.006172,0.25217800474999996,-4.6154998224999995,-8.648876901,0.029149,0.49003,3.0341,-9.999999999998899e-05,-1.2499999999970868e-05,9.999999999998899e-05,-0.0007761913085312933,-0.00013602938830259426,-0.00016872118602326291
149570000000.0,2,0.10225393954999999,0.039393313049999996,-0.018426695349999998,0.058462,0.032681,0.006619,0.25657138394999995,-4.6201089479999995,-8.646327172,0.029666,0.49056,3.034,-5.0000000000105516e-05,-1.2499999999970868e-05,0.00019999999999997797,-0.00033961735327409093,0.0005580227879999899,-1.2800561343506711e-05
149570000000.0,2,0.10504883479999999,-0.00095124505,0.00505042475,0.058402,0.028417,0.01196,0.2603665575,-4.625208406,-8.6434832435,0.030113,0.49115,3.0341,-4.999999999988347e-05,-1.2499999999970868e-05,9.999999999998899e-05,-0.0005672575188696571,-0.0009268732427869519,5.7401773696091896e-05
149570000000.0,2,0.10521554785000001,-0.013484143749999998,0.0580161414,0.04873,0.018911,0.01089,0.2636419786,-4.630405930499999,-8.640639315,0.030502,0.49175,3.0341,9.999999999998899e-05,-1.2500000000192912e-05,0.00020000000000020002,-0.0010477694762974776,0.00021060847978127128,0.00026604215067638215
149570000000.0,2,0.1359790089,-0.01562199345,0.11506142444999999,0.028326,-9.4e-05,0.007683,0.26610344775,-4.6343285905,-8.6383837855,0.030794,0.49221,3.034,9.999999999998899e-05,-1.2499999999970868e-05,9.999999999998899e-05,-0.0003155298315176691,0.000478695580515609,0.00027889801399519354
149570000000.0,2,0.15646510075,-0.0371475902,0.08595528725,0.007959,-0.011643,0.008733,0.26761367185,-4.636584119999999,-8.637108921,0.030974,0.49247,3.034,-9.999999999998899e-05,-3.333333333332966e-05,9.999999999998899e-05,0.00019391373191024464,-0.000547553021517988,-0.0003123488956956466
149570000000.0,2,0.16492823969999998,-0.05392676835,0.061585761999999995,-0.003832,-0.011552,0.02045,0.26857472355,-4.6376628515,-8.6366185885,0.031087,0.49259,3.034,9.999999999998899e-05,-3.333333333332966e-05,9.999999999998899e-05,-0.00011312854106387826,0.0008774000256106529,0.00011991489422022439
149570000000.0,2,0.16833114724999998,-0.052867650149999994,0.0364611247,0.002523,-0.003098,0.043925,0.26920234914999996,-4.638741583,-8.635932123,0.031162,0.49271,3.0342,0.00019999999999997797,-3.333333333332966e-05,9.999999999998899e-05,0.0005846281023181854,0.0017970190315477197,0.00044205036469135983
149570000000.0,2,0.1483550012,-0.03521568015,0.018740508149999998,0.015255,0.001042,0.065285,0.26898660285,-4.64050678,-8.6350495245,0.03114,0.49292,3.0348,9.999999999998899e-05,-3.333333333332966e-05,9.999999999998899e-05,-0.0002913701925993939,0.0005381545450511283,0.0008521577056936624
149570000000.0,2,0.11921944404999998,-0.0060016698,0.05345604915,0.029051,0.000917,0.08025,0.26744695879999997,-4.6433507085,-8.633578527,0.030968,0.49325,3.0355,0.00019999999999997797,-3.333333333332966e-05,4.0000000000040004e-05,-4.055962075044661e-05,0.0001949390552766772,0.0010505798797491306
149570000000.0,2,0.12269099815,0.008070872949999999,0.0559567449,0.032109,-0.018283,0.078151,0.2647207101,-4.6466849695,-8.63181333,0.030658,0.49364,3.0363,0.00029999999999996696,-3.333333333332966e-05,4.0000000000040004e-05,-0.0017413493827611592,-0.001363486598583874,0.0008302016217952568
149570000000.0,2,0.11743463374999999,0.021005844299999996,0.054024834849999995,0.025518,-0.048051,0.068583,0.2597977718,-4.649430831499999,-8.630538465499999,0.030093,0.49395,3.037,0.00019999999999997797,-9.999999999998899e-05,3.999999999981796e-05,-0.001436215095028226,0.0001503289064672675,0.0005083633964944878
149570000000.0,2,0.11379636659999999,0.042698154099999996,0.027389973449999997,0.013624,-0.070323,0.064328,0.25297234339999997,-4.6506076295,-8.630048132999999,0.029304,0.49409,3.0376,0.00029999999999996696,-9.999999999998899e-05,4.0000000000040004e-05,-0.0003401251866310684,0.00014341594241185085,0.00037573744571031686
149570000000.0,2,0.1011261748,0.046424681100000004,0.0170047311,0.006076,-0.076658,0.06966,0.24483282389999997,-4.6509018289999995,-8.630146199499999,0.028362,0.49413,3.0383,0.00019999999999997797,1.999999999990898e-05,4.0000000000040004e-05,0.0009697400498213105,0.0022726728548041475,0.00041591859112383167
149570000000.0,2,0.04692482025,0.06792085789999999,0.023447700149999997,0.002819,-0.07345,0.085658,0.23529095344999998,-4.6506076295,-8.630636531999999,0.027256,0.49409,3.0392,9.999999999998899e-05,2.0000000000131024e-05,9.999999999998899e-05,0.0009772339047268153,0.0029341795299009377,0.00034643167750703086
149570000000.0,2,-0.0151414676,0.10587259339999999,0.021290237150000002,0.008207,-0.054335,0.10485,0.22508223079999998,-4.6501172969999995,-8.631126864499999,0.026072,0.49403,3.0404,0.00010000000000021103,1.999999999990898e-05,0.00019999999999997797,0.0003592316199651502,0.0018292168348981175,-0.00023314480324612696
149570000000.0,2,-0.08917186845,0.1289574475,0.04009939184999999,0.011532,-0.030935,0.11655,0.21486370149999998,-4.6498230975,-8.6315191305,0.024888,0.494,3.0418,0.00029999999999996696,2.0000000000131024e-05,5.0000000000105516e-05,-0.0015506653601112808,-0.00081284055422981,0.0006457556184210622
149570000000.0,2,-0.13694986725,0.15601399484999998,0.0606835502,0.017047,-0.00648,0.11866,0.20578274359999998,-4.649725031,-8.63181333,0.023835,0.49399,3.0432,9.999999999998899e-05,1.999999999990898e-05,4.999999999988347e-05,0.00014275505258326548,0.001268584111878912,0.00024215941423139098
149570000000.0,2,-0.158671597,0.19104334864999997,0.07236327035,0.017327,0.02123,0.1058,0.19922209475,-4.649528898,-8.632107529499999,0.023076,0.49396,3.0446,0.00019999999999997797,9.999999999998899e-05,4.999999999988347e-05,0.0004641424046071263,0.000250318670412808,0.001743491127635638
149570000000.0,2,-0.2001733398,0.21023496269999997,0.10070448885,0.028308,0.045666,0.08123,0.19523078819999998,-4.6498230975,-8.632009463,0.022614,0.494,3.0458,0.00019999999999997797,5.0000000000105516e-05,5.0000000000105516e-05,7.91655901982713e-05,3.578630742184785e-05,0.0008827784120978288
149570000000.0,2,-0.20549835075,0.20840111914999998,0.125328987,0.037018,0.054135,0.058818,0.19337733135,-4.651097962,-8.6313229975,0.0224,0.49415,3.0467,9.999999999998899e-05,4.999999999988347e-05,9.999999999998899e-05,-0.00024904164825612085,9.880263649386656e-05,0.0012085915905580558
149570000000.0,2,-0.18561046455,0.190052877,0.16648749705,0.035868,0.034972,0.04391,0.19159252104999996,-4.6531573585,-8.630244266,0.022196,0.49438,3.0474,9.999999999998899e-05,9.999999999998899e-05,-4.999999999988347e-05,-0.00044342388213713946,-0.0005729749995606603,0.0006819131263416933
149570000000.0,2,-0.1478254421,0.13224267525,0.1731462124,0.027179,0.012666,0.0386,0.18882704575,-4.6553148215,-8.6291655345,0.021879,0.49464,3.048,9.999999999998899e-05,0.00010000000000021103,-5.0000000000105516e-05,0.0001271905113926497,0.00034620615884684014,0.0003453515381280081
149570000000.0,2,-0.08627890669999999,0.05620191115,0.12886918765,0.00789,3.8e-05,0.035389,0.1857967909,-4.6567858189999995,-8.628479068999999,0.021529,0.49481,3.0485,9.999999999998899e-05,3.333333333332966e-05,-5.0000000000105516e-05,-0.00027057646816674996,1.1088008266435523e-05,0.0002175423809845367
149570000000.0,2,-0.0502688879,-0.0033440676499999996,0.1447657673,-0.015587,-0.002963,0.032153,0.18329609514999998,-4.657080018499999,-8.628282936,0.02124,0.49484,3.0489,0.00019999999999997797,3.333333333332966e-05,-4.999999999988347e-05,-0.0005419751353266111,-0.001923895594263314,0.0004413934526461549
149570000000.0,2,-0.04168806914999999,-0.04682675374999999,0.159652262,-0.043253,0.003661,0.028893,0.18129553855,-4.6557070875,-8.6291655345,0.021007,0.49468,3.0493,0.00019999999999997797,3.333333333332966e-05,-0.00019999999999997797,0.0005360083094290147,-0.00037227316122789844,0.0006529635657656074
149570000000.0,2,-0.0245362383,-0.06374322499999999,0.15181674865,-0.071969,0.012425,0.025627,0.18060907304999999,-4.651882494,-8.631224931,0.020922,0.49424,3.0496,9.999999999998899e-05,1.999999999990898e-05,-9.999999999998899e-05,0.0004121734475056593,0.0003878573906470617,0.0002971174880372074
149570000000.0,2,-0.00805125965,-0.05523105279999999,0.1489041736,-0.094297,0.022199,0.026639,0.18103075899999999,-4.6459004375,-8.634363059,0.020963,0.49355,3.0499,9.999999999998899e-05,2.0000000000131024e-05,-9.999999999998899e-05,0.0009843715388357932,0.00017477586587721916,0.00015710916288436128
149570000000.0,2,0.0020201699,-0.04884692365,0.0883383032,-0.094238,0.031785,0.030893,0.1821879437,-4.6388396494999995,-8.6381876525,0.021087,0.49273,3.0503,9.999999999998899e-05,1.999999999990898e-05,-0.00029999999999996696,0.000307939976446292,-0.0012527812870768429,0.0005260402034404643
149570000000.0,2,-0.010502922149999998,-0.0241439723,0.05630978429999999,-0.086741,0.039176,0.037298,0.18363932789999998,-4.6317788615,-8.641914179499999,0.021247,0.49192,3.0507,9.999999999998899e-05,2.0000000000131024e-05,-9.999999999998899e-05,0.0009823011318240704,0.00021582521887064665,0.0004891833892629038
149570000000.0,2,-0.035451039749999996,-0.006639102049999999,0.05546641239999999,-0.070808,0.034773,0.044806,0.1841885003,-4.625796805,-8.645150374,0.021302,0.49122,3.0512,5.0000000000105516e-05,1.999999999990898e-05,9.999999999998899e-05,0.001226040903167247,0.002324188690688622,0.00038925671873812906
149570000000.0,2,-0.06168382849999999,-0.0026379888499999996,-0.00214765635,-0.058104,0.025072,0.049116,0.1833451284,-4.6205992805,-8.647994302499999,0.021198,0.49061,3.0519,5.0000000000105516e-05,3.333333333332966e-05,-9.999999999998899e-05,0.0005717620643540533,9.792642829298259e-05,0.0004627511671370932
149570000000.0,2,-0.053809088549999995,0.00293218835,-0.0455616959,-0.051876,0.006898,0.054497,0.18114843879999998,-4.6156959555,-8.650642098,0.020938,0.49005,3.0525,0.00019999999999997797,3.333333333332966e-05,-9.999999999998899e-05,-6.152660078906358e-05,-0.0011286588753585125,0.0007163875522699925
149570000000.0,2,-0.0191425808,-0.02028995885,-0.0614484689,-0.06071,-0.025007,0.063078,0.17655892659999997,-4.610498431,-8.6534860265,0.020401,0.48945,3.0532,9.999999999998899e-05,3.333333333332966e-05,-0.00019999999999997797,0.00011099165807548772,-0.0006805856189235904,0.0005409502694581347
149570000000.0,2,0.018524761849999998,-0.06285081984999999,-0.10841251575,-0.080259,-0.062152,0.072716,0.16882147975,-4.604026042,-8.6570164205,0.019499,0.4887,3.054,0.00019999999999997797,6.666666666665932e-05,-0.00010000000000021103,0.0006852795010267032,0.0003028033918828221,0.00023596411754775448
149570000000.0,2,0.006639102049999999,-0.0865731062,-0.18321764195,-0.086763,-0.072758,0.075925,0.15886772999999998,-4.5964749215,-8.66123328,0.01834,0.48783,3.0549,0.00019999999999997797,6.666666666665932e-05,2.500000000016378e-05,0.0014262227829535679,0.0016314561025627672,0.0010640796641951944
149570000000.0,2,-0.0614484689,-0.039422733,-0.22456247834999998,-0.072782,-0.06115,0.071661,0.14868842729999998,-4.588727668,-8.665548205999999,0.017157,0.48694,3.0558,5.0000000000105516e-05,6.666666666665932e-05,2.4999999999941735e-05,0.001078862554285298,0.001586280785896177,-6.166857735856457e-06
149570000000.0,2,-0.1706749366,0.0384812946,-0.1726362666,-0.047966,-0.029387,0.066314,0.13925443,-4.582255279,-8.669176666499999,0.016061,0.48619,3.0568,4.999999999988347e-05,9.999999999998899e-05,2.4999999999941735e-05,0.0007140828359138429,0.001049897451791404,0.0003310372490241409
149570000000.0,2,-0.28006811735,0.11227633585,-0.14771756895,-0.010273,0.013984,0.064174,0.13177195604999997,-4.5780384195,-8.671432196,0.015195,0.48571,3.0578,9.999999999998899e-05,9.999999999998899e-05,2.500000000016378e-05,-5.43546834684272e-05,0.000713304961960981,0.00026015648345592557
149570000000.0,2,-0.34152639290000003,0.159259996,-0.1322720952,0.031583,0.047722,0.067395,0.12649597835,-4.577057754499999,-8.6721186615,0.014586,0.48558,3.0588,9.999999999998899e-05,0.00019999999999997797,9.999999999998899e-05,-0.0003566056764641723,-0.00033378678775553006,0.00040696241505427944
149570000000.0,2,-0.34987185205,0.17311679244999997,-0.09275129569999999,0.066844,0.055943,0.068516,0.1222693122,-4.5793132839999995,-8.6709418635,0.014101,0.48585,3.0599,-4.999999999988347e-05,0.00019999999999997797,4.999999999988347e-05,-0.0007321065360800239,-0.0010873744742092573,0.0008955953303397823
149570000000.0,2,-0.3007895688,0.1522580479,-0.06886229629999999,0.090194,0.040822,0.067522,0.11808187264999999,-4.584412742,-8.668294068,0.013621,0.48643,3.061,-5.0000000000105516e-05,0.00019999999999997797,5.0000000000105516e-05,-0.0009929730383693158,-0.00030608096710293964,0.000653148860109587
149570000000.0,2,-0.22122821734999998,0.0895935544,-0.0674501387,0.099567,0.011966,0.066526,0.11288434815,-4.59147353,-8.664665607499998,0.013028,0.48725,3.0619,-5.0000000000105516e-05,0.00029999999999996696,0.00019999999999997797,-0.0009437170877758527,0.0002622398723093333,0.0006376714874625489
149570000000.0,2,-0.15065956395,0.04268834745,-0.024634304799999996,0.096173,-0.014647,0.0623,0.10666693204999998,-4.599416916499999,-8.660448748,0.012316,0.48817,3.0627,-4.999999999988347e-05,0.00019999999999997797,0.00019999999999997797,-0.00040810888268727474,0.0012986224168711757,0.000688230089234354
149570000000.0,2,-0.10661789879999999,-0.024183198899999998,0.0485233042,0.074711,-0.03365,0.056961,0.099439431,-4.6072622364999996,-8.6564280215,0.011487,0.48907,3.0635,-4.999999999988347e-05,0.00019999999999997797,9.999999999998899e-05,-0.001024615504682469,0.0007151326096934696,0.0002752977765569653
149570000000.0,2,-0.0740598208,-0.08097350905,0.0891424485,0.041691,-0.033371,0.047298,0.09276110235,-4.613440426,-8.653191827,0.01072,0.48979,3.0641,-5.0000000000105516e-05,0.00020000000000020002,9.999999999998899e-05,0.00024778601565284,0.0021526335570951627,-2.179586252021304e-05
149570000000.0,2,-0.07309876909999999,-0.13893081055,0.1268588244,0.004532,-0.02133,0.031202,0.08761261109999999,-4.6174611525,-8.651132430499999,0.010127,0.49025,3.0646,-9.999999999998899e-05,0.00019999999999997797,9.999999999998899e-05,-0.00010236769714994098,0.00039173536727998837,3.4374886181604e-05
149570000000.0,2,-0.0768449094,-0.16986098465,0.15660239385,-0.028345,-0.010385,0.010846,0.0844744831,-4.6190302165,-8.6503478985,0.009766,0.49043,3.0649,-9.999999999998899e-05,0.00019999999999997797,-3.333333333332966e-05,0.0002913740923673469,0.0004456583794696378,-0.0002863183751759535
149570000000.0,2,-0.06239971394999999,-0.15503332984999998,0.17637260025,-0.05051,0.007928,-0.006303,0.08394492399999999,-4.6184418175,-8.650642098,0.009704,0.49036,3.0649,-9.999999999998899e-05,4.999999999988347e-05,-3.333333333332966e-05,-0.00024370168539450399,-0.000959755603244572,1.2227678157089583e-05
149570000000.0,2,-0.053357982649999997,-0.13765594605,0.17139082204999997,-0.057784,0.023982,-0.018085,0.08552379464999998,-4.6164804875,-8.651622762999999,0.009885,0.49014,3.0648,-9.999999999998899e-05,5.0000000000105516e-05,-3.333333333332966e-05,-0.00014537350965021512,-0.002223988692094281,-0.00010977157274824623
149570000000.0,2,-0.043482686099999994,-0.10351899739999999,0.18819942015,-0.060821,0.036804,-0.028786,0.0891228352,-4.613832692,-8.652995694,0.010299,0.48983,3.0645,-9.999999999998899e-05,9.999999999998899e-05,-9.999999999998899e-05,0.000662335018173088,-0.0013840465825192272,-6.106976003275588e-05
149570000000.0,2,-0.047738772199999994,-0.07161796494999999,0.1887583992,-0.056491,0.037842,-0.038387,0.09337892129999999,-4.6109887635,-8.6544666915,0.010789,0.48951,3.0641,-9.999999999998899e-05,9.999999999998899e-05,-3.333333333332966e-05,0.00035406790920267106,-0.00048250029161955865,2.4970524529321914e-05
149570000000.0,2,-0.014915914649999999,-0.0559763582,0.17804953739999999,-0.048039,0.028179,-0.036221,0.09766442735,-4.608537101,-8.655741555999999,0.011282,0.48922,3.0637,-0.00020000000000020002,5.0000000000105516e-05,-3.333333333332966e-05,-0.00017609920722944095,-0.0006566800884659774,0.0003975488889665091
149570000000.0,2,0.027693979599999998,-0.044963490249999995,0.16216276439999996,-0.034363,0.009941,-0.025492,0.10069468219999998,-4.6067719039999995,-8.6566241545,0.011631,0.48902,3.0634,-9.999999999998899e-05,4.999999999988347e-05,-3.333333333332966e-05,7.066312184722534e-05,-0.0003220563497827733,-0.00029102465057015414
149570000000.0,2,0.06263507355,-0.06738149215,0.13121297699999998,-0.008956,-0.011585,-0.019008,0.10211664645,-4.6072622364999996,-8.656329955,0.011796,0.48908,3.0631,-9.999999999998899e-05,4.999999999988347e-05,1.4285714285744433e-05,-0.00016882353240721404,-0.0002260827833067136,-0.00016557650516690892
149570000000.0,2,0.07550139835,-0.05930081255,0.1188762113,0.009065,-0.028777,-0.022151,0.10226374619999999,-4.6094196995,-8.655251223499999,0.011815,0.48932,3.0628,-9.999999999998899e-05,5.0000000000105516e-05,1.4285714285744433e-05,0.0006506891520762226,0.0006757664993075618,3.3366106899218595e-05
149570000000.0,2,0.0882990766,-0.01211121275,0.1454326195,0.009974,-0.05222,-0.027447,0.10098888169999999,-4.6115771625,-8.654172492,0.011669,0.48957,3.0624,-9.999999999998899e-05,9.999999999998899e-05,1.4285714285744433e-05,0.00021918569072654215,0.0005898940360420379,-0.00048419836739754807
149570000000.0,2,0.11222730259999998,-0.007021561399999999,0.11310990110000001,-0.002907,-0.064893,-0.03172,0.0987529655,-4.612459760999999,-8.6536821595,0.011412,0.48967,3.062,-9.999999999998899e-05,3.333333333332966e-05,1.4285714285522388e-05,0.0002994308168003945,0.0006851748208576147,-0.0007235510551269198
149570000000.0,2,0.1192292507,-0.042560861,0.025242317099999998,-0.007056,-0.054192,-0.038154,0.09729177464999998,-4.6125578275,-8.6536821595,0.011242,0.48968,3.0614,-9.999999999998899e-05,3.333333333332966e-05,1.4285714285744433e-05,0.0007390052316107454,0.0005049025908911986,-0.0005981793262009871
149570000000.0,2,0.0943791996,-0.0394815729,-0.00279489525,-0.003572,-0.022244,-0.043543,0.09820379309999999,-4.6126558939999995,-8.653584093,0.011348,0.48969,3.0609,-9.999999999998899e-05,3.333333333332966e-05,1.4285714285744433e-05,6.889489342531974e-05,0.000187033972875561,-0.0004883985331244345
149570000000.0,2,0.0703529071,0.019122967499999997,0.0373044966,-0.000173,0.006495,-0.037186,0.1012830812,-4.6125578275,-8.653584093,0.011703,0.48969,3.0604,-0.00019999999999997797,9.999999999998899e-05,1.4285714285744433e-05,0.00029235760017753964,0.0003728729863547997,-0.0004871854267856912
149570000000.0,2,0.05804556135,0.0446006442,0.054456327449999994,-0.002298,0.015027,-0.025465,0.10491154169999999,-4.612263628,-8.6536821595,0.012123,0.48966,3.06,-2.4999999999941735e-05,4.999999999988347e-05,-9.999999999998899e-05,-6.0410103656871605e-05,-0.0004114775574435292,-9.422622153709703e-05
149570000000.0,2,0.06696961285,0.012778064949999998,0.0242616521,-0.007701,0.015059,-0.0116,0.1081085096,-4.6115771625,-8.653976359,0.012492,0.48958,3.0597,-2.500000000016378e-05,5.0000000000105516e-05,1.999999999990898e-05,4.733518789978852e-05,-0.00014473218774480046,0.00033663768441266617
149570000000.0,2,0.0821405004,0.0018632635,-0.01415099595,-0.001313,0.018199,-0.004125,0.11133489745,-4.6111848965,-8.654172492,0.012864,0.48952,3.0596,-2.4999999999941735e-05,5.0000000000105516e-05,2.0000000000131024e-05,-0.00022230687047714026,-0.00014073044659990153,0.00010814686012347585
149570000000.0,2,0.07310857574999999,-0.0029910282499999996,-0.013082071099999999,0.020097,0.024423,-0.00837,0.1149927779,-4.612459760999999,-8.6534860265,0.013287,0.48967,3.0595,-2.4999999999941735e-05,4.999999999988347e-05,1.999999999990898e-05,0.00017462719838762242,0.00030567294677008583,-7.631017410864027e-05
149570000000.0,2,0.0749424193,0.025811102799999996,0.04315906665,0.030737,0.020077,-0.009413,0.11868988494999999,-4.6149114235,-8.652113095499999,0.013717,0.48996,3.0593,2.4999999999941735e-05,9.999999999998899e-05,2.0000000000131024e-05,-0.000554508952699373,-0.00010634859998348567,0.00012178350849179065
149570000000.0,2,0.06842099704999999,0.04798393844999999,0.05141626595,0.025266,0.005202,-0.006196,0.1211709674,-4.61697082,-8.6509362975,0.014005,0.4902,3.0591,2.4999999999941735e-05,9.999999999998899e-05,1.999999999990898e-05,-0.00010050527512683871,0.00039500807516201775,-0.000204582444722351
149570000000.0,2,0.07483454614999999,-0.01220927925,0.0258699427,0.010138,-0.018115,-0.005116,0.12149458685,-4.6186379505,-8.650053698999999,0.014044,0.49039,3.059,2.500000000016378e-05,4.999999999988347e-05,-2.4999999999941735e-05,-0.00045252965973796577,-6.0568217089107534e-05,-8.51393708372894e-05
149570000000.0,2,0.10246968584999999,-0.04221762824999999,0.0075511204999999994,0.002639,-0.025503,-0.010455,0.1213867137,-4.619618615499999,-8.649563366499999,0.014033,0.4905,3.0588,2.4999999999941735e-05,5.0000000000105516e-05,-2.4999999999941735e-05,-0.00019531322403204543,0.00017531520427493952,-0.0002810761780400184
149570000000.0,2,0.0961836232,-0.038687234249999994,-0.0058055367999999994,0.014552,-0.007476,-0.016873,0.12259293164999999,-4.6209915465,-8.6487788345,0.014173,0.49067,3.0585,5.0000000000105516e-05,9.999999999998899e-05,-2.500000000016378e-05,-0.00040641067726115976,0.00035156052230300716,-2.5140316851246514e-05
149570000000.0,2,0.0618015083,-0.0037755602499999997,0.042403954599999995,0.022129,0.010571,-0.009422,0.1246425215,-4.6231490095,-8.647602036499999,0.014413,0.49091,3.0583,4.999999999988347e-05,5.0000000000105516e-05,-2.4999999999941735e-05,-0.0008145684356951066,-0.00027787891079755767,0.0002832523982626012
149570000000.0,2,0.020446865249999998,0.0187307015,0.093751574,0.012517,0.019159,0.006557,0.12649597835,-4.625012272999999,-8.6466213715,0.014629,0.49113,3.0583,6.666666666665932e-05,5.0000000000105516e-05,-1.999999999990898e-05,-0.0003055175551612277,-3.891274693224034e-05,0.00013540713192636278
149570000000.0,2,0.01293497135,-0.0229867876,0.08052240314999999,-0.00461,0.02248,0.0236,0.1277218096,-4.6259929379999996,-8.6460329725,0.014772,0.49124,3.0586,6.666666666665932e-05,9.999999999998899e-05,-2.0000000000131024e-05,-4.3750493681771196e-05,-4.214907907451604e-05,0.00041408957864441653
149570000000.0,2,0.0226337482,-0.056270557699999994,0.04062895095,-0.007696,0.038487,0.026768,0.129840046,-4.626385204,-8.6458368395,0.015017,0.49128,3.0588,6.666666666665932e-05,5.0000000000105516e-05,-1.999999999990898e-05,0.0003800010815301347,-6.4525580900642865e-06,0.0005916542862697827
149570000000.0,2,-0.004716998649999999,-0.044335864649999994,0.024761791249999998,0.009553,0.056467,0.020362,0.1332527602,-4.627660068499999,-8.645052307499999,0.015413,0.49143,3.0591,4.999999999988347e-05,4.999999999988347e-05,-2.0000000000131024e-05,-0.00037882267668576386,-0.00027396638837529075,0.0003706058793760125
149570000000.0,2,-0.0349901272,0.025193283849999998,0.09835089285,0.017076,0.058543,0.012901,0.1371950335,-4.629523332,-8.643973575999999,0.01587,0.49165,3.0593,5.0000000000105516e-05,9.999999999998899e-05,-1.999999999990898e-05,0.0001803205150797127,-0.00029816617031941384,0.00041890188505561143
149570000000.0,2,-0.0212804305,0.03763792269999999,0.11056997874999999,0.014852,0.045776,0.010785,0.14069600755,-4.631190462499999,-8.6430909775,0.016277,0.49184,3.0594,9.999999999998899e-05,3.333333333332966e-05,6.666666666665932e-05,-0.0001605436938990068,-0.0005587579507251306,0.00035259860827913103
149570000000.0,2,0.00222610955,-0.017524483549999997,0.056888376649999996,0.004089,0.035207,0.01292,0.143373223,-4.632465327,-8.6423064455,0.016588,0.49199,3.0595,4.999999999988347e-05,3.333333333332966e-05,6.666666666665932e-05,-0.0005322744307543759,-0.0004977217154971125,-0.00011400344075523927
149570000000.0,2,0.019181807399999997,-0.061173882699999994,0.03882452735,0.000872,0.034167,0.015051,0.1460210185,-4.633740191499999,-8.64161998,0.016896,0.49213,3.0597,5.0000000000105516e-05,3.333333333332966e-05,6.666666666665932e-05,0.00025002447544358875,0.0007433584794853676,-6.528844198552819e-05
149570000000.0,2,0.022261095499999998,-0.0675678185,0.054721107,-0.01078,0.044919,0.016079,0.14952199254999998,-4.6343285905,-8.641227714,0.017302,0.49221,3.0598,9.999999999998899e-05,1.0000000000065512e-05,-9.999999999998899e-05,-0.00020859724843791394,-0.0008367443588315204,0.0002444193500644176
149570000000.0,2,-0.00389324005,-0.061899574799999996,0.0932220149,-0.02363,0.041823,0.021399,0.15232669445,-4.6341324575,-8.641227714,0.017626,0.49219,3.0601,9.999999999998899e-05,9.999999999843467e-06,-9.999999999998899e-05,0.0002466996744194816,-0.00039541547728427773,0.0005173678437309648
149570000000.0,2,-0.0077766734499999995,-0.07453053999999999,0.0887109559,-0.037595,0.028087,0.019265,0.15397421165,-4.6327595265,-8.642012246,0.017815,0.49202,3.0603,9.999999999998899e-05,1.0000000000065512e-05,-4.999999999988347e-05,0.0008442391701515284,4.5487555668355384e-05,0.0006906804941216593
149570000000.0,2,0.01560238015,-0.08478829589999999,0.0334995164,-0.033331,0.023796,0.013943,0.1554354025,-4.630994329499999,-8.642894844499999,0.017982,0.49182,3.0605,0.00010000000000021103,1.0000000000065512e-05,-5.0000000000105516e-05,0.00022315427704611146,-0.0003817231593588044,-2.124355824562052e-05
149570000000.0,2,0.005452497399999999,-0.03272479105,0.0026576021499999996,-0.008627,0.039585,0.006486,0.15824991104999997,-4.6301117309999995,-8.643385177,0.018307,0.49172,3.0606,0.00019999999999997797,9.999999999843467e-06,2.4999999999941735e-05,0.0004286982793081928,0.00017965123163876662,0.00035876924536076826
149570000000.0,2,-0.03350932305,0.0364611247,0.0261837555,0.014969,0.056437,0.008633,0.1620450846,-4.6307981965,-8.642894844499999,0.018747,0.49179,3.0607,9.999999999998899e-05,1.0000000000065512e-05,2.500000000016378e-05,-0.0006886451279880523,-0.0003229059618847785,0.0004199306028438432
149570000000.0,2,-0.05730025595,0.0544857474,0.044737937299999996,0.019245,0.059593,0.011838,0.1657912249,-4.632073061,-8.642208379,0.019181,0.49194,3.0609,5.0000000000105516e-05,1.0000000000065512e-05,2.4999999999941735e-05,0.00027754034319121823,0.0002466326940260277,0.0005415000859305963
149570000000.0,2,-0.048366397799999995,0.026203368799999998,-0.0069234948999999995,0.014985,0.060693,0.01183,0.16971388489999997,-4.633053726,-8.6415219135,0.019637,0.49206,3.061,4.999999999988347e-05,1.0000000000065512e-05,2.4999999999941735e-05,-0.00031833954391563557,-0.0007145112557851441,0.000282130550302212
149570000000.0,2,-0.03217561865,0.00348136075,-0.06443949715,0.018147,0.055339,0.010778,0.17358751165,-4.6341324575,-8.640835447999999,0.020086,0.49218,3.0612,9.999999999998899e-05,9.999999999843467e-06,4.999999999988347e-05,-0.0008805979864368596,-0.0005734287165324314,0.00040089151598471373
149570000000.0,2,-0.017249897349999998,-0.00430511935,-0.040158231749999995,0.014871,0.044712,0.008657,0.17705906575,-4.635407322,-8.6401489825,0.02049,0.49232,3.0613,9.999999999998899e-05,1.0000000000065512e-05,5.0000000000105516e-05,-0.0001042896219830558,-0.00021113436237185645,-0.00015711912851509857
149570000000.0,2,-0.0093751574,-0.00793357985,-0.01530818065,0.006252,0.036254,0.011859,0.17980492774999998,-4.6360937875,-8.639756716499999,0.020809,0.49241,3.0614,9.999999999998899e-05,2.4999999999941735e-05,3.333333333332966e-05,-0.00010499685950010607,-0.00019486597824469598,-0.00016113944721682372
149570000000.0,2,0.005060231399999999,-0.027772432799999996,-0.04839581775,-0.000197,0.030978,0.012925,0.1819918107,-4.6362899205,-8.6395605835,0.021062,0.49243,3.0616,9.999999999998899e-05,2.500000000016378e-05,3.333333333332966e-05,0.0005215863753514904,0.00032687996360958316,0.0005025957887460075
149570000000.0,2,-0.0100812362,-0.04031513815,-0.0344409548,-0.007723,0.025709,0.016123,0.18351184145,-4.636191854,-8.6395605835,0.021238,0.49242,3.0617,9.999999999998899e-05,2.4999999999941735e-05,3.333333333332966e-05,1.8925406101100162e-05,0.00010053729759662566,3.7568042721786155e-05
149570000000.0,2,-0.024565658249999997,-0.0271840338,-0.01107170785,-0.010994,0.021465,0.023598,0.18408062714999998,-4.6355053884999995,-8.639952849499998,0.021302,0.49234,3.062,9.999999999998899e-05,2.4999999999941735e-05,3.333333333332966e-05,2.514787607454938e-05,0.0002758335575581139,0.00041174750274819427
149570000000.0,2,-0.01648497865,-0.014435388799999999,-0.016818404749999998,-0.004688,0.016073,0.034293,0.18377662099999997,-4.6351131225,-8.6401489825,0.021267,0.49229,3.0624,0.00019999999999997797,2.4999999999941735e-05,3.333333333332966e-05,-0.0001092379286499745,0.00019022638951082804,0.0006180021807971336
149570000000.0,2,-0.039010853699999994,-0.0042168595,0.01556315355,0.003823,0.014933,0.037513,0.1826586629,-4.635603455,-8.639952849499998,0.021138,0.49235,3.0629,0.00019999999999997797,2.4999999999941735e-05,3.333333333332966e-05,7.966779627971432e-05,0.0004971988947015671,0.0006668569728189577
149570000000.0,2,-0.05781020175,0.0137685366,0.036098278649999996,0.018768,0.015874,0.037539,0.1812661186,-4.636976386,-8.639266383999999,0.020978,0.49251,3.0633,9.999999999998899e-05,2.500000000016378e-05,3.333333333332966e-05,0.0002662251761006429,-7.417352603900085e-06,0.0008865667476977701
149570000000.0,2,-0.09749771429999998,0.020505705149999998,0.042845253849999994,0.034742,0.011478,0.036509,0.17904981569999998,-4.6398203145,-8.63769732,0.020726,0.49284,3.0639,9.999999999998899e-05,2.4999999999941735e-05,3.333333333332966e-05,-0.00041632641246580615,-0.0008637555328869784,0.0004187574258036064
149570000000.0,2,-0.14569739905,0.0477583855,0.08834810985,0.038972,0.003983,0.032264,0.17548019509999999,-4.643252642,-8.635932123,0.020316,0.49324,3.0644,9.999999999998899e-05,-1.1111111111183902e-05,3.333333333332966e-05,-0.0005464390964489141,0.0001863694539572247,0.00027595523687029555
149570000000.0,2,-0.17144966194999997,0.045934348599999994,0.09429093975,0.03793,-0.000264,0.020533,0.17144966194999997,-4.6468811025,-8.6340688595,0.019854,0.49365,3.0648,9.999999999998899e-05,-1.1111111110961858e-05,1.999999999990898e-05,-0.0005022386979504634,-0.00023320709348828572,-0.00012867147298220583
149570000000.0,2,-0.17753959159999996,0.02672312125,0.0857297343,0.026347,0.009432,0.005557,0.16855670019999996,-4.6498230975,-8.632597861999999,0.019524,0.49399,3.0651,-2.4999999999941735e-05,-1.1111111111183902e-05,2.0000000000131024e-05,-0.0009382480986755426,-0.00028980253216115415,-3.488954933822397e-06
149570000000.0,2,-0.20663592214999998,0.03539219984999999,0.11131528415,0.00197,0.025616,-0.000913,0.16684053645,-4.6509998955,-8.632009463,0.019325,0.49413,3.0652,-2.4999999999941735e-05,-1.1111111111183902e-05,1.999999999990898e-05,0.00012226081592775495,7.662431757760046e-05,3.2736103125236005e-05
149570000000.0,2,-0.224376152,0.01132668075,0.11274705505,-0.022353,0.050321,-0.004195,0.16706608939999998,-4.6502153635,-8.632401729,0.019351,0.49405,3.0654,-2.500000000016378e-05,-1.1111111110961858e-05,2.0000000000131024e-05,9.289270952395068e-05,-0.0002754352734792853,0.0001961375492744999
149570000000.0,2,-0.22118899074999998,-0.0260660757,0.11516929759999998,-0.046661,0.078221,-0.005348,0.16986098465,-4.647861767499999,-8.633578527,0.019672,0.49377,3.0656,-2.4999999999941735e-05,-1.1111111111183902e-05,1.999999999990898e-05,0.0006603619762936552,0.00042715695606609927,-0.000410977229639814
149570000000.0,2,-0.21040167574999996,-0.04786625864999999,0.1415884127,-0.061431,0.096455,-0.008603,0.17478392294999998,-4.64442944,-8.635343724,0.020238,0.49338,3.0657,-9.999999999998899e-05,-1.1111111111183902e-05,-5.0000000000105516e-05,0.0006844072819973679,-0.0010234919845941715,0.0003483028656533216
149570000000.0,2,-0.1813249585,-0.0724319169,0.176715833,-0.069965,0.091199,-0.016076,0.1805796531,-4.640702912999999,-8.637206987499999,0.020904,0.49294,3.0657,-4.999999999988347e-05,-1.1111111110961858e-05,-4.999999999988347e-05,0.0006870293002807504,-0.0005803496997642821,0.00039693898011602946
149570000000.0,2,-0.13783246575,-0.07663896975000001,0.17286181955,-0.067963,0.066681,-0.027768,0.18586543745,-4.6367802529999995,-8.6391683175,0.021511,0.49249,3.0655,-5.0000000000105516e-05,-1.1111111111183902e-05,-9.999999999998899e-05,0.0005425882459374476,-0.0010855349949761006,0.0002306726610645793
149570000000.0,2,-0.0756484981,-0.0512299396,0.16149591219999998,-0.060785,0.025069,-0.035153,0.18937621814999997,-4.633053726,-8.6411296475,0.021912,0.49205,3.0652,-5.0000000000105516e-05,-9.999999999998899e-05,-0.00019999999999997797,-9.011514979628821e-05,-0.001826975107416029,0.0003282342905442104
149570000000.0,2,-0.00053936575,-0.033342609999999995,0.1515323558,-0.055793,-0.017597,-0.034002,0.1904255297,-4.629523332,-8.642992911,0.022029,0.49165,3.0649,-4.999999999988347e-05,-3.333333333332966e-05,-9.999999999998899e-05,0.0004310014335985324,5.35077176138099e-05,-8.292317844629804e-05
149570000000.0,2,0.0394423463,-0.039971905399999993,0.1430397969,-0.052937,-0.059182,-0.030723,0.18830729329999998,-4.626189071,-8.6448561745,0.021779,0.49126,3.0645,-9.999999999998899e-05,-3.333333333332966e-05,-0.00019999999999997797,0.0010927682587604792,0.0005870341205322926,-0.00020173042801094332
149570000000.0,2,0.0528186169,-0.03829496825,0.09415364664999999,-0.04778,-0.078409,-0.025345,0.18390410744999997,-4.622952876499999,-8.646719438,0.021266,0.49089,3.0641,-5.0000000000105516e-05,-3.333333333332966e-05,-9.999999999998899e-05,1.7403766126578013e-05,0.000505523835496513,-0.0008023834652421957
149570000000.0,2,0.031528379749999995,-0.0197309798,0.0702548406,-0.036052,-0.076379,-0.019992,0.1787163896,-4.6202070145,-8.6481904355,0.020662,0.49057,3.0639,-4.999999999988347e-05,-9.999999999998899e-05,-9.999999999998899e-05,0.0004843414866886331,0.0007805370563347402,-0.0007713063682665833
149570000000.0,2,-0.0006864654999999999,0.00250069575,0.07683510275,-0.030631,-0.065768,-0.020001,0.17366596485,-4.617951485,-8.649563366499999,0.020075,0.49031,3.0637,-9.999999999998899e-05,-9.999999999998899e-05,-9.999999999998899e-05,-8.63648666542538e-05,0.00015723052343252775,-0.0006014153610768846
149570000000.0,2,-0.0370887503,0.022261095499999998,0.04842523769999999,-0.032644,-0.054025,-0.025361,0.16921374574999998,-4.615205623,-8.651034364000001,0.019558,0.49,3.0634,-9.999999999998899e-05,-4.999999999988347e-05,-9.999999999998899e-05,0.0007727168000981055,0.0016206582875890607,-0.00034740682880021745
149570000000.0,2,-0.04412992499999999,0.03039080835,-0.01466094175,-0.028236,-0.040204,-0.031781,0.16593832464999997,-4.6121655614999995,-8.652799561,0.019175,0.48964,3.0631,-9.999999999998899e-05,-5.0000000000105516e-05,-0.00010000000000021103,-3.2222311952934124e-05,-0.00019846464287187615,-0.0005123068231069061
149570000000.0,2,-0.034382114899999996,0.03580407915,-0.049317642849999996,-0.02601,-0.028501,-0.031797,0.16397699464999999,-4.6090274335,-8.6544666915,0.018944,0.48928,3.0628,-9.999999999998899e-05,-3.333333333332966e-05,-9.999999999998899e-05,0.0012641622982473288,0.00035969729438667386,-0.00030858881519149617
149570000000.0,2,-0.031165533699999998,0.030047575599999998,-0.0731183824,-0.023771,-0.013604,-0.029683,0.16329052914999997,-4.6059873719999995,-8.656133822,0.018862,0.48893,3.0625,-9.999999999998899e-05,-3.333333333332966e-05,-3.333333333332966e-05,9.248542351159017e-05,-0.00011731605639764275,-0.0005067337799613825
149570000000.0,2,-0.013905829699999999,0.027713592899999997,-0.10779469679999999,-0.018316,0.004461,-0.025435,0.1643006141,-4.603045377,-8.657702886,0.018975,0.48859,3.0622,-9.999999999998899e-05,-3.333333333332966e-05,-3.333333333332966e-05,0.00021538920184249744,-0.00026189188581526857,-0.0004440921690539168
149570000000.0,2,0.0023143694,0.032587497949999995,-0.12965371965,-0.012845,0.024658,-0.021191,0.16707589604999998,-4.6003975815,-8.6589777505,0.019293,0.48829,3.062,-4.999999999988347e-05,-2.4999999999941735e-05,-3.333333333332966e-05,-0.0001294466219702306,-0.00029869342250443687,0.00022645961428721662
149570000000.0,2,0.01723028405,0.02560516315,-0.1309776174,-0.006315,0.043782,-0.016945,0.17175366809999998,-4.598534318,-8.6599584155,0.019831,0.48807,3.0617,-5.0000000000105516e-05,-2.500000000016378e-05,-3.333333333332966e-05,0.0003210846507835097,0.00017538986001164325,5.1183323096504196e-05
149570000000.0,2,0.01701453775,0.02209438245,-0.098458766,-0.010517,0.052342,-0.016967,0.17721597214999998,-4.5968671875,-8.6607429475,0.020459,0.48787,3.0615,-3.333333333332966e-05,-2.500000000016378e-05,-3.333333333332966e-05,7.92432444903235e-05,-0.00034039745898306606,2.6016308664361665e-05
149570000000.0,2,0.0427962206,0.013307624049999998,-0.0644100772,-0.020133,0.048165,-0.021247,0.1833059018,-4.594513591499999,-8.661821678999999,0.021159,0.4876,3.0613,-3.333333333332966e-05,-2.4999999999941735e-05,-3.333333333332966e-05,-0.00030269691475248717,-0.0015649210007826486,0.00031193565823550706
149570000000.0,2,0.07518758554999999,-0.021780569649999998,-0.0748443528,-0.01913,0.039636,-0.0223,0.18937621814999997,-4.592454194999999,-8.662802344,0.021857,0.48736,3.061,-3.333333333332966e-05,0.00010000000000021103,0.00019999999999997797,0.0002203828120626583,0.0005910550110894697,-0.000426270196079076
149570000000.0,2,0.09218251,-0.008816178349999999,-0.0340290755,-0.013962,0.018285,-0.023323,0.1942305099,-4.590885130999999,-8.6634888095,0.022415,0.48718,3.0606,9.999999999998899e-05,-0.00010000000000021103,-0.00019999999999997797,-0.00032550254866997586,-0.001912660391210741,0.0003548578355940524
149570000000.0,2,0.11941557705,0.01132668075,0.0034323275,-0.007722,0.00012,-0.020081,0.19780993715,-4.5898063995,-8.663979142,0.022828,0.48706,3.0602,-5.0000000000105516e-05,5.0000000000105516e-05,9.999999999998899e-05,0.0002003240877125334,0.00045208282479203277,-0.0002265033575488129
149570000000.0,2,0.13173272945,-0.011022674599999999,-0.034597861199999996,0.008169,-0.010668,-0.014701,0.20000662675,-4.5900025325,-8.663783009,0.023081,0.48709,3.0599,-4.999999999988347e-05,5.0000000000105516e-05,0.00019999999999997797,0.0001991973547024184,0.0011943672168990283,-0.0006636558522932212
149570000000.0,2,0.11919002409999999,-0.017995202749999998,-0.004118793,0.024086,-0.01826,-0.009326,0.201036325,-4.592061929,-8.6627042775,0.023203,0.48732,3.0597,3.333333333332966e-05,-3.333333333332966e-05,2.4999999999941735e-05,0.00025495723972718265,0.00037555834007196864,-9.384954611230123e-05
149570000000.0,2,0.09462436584999999,-0.023065240799999998,0.0329699573,0.031489,-0.022587,-0.002903,0.20090883854999997,-4.595200057,-8.661037146999998,0.023193,0.48768,3.0595,3.333333333332966e-05,-3.333333333355171e-05,2.4999999999941735e-05,-0.00086835316747913,-1.6859757463461023e-06,-0.00040897558579422455
149570000000.0,2,0.04990604184999999,-0.03303860385,0.0057074703,0.030452,-0.020443,-0.005044,0.20014391985,-4.5984362515,-8.659370016499999,0.023109,0.48805,3.0594,3.333333333332966e-05,-3.333333333332966e-05,2.500000000016378e-05,-0.0006552536320728608,-0.0005627474802478716,0.0001973804927887235
149570000000.0,2,0.0159456129,-0.0421489817,-0.0098851032,0.030566,-0.007654,-0.007202,0.19983010704999998,-4.6015743795,-8.657702886,0.023077,0.48842,3.0593,9.999999999998899e-05,-1.6666666666775853e-05,2.4999999999941735e-05,-0.00038962548059440216,1.9657086498536813e-06,-0.00027155385003663213
149570000000.0,2,0.009218250999999998,-0.038020382049999996,-0.023065240799999998,0.032832,0.009376,-0.006161,0.20072251219999998,-4.604614441,-8.6560357555,0.023184,0.48877,3.0592,4.999999999988347e-05,-1.666666666655381e-05,5.0000000000105516e-05,-0.0003109939452312638,1.237843990220533e-05,-3.148480870115988e-05
149570000000.0,2,-0.00522694445,-0.049013636699999995,0.00405014645,0.032881,0.017896,-0.001906,0.2021542831,-4.608144834999999,-8.654172492,0.023355,0.48918,3.0592,5.0000000000105516e-05,-1.666666666655381e-05,5.0000000000105516e-05,-0.0003547068896308514,1.918228918040832e-05,0.00028433768667548986
149570000000.0,2,0.0017553903499999998,-0.0668225131,0.0378732823,0.026438,0.013685,0.000225,0.2035468274,-4.6117732955,-8.652211161999999,0.023521,0.48959,3.0592,5.0000000000105516e-05,-1.6666666666775853e-05,9.999999999998899e-05,-9.454998739860665e-05,0.00017145637995485963,0.0002481859120715968
149570000000.0,2,0.03325435015,-0.08005168395,0.0363434449,0.018973,0.01162,-0.002987,0.2052727978,-4.614813357,-8.650544031499999,0.023725,0.48995,3.0591,4.999999999988347e-05,-1.6666666666775853e-05,9.999999999998899e-05,-0.00012002701555091644,0.0005507988957078602,6.417343929457364e-05
149570000000.0,2,0.029694536199999996,-0.0722553972,0.02609549565,0.014749,0.012728,-0.009401,0.20718509454999998,-4.617363085999999,-8.649073033999999,0.02395,0.49025,3.059,9.999999999998899e-05,-1.666666666655381e-05,5.0000000000105516e-05,0.00013324211833487531,-0.0002197202259133224,-7.827776665125796e-05
149570000000.0,2,0.009669356899999999,-0.04585589539999999,0.029753376099999996,0.013783,0.022332,-0.01369,0.20970540359999998,-4.6194224825,-8.647994302499999,0.024244,0.49048,3.0588,9.999999999998899e-05,-5.0000000000105516e-05,4.999999999988347e-05,-0.00019131984737241758,-0.0004122660921719312,-0.00015675298315712127
149570000000.0,2,-0.00422666615,-0.02013305245,0.02939053005,0.013904,0.039377,-0.010517,0.2132750242,-4.6209915465,-8.6470136375,0.024659,0.49067,3.0587,4.999999999988347e-05,-4.999999999988347e-05,9.999999999998899e-05,0.00011382470651183363,-0.00019821990639679044,0.00018728140534479687
149570000000.0,2,-0.005668243699999999,-0.00752170055,0.05141626595,0.013998,0.054289,-0.005206,0.2180018295,-4.622756743499999,-8.6460329725,0.025209,0.49086,3.0586,5.0000000000105516e-05,-9.999999999998899e-05,5.0000000000105516e-05,-0.0006163562771457909,-0.0005247653128588325,5.650663509945697e-05
149570000000.0,2,-0.00958109705,-0.0126701918,0.071392412,0.009744,0.059646,0.001182,0.22311109415,-4.6243258075,-8.645052307499999,0.025802,0.49104,3.0586,9.999999999998899e-05,-5.0000000000105516e-05,4.999999999988347e-05,-8.415069586381607e-05,-0.00040240102243838116,0.00011833476290637468
149570000000.0,2,0.0005687857,-0.009894909849999998,0.07926715194999999,0.004352,0.052231,0.001185,0.22777905955,-4.625600672,-8.6442677755,0.026344,0.49119,3.0586,9.999999999998899e-05,-4.999999999988347e-05,9.999999999998899e-05,-0.0001695041616295856,-0.0008934759807897041,0.00027208328129108006
149570000000.0,2,0.038363614799999994,-0.0164947853,0.09163333759999999,-0.004331,0.034188,0.002268,0.23187823924999998,-4.626287137499999,-8.6436793765,0.02682,0.49128,3.0586,5.0000000000105516e-05,-9.999999999998899e-05,9.999999999998899e-05,0.00033992893575152117,0.00031582857395218156,0.0002726430549882808
149570000000.0,2,0.061262142549999996,-0.0226141349,0.11323738755,-0.016169,0.020436,0.001203,0.23486926749999998,-4.626287137499999,-8.643581309999998,0.027166,0.49128,3.0586,4.999999999988347e-05,-9.999999999998899e-05,3.333333333332966e-05,0.00028893233363769255,-3.216868716360288e-05,-5.310727819693439e-05
149570000000.0,2,0.060830649949999996,-0.0033931009,0.1149731646,-0.025809,0.014126,-0.000939,0.23725228345,-4.625208406,-8.644169709,0.027439,0.49115,3.0585,9.999999999998899e-05,-9.999999999998899e-05,3.333333333332966e-05,-0.0004328995804989688,3.3581879784971846e-05,-6.643986231000265e-05
149570000000.0,2,0.05235770435,-0.0129840046,0.1081085096,-0.041739,0.021721,-0.003116,0.24003737204999998,-4.622756743499999,-8.645346507,0.027757,0.49087,3.0584,9.999999999998899e-05,-9.999999999998899e-05,3.333333333332966e-05,0.0002192970749422818,0.0006137033791422386,-0.0004165430308192275
149570000000.0,2,0.025752262899999996,-0.00863965865,0.11814071255,-0.050136,0.036713,-0.00636,0.24374428574999998,-4.619520549,-8.6470136375,0.02818,0.49049,3.0584,0.00019999999999997797,-9.999999999998899e-05,-9.999999999998899e-05,-0.00038001343466942394,-0.002182162855296932,0.0003390448794052259
149570000000.0,2,-0.012836904849999999,0.013817569850000001,0.09995918345,-0.050012,0.052695,-0.00532,0.24821611815,-4.6154998224999995,-8.649073033999999,0.028691,0.49002,3.0583,0.00020000000000020002,-9.999999999998899e-05,-9.999999999998899e-05,0.0004123487077262178,-0.0003873886905265689,0.0002908546176832727
149570000000.0,2,-0.03115572705,0.031008627299999997,0.05822208104999999,-0.046774,0.060123,-0.001057,0.25292331015,-4.611282963,-8.651132430499999,0.029227,0.48954,3.0583,9.999999999998899e-05,-0.00019999999999997797,-1.999999999990898e-05,0.0008684259419076135,-0.0006569589088203376,0.0005162224463073073
149570000000.0,2,-0.04509097669999999,0.05039637435,0.04972952215,-0.03935,0.057923,0.004298,0.25712055635,-4.6072622364999996,-8.653191827,0.029706,0.48908,3.0584,9.999999999998899e-05,-9.999999999998899e-05,-2.0000000000131024e-05,0.0008354859951532068,-0.0006689888996180837,0.00046256333988667353
149570000000.0,2,-0.03380352255,0.0713531854,0.009934136449999999,-0.028805,0.046108,0.009674,0.2605038506,-4.603731842499999,-8.654957024,0.03009,0.48867,3.0586,0.00019999999999997797,-5.0000000000105516e-05,-1.999999999990898e-05,5.846431466044466e-05,-0.0008701084540936321,0.00043253194603218303
149570000000.0,2,-0.016720338249999998,0.0720592642,-0.02266316815,-0.015003,0.040661,0.013978,0.2633281658,-4.600985980499999,-8.656329955,0.030411,0.48835,3.0587,0.00014999999999987246,-4.999999999988347e-05,-2.0000000000131024e-05,0.00023461639808974866,-0.0002717846607569463,-0.00017488832913925556
149570000000.0,2,0.00069627215,0.08050278984999999,-0.02501676415,-0.004455,0.029912,0.020419,0.26535814235,-4.599122717,-8.65731062,0.030642,0.48813,3.0589,0.0001500000000000945,-9.999999999998899e-05,-1.999999999990898e-05,-0.0006436963856842892,-0.0010254948320498336,0.0009814480090200584
149570000000.0,2,0.008306232549999999,0.08679865914999998,0.00889463155,-0.003557,0.017104,0.033251,0.26598576795,-4.597749786,-8.6579970855,0.030712,0.48798,3.0593,0.00019999999999997797,-5.0000000000105516e-05,2.4999999999941735e-05,0.00025108561571463017,-0.0006108171835919052,0.0005986195697448571
149570000000.0,2,0.031136113749999996,0.0655280353,0.03082230095,-0.00483,-0.001012,0.045021,0.26484819654999997,-4.5968671875,-8.658487418,0.030579,0.48787,3.0597,9.999999999998899e-05,-4.999999999988347e-05,2.4999999999941735e-05,-0.0005379127887896185,-0.0009376421954840897,-4.656620165016667e-05
149570000000.0,2,0.0507788337,0.045296916349999994,0.040658370900000004,-0.003912,-0.014878,0.052518,0.26226904759999997,-4.596180722,-8.658879683999999,0.030279,0.4878,3.0602,0.00019999999999997797,-4.999999999988347e-05,2.500000000016378e-05,0.00020860764104457807,0.0004859568335575659,9.011990157858918e-05
149570000000.0,2,0.054328840999999996,0.0326561445,0.04417895825,0.002348,-0.029851,0.056824,0.25826793439999995,-4.596278788499999,-8.6589777505,0.029817,0.48781,3.0608,0.00019999999999997797,-5.0000000000105516e-05,2.4999999999941735e-05,0.00020838080078722232,0.0022651038255496747,0.00033874767786190585
149570000000.0,2,0.04727785965,0.0441103117,0.07234365705,0.010711,-0.048039,0.062206,0.2524427843,-4.597161387,-8.658683551,0.029147,0.48791,3.0615,9.999999999998899e-05,9.999999999998899e-05,0.00019999999999997797,0.0011276998245761671,0.003056756632423996,-0.00019503610548443628
149570000000.0,2,0.029723956149999998,0.05320107625,0.0749031927,0.023456,-0.056666,0.060108,0.24531334974999996,-4.598926584,-8.6579970855,0.028326,0.48811,3.0621,0.00019999999999997797,-9.999999999998899e-05,-5.0000000000105516e-05,-0.00010446613085302037,0.0007406412496802073,0.00010548524401454706
149570000000.0,2,0.011424747249999999,0.051337812749999996,0.0652534491,0.03524,-0.054625,0.05372,0.23801720215,-4.601672445999999,-8.656722220999999,0.027488,0.48843,3.0628,0.00019999999999997797,-2.4999999999941735e-05,-4.999999999988347e-05,0.00023781189362964694,0.0004396174566572153,0.0002624774745536296
149570000000.0,2,-0.02705654735,0.05420135455,0.104735022,0.033327,-0.034351,0.04194,0.23191746584999998,-4.604810573999999,-8.655153156999999,0.026789,0.48879,3.0633,0.00020000000000020002,-2.500000000016378e-05,-9.999999999998899e-05,-0.0006082291582772403,-0.0002986309470425219,0.0006674627414754719
149570000000.0,2,-0.0576042621,0.05489762669999999,0.1304676716,0.018602,-0.017167,0.026942,0.22773983295,-4.607066103499999,-8.654172492,0.026309,0.48905,3.0637,0.00019999999999997797,-2.4999999999941735e-05,-9.999999999998899e-05,-0.0001494486953048102,0.00035139625728120016,0.00015760930848734978
149570000000.0,2,-0.07052942679999999,0.02695848085,0.12905551399999998,0.000616,-0.006352,0.014085,0.22495474434999999,-4.608144834999999,-8.653584093,0.02599,0.48917,3.064,9.999999999998899e-05,-2.4999999999941735e-05,-9.999999999998899e-05,-0.0010783664545928051,-7.175357478228506e-05,-0.00011018288964370626
149570000000.0,2,-0.06228203415,-0.024408751849999997,0.1010477216,-0.010989,0.007598,0.01084,0.22373871974999998,-4.608537101,-8.65338796,0.02585,0.48922,3.0641,0.00019999999999997797,-4.999999999988347e-05,-9.999999999998899e-05,-0.0003979744678493935,0.00011650206011171171,0.0005897482818073563
149570000000.0,2,-0.07430498705,-0.038736267500000005,0.11129567084999999,-0.021568,0.015148,0.005474,0.2234935535,-4.608144834999999,-8.6536821595,0.025821,0.48917,3.0643,9.999999999998899e-05,-5.0000000000105516e-05,-4.999999999988347e-05,0.0005062236007658538,0.0001660402681189499,6.205073130655103e-05
149570000000.0,2,-0.08213069375,-0.02660544145,0.13070303119999999,-0.032183,0.019499,0.002248,0.22354258674999997,-4.6067719039999995,-8.654368624999998,0.025824,0.48902,3.0644,0.00019999999999997797,-0.00010000000000021103,-5.0000000000105516e-05,0.0004437900464940303,0.00030191611943664043,0.00024461048345345016
149570000000.0,2,-0.06867596995,-0.043659205799999996,0.06445911045,-0.037445,0.030192,0.005424,0.22445460519999996,-4.6047125075,-8.6554473565,0.025926,0.48878,3.0645,9.999999999998899e-05,-9.999999999998899e-05,-5.0000000000105516e-05,0.00011636359623845571,0.0005933776075890407,0.00014610987621896387
149570000000.0,2,-0.10509786805,-0.0417174891,0.07206907084999999,-0.042723,0.040882,0.011803,0.22555294999999997,-4.602162778499999,-8.6568202875,0.026049,0.48848,3.0647,9.999999999998899e-05,-4.999999999988347e-05,-4.999999999988347e-05,0.0009490235499098887,0.0005378665597317589,0.00016875131998658754
149570000000.0,2,-0.11349236045,-0.04102121695,0.0845137097,-0.056547,0.049512,0.017104,0.22707298074999996,-4.5986323845,-8.6585854845,0.026219,0.48808,3.065,0.00019999999999997797,-5.0000000000105516e-05,-9.999999999998899e-05,0.0003019337668471178,0.0005555643109975694,0.0005531079568205921
149570000000.0,2,-0.1256624131,-0.047405346099999995,0.0654888087,-0.063934,0.058096,0.014944,0.2290637307,-4.5943174585,-8.660841013999999,0.026442,0.48758,3.0654,0.00019999999999997797,-0.00019999999999997797,-0.00010000000000021103,0.0004476257597200717,-0.0009096982879437387,0.00044814485465896614
149570000000.0,2,-0.13455704464999999,-0.03709855695,0.072961476,-0.064835,0.069835,0.001049,0.23241760499999997,-4.589708333,-8.66319461,0.026822,0.48705,3.0656,9.999999999998899e-05,-9.999999999998899e-05,-9.999999999998899e-05,0.0005303333477829075,-0.0008360649050596081,0.00018659664732476045
149570000000.0,2,-0.15650432735,0.01615155255,0.08434699664999999,-0.056116,0.082562,-0.014965,0.23731112334999996,-4.5849030745,-8.6656462725,0.027378,0.48649,3.0656,4.999999999988347e-05,-9.999999999998899e-05,-9.999999999998899e-05,0.0007089984792615911,-0.0006432516078238582,-8.012256597689227e-06
149570000000.0,2,-0.17613724065,0.04139386965,0.08740667145,-0.048559,0.085704,-0.027762,0.24287149389999999,-4.580490082,-8.6678037355,0.028013,0.48599,3.0655,5.0000000000105516e-05,-9.999999999998899e-05,-0.00019999999999997797,0.0002953394622983163,-0.002649812128994844,0.00023772113194239775
149570000000.0,2,-0.18533587834999998,0.0527990036,0.0903976997,-0.033619,0.08132,-0.035196,0.24849070434999998,-4.577057754499999,-8.669470866,0.028655,0.48559,3.0653,9.999999999998899e-05,-9.999999999998899e-05,-0.00019999999999997797,0.0001991730458738017,-0.0014276833926187837,0.000344853572114584
149570000000.0,2,-0.13316450035,0.0301848687,0.08640639314999998,-0.026194,0.073799,-0.038369,0.25467870049999997,-4.5747041584999995,-8.670549597499999,0.029364,0.48532,3.065,4.999999999988347e-05,-9.999999999998899e-05,-9.999999999998899e-05,0.0009684786213959296,-0.0005898232455210373,0.00028354881655975883
149570000000.0,2,-0.09900793840000001,-0.00095124505,0.10141056764999999,-0.030619,0.054651,-0.037273,0.26001351809999995,-4.572840895,-8.6713341295,0.029977,0.48511,3.0646,5.0000000000105516e-05,-9.999999999998899e-05,-0.00019999999999997797,-9.480326619359936e-05,-0.0012069616695395968,-0.000359416993552214
149570000000.0,2,-0.059869598249999996,-0.018485535249999997,0.1007927487,-0.046872,0.02707,-0.030847,0.2635242988,-4.5701930995,-8.672608993999999,0.030377,0.48479,3.0643,3.333333333332966e-05,-0.00019999999999997797,-9.999999999998899e-05,0.0005110435308812722,-0.0008582921769817453,-7.702513622617757e-05
149570000000.0,2,0.010012589649999999,-0.0825916063,0.06736187885,-0.067425,-0.002607,-0.021224,0.265171816,-4.566172373,-8.674668390499999,0.030559,0.48434,3.0641,3.333333333355171e-05,-0.00019999999999997797,-9.999999999998899e-05,0.0010067622393034603,-0.0007902021104422285,-0.0005059873945907067
149570000000.0,2,0.03066539455,-0.13555732295,0.03235213835,-0.086853,-0.02377,-0.00948,0.2645638037,-4.5607787155,-8.677512319,0.030479,0.48372,3.0639,3.333333333332966e-05,-0.00019999999999997797,-0.00019999999999997797,0.0006243271487594848,-0.000601115722775436,-0.00023849657686181303
149570000000.0,2,0.0504454076,-0.15086550359999998,0.0212215906,-0.097662,-0.033284,0.004393,0.26259266704999995,-4.5545024595,-8.6809446465,0.03024,0.48299,3.0639,9.999999999998899e-05,-0.00019999999999997797,-9.999999999998899e-05,0.0007657284798871511,2.175069432963639e-05,-0.0004669433822342417
149570000000.0,2,0.024085132399999997,-0.12275964469999999,0.017514676899999998,-0.091251,-0.028016,0.011866,0.25977815849999997,-4.5480300705,-8.684376974,0.029904,0.48224,3.0641,0.00019999999999997797,-0.000400000000000178,0.0004999999999999449,0.0041577054035385475,0.01036558444420188,0.000876752772066447
149570000000.0,2,-0.00469738535,-0.09882161204999998,-0.00218688295,-0.070877,-0.014334,0.014012,0.25743436915,-4.542636413,-8.6872209025,0.029625,0.48163,3.0643,-0.00019999999999997797,9.999999999998899e-05,-0.0005999999999999339,-0.0017452406138486753,-0.008794222700170495,-0.0020335419925750498
