Time,placement_label,user_acc_x(m/s^2),user_acc_y(m/s^2),user_acc_z(m/s^2),rotation_rate_x(rad/s),rotation_rate_y(rad/s),rotation_rate_z(rad/s),gravity_x(m/s^2),gravity_y(m/s^2),gravity_z(m/s^2),attitude_roll(rad),attitude_pitch(rad),attitude_yaw(rad),target_delta_x,target_delta_y,target_delta_z,target_delta_roll,target_delta_pitch,target_delta_yaw
149580000000.0,2,-0.1122076893,-0.3043199628,-0.21305927789999998,-0.22931,0.24891,0.098941,0.0842195102,-3.9030467,-8.996032311,0.009362,0.40934,1.5353,0.0,0.0,0.0,0.0,0.0,0.0
149580000000.0,2,-0.0679993111,-0.27779297455,-0.25704210315,-0.16476,0.18337,0.10024,0.09852741255,-3.886767661,-9.0029950325,0.010943,0.40753,1.5364,0.00019999999999997797,-3.333333333332966e-05,5.0000000000105516e-05,0.0034140448385593936,0.000305842265517553,-0.0005950371509770291
149580000000.0,2,-0.019819239649999997,-0.23656581794999998,-0.2746646532,-0.088549,0.097513,0.085575,0.1058529801,-3.8771571439999994,-9.007015759,0.011752,0.40646,1.5374,0.00019999999999997797,-3.333333333332966e-05,4.999999999988347e-05,0.0021521033751876195,0.0009633129169224208,-0.0007209672146656632
149580000000.0,2,0.0193975537,-0.17503889585,-0.2746254266,-0.010268,0.003112,0.069866,0.10584317345,-3.8756861464999997,-9.0077022245,0.01175,0.40629,1.5382,0.00019999999999997797,-3.333333333332966e-05,9.999999999998899e-05,0.0001932021404291162,0.000499539599303267,0.0004378813048417085
149580000000.0,2,0.057663101999999994,-0.1492179864,-0.28599133395,0.056314,-0.079482,0.06479,0.09795862685,-3.8793146069999995,-9.006231226999999,0.010877,0.4067,1.5389,9.999999999998899e-05,-5.0000000000105516e-05,9.999999999998899e-05,-0.0018000921951665805,0.00028961667461691043,-0.00012118446241921044
149580000000.0,2,0.0746089932,-0.1424710112,-0.2500107351,0.11021,-0.14386,0.066064,0.08385666415,-3.8881405919999996,-9.0025047,0.009314,0.40768,1.5396,0.00019999999999997797,-4.999999999988347e-05,9.999999999998899e-05,-0.0020355482647421153,0.00020988642974062444,0.0013317152977421753
149580000000.0,2,0.09766442735,-0.14798234849999997,-0.20591023004999998,0.15263,-0.17299,0.070459,0.06589088135,-3.9010853699999997,-8.997111042499998,0.007323,0.40912,1.5404,9.999999999998899e-05,-0.00020000000000020002,9.999999999998899e-05,-0.003219857955433447,0.00015668259051260236,0.000519957859019482
149580000000.0,2,0.08028704354999999,-0.13573384265,-0.13209557549999998,0.17301,-0.16037,0.070468,0.050053141599999997,-3.9184431404999995,-8.9896579885,0.005567,0.41104,1.541,0.00020000000000020002,-9.999999999998899e-05,9.999999999998899e-05,-0.002318992707774248,0.0009071512222644795,0.00036953267885841967
149580000000.0,2,0.0485429175,-0.11488490474999999,-0.026840801049999998,0.15305,-0.12609,0.062902,0.03541181315,-3.9327608494999997,-8.983479799,0.003941,0.41265,1.5417,9.999999999998899e-05,-2.4999999999941735e-05,0.00029999999999996696,-0.0015589965587025079,0.0014404094506978993,-0.0009708351782025115
149580000000.0,2,0.014994367849999999,-0.1079516032,-0.01315071765,0.1086,-0.087353,0.051015,0.024663724749999998,-3.943646231,-8.978772607,0.002747,0.41385,1.5423,9.999999999998899e-05,-2.4999999999941735e-05,0.00019999999999997797,-0.0017930719201182943,6.891599675729054e-05,0.00041328792689615534
149580000000.0,2,0.01368027675,-0.12913396719999998,-0.023888999399999996,0.069419,-0.052928,0.047684,0.017298930599999998,-3.9507070189999998,-8.975634478999998,0.001927,0.41464,1.5428,0.00019999999999997797,-2.500000000016378e-05,0.00029999999999996696,0.0009183791171952227,0.0018289605130343833,-0.0016008205592611957
149580000000.0,2,0.031067467199999997,-0.14946315265,0.026968287499999997,0.046149,-0.02078,0.060394,0.01322917085,-3.9593368709999996,-8.971809885499999,0.001474,0.41559,1.5434,0.00019999999999997797,-2.4999999999941735e-05,0.00019999999999997797,-0.0018429592086866564,-6.384026372874274e-06,0.0010229784962943467
149580000000.0,2,0.020809711300000002,-0.19707443839999997,0.09935117114999999,0.029225,0.010241,0.08059,0.0106107953,-3.9620827329999995,-8.9706330875,0.001183,0.41591,1.5443,0.00019999999999997797,-0.00029999999999996696,9.999999999998899e-05,-0.001395078867399202,-0.0012534023425383456,0.0027974561045181756
149580000000.0,2,0.02407532575,-0.22598444259999997,0.1207394748,0.021833,0.028403,0.094422,0.0091397978,-3.9641421294999994,-8.969750488999999,0.001019,0.41614,1.5453,0.00019999999999997797,-9.999999999998899e-05,0.00010000000000021103,-0.0013854650042470773,-0.0002938658187963128,0.002633087162805331
149580000000.0,2,0.08303290555,-0.22360142664999996,0.11476722495,0.032428,0.025109,0.10405,0.0074922806,-3.9668879914999997,-8.9684756245,0.000836,0.41644,1.5464,0.00019999999999997797,-9.999999999998899e-05,9.999999999998899e-05,-0.0012666398687008473,8.969544407633201e-05,0.0034045815325525752
149580000000.0,2,0.09844895934999999,-0.17689235269999998,0.11932731719999999,0.045116,0.005835,0.098766,0.00734518085,-3.9762043089999994,-8.964454898,0.00082,0.41748,1.5474,9.999999999998899e-05,-0.00029999999999996696,9.999999999998899e-05,0.0006688954871952868,-0.0025396760790461492,0.006029940328348693
149580000000.0,2,0.1085988421,-0.13181118265,0.11966074329999998,0.052389,-0.025113,0.090289,0.00512887795,-3.9851283604999996,-8.9604341715,0.000572,0.41848,1.5482,-0.00019999999999997797,-0.00019999999999997797,-9.999999999998899e-05,-0.0006312574449763297,-0.0031533930082576767,0.007403896571364588
149580000000.0,2,0.1205041152,-0.0663910205,0.10773585689999998,0.060604,-0.075242,0.075443,-0.00034323274999999994,-3.9931698134999998,-8.956805711,-3.8e-05,0.41937,1.549,0.00019999999999997797,5.0000000000105516e-05,0.00019999999999997797,-0.0005914995086175878,0.001206748537095459,-0.0008626036155908456
149580000000.0,2,0.13798937214999998,-0.0046581587499999995,0.09272187574999999,0.064491,-0.13386,0.058469,-0.01005181625,-3.999936402,-8.9537656495,-0.001123,0.42013,1.5495,0.00019999999999997797,4.999999999988347e-05,9.999999999998899e-05,-0.0005337111174733566,0.002282528951871976,-0.0005485955176807444
149580000000.0,2,0.14767834235,0.00601147645,0.06452775699999999,0.069532,-0.17863,0.045742,-0.0234771201,-4.0067029905,-8.950725588,-0.002623,0.42089,1.5498,0.00019999999999997797,-9.999999999998899e-05,0.00019999999999997797,-9.962476836455902e-05,0.0023728249003625024,-0.0017418652811418411
149580000000.0,2,0.10953047384999999,0.007678606949999999,0.01587696635,0.077927,-0.19362,0.050049,-0.04009939184999999,-4.013665712,-8.94758746,-0.004482,0.42166,1.5502,0.00020000000000020002,-3.333333333332966e-05,0.00029999999999996696,-0.0015547955866455077,0.0017629093480124869,-0.0006116258677416331
149580000000.0,2,0.0436395925,0.012160246,-0.00050013915,0.090924,-0.16709,0.054307,-0.057104122949999996,-4.0212168325,-8.944057066,-0.006385,0.42251,1.5508,0.00029999999999996696,-3.333333333332966e-05,0.00019999999999997797,-0.002293104581504113,0.001508168373469898,-0.00046346575426428616
149580000000.0,2,-0.0521125381,0.0066096821,-0.010493115499999999,0.10104,-0.096853,0.063809,-0.0714904785,-4.029944751,-8.9400363395,-0.007996,0.42348,1.5515,0.00019999999999997797,-3.333333333332966e-05,0.00019999999999997797,-0.0008024540059761165,0.0007677643189265559,-0.0007390511188592741
149580000000.0,2,-0.140627361,-0.01013026945,0.0430119669,0.097452,-0.004136,0.076454,-0.08038511004999999,-4.039555268,-8.9357214135,-0.008996,0.42456,1.5525,0.00019999999999997797,-9.999999999998899e-05,0.00029999999999996696,-0.00013722567174057065,0.0005443438283363466,-0.0001951336212702437
149580000000.0,2,-0.20716548125,-0.027331133549999997,0.06538093554999999,0.078812,0.067402,0.078437,-0.08402337719999999,-4.048185119999999,-8.931700687,-0.009407,0.42553,1.5536,0.00019999999999997797,-9.999999999998899e-05,0.00019999999999997797,0.0005292464683778197,-0.00034698977077662896,0.0005051998900807153
149580000000.0,2,-0.21532461405,-0.06706767934999999,0.0604481906,0.054577,0.099569,0.069807,-0.08379782425,-4.055442041,-8.9284644925,-0.009386,0.42634,1.5547,0.00019999999999997797,-9.999999999998899e-05,0.00020000000000020002,0.0002502253587913783,-0.0016343787592061343,0.000319497423063253
149580000000.0,2,-0.12227911884999998,-0.08199340064999999,0.0738244612,0.040664,0.086902,0.059135,-0.08093428244999999,-4.0616202305,-8.925620563999999,-0.009067,0.42703,1.5555,0.0007999999999999119,0.00029999999999996696,0.00029999999999996696,-0.00426301273838714,0.0055241186423631294,-0.008702727319963827
149580000000.0,2,-0.058908546549999996,-0.06563590845,0.10921666104999998,0.029745,0.044384,0.042114,-0.07920831205000001,-4.0667196885,-8.923266967999998,-0.008876,0.42761,1.5561,9.999999999998899e-05,-3.333333333332966e-05,9.999999999998899e-05,-0.0005107780591652178,-0.0005189060038368609,0.0018115434099069683
149580000000.0,2,-0.0008041452999999999,-0.06099736299999999,0.1156400168,0.03053,-0.003555,0.022986,-0.07969864455,-4.07172108,-8.921109504999999,-0.008934,0.42816,1.5564,0.00010000000000021103,-3.333333333332966e-05,5.0000000000105516e-05,-0.0005221762803207519,-0.00019615009463702648,0.0015202377068944117
149580000000.0,2,0.0791004389,-0.04629719465,0.13072264449999998,0.042922,-0.060122,0.015632,-0.0828465792,-4.0773108705,-8.918461709499999,-0.009289,0.42878,1.5565,9.999999999998899e-05,-3.333333333332966e-05,4.999999999988347e-05,-0.0010409717984598,7.380252321498304e-06,0.0014724925891016205
149580000000.0,2,0.10782411674999999,-0.01056176205,0.15266012054999997,0.063885,-0.10292,0.023211,-0.08972104084999999,-4.0840774589999995,-8.9153235815,-0.010063,0.42955,1.5566,0.00019999999999997797,-9.999999999998899e-05,4.999999999988347e-05,-0.0009476765779086183,0.000653342286828007,0.0006378785505037621
149580000000.0,2,0.0899073672,-0.00314793465,0.159652262,0.075425,-0.12327,0.030736,-0.09962575735,-4.092118911999999,-8.911498988,-0.01118,0.43045,1.5569,0.00019999999999997797,-9.999999999998899e-05,5.0000000000105516e-05,-0.001923264257980617,0.0005024766257375468,0.00020907069121145483
149580000000.0,2,0.08376840429999999,-0.00075511205,0.13043825165,0.075445,-0.12113,0.030729,-0.11009925954999998,-4.1000622985,-8.907772461,-0.012359,0.43134,1.5571,0.00029999999999996696,-9.999999999998899e-05,0.00019999999999997797,-0.0011012405161606176,0.0012223829122326446,-0.0009063692035024551
149580000000.0,2,0.06261546024999999,0.01683801805,0.11245285555,0.067126,-0.097614,0.025334,-0.11917041079999999,-4.10702502,-8.9044382,-0.013383,0.43212,1.5574,0.00019999999999997797,-0.0009333333333334526,9.999999999998899e-05,0.0001304449866147972,0.0015929179434426288,-0.0011008631213240139
149580000000.0,2,0.01797558945,0.02197670265,0.13459627124999998,0.043933,-0.06545,0.020967,-0.12631945865,-4.1123206109999995,-8.901888471,-0.014189,0.43272,1.5576,0.00019999999999997797,-0.0009333333333332305,9.999999999998899e-05,-0.0006091178779273898,0.00014638725482774007,0.000415860629911724
149580000000.0,2,-0.024232232149999998,0.015102240999999999,0.1250936274,0.023037,-0.01306,0.01657,-0.13004598565,-4.1156548719999995,-8.900319407,-0.01461,0.43309,1.5578,-0.00039999999999995595,-0.0009333333333334526,0.0025999999999999357,-0.014971804495396035,0.01611149209190299,0.029024698696805906
149580000000.0,2,-0.04500271685,0.006501808949999999,0.1267803712,0.008529,0.040338,0.016452,-0.1291731938,-4.1175181355,-8.899436808499999,-0.014514,0.4333,1.5581,0.00019999999999997797,-6.666666666665932e-05,9.999999999998899e-05,0.002909003050841741,0.0007520767519348937,0.0009591379262112454
149580000000.0,2,-0.0428354472,0.0060310897499999995,0.1980551034,0.000177,0.073421,0.033458,-0.12535840694999997,-4.1190871995,-8.898750343,-0.014086,0.43348,1.5584,9.999999999998899e-05,-6.666666666665932e-05,9.999999999998899e-05,0.0020054895071131007,0.00068880349736955,0.0008098418439154154
149580000000.0,2,-0.03615711855,-0.03415656195,0.19606435344999998,-0.004077,0.090478,0.059039,-0.12067082824999999,-4.120950463,-8.897965811,-0.01356,0.43369,1.559,0.00029999999999996696,-6.666666666665932e-05,-0.00029999999999996696,0.0008500962281572377,-0.0012451850809132026,0.0013213150327095191
149580000000.0,2,-0.026674088000000002,-0.08713208525,0.19859446915,-0.013803,0.089466,0.083575,-0.11637551555,-4.123107925999999,-8.896985146,-0.01308,0.43393,1.5599,0.0020000000000000018,-0.0006999999999999229,-0.0018000000000000238,-0.0028592209314713957,-0.025193999169114578,-0.0034245314662390836
149580000000.0,2,-0.0087475318,-0.10276388535,0.20792059329999998,-0.023642,0.066092,0.09534,-0.11380617325,-4.124676989999999,-8.8962986805,-0.012791,0.4341,1.561,9.999999999998899e-05,-5.0000000000105516e-05,-9.999999999998899e-05,0.0005957784998265603,6.016421524823734e-05,0.001283436876090921
149580000000.0,2,0.01734796385,-0.11401211289999999,0.1846003796,-0.034666,0.016108,0.087936,-0.11446321879999999,-4.125265389,-8.896004480999999,-0.012866,0.43417,1.5619,0.00019999999999997797,-4.999999999988347e-05,-6.666666666665932e-05,0.0001316089939999432,-8.916557752702836e-05,0.0006285953154072099
149580000000.0,2,0.055289892699999996,-0.10043970929999999,0.15641606749999998,-0.040322,-0.038166,0.066671,-0.1185820118,-4.1245789235,-8.8962986805,-0.013329,0.4341,1.5627,0.00019999999999997797,-9.999999999998899e-05,-6.666666666665932e-05,0.0006095313718696982,0.0015108105499459512,0.0007161279927271336
149580000000.0,2,0.08654368624999999,-0.07074517309999999,0.1455502993,-0.034191,-0.084016,0.048614,-0.12559376654999999,-4.1235982584999995,-8.8966909465,-0.014117,0.43399,1.5632,0.00020000000000020002,-9.999999999998899e-05,-6.666666666665932e-05,-0.0006186069104046621,2.3928315321830596e-05,-0.00013386408001098138
149580000000.0,2,0.0580161414,-0.0348724474,0.1837177811,-0.024771,-0.11605,0.034808,-0.13582210249999999,-4.123304059,-8.8966909465,-0.015266,0.43395,1.5635,0.00019999999999997797,-4.999999999988347e-05,-9.999999999998899e-05,8.237571001157296e-06,0.0004699504327856374,-8.888996898098744e-05
149580000000.0,2,0.0302829352,-0.00685484835,0.16427119414999997,-0.01835,-0.11928,0.026285,-0.147295883,-4.1228137264999996,-8.8966909465,-0.016555,0.4339,1.5638,0.00019999999999997797,-5.0000000000105516e-05,-9.999999999998899e-05,7.460566775391309e-05,0.0016158671984585204,0.00014405633557362796
149580000000.0,2,-0.03466650775,0.02580129615,0.13665566775,-0.026533,-0.07872,0.020863,-0.15717117954999998,-4.121342729,-8.897181279,-0.017663,0.43374,1.5641,9.999999999998899e-05,-5.0000000000105516e-05,-9.999999999998899e-05,-2.9279196658293927e-05,0.0007719288415819481,8.884732987179955e-05
149580000000.0,2,-0.1239756693,0.04288448045,0.09608555669999999,-0.033512,-0.016863,0.021814,-0.16362395524999998,-4.118596867,-8.898358077,-0.018386,0.43342,1.5645,9.999999999998899e-05,-4.999999999988347e-05,-0.00019999999999997797,0.0002001751546925612,0.001239046619020412,0.00035046032147495465
149580000000.0,2,-0.1956622808,0.0295180165,0.07259862995,-0.038416,0.044961,0.034512,-0.16615407094999998,-4.115262606,-8.8998290745,-0.018668,0.43305,1.565,0.00019999999999997797,-0.00010000000000021103,-9.999999999998899e-05,0.00039007529227069737,0.0002682343792135278,0.000496501760060275
149580000000.0,2,-0.21185305995,0.0157298666,0.0914960445,-0.042497,0.080132,0.053664,-0.1658304515,-4.111928345,-8.9013981385,-0.018627,0.43267,1.5657,9.999999999998899e-05,-2.4999999999941735e-05,-5.0000000000105516e-05,0.0012881939854584856,-6.256280060612518e-05,0.001283288329277904
149580000000.0,2,-0.1530425799,-0.0177500365,0.052612677249999996,-0.045743,0.082272,0.066468,-0.16404564119999998,-4.108397951,-8.903065268999999,-0.018423,0.43227,1.5665,9.999999999998899e-05,-2.4999999999941735e-05,-4.999999999988347e-05,0.00037817100727854935,-5.372500442257788e-05,0.0011830510985733067
149580000000.0,2,-0.067862018,-0.0450713634,0.005060231399999999,-0.040563,0.064109,0.068646,-0.1619862447,-4.105161756499999,-8.904634333,-0.018189,0.43191,1.5674,9.999999999998899e-05,-2.500000000016378e-05,-0.00019999999999997797,-0.0005849058645859273,-0.0015472256062762924,0.0002552525663155891
149580000000.0,2,-0.022643554849999997,-0.03703971705,0.0320089056,-0.037606,0.029991,0.063375,-0.16155475209999998,-4.102513961,-8.905811130999998,-0.018139,0.43162,1.5681,9.999999999998899e-05,-2.4999999999941735e-05,-4.999999999988347e-05,-0.00026695394342379775,-0.0006589682193824942,0.0002498854949538054
149580000000.0,2,-0.010120462799999999,-0.03197948565,0.01764216335,-0.040992,-0.007255,0.041019,-0.1637514417,-4.0994738994999995,-8.907184061999999,-0.018383,0.43128,1.5686,0.00019999999999997797,-3.333333333332966e-05,-5.0000000000105516e-05,2.9303855385465205e-05,-0.001049759104504444,-0.0001035486700924626
149580000000.0,2,0.000196133,-0.03774579585,-0.038451874649999995,-0.03561,-0.014736,0.019694,-0.16614426429999998,-4.096433837999999,-8.908556993,-0.018648,0.43094,1.5689,2.4999999999941735e-05,-3.333333333332966e-05,-9.999999999998899e-05,0.0005429067715451152,0.0005878152552416527,0.0004226875060788504
149580000000.0,2,-0.0599382448,-0.0312047603,0.0013337044,-0.024777,-0.003091,0.005818,-0.16826250069999998,-4.094472508,-8.9094395915,-0.018884,0.43071,1.569,2.500000000016378e-05,-3.333333333332966e-05,-9.999999999998899e-05,0.00025757789317293334,0.0006007825437788217,0.000235882033556567
149580000000.0,2,-0.1201118492,-0.01407254275,0.016867438,-0.011783,0.018114,0.001537,-0.16943929870000002,-4.093491843,-8.909831857499999,-0.019014,0.4306,1.5691,2.4999999999941735e-05,9.999999999998899e-05,-9.999999999998899e-05,0.00020283129227277596,0.0007608750747236659,0.0005727689703014793
149580000000.0,2,-0.1097756401,-0.044326057999999995,-0.01723028405,-0.005288,0.03297,0.006863,-0.1690078061,-4.093491843,-8.909831857499999,-0.018966,0.4306,1.5693,2.4999999999941735e-05,-1.999999999990898e-05,-3.333333333332966e-05,-8.388864718977818e-05,-0.0018497747514165663,-0.00013808216904698245
149580000000.0,2,-0.08601412715,-0.058712413549999995,-0.017465643649999998,-0.002073,0.04039,0.016464,-0.16762506845,-4.0939821755,-8.9096357245,-0.018811,0.43067,1.5695,-3.333333333332966e-05,-2.0000000000131024e-05,-3.333333333332966e-05,0.00044180531244208954,-0.0008616980558204812,0.0003396377720399357
149580000000.0,2,-0.0864554264,-0.06600856114999999,-0.013278204099999998,-0.011756,0.034067,0.022865,-0.16687976305,-4.0940802419999995,-8.9096357245,-0.018729,0.43067,1.5698,-3.333333333332966e-05,-1.999999999990898e-05,-3.333333333332966e-05,0.00023205301157763758,-4.2419212063382616e-05,0.0005099943639327864
149580000000.0,2,-0.07579559785,-0.09173140409999998,-0.0472288264,-0.025735,0.018199,0.019669,-0.16706608939999998,-4.0930015105,-8.910126057,-0.018748,0.43055,1.5701,-3.333333333332966e-05,-2.0000000000131024e-05,9.999999999998899e-05,-0.00024642250488216,-0.0014433598136913695,-0.0004076350659442396
149580000000.0,2,-0.07608979735,-0.08114022209999999,-0.058094594599999994,-0.034325,0.004425,0.009006,-0.16827230734999998,-4.090942114,-8.9110086555,-0.018881,0.43031,1.5703,-3.333333333332966e-05,-1.999999999990898e-05,-0.00020000000000020002,0.0010686436201418625,0.0019262238662740572,0.0007357025361599268
149580000000.0,2,-0.06694019289999999,-0.06187015485,-0.032361944999999996,-0.028929,0.003327,-0.004857,-0.16918432579999998,-4.0888827175,-8.911891254,-0.018982,0.43009,1.5703,-3.333333333332966e-05,9.999999999998899e-05,-9.999999999998899e-05,0.0008115027672643826,0.00038427653950501295,8.321917896614295e-05
149580000000.0,2,-0.08714189189999999,-0.0468365604,0.027095773949999995,-0.02771,0.016112,-0.014482,-0.16918432579999998,-4.0875097865,-8.9125777195,-0.018981,0.42993,1.5703,-3.333333333332966e-05,-9.999999999998899e-05,9.999999999998899e-05,-0.002237981367125108,-0.00076616358291548,-0.000867701311961705
149580000000.0,2,-0.09309452844999999,-0.040795663999999995,0.01866205495,-0.028555,0.039566,-0.020926,-0.1671249293,-4.0857445895,-8.913460317999998,-0.018748,0.42974,1.5701,-9.999999999998899e-05,-9.999999999998899e-05,0.000400000000000178,0.0003448664636157561,-0.002584696245749196,-0.0008738672225959698
149580000000.0,2,-0.11389443309999998,-0.06306656615,0.006992141449999999,-0.028329,0.066202,-0.023104,-0.16293748975,-4.084273592,-8.9141467835,-0.018276,0.42957,1.57,-9.999999999998899e-05,-9.999999999998899e-05,0.00039999999999995595,-0.00044059491797987516,-0.014017842534440383,-0.0049693079031467025
149580000000.0,2,-0.11302164125,-0.05259306394999999,0.001569064,-0.027115,0.086432,-0.019933,-0.15676910689999998,-4.0826064615,-8.915029382,-0.017583,0.42939,1.5698,-9.999999999998899e-05,0.0026999999999999247,-0.0009500000000000064,-0.000549766672113261,-0.00126303103588854,-0.00015927345659358383
149580000000.0,2,-0.0745501533,-0.024595078199999995,-0.03146953985,-0.022848,0.089586,-0.014592,-0.149453346,-4.080547065,-8.9161081135,-0.016761,0.42915,1.5697,-0.0020000000000000018,0.0027000000000001467,-0.0009500000000000064,0.02001569694019195,0.02380683895918745,0.004725675057837775
149580000000.0,2,-0.0303417751,-0.0354216198,-0.044316251349999995,-0.012317,0.073512,-0.01241,-0.1424906245,-4.0794683335,-8.9166965125,-0.015979,0.42903,1.5696,-9.999999999998899e-05,3.333333333332966e-05,-9.999999999998899e-05,-0.0006416206636593591,-0.0011062069658818174,0.0008755527917964079
149580000000.0,2,0.01862282835,-0.0164947853,-0.049229383,-0.001862,0.046787,-0.012345,-0.13683218745,-4.078978000999999,-8.9170887785,-0.015344,0.42897,1.5695,-9.999999999998899e-05,3.333333333332966e-05,5.0000000000105516e-05,0.0001741552358870968,-0.0007857038660616933,0.00045872457413648204
149580000000.0,2,0.0567608902,0.0029714149499999996,-0.0568001168,0.01176,0.017902,-0.00907,-0.1330762405,-4.0792722005,-8.916990711999999,-0.014923,0.42901,1.5693,-9.999999999998899e-05,3.333333333332966e-05,4.999999999988347e-05,0.000750048393333147,-0.00014270943090033406,-5.055097279871301e-05
149580000000.0,2,0.07848261995,0.01556315355,-0.05342662919999999,0.027556,-0.004609,-0.003668,-0.13145814325,-4.0807431979999995,-8.9163042465,-0.014743,0.42918,1.5692,-9.999999999998899e-05,9.999999999998899e-05,9.999999999998899e-05,-0.00020826523198691493,1.4231436332279301e-05,-0.0003835765643605271
149580000000.0,2,0.0540346415,0.047503412599999996,-0.00748247395,0.04554,-0.024999,-0.005737,-0.13199750899999999,-4.083685193,-8.9149313155,-0.014805,0.4295,1.5691,-9.999999999998899e-05,0.00019999999999997797,9.999999999998899e-05,0.0003371775289656709,0.0006158744345814426,-0.0004360116687716631
149580000000.0,2,0.06034031744999999,0.046287388,0.014258869099999998,0.079369,-0.067894,-0.012008,-0.13575345595,-4.08937305,-8.91228352,-0.015231,0.43014,1.5689,-5.0000000000105516e-05,5.0000000000105516e-05,-4.999999999988347e-05,-0.001311955701967904,0.00019967097024986558,0.0001315653677488593
149580000000.0,2,0.0618015083,-0.0786297197,0.48596854075,0.027822,-0.12499,-0.034416,-0.14350070944999999,-4.097708702499999,-8.90836086,-0.016107,0.43108,1.5686,-4.999999999988347e-05,4.999999999988347e-05,-5.0000000000105516e-05,-0.0016214018668875285,0.00023516109468113555,7.220945133901147e-05
149580000000.0,2,0.023212340550000002,-0.10002783,0.3862251036,0.010852,-0.11632,-0.038733,-0.1526503139,-4.103102359999999,-8.905713064499999,-0.017139,0.43169,1.5681,-0.00019999999999997797,9.999999999998899e-05,-5.0000000000105516e-05,0.0003453171861223514,0.0017555374243019006,-0.001570717046301906
149580000000.0,2,-0.0612327226,-0.013297817399999998,0.3786151432,0.019833,-0.048216,-0.017488,-0.1588873433,-4.1077114855,-8.903457535,-0.017844,0.4322,1.5679,-9.999999999998899e-05,-5.0000000000105516e-05,-4.999999999988347e-05,-0.0005966035847914108,-8.4317109828147e-05,0.0003048607385137403
149580000000.0,2,-0.09278071565,-0.03095959405,0.36493486645,0.005513,0.041387,0.003679,-0.15890695659999998,-4.111732212,-8.9015942715,-0.01785,0.43266,1.568,-9.999999999998899e-05,-4.999999999988347e-05,-9.999999999998899e-05,-0.0004951636034996043,-0.00042145045202213183,0.0004022903953321
149580000000.0,2,-0.1138748198,-0.046983660149999995,0.14157860605,-0.052606,0.11325,0.006657,-0.15277780035,-4.1102612144999995,-8.9023788035,-0.01716,0.43249,1.5682,-0.00020000000000020002,9.999999999998899e-05,-9.999999999998899e-05,0.0012160209798426913,-6.688016180644851e-05,0.00022787722240760755
149580000000.0,2,-0.06162498859999999,-0.12337746364999999,0.09161372429999999,-0.13334,0.15229,-0.001023,-0.14098040039999998,-4.102513961,-8.906203396999999,-0.015828,0.43162,1.5682,-9.999999999998899e-05,-9.999999999998899e-05,-0.00019999999999997797,0.0014570181378543157,-0.0017815853461542464,0.0018647829006360472
149580000000.0,2,0.0091397978,-0.1917200075,-0.013180137599999999,-0.19296,0.16025,-0.011816,-0.126309652,-4.0890788505,-8.9125777195,-0.014171,0.43011,1.5681,-9.999999999998899e-05,-9.999999999998899e-05,-9.999999999998899e-05,0.0010514576620169747,-0.0014691166135856193,0.00034795710640245225
149580000000.0,2,0.039030467,-0.21003882969999998,-0.030734041099999998,-0.20364,0.15289,-0.021431,-0.11085437159999999,-4.07368241,-8.9198346405,-0.012428,0.42838,1.5678,-9.999999999998899e-05,-9.999999999998899e-05,-0.00019999999999997797,0.0034026970731003137,-0.0014184884811914156,0.0005183636621616527
149580000000.0,2,0.041844975549999996,-0.12178878634999998,0.0214765635,-0.17186,0.12492,-0.018127,-0.09721332144999999,-4.0592666345,-8.926601229,-0.01089,0.42676,1.5675,-0.00019999999999997797,-9.999999999998899e-05,-0.00020000000000020002,0.0012606820298439736,-0.0012906540163315494,0.00047660809355767886
149580000000.0,2,0.07550139835,-0.06165440855,0.06195841469999999,-0.11901,0.068001,-0.009399,-0.0879264239,-4.048773519,-8.931406487499999,-0.009844,0.42559,1.5673,-9.999999999998899e-05,-9.999999999998899e-05,-9.999999999998899e-05,0.0012212061716844191,-0.0003542396471332143,-1.8344292341460067e-05
149580000000.0,2,0.11465935179999999,-0.05907525959999999,0.045149816599999996,-0.071557,-0.000587,-0.007066,-0.08413125034999999,-4.042693396,-8.934250416,-0.009416,0.42491,1.5671,-0.00019999999999997797,-9.999999999998899e-05,-9.999999999998899e-05,-0.00044835878069937607,-0.000276046992692347,0.00023880407829818262
149580000000.0,2,0.15885792335,-0.054348454299999994,-0.02185902285,-0.032565,-0.062705,-0.009029,-0.08538650155,-4.039555268,-8.935623347,-0.009555,0.42456,1.5669,-1.999999999990898e-05,6.666666666665932e-05,-9.999999999998899e-05,-0.00024020362864507483,0.00039627008996934165,-0.0004428509274076453
149580000000.0,2,0.14659961085,-0.02491869765,-0.0605854837,0.003498,-0.099212,-0.024918,-0.09018195339999999,-4.0390649355,-8.9357214135,-0.010092,0.42451,1.5666,-2.0000000000131024e-05,6.666666666665932e-05,5.0000000000105516e-05,-0.001296160466691676,0.000990687083921582,-0.0005311388501398062
149580000000.0,2,0.08573954095,0.0232613738,-0.07047058689999999,0.028064,-0.10898,-0.046208,-0.09666414905,-4.0402417335,-8.9351330145,-0.010818,0.42464,1.5661,-1.999999999990898e-05,6.666666666665932e-05,4.999999999988347e-05,-0.0008118677705492017,0.002007510413483349,-0.001330338876496251
149580000000.0,2,0.0642531708,0.050308114499999994,-0.11222730259999998,0.048446,-0.09742,-0.050465,-0.1027148521,-4.042791462499999,-8.933956216499999,-0.011496,0.42492,1.5655,-2.0000000000131024e-05,0.00019999999999997797,4.999999999988347e-05,0.00029524631550298386,0.0024448187286174594,-0.0023628948135731576
149580000000.0,2,0.0135920169,0.0284588983,-0.1342334252,0.064673,-0.064527,-0.043023,-0.10726513769999999,-4.047008322,-8.9319948865,-0.012008,0.42539,1.565,-1.999999999990898e-05,9.999999999998899e-05,5.0000000000105516e-05,-0.00018203597053029208,0.00033491999304735565,-0.002361467865495015
149580000000.0,2,-0.04119773665,0.0130428445,-0.1076966303,0.0618,-0.013372,-0.027105,-0.10904014135,-4.051813580499999,-8.9298374235,-0.01221,0.42593,1.5647,-9.999999999998899e-05,9.999999999998899e-05,9.999999999998899e-05,0.0020025176680245615,0.0010821868601154083,-0.0024798498169513183
149580000000.0,2,-0.0631940526,-0.01909354755,-0.11234498239999999,0.049345,0.038929,-0.013341,-0.10709842465,-4.0561285064999995,-8.9278760935,-0.011995,0.42642,1.5645,-9.999999999998899e-05,9.999999999998899e-05,6.666666666665932e-05,0.0001842796229828414,0.0006940238307193702,0.00022772056271591623
149580000000.0,2,-0.0633117324,-0.043443459499999997,-0.12008242925,0.034652,0.079524,0.002575,-0.10174399375,-4.0594627674999995,-8.926405096,-0.011397,0.42679,1.5646,-0.00019999999999997797,9.999999999998899e-05,6.666666666688137e-05,-0.00207151161306246,-0.0017256338528306436,0.0018454205806729962
149580000000.0,2,-0.05458381389999999,-0.044531997649999995,-0.08603374044999999,0.032614,0.10084,0.017479,-0.0946145592,-4.0624047625,-8.925130231499999,-0.0106,0.42712,1.5648,-9.999999999998899e-05,-9.999999999998899e-05,6.666666666665932e-05,0.002066740524712618,-0.0018324542073739902,-0.0009539738045611368
149580000000.0,2,-0.04668946064999999,-0.02903749065,-0.02217283565,0.037959,0.10398,0.020686,-0.08693595224999999,-4.065935156499999,-8.923561167499999,-0.009742,0.42752,1.565,-0.00029999999999996696,-9.999999999998899e-05,-5.0000000000105516e-05,-5.18725191986924e-05,-0.0007439367721930878,0.0011910357792491721
149580000000.0,2,-0.020721451449999997,-0.036519964599999996,0.020005566,0.04952,0.077256,0.013282,-0.0801399438,-4.070740415,-8.921501770999999,-0.008982,0.42805,1.5652,-0.000300000000000189,-9.999999999998899e-05,-4.999999999988347e-05,-0.0025791015325514755,-0.00088798401935275,0.002842491232689759
149580000000.0,2,0.0205155118,-0.040795663999999995,0.0355981395,0.058811,0.03137,0.002704,-0.07603095745,-4.076624405,-8.9188539755,-0.008524,0.42871,1.5652,-0.00019999999999997797,-9.999999999998899e-05,0.0005999999999999339,0.0054663519753555545,-0.004610737472569237,-0.004585950526334731
149580000000.0,2,0.03827535494999999,-0.05450536069999999,0.012974197949999999,0.069203,-0.01558,-0.01641,-0.07538371854999999,-4.083587126499999,-8.915617780999998,-0.008455,0.42949,1.5651,-9.999999999998899e-05,0.00019999999999997797,3.333333333332966e-05,-0.00258831559738959,0.00027671458092570766,0.0003001647386707551
149580000000.0,2,0.0195544601,-0.0665087003,0.00057859235,0.07546,-0.046513,-0.036626,-0.0773156286,-4.09133438,-8.912087387,-0.008675,0.43036,1.5647,-5.0000000000105516e-05,0.00029999999999996696,3.333333333332966e-05,-0.0016208152437100498,0.0034160775077149985,-0.0002911824668891949
149580000000.0,2,-0.020338992099999998,-0.06763646505,0.028135278849999997,0.071194,-0.053925,-0.048362,-0.08051259649999999,-4.098983567,-8.908556993,-0.009038,0.43123,1.5642,-4.999999999988347e-05,9.999999999998899e-05,3.333333333332966e-05,-0.0020056878449617455,-2.8650330540225255e-05,-5.673386655763446e-05
149580000000.0,2,-0.08250334645,-0.0737656213,0.0233006004,0.064907,-0.040023,-0.048395,-0.08389589075,-4.106240487999999,-8.905222731999999,-0.009421,0.43203,1.5638,-0.00029999999999996696,-6.666666666665932e-05,0.00019999999999997797,-0.0016405210360431743,0.00014255252498784898,-0.0008910590447051003
149580000000.0,2,-0.1362339818,-0.09842934605,0.030273128549999997,0.06085,-0.010164,-0.042046,-0.08613180694999999,-4.113399342499999,-8.9017904045,-0.009675,0.43284,1.5634,-0.00039999999999995595,-6.666666666665932e-05,-9.999999999998899e-05,-0.0016464804137245048,-0.0012206395816845017,0.002945466032623356
149580000000.0,2,-0.14950237924999998,-0.08424893015,0.08209146715,0.05245,0.012269,-0.03249,-0.08677904584999999,-4.1200678645,-8.898750343,-0.009752,0.43359,1.5632,-0.00039999999999995595,-6.666666666665932e-05,3.333333333332966e-05,-0.002447459762128512,-0.0015671809938859749,0.0019934761669340995
149580000000.0,2,-0.11893505119999999,-0.06693038625,0.07685471605,0.041859,0.023006,-0.030389,-0.0857689609,-4.125657655,-8.896200614,-0.009641,0.43421,1.5629,-0.00029999999999996696,-3.333333333332966e-05,3.333333333332966e-05,-0.0016350214363194393,-0.0003194135229145356,0.0005423546551442671
149580000000.0,2,-0.07502087249999999,-0.0691172692,0.06459640355,0.032321,0.025222,-0.038947,-0.08328787845,-4.130168714,-8.8941412175,-0.009365,0.43472,1.5626,-0.00019999999999997797,-3.333333333332966e-05,3.333333333332966e-05,-0.002214464724719145,-0.0014683991048607403,0.0006313077979295811
149580000000.0,2,-0.049847201949999996,-0.05267151714999999,0.07426576045,0.026006,0.026354,-0.053903,-0.07973787114999999,-4.133895241,-8.892376020499999,-0.008967,0.43514,1.5621,-0.00010000000000021103,-3.333333333332966e-05,0.00039999999999995595,0.0007716792911036663,-0.0013472439229278432,0.0008342874032144509
149580000000.0,2,-0.030331968449999996,-0.027125193899999997,0.07284379619999999,0.015407,0.024327,-0.070995,-0.075315072,-4.1363469035,-8.891297288999999,-0.00847,0.43542,1.5614,-0.00029999999999996696,-0.0013999999999998458,0.00039999999999995595,0.003395475556400962,-0.0037449779062286304,-0.018644787873121182
149580000000.0,2,-0.0121994726,-0.04694443354999999,0.0817482344,0.01217,0.014771,-0.078456,-0.07085304625,-4.1388966325,-8.890218557499999,-0.007969,0.4357,1.5606,-0.00029999999999996696,-9.999999999998899e-05,9.999999999998899e-05,-0.0016618294085748997,-0.0019881691895253795,0.0008300892539489513
149580000000.0,2,0.00152003075,-0.0615269221,0.09962575735,0.0036,0.007387,-0.082728,-0.06661657345,-4.1410540954999995,-8.889139826,-0.007494,0.43595,1.5597,9.999999999998899e-05,0.00039999999999995595,9.999999999998899e-05,-0.0004974433958889191,0.004715350879636704,-0.006790345765869732
149580000000.0,2,-0.00685484835,-0.054466134099999994,0.0809048625,-0.00173,0.004239,-0.088069,-0.06257623365,-4.1424270265,-8.888551427,-0.00704,0.4361,1.5587,-0.00039999999999995595,0.00019999999999997797,0.00010000000000021103,0.0007574644830325439,0.0025962570998641077,-0.006013395386387621
149580000000.0,2,0.0230456275,-0.0441887649,0.044836003799999996,-0.00607,-0.006378,-0.090194,-0.05880067339999999,-4.1428192925,-8.8884533605,-0.006616,0.43615,1.5577,-0.00039999999999995595,0.0010999999999998789,-0.000700000000000145,-0.0008752253268866639,-0.0016450370228289213,0.02532561779571496
149580000000.0,2,0.03945215294999999,-0.0295180165,0.026840801049999998,0.000328,-0.006431,-0.089117,-0.0550153065,-4.143309625,-8.888257227499999,-0.006189,0.4362,1.5567,-0.00039999999999995595,1.6666666666775853e-05,9.999999999998899e-05,0.00021640011632839684,9.482891820433714e-05,-0.001499944763339478
149580000000.0,2,0.06918591575,0.004609125499999999,0.010954028049999998,0.010041,0.009472,-0.085928,-0.049739328799999996,-4.1439960905,-8.887864961499998,-0.005596,0.43628,1.5556,-0.00019999999999997797,1.666666666655381e-05,4.999999999988347e-05,0.0011523296912008263,-0.0002358051972033426,-0.0005849597720117838
149580000000.0,2,0.0674501387,0.04174690905,0.04349249274999999,0.016568,0.026468,-0.083814,-0.043051193499999994,-4.145270955,-8.887374628999998,-0.004845,0.43642,1.5547,-0.000300000000000189,1.666666666655381e-05,5.0000000000105516e-05,0.0008038493488664589,-0.00069998629869783,-0.00027007199502238066
149580000000.0,2,0.07920831205000001,0.05612345795,0.03933447314999999,0.005998,0.040409,-0.081725,-0.034911674,-4.1455651545,-8.8872765625,-0.003928,0.43646,1.5537,-0.00029999999999996696,1.6666666666775853e-05,5.0000000000105516e-05,0.0015652597447467498,-0.0002960300237055957,-0.0004393877105866306
149580000000.0,2,0.07986535759999999,0.0222807088,-0.0194563936,-0.007737,0.060765,-0.07645,-0.025252123749999997,-4.144682556,-8.887766894999999,-0.002841,0.43635,1.5528,-0.00039999999999995595,1.6666666666775853e-05,4.999999999988347e-05,0.000360252035832509,-0.0010180918074231826,-0.0008047115709234609
149580000000.0,2,0.06099736299999999,-0.03192064575,-0.035235293449999996,-0.016183,0.077877,-0.06689,-0.0146119085,-4.1436038244999995,-8.888257227499999,-0.001643,0.43623,1.5519,-0.00019999999999997797,1.666666666655381e-05,4.999999999988347e-05,-0.000439407555332616,-0.000806030268618585,-0.0002254422332240158
149580000000.0,2,0.05665301705,-0.05995785809999999,-0.01256231865,-0.020513,0.075773,-0.057289,-0.004128599649999999,-4.1424270265,-8.888747559999999,-0.000464,0.43611,1.5512,-0.00019999999999997797,-9.999999999998899e-05,5.0000000000105516e-05,0.0010138045751225677,-0.0007930211651923091,-4.7578407230908226e-05
149580000000.0,2,0.06808757095,-0.0565451439,-0.047081726649999996,-0.016481,0.050161,-0.050835,0.0043345393,-4.141348295,-8.889237892499999,0.000488,0.43599,1.5506,-0.00029999999999996696,3.333333333332966e-05,9.999999999998899e-05,0.0005046495072996149,-0.0005665261061138516,-0.0006392066736792823
149580000000.0,2,0.07461879985,-0.04288448045,-0.06901920269999999,0.0058,0.031869,-0.055036,0.0111207411,-4.1415444279999996,-8.889139826,0.001251,0.43601,1.5499,-0.00019999999999997797,3.333333333332966e-05,9.999999999998899e-05,0.0002322932043349324,-0.000724244512490646,-8.549543037927876e-05
149580000000.0,2,0.07328509544999999,0.0058055367999999994,-0.06593010795,0.035644,0.026301,-0.058179,0.017092990949999998,-4.1436038244999995,-8.888257227499999,0.001923,0.43623,1.5492,-0.0001500000000000945,3.333333333332966e-05,0.00010000000000021103,0.0005704643412486887,-0.0004043163508078429,0.00018099468163704224
149580000000.0,2,0.041442902899999995,0.05730025595,-0.0361865385,0.062368,0.032481,-0.05813,0.022908334399999997,-4.147526484499999,-8.886393964,0.002577,0.43667,1.5485,-0.0001500000000000945,-9.999999999998899e-05,0.00019999999999997797,-0.0010033340135217617,-0.0007085873841750079,-0.0004235077885570704
149580000000.0,2,-0.00067665885,0.07244172355,-0.02017227905,0.080598,0.048308,-0.051722,0.0291061372,-4.1532143415,-8.8837461685,0.003276,0.43732,1.5479,-0.00029999999999996696,9.999999999998899e-05,0.00019999999999997797,-0.0009021464373497601,-0.0006627727235815062,-0.0012526764720515171
149580000000.0,2,-0.0020593965,0.04970010219999999,0.006276256,0.082742,0.05574,-0.042125,0.0358727257,-4.15998093,-8.880509974,0.00404,0.43807,1.5474,-0.00029999999999996696,5.0000000000105516e-05,9.999999999998899e-05,-0.0016346157227226654,-0.0009857516735021221,-0.00040947427973719863
149580000000.0,2,0.016896857949999997,0.00050013915,0.0004707192,0.075076,0.042996,-0.022903,0.04160961595,-4.166845585,-8.8772737795,0.004687,0.43885,1.5471,-0.00019999999999997797,5.0000000000105516e-05,0.00019999999999997797,-0.002359849922315582,-0.000718255486731989,2.1475350669597493e-05
149580000000.0,2,0.051690852149999994,-0.053612955549999994,0.00863965865,0.067318,0.018533,-0.003662,0.045277303049999995,-4.1739063729999994,-8.873939518499999,0.005102,0.43965,1.547,-0.00029999999999996696,9.999999999998899e-05,0.00019999999999997797,-0.0005925600162542954,-0.0002467434388973011,-0.00045572077030386904
149580000000.0,2,0.11849375194999999,-0.1114427706,0.02407532575,0.061605,-0.016602,0.016667,0.046110868299999996,-4.181163294,-8.870507191,0.005198,0.44047,1.547,-9.999999999998899e-05,1.999999999990898e-05,9.999999999998899e-05,-0.0009377751609212504,-0.0005710620758874185,0.0011486486748504
149580000000.0,2,0.1282121421,-0.13585152245,-0.005021004799999999,0.063371,-0.053924,0.031676,0.04297274029999999,-4.1887144145,-8.866976797,0.004846,0.44131,1.5472,-9.999999999998899e-05,2.0000000000131024e-05,0.00019999999999997797,-0.001753331572000194,0.0004755096694055716,0.0008997865256706317
149580000000.0,2,0.10154786075,-0.12196530605,-0.0034323275,0.064275,-0.079495,0.024248,0.03686319735,-4.1961674685,-8.863446403,0.004159,0.44215,1.5474,-9.999999999998899e-05,1.999999999990898e-05,0.00019999999999997797,-0.0010427881019802743,0.0005844062340245593,7.211374911927915e-05
149580000000.0,2,0.033538742999999996,-0.06732265224999999,-0.037294689949999994,0.064416,-0.077339,-0.000307,0.030057382249999997,-4.2026398574999995,-8.8604063415,0.003392,0.44288,1.5475,-0.00019999999999997797,2.0000000000131024e-05,0.00019999999999997797,0.0006053371733077406,0.0010808667904020908,-0.0009897928500193776
149580000000.0,2,-0.026997707449999995,0.019122967499999997,-0.10901072139999998,0.080706,-0.051881,-0.017401,0.024751984600000002,-4.2083277145,-8.857758546,0.002795,0.44354,1.5474,-0.00019999999999997797,1.999999999990898e-05,0.00019999999999997797,-0.00036761093423598457,0.0006606690624868516,0.00023175467753785983
149580000000.0,2,-0.08393511735,0.06842099704999999,-0.041756715699999995,0.092772,-0.013616,-0.022782,0.02213360905,-4.2151923694999995,-8.8545223515,0.0025,0.4443,1.5472,-5.0000000000105516e-05,3.333333333332966e-05,0.00020000000000020002,-0.0011331134380485053,-0.0004581205445575165,0.0009891635512617458
149580000000.0,2,-0.07354006834999999,0.0703725204,0.0024712758,0.087707,0.023714,-0.017517,0.022967174299999997,-4.2222531575,-8.851090024,0.002595,0.4451,1.547,-5.0000000000105516e-05,3.333333333332966e-05,0.00019999999999997797,-0.0021710710279387313,-0.0017889749550581424,0.001509098476456694
149580000000.0,2,-0.0399915187,0.042296081449999995,-0.013425303849999999,0.079399,0.058935,-0.006919,0.02711538725,-4.228823612999999,-8.847951896,0.003065,0.44585,1.547,-0.00019999999999997797,3.333333333332966e-05,0.00029999999999996696,-0.0021489827224075997,-0.0015625470653815032,0.0010809896426046128
149580000000.0,2,-0.01275845165,-0.006452775699999999,0.047297472949999995,0.079565,0.085563,0.002641,0.03399965555,-4.2363747335,-8.8443234355,0.003844,0.4467,1.547,-0.00019999999999997797,9.999999999998899e-05,0.00029999999999996696,0.001138083698942971,-0.0005278216929700541,-0.00020292712394801016
149580000000.0,2,0.04755244585,-0.025428643449999996,0.1530425799,0.064745,0.098477,0.000457,0.04342384619999999,-4.2439258539999996,-8.840694975,0.004912,0.44755,1.5469,-0.00019999999999997797,5.0000000000105516e-05,9.999999999998899e-05,-0.002171518322509669,-0.000823514903710576,0.00040244415182097426
149580000000.0,2,0.12863382804999998,-0.053181462949999994,0.1608486733,0.049845,0.096482,-0.009176,0.05451516734999999,-4.250594376,-8.8374587805,0.006169,0.4483,1.5468,-9.999999999998899e-05,4.999999999988347e-05,0.00019999999999997797,-0.0009225464643230485,-0.0002481588233911314,-0.00016932999984126118
149580000000.0,2,0.19893770189999999,-0.08385666415,0.16154494545,0.041327,0.088051,-0.025193,0.0669598062,-4.256674499,-8.834418719,0.00758,0.449,1.5463,-0.00029999999999996696,4.999999999988347e-05,9.999999999998899e-05,0.0020971503612038367,4.404936753310551e-05,-0.00066770296866836
149580000000.0,2,0.24448959114999996,-0.080022264,0.15826952435,0.032836,0.084945,-0.038019,0.08052240314999999,-4.2620681565,-8.831672857,0.009117,0.4496,1.5457,-9.999999999998899e-05,5.0000000000105516e-05,9.999999999998899e-05,0.0004380879370028956,-0.00027274513235764353,-0.0005902983706918552
149580000000.0,2,0.2739585744,-0.0407172108,0.17019441074999997,0.021024,0.072269,-0.042295,0.0938496405,-4.26589275,-8.829711526999999,0.010629,0.45003,1.545,-9.999999999998899e-05,9.999999999998899e-05,0.00019999999999997797,0.0006640920720058507,0.00022860252504508516,-0.0007907000480391335
149580000000.0,2,0.2717030449,-0.018005009399999997,0.15632780764999998,-0.004593,0.067166,-0.047675,0.10672577194999999,-4.267363747499999,-8.8288289285,0.012088,0.4502,1.5443,-9.999999999998899e-05,-9.999999999998899e-05,5.0000000000105516e-05,-1.2825240531366688e-05,-0.0010019661826408122,0.00020520763523160235
149580000000.0,2,0.2624847939,-0.0093751574,0.10399952324999999,-0.039734,0.072796,-0.052023,0.11984706964999998,-4.265304350999999,-8.829711526999999,0.013572,0.44997,1.5435,-0.00019999999999997797,-9.999999999998899e-05,4.999999999988347e-05,-0.0009483582859453055,-0.0006882813920052744,-0.00015644077008469814
149580000000.0,2,0.2387330876,-0.0168282114,0.0817090078,-0.077038,0.082693,-0.043573,0.1331154671,-4.259910693499999,-8.832065123,0.015071,0.44937,1.5428,-9.999999999998899e-05,-9.999999999998899e-05,4.999999999988347e-05,-0.00043567960836848885,-0.0020753866167095847,0.00048368639873536123
149580000000.0,2,0.1744603035,-0.02644853505,0.04935686945,-0.1069,0.094648,-0.026573,0.14561894585,-4.251575041,-8.835889716499999,0.016478,0.44841,1.5423,2.4999999999941735e-05,-0.00019999999999997797,5.0000000000105516e-05,0.0012289296742919453,-0.0011333955812529162,0.00033836596606723335
149580000000.0,2,0.12440716189999998,-0.0648023432,-0.032254071849999996,-0.10585,0.10847,-0.000981,0.1575144123,-4.242552923,-8.840008509499999,0.017816,0.44739,1.5421,2.500000000016378e-05,1.999999999990898e-05,9.999999999998899e-05,0.002149349672804557,-0.0005974193018334351,0.00014261526167669292
149580000000.0,2,0.050180628049999995,-0.0428354472,-0.043806305549999994,-0.076034,0.11353,0.01934,0.16798791449999997,-4.235296001999999,-8.8433427705,0.018994,0.44658,1.5422,2.4999999999941735e-05,2.0000000000131024e-05,9.999999999998899e-05,0.0005182743592000438,-0.0010663276632092433,0.0009839401971947215
149580000000.0,2,-0.006727361899999999,0.0384812946,-0.06450814369999999,-0.028222,0.092886,0.025864,0.17566652144999997,-4.2306868765,-8.845402167,0.019858,0.44606,1.5425,2.4999999999941735e-05,1.999999999990898e-05,0.00010000000000021103,0.0009360224556305141,-0.000649647650673213,0.00040628018628333096
149580000000.0,2,-0.0159456129,0.087475318,-0.10017492974999999,0.020505,0.046667,0.02176,0.17964802134999996,-4.2297062115,-8.845794433,0.020306,0.44595,1.5428,3.333333333332966e-05,2.0000000000131024e-05,0.00019999999999997797,0.00020721929805345152,-0.00047368580129525384,0.00023583977517060983
149580000000.0,2,-0.01328801075,0.11671874829999998,-0.12737857685,0.063834,-0.011221,0.011263,0.1790890423,-4.232157873999999,-8.844617635,0.020246,0.44623,1.543,3.333333333332966e-05,1.999999999990898e-05,0.00019999999999997797,-0.001571454085320001,-0.0001254397447476574,-0.00019076051125535565
149580000000.0,2,-0.00783551335,0.11016790609999999,-0.12622139215,0.091257,-0.056193,0.001783,0.1746760498,-4.237453465,-8.842165972499998,0.019753,0.44682,1.543,3.333333333332966e-05,9.999999999998899e-05,0.00019999999999997797,0.0004155146339340776,0.0008947136748924667,-0.00022604947935303543
149580000000.0,2,0.00120621795,0.06381187155,-0.1117565834,0.10174,-0.078657,0.00184,0.1680271411,-4.2447103859999995,-8.8388317115,0.019008,0.44764,1.543,9.999999999998899e-05,9.999999999998899e-05,0.00019999999999997797,0.00025964213184193063,0.0013386044362286853,-0.0005058603753443636
149580000000.0,2,-0.017259704,0.0272821003,-0.0587614468,0.10169,-0.080795,0.008249,0.16016220779999998,-4.2530460385,-8.834909051499999,0.018126,0.44858,1.543,9.999999999998899e-05,4.999999999988347e-05,0.00019999999999997797,-0.0018322048070819608,-8.032028859461526e-05,0.000819871886382606
149580000000.0,2,-0.030557521399999996,-0.0186522483,-0.0385009079,0.093229,-0.065818,0.017815,0.15266012054999997,-4.261577824,-8.8309863915,0.017285,0.44955,1.5432,-5.0000000000105516e-05,5.0000000000105516e-05,0.00019999999999997797,0.00026093684368311276,0.0012826782831614203,-0.0003705589256618458
149580000000.0,2,-0.016416332099999997,-0.0569374099,-0.020986230999999998,0.095596,-0.032811,0.024166,0.1476489224,-4.270698008499999,-8.8266714655,0.016726,0.45059,1.5435,-4.999999999988347e-05,9.999999999998899e-05,0.00029999999999996696,-0.0010520358355400883,0.00034614043349212587,-0.0009381825705591651
149580000000.0,2,-0.0462089348,-0.05820246775,0.039324666499999994,0.09475,-0.000845,0.031582,0.14482460719999998,-4.280406591999999,-8.821964273499999,0.016415,0.45168,1.5438,-9.999999999998899e-05,9.999999999998899e-05,0.00029999999999996696,-0.0011450687237630763,0.00016471109033466824,-0.00021624322097438253
149580000000.0,2,-0.050308114499999994,-0.06999006105,0.050906320149999996,0.078778,0.006737,0.037947,0.1429417304,-4.289232577,-8.817747414,0.016209,0.45269,1.5443,9.999999999998899e-05,9.999999999998899e-05,0.00020000000000020002,0.0010625108931198168,0.0008266837792283432,-0.0004890589428915015
149580000000.0,2,-0.055603705499999996,-0.09266303585,-0.005207331149999999,0.051058,0.010159,0.040029,0.14104904694999998,-4.295803032499999,-8.814609286,0.016,0.45342,1.5448,9.999999999998899e-05,3.333333333332966e-05,0.00029999999999996696,-0.002387535631220017,-0.001047263855720626,0.001596449961076718
149580000000.0,2,-0.056554950550000004,-0.1207983147,-0.07156893169999999,0.038387,0.023054,0.034649,0.14020567505,-4.300510224499999,-8.812255689999999,0.015909,0.45397,1.5452,9.999999999998899e-05,3.333333333332966e-05,0.00019999999999997797,-0.000986459804294626,-0.00012941041661052033,0.0012390608138242443
149580000000.0,2,-0.07648206335,-0.0974192611,-0.030979207349999996,0.033132,0.027366,0.026096,0.1399212822,-4.304727084,-8.810196293499999,0.015881,0.45445,1.5456,-4.999999999988347e-05,3.333333333332966e-05,0.00039999999999995595,-0.0015109211762572294,-0.0004448757123018954,0.0007066993207674455
149580000000.0,2,-0.12293616439999999,-0.04029552484999999,0.00328522775,0.035296,0.020968,0.010103,0.13924462334999999,-4.308453611,-8.8084310965,0.015807,0.45487,1.5458,-5.0000000000105516e-05,9.999999999998899e-05,0.00029999999999996696,-0.0013333264669899703,-0.0002545345375970509,-0.00010603200750766706
149580000000.0,2,-0.08924051499999999,-0.023026014199999997,-0.00410898635,0.045976,0.010241,-0.00907,0.13906810365,-4.312572404,-8.8063717,0.01579,0.45533,1.5459,-5.0000000000105516e-05,4.999999999988347e-05,0.00019999999999997797,-0.0008338697569451048,-0.0004250054489911559,0.000508015416234936
149580000000.0,2,-0.067862018,0.00405014645,0.013454723799999999,0.067332,0.000493,-0.028227,0.1390975236,-4.3179660615,-8.8037239045,0.015798,0.45594,1.5456,-4.999999999988347e-05,5.0000000000105516e-05,0.00029999999999996696,0.00013745147792254553,0.0006478365403934649,-0.0011946647936348642
149580000000.0,2,-0.07422653385,0.0459735752,0.0539758016,0.10162,0.00875,-0.044191,0.14021548169999998,-4.325909448,-8.7998012445,0.015932,0.45685,1.5452,-0.00019999999999997797,9.999999999998899e-05,0.00019999999999997797,-0.0007693366340245644,0.00018212391185401522,-0.0009081839081674647
149580000000.0,2,-0.07138260534999999,0.08052240314999999,0.1424513979,0.1178,0.023544,-0.054862,0.1430594102,-4.336108363999999,-8.794799852999999,0.016265,0.458,1.5447,-9.999999999998899e-05,-1.6666666666775853e-05,0.00020000000000020002,-0.0018634777983832507,-0.0013443394795313868,0.0005060768687865647
149580000000.0,2,-0.0403249448,0.07631535029999999,0.15172848879999998,0.104,0.035374,-0.050636,0.1476096958,-4.3456208145,-8.7899945945,0.016791,0.45909,1.5441,-5.0000000000105516e-05,-1.666666666655381e-05,0.00019999999999997797,-0.0005578091466261204,-0.0004513133624746146,-0.00028056269916393317
149580000000.0,2,6.864654999999999e-05,0.012513285399999999,0.10462714884999999,0.070951,0.047353,-0.036838,0.15330735945,-4.353171935,-8.786170000999999,0.017447,0.45995,1.5436,-4.999999999988347e-05,-1.666666666655381e-05,0.00019999999999997797,-0.002979972039830414,-0.001093149816802974,0.0009636336765209141
149580000000.0,2,0.0013140911,-0.0648415698,0.11223710925,0.021925,0.059469,-0.027338,0.15970129524999999,-4.3578791269999995,-8.7837183385,0.018179,0.46048,1.5433,-9.999999999998899e-05,-1.6666666666775853e-05,0.00019999999999997797,0.0001991518752320065,-0.0002206152678851936,-0.00028330648481231235
149580000000.0,2,0.03896182045,-0.08532766165,0.1008712019,-0.027092,0.067332,-0.02637,0.16738970884999999,-4.3581733265,-8.783424139,0.019055,0.46051,1.543,-5.0000000000105516e-05,-1.6666666666775853e-05,9.999999999998899e-05,0.0005853420762103045,-0.001012727996521079,0.00040758700042603513
149580000000.0,2,0.07922792534999999,-0.06206628785,0.09623265645,-0.055872,0.067577,-0.030692,0.1762058872,-4.355133265,-8.78479707,0.020055,0.46016,1.5426,-4.999999999988347e-05,-1.666666666655381e-05,0.00019999999999997797,0.0014060444818390638,-0.00028354928737761576,-0.0002855420313145063
149580000000.0,2,0.08134616174999999,-0.010395048999999998,0.11202136295000001,-0.062252,0.063381,-0.041372,0.1850122589,-4.3503280065,-8.786954533,0.021052,0.45963,1.5421,-0.00010000000000021103,-9.999999999998899e-05,9.999999999998899e-05,0.0006118634312941018,-0.0013896043049377305,0.0003278315771228224
149580000000.0,2,0.08938761475,0.0647042767,0.08232682675,-0.047317,0.057942,-0.049879,0.19402457025,-4.3452285485,-8.789308128999998,0.022071,0.45904,1.5415,-9.999999999998899e-05,-0.0014000000000000679,0.0008999999999999009,0.006338593676421422,-0.004640962475501054,-0.01755521011653502
149580000000.0,2,0.06924475564999999,0.1387837108,0.0633313457,-0.009981,0.055508,-0.053014,0.20249751585,-4.341796221,-8.7907791265,0.023032,0.45865,1.5408,-9.999999999998899e-05,3.333333333332966e-05,0.00010000000000021103,7.515911734234937e-05,-0.0015752656202392412,0.0008939757037938201
149580000000.0,2,0.03723585005,0.22026716564999996,0.06705787269999999,0.033774,0.063664,-0.043348,0.21071548854999997,-4.3411097555,-8.7909752595,0.023965,0.45858,1.5403,0.00013333333333331865,3.333333333332966e-05,9.999999999998899e-05,0.000319706669357267,-0.0010401437829730131,0.0003018034757610588
149580000000.0,2,0.048837117,0.24871625729999997,0.08281715925,0.07099,0.061207,-0.023,0.2184137088,-4.3436594845,-8.789504262,0.024844,0.45887,1.5399,0.0001333333333335407,3.333333333332966e-05,0.00019999999999997797,-0.0003265636600128796,-0.00038160795692565586,-0.0005310546831252538
149580000000.0,2,0.053053976499999995,0.1829332491,0.10190090014999999,0.085716,0.049343,-0.00054,0.22436634535,-4.349249275,-8.786562266999999,0.02553,0.45951,1.5397,0.00013333333333331865,0.000300000000000189,0.00039999999999995595,-0.0010886151313259096,0.0036125527110981714,-0.007133943095651463
149580000000.0,2,0.0575650355,0.09762520075,0.11940577039999999,0.064188,0.032461,0.010125,0.2283968785,-4.355133265,-8.783620272,0.025997,0.46017,1.5398,9.999999999998899e-05,0.00019999999999997797,9.999999999998899e-05,0.0002992956711239114,0.0005523629293637811,-0.0005769872075783444
149580000000.0,2,0.08627890669999999,0.03509800035,0.07816880715,0.027872,0.022116,0.001538,0.23185862595,-4.358467526,-8.781855075,0.026395,0.46054,1.5397,-9.999999999998899e-05,0.0006999999999999229,9.999999999998899e-05,-0.000959632148486711,-0.0008196655982102286,0.000866541293049472
149580000000.0,2,0.07212791075,-0.01589657965,0.06668521999999999,-0.004053,0.02027,-0.017729,0.23552631305,-4.3593501245,-8.781266676,0.026815,0.46065,1.5395,-9.999999999998899e-05,0.0006999999999999229,-0.0005999999999999339,-0.001403694774562536,0.0005662211821797491,0.02295146314366195
149580000000.0,2,0.03676513085,-0.022545488349999997,0.1293104869,-0.038101,0.018443,-0.039133,0.23932148659999997,-4.3577810605,-8.781953141499999,0.027245,0.46047,1.5391,3.333333333332966e-05,-9.999999999998899e-05,4.999999999988347e-05,-0.0012464945095024271,-0.001774165660411775,0.0013363612293791904
149580000000.0,2,0.00936535075,-0.0125328987,0.10904014135,-0.052877,0.0303,-0.051989,0.24411693844999996,-4.354054533499999,-8.7837183385,0.027785,0.46005,1.5386,3.333333333332966e-05,9.999999999998899e-05,5.0000000000105516e-05,0.00021108270426584141,-0.000729818833164142,-0.00011232548045048141
149580000000.0,2,0.0080610663,-0.02899826405,0.10853019555,-0.051591,0.063314,-0.042438,0.25111888655,-4.3504260729999995,-8.7852874025,0.028576,0.45964,1.538,3.333333333332966e-05,3.333333333332966e-05,5.0000000000105516e-05,0.00026183574120797193,-0.0008783509008163382,-4.4811508866149374e-05
149580000000.0,2,-0.046895400299999994,-0.014700168349999997,0.19726076474999998,-0.051371,0.10165,-0.024358,0.25982719175,-4.3475821445,-8.7864642005,0.029562,0.45931,1.5378,5.0000000000105516e-05,3.333333333332966e-05,4.999999999988347e-05,0.0006753572490540427,-0.0007048564429685822,1.2661887528186977e-05
149580000000.0,2,-0.0761388306,-0.00856120545,0.18870936594999999,-0.050184,0.12826,-0.005188,0.26992804125,-4.344542083,-8.7876409985,0.030707,0.45897,1.5377,4.999999999988347e-05,3.333333333332966e-05,4.999999999988347e-05,0.0013525595952975644,-0.0007042813381912261,0.0004009023540419987
149580000000.0,2,-0.058182854449999995,-0.018867994599999997,0.1391171369,-0.047025,0.13142,0.00869,0.28039173679999996,-4.341600088,-8.788817796499998,0.031892,0.45863,1.5378,2.4999999999941735e-05,-5.0000000000105516e-05,5.0000000000105516e-05,-0.00033668677817599857,-0.0018497623958808607,0.0011981316853257873
149580000000.0,2,-0.021231397249999995,-0.03904027365,0.12282829124999999,-0.047158,0.11437,0.00872,0.29028664665,-4.3387561595,-8.7897984615,0.033013,0.45831,1.538,2.4999999999941735e-05,-4.999999999988347e-05,-9.999999999998899e-05,1.1946371586302185e-05,-0.0007385703261697518,0.0005738509732295949
149580000000.0,2,0.02023111895,-0.041884202149999994,0.08161094129999999,-0.047351,0.084543,0.000233,0.29864191245,-4.3356180315,-8.791073326,0.033958,0.45795,1.538,2.500000000016378e-05,9.999999999998899e-05,4.999999999988347e-05,-0.0001110063963896124,-0.0010021853582915519,0.0005897516515240564
149580000000.0,2,0.025948395899999997,-0.04514000995,0.06236048735,-0.042236,0.051477,-0.00824,0.30460435565,-4.3326760365,-8.792348190499998,0.03463,0.45761,1.5379,2.4999999999941735e-05,3.333333333332966e-05,5.0000000000105516e-05,0.0003765764589646614,-0.0003122778814912408,-3.7791285626670446e-05
149580000000.0,2,0.0228887211,-0.0235751866,0.055182019549999996,-0.022196,0.018286,-0.014552,0.30795822995,-4.3309108394999996,-8.7931327225,0.035009,0.45741,1.5378,5.0000000000105516e-05,3.333333333332966e-05,3.333333333332966e-05,0.0012970921773735045,0.00032765480570184913,-0.0005119911750773865
149580000000.0,2,0.012915358049999999,-0.011159967699999999,0.07349103509999999,-0.005325,-0.009554,-0.018743,0.30866430875,-4.330714706499999,-8.7931327225,0.035088,0.45739,1.5376,4.999999999988347e-05,3.333333333332966e-05,3.333333333332966e-05,-0.00015830027705837635,-7.627452638003795e-05,0.00010647043864348005
149580000000.0,2,-0.0187699281,-0.006982334799999999,0.07586424439999999,0.00848,-0.017128,-0.017638,0.30772287034999996,-4.331793438,-8.792740456499999,0.034983,0.45751,1.5374,4.999999999988347e-05,2.4999999999941735e-05,3.333333333332966e-05,0.00010078518208250786,9.915675652694134e-05,-0.0004313341705670104
149580000000.0,2,-0.0360296321,0.00024516625,0.07304973584999999,0.009583,-0.010748,-0.014444,0.3065754923,-4.333264435499999,-8.7919559245,0.034856,0.45769,1.5372,5.0000000000105516e-05,2.500000000016378e-05,1.1111111111183902e-05,-0.0007170848530437257,-2.7582118586888527e-05,-5.1661112123235764e-05
149580000000.0,2,-0.0549368533,-0.0024320492,0.07433440699999999,-0.000974,0.006382,-0.009154,0.3061832263,-4.3340489675,-8.791661724999999,0.034812,0.45777,1.5372,9.999999999998899e-05,2.500000000016378e-05,1.1111111110961858e-05,-0.001098355216116953,-0.00069031279507481,0.0012692648707949838
149580000000.0,2,-0.06560648849999999,-0.0209077778,0.054868206749999995,-0.014715,0.025668,-0.003873,0.3071246647,-4.3336567015,-8.7917597915,0.034919,0.45773,1.5372,4.999999999988347e-05,2.4999999999941735e-05,1.1111111111183902e-05,0.0005197467302174852,0.0003427208476614041,-0.000742159309207957
149580000000.0,2,-0.06177208835,-0.025713036300000002,0.0374025631,-0.030523,0.051369,-0.001809,0.3101647262,-4.3318915045,-8.7925443235,0.035262,0.45753,1.5372,5.0000000000105516e-05,4.999999999988347e-05,1.1111111111183902e-05,0.00041519971873293926,-0.0003055563219918067,0.00019560965902798433
149580000000.0,2,-0.0371279769,-0.0065704555,0.0121994726,-0.045296,0.073864,0.001329,0.31575451669999993,-4.328263044,-8.7941133875,0.035889,0.45712,1.5372,2.4999999999941735e-05,5.0000000000105516e-05,1.1111111110961858e-05,0.0003663811559914132,-0.00042142607276707267,-0.00013598089139499336
149580000000.0,2,-0.040168038399999995,0.00199074995,0.00269682875,-0.052673,0.0899,0.00876,0.3223838121,-4.3236539185,-8.796172784,0.036634,0.45659,1.5374,2.500000000016378e-05,2.4999999999941735e-05,1.1111111111183902e-05,0.0007337799536743517,-0.0004485218667513724,0.00024253832058646063
149580000000.0,2,-0.014092156049999999,0.00015690639999999998,0.00457970555,-0.053781,0.094156,0.023695,0.3296799597,-4.319044793,-8.798134114,0.037454,0.45606,1.5376,2.4999999999941735e-05,2.500000000016378e-05,1.1111111111183902e-05,0.00016488127749891834,-0.0006292331095145709,0.0006103022987952178
149580000000.0,2,7.845319999999999e-05,-0.01713221755,0.017043957699999997,-0.054947,0.090953,0.038642,0.3363092551,-4.314729867,-8.799997377499999,0.038198,0.45558,1.538,2.4999999999941735e-05,2.4999999999941735e-05,1.1111111110961858e-05,0.00023405207717192011,-0.0005137830456161119,0.0007941153921020017
149580000000.0,2,-0.0010787315,-0.03994248545,0.00612915625,-0.04973,0.083439,0.050406,0.3418009791,-4.3109052734999995,-8.801664508,0.038815,0.45514,1.5386,9.999999999998899e-05,2.4999999999941735e-05,1.1111111111183902e-05,0.0007447231671200982,-0.00017876133712446673,0.0005490667579784447
149580000000.0,2,0.00328522775,-0.046542360899999996,0.0423255014,-0.034987,0.060937,0.053673,0.34551769945,-4.3085516775,-8.8027432395,0.039231,0.45487,1.5392,9.999999999998899e-05,2.4999999999941735e-05,-9.999999999998899e-05,0.0008042925053102223,-0.00019191445065169788,0.0006695462136543651
149580000000.0,2,0.0009414384,-0.0439534053,0.08563166779999999,-0.022369,0.032071,0.045207,0.34711618339999994,-4.307669078999999,-8.803037438999999,0.039411,0.45477,1.5397,9.999999999998899e-05,2.4999999999941735e-05,9.999999999998899e-05,-0.00034074447142451447,-0.00045590991222166366,0.0010663867498014734
149580000000.0,2,0.01750487025,-0.029155170449999997,0.07250056345,-0.011949,-0.005301,0.035684,0.34611590509999995,-4.3073748795,-8.803233572,0.039296,0.45474,1.5401,9.999999999998899e-05,2.500000000016378e-05,1.666666666655381e-05,-0.0004840204039275875,-0.0001741278656548495,0.0005665017008673889
149580000000.0,2,0.040472044549999996,-0.01634768555,0.07954173815,-0.001455,-0.034146,0.025078,0.3431935234,-4.307865211999999,-8.803135505499998,0.038966,0.4548,1.5404,9.999999999998899e-05,2.4999999999941735e-05,1.6666666666775853e-05,0.00036178777911161086,0.0009009492263543084,-0.00010979904604507817
149580000000.0,2,0.0144550021,-0.00043149259999999994,0.09321220824999998,0.001748,-0.042682,0.011222,0.33929047669999995,-4.308649743999999,-8.802841306,0.038524,0.45489,1.5406,9.999999999998899e-05,-9.999999999998899e-05,1.6666666666775853e-05,3.0138083640662838e-05,0.0001441682020608681,0.00012623888700188934
149580000000.0,2,0.0045110589999999996,0.0286942579,0.06755801185,-0.004562,-0.037292,0.001595,0.33576988934999996,-4.308453611,-8.803135505499998,0.038124,0.45487,1.5406,4.999999999988347e-05,9.999999999998899e-05,1.666666666655381e-05,0.000640609972275441,0.0007496410553686772,-0.0002649531980601083
149580000000.0,2,-0.007462860649999999,0.0299102825,0.07196119769999999,-0.018281,-0.019063,0.000471,0.33352416649999994,-4.307276813,-8.8037239045,0.037866,0.45473,1.5406,5.0000000000105516e-05,-9.999999999998899e-05,1.666666666655381e-05,-0.0003357259546393765,-0.00019020552836490623,0.00016102882581092715
149580000000.0,2,-0.03772618255,0.0025497289999999997,0.050818060299999995,-0.032056,-0.001909,0.008958,0.3319158759,-4.30511935,-8.8049007025,0.037679,0.45448,1.5407,5.0000000000105516e-05,3.333333333332966e-05,1.6666666666775853e-05,-0.00023859611752291565,0.0002492528148405615,-0.0004401710241135892
149580000000.0,2,-0.04989623519999999,-0.0183188222,0.0244185585,-0.024429,0.025719,0.021732,0.33196490915,-4.3030599535,-8.8058813675,0.03768,0.45425,1.541,4.999999999988347e-05,3.333333333332966e-05,-9.999999999998899e-05,0.0009544578599886555,-0.0001741080115666982,0.0002970040764354587
149580000000.0,2,-0.05973230515,0.0013631243499999997,0.07520719884999999,-0.005149,0.043659,0.035612,0.33312209384999997,-4.3028638205,-8.805979434,0.037811,0.45423,1.5414,9.999999999998899e-05,3.333333333332966e-05,-1.666666666655381e-05,0.00040794501579138887,-1.9476050609146256e-05,0.00031787878782435497
149580000000.0,2,-0.05002372164999999,0.03419578855,0.09519315155,0.009733,0.041396,0.043115,0.33433811844999994,-4.3038444855,-8.8054891015,0.037951,0.45434,1.5419,5.0000000000105516e-05,-1.999999999990898e-05,-1.6666666666775853e-05,0.00015972713197814903,-0.00034232408858203556,0.000548968856500992
149580000000.0,2,0.0065900687999999995,0.03965809259999999,0.05376986195,0.018088,0.01895,0.043169,0.33488729084999996,-4.3052174165,-8.8047045695,0.038016,0.4545,1.5424,4.999999999988347e-05,-2.0000000000131024e-05,-1.6666666666775853e-05,-0.0003460995996403815,-0.0005184177840287241,0.0010613505824073888
149580000000.0,2,0.06418452424999999,0.0202605389,0.0329895706,0.018963,-0.007691,0.038946,0.33415179209999996,-4.307080679999999,-8.803821971,0.037937,0.45471,1.5428,9.999999999998899e-05,-1.999999999990898e-05,-1.666666666655381e-05,-0.00023020066690554453,-8.770411697867075e-05,0.0006246737653826107
149580000000.0,2,0.07800209409999999,0.016131939249999998,0.035029353799999996,0.003828,-0.038456,0.029365,0.33125883035000003,-4.308061345,-8.803527771499999,0.03761,0.45482,1.543,0.00010000000000021103,-2.0000000000131024e-05,-1.666666666655381e-05,-0.00013520455559923317,0.0007038198963651432,-0.0002517535040349461
149580000000.0,2,0.07575637125,0.0093555441,-0.0293807234,-0.021845,-0.052086,0.020803,0.3270713908,-4.3062961479999995,-8.804508436499999,0.037131,0.45463,1.5432,9.999999999998899e-05,-1.999999999990898e-05,-1.6666666666775853e-05,-0.000839057799237708,-1.1623860313170198e-05,0.000760401270383404
149580000000.0,2,0.049641262299999996,-0.007433440699999999,-0.05908506625,-0.034619,-0.045591,0.025038,0.3225014919,-4.30315802,-8.806175567,0.036606,0.45426,1.5435,9.999999999998899e-05,9.999999999998899e-05,4.999999999988347e-05,0.0014038498609485472,0.0008122205812457484,-0.000228159848117665
149580000000.0,2,-0.0002941995,-0.014788428199999998,-0.0025497289999999997,-0.037669,-0.02213,0.032463,0.31857883189999997,-4.3001179585,-8.8078426975,0.036154,0.45392,1.5438,9.999999999998899e-05,-5.0000000000105516e-05,5.0000000000105516e-05,0.0008607421333994836,0.0010338566332663834,-4.537384397892974e-05
149580000000.0,2,-0.0518771785,-0.0036480737999999998,0.052612677249999996,-0.026795,0.008672,0.040969,0.31613697605,-4.2979604955,-8.808921429,0.035873,0.45368,1.5443,9.999999999998899e-05,-4.999999999988347e-05,-9.999999999998899e-05,-0.00045859639772272143,-0.0005864975141220974,0.0008101149267922825
149580000000.0,2,-0.04884692365,0.014592295199999999,0.05310300974999999,-0.004318,0.025522,0.053788,0.31519553765,-4.297372096499999,-8.809313695,0.035765,0.45361,1.5449,9.999999999998899e-05,4.999999999988347e-05,2.4999999999941735e-05,0.00010669275483998764,-4.084020836403468e-05,0.0009542211028338299
149580000000.0,2,-0.049984495049999994,0.03496070725,0.07395194764999999,0.010521,0.017931,0.0613,0.31364608694999996,-4.298254695,-8.808921429,0.035591,0.45371,1.5456,4.999999999988347e-05,5.0000000000105516e-05,2.4999999999941735e-05,0.00024663193765794844,0.00022377946664264847,0.00016350977001780564
149580000000.0,2,-0.014121576,0.02387919275,0.0141608026,0.024197,-0.005626,0.062433,0.31070409195,-4.300216025,-8.8080388305,0.035261,0.45393,1.5463,5.0000000000105516e-05,1.999999999990898e-05,2.500000000016378e-05,-0.0005531580082375198,0.00011331272188130903,0.0006497129630241849
149580000000.0,2,-0.0025301156999999997,0.02042725195,-0.0328522775,0.034728,-0.028082,0.053952,0.30614399969999995,-4.302765753999999,-8.806960099,0.034748,0.45422,1.547,9.999999999998899e-05,2.0000000000131024e-05,2.4999999999941735e-05,3.803432033144816e-05,0.0007108294229201118,0.0003023875587028768
149580000000.0,2,-0.0011179581,0.005933023249999999,-0.014768814899999998,0.041091,-0.041967,0.040126,0.30083860204999996,-4.3061980815,-8.8054891015,0.034152,0.45461,1.5474,9.999999999998899e-05,1.999999999990898e-05,2.4999999999941735e-05,-0.0013001051165436595,0.00020675965811456365,0.0006081172174571825
149580000000.0,2,-0.011915079749999998,-0.0074040207499999995,-0.013405690549999998,0.035767,-0.047241,0.029452,0.29503306525,-4.3096304089999995,-8.804018103999999,0.033499,0.455,1.5478,9.999999999998899e-05,2.0000000000131024e-05,2.500000000016378e-05,-0.00026023691264287496,0.0002392160277373545,0.0007571557659199479
149580000000.0,2,-0.01397447625,-0.024232232149999998,0.0058447633999999995,0.020866,-0.048175,0.020889,0.28946288805,-4.3122782045,-8.8029393725,0.032871,0.4553,1.548,9.999999999998899e-05,1.999999999990898e-05,2.4999999999941735e-05,-0.0005338277230049204,0.0005728600337799872,-0.00021198409338832325
149580000000.0,2,-0.02181979625,-0.0536031489,-0.024722564649999997,0.000716,-0.038411,0.012299,0.2848831825,-4.313258869499999,-8.8025471065,0.032352,0.45541,1.5482,2.4999999999941735e-05,2.4999999999941735e-05,2.4999999999941735e-05,0.00035495781236827284,0.0008744510647891168,-0.0006841086045207279
149580000000.0,2,-0.038442067999999996,-0.07052942679999999,-0.02529135035,-0.018287,-0.01481,0.01009,0.28190196089999997,-4.312768537,-8.802841306,0.032013,0.45536,1.5484,2.500000000016378e-05,2.4999999999941735e-05,3.333333333332966e-05,-0.00021952113024292785,0.00011632511496073583,0.00012794180713493475
149580000000.0,2,-0.059624432,-0.06693038625,-0.0547603336,-0.022346,0.011861,0.011105,0.28079380945,-4.3112975395,-8.803625837999999,0.031884,0.45519,1.5485,2.4999999999941735e-05,2.500000000016378e-05,3.333333333332966e-05,0.000626636654455448,0.00019602590693534871,-0.0001427536153328357
149580000000.0,2,-0.08456274295,-0.0219276694,-0.05067096054999999,-0.012495,0.041616,0.008937,0.2819411875,-4.309924608499999,-8.8043123035,0.032012,0.45503,1.5487,2.4999999999941735e-05,2.4999999999941735e-05,3.333333333332966e-05,0.0005321743395024225,0.00037794119772183166,-0.0002560379959790082
149580000000.0,2,-0.1110308913,0.0068450417,-0.03217561865,-0.002669,0.064983,0.001444,0.28520680195,-4.309238143,-8.804508436499999,0.032382,0.45495,1.5489,2.4999999999941735e-05,2.4999999999941735e-05,9.999999999998899e-05,-0.001718556616229494,-0.0013496176346470268,0.0007330980923362929
149580000000.0,2,-0.1043623693,0.006325289249999999,-0.06594972125,0.003769,0.067062,-0.002815,0.2894726947,-4.3088458769999995,-8.804606502999999,0.032865,0.45491,1.5489,2.4999999999941735e-05,2.500000000016378e-05,9.999999999998899e-05,0.0001560448209066978,-0.001197145586393944,0.0010324308982273545
149580000000.0,2,-0.06677347985,-0.025693422999999996,-0.08471964935000001,0.00797,0.057437,-0.004924,0.29377781405,-4.3093362095,-8.804214237,0.033356,0.45496,1.549,2.500000000016378e-05,2.4999999999941735e-05,9.999999999998899e-05,-0.00014482441071417274,-0.00029571467459188483,0.0002376830744182934
149580000000.0,2,-0.048562530799999996,-0.049533389149999996,-0.0765703232,0.006746,0.035073,-0.009155,0.2969649753,-4.3101207415,-8.8037239045,0.033719,0.45506,1.5489,2.4999999999941735e-05,2.4999999999941735e-05,9.999999999998899e-05,0.0002190701981444887,-0.00023094850737992445,0.0001456857542291301
149580000000.0,2,-0.02201592925,-0.0640570378,-0.09727216135,0.007718,0.021214,-0.012331,0.29914205159999996,-4.31100334,-8.803135505499998,0.033968,0.45516,1.5488,-9.999999999998899e-05,9.999999999998899e-05,9.999999999998899e-05,-0.001002168708127249,-0.00026032930911012997,-0.00033442045359136086
149580000000.0,2,-0.014445195449999998,-0.07661935645,-0.0748835794,0.017308,0.016877,-0.016576,0.30100531509999995,-4.3128666035,-8.802252907,0.034183,0.45536,1.5486,-1.999999999990898e-05,9.999999999998899e-05,0.00019999999999997797,0.0004728435900072103,-0.00015428317332832897,-0.0002851561270199865
149580000000.0,2,-0.023153500649999995,-0.0605854837,-0.0136508568,0.023701,0.016822,-0.014429,0.302829352,-4.3154163325,-8.800879976,0.034396,0.45565,1.5485,-2.0000000000131024e-05,-9.999999999998899e-05,9.999999999998899e-05,-0.0008504400998652351,5.5814395889086654e-05,6.521605468956526e-05
149580000000.0,2,-0.0069234948999999995,-0.04102121695,3.9226599999999995e-05,0.035358,0.01139,-0.006928,0.30425131625,-4.31884866,-8.7992128455,0.034564,0.45604,1.5484,-1.999999999990898e-05,0.00019999999999997797,0.00020000000000020002,-0.0006171018754452806,1.099172194662934e-05,-6.904230511328713e-05
149580000000.0,2,0.0014808041500000001,-0.015984839499999997,-0.00085317855,0.050176,-0.001523,-0.003677,0.30468280885,-4.3230655195,-8.7970553825,0.03462,0.45652,1.5483,-2.0000000000131024e-05,2.4999999999941735e-05,9.999999999998899e-05,-0.000516447129117803,-0.0003252630564225534,0.0003352528896357898
149580000000.0,2,0.0167889848,0.022545488349999997,-0.0048640984,0.070323,-0.017671,-0.004681,0.3040257633,-4.3285572435,-8.794407587,0.034557,0.45714,1.5482,-1.999999999990898e-05,2.500000000016378e-05,9.999999999998899e-05,-4.8271676513889084e-05,0.00047786007555017385,-0.0005558427071098437
149580000000.0,2,0.0243008787,0.0457186023,0.014033316149999999,0.084114,-0.029502,-0.007839,0.30235863279999997,-4.3352257655,-8.791171392499999,0.034379,0.45791,1.5481,9.999999999998899e-05,2.4999999999941735e-05,0.00019999999999997797,-0.0015907105036811475,2.4588474659248405e-05,0.0003547704670024132
149580000000.0,2,0.0044718324,0.05078864034999999,0.0270467407,0.080847,-0.036936,-0.006765,0.2995931575,-4.3420904205,-8.7878371315,0.034078,0.45869,1.548,4.999999999988347e-05,2.4999999999941735e-05,9.999999999998899e-05,-0.0014525766355130143,-0.0006751919786918137,0.0009900410879892796
149580000000.0,2,-0.0309301741,0.049955075099999996,0.0012650578499999998,0.059545,-0.031434,-0.005743,0.29638638294999997,-4.347287945,-8.7854835355,0.033724,0.45927,1.5479,5.0000000000105516e-05,-9.999999999998899e-05,0.00019999999999997797,-0.0016685952392480052,-0.000786362054850942,0.0011167535367480053
149580000000.0,2,-0.045600922499999995,0.0219276694,-0.0308713342,0.03086,-0.012025,0.000579,0.29415046675,-4.350033806999999,-8.7841106045,0.033474,0.45959,1.5479,9.999999999998899e-05,5.0000000000105516e-05,9.999999999998899e-05,0.00012857596513721203,0.0001567681762295603,0.0002228899307279153
149580000000.0,2,-0.07991439084999999,0.01207198615,-0.03256788465,0.012893,0.014752,0.009042,0.29315018844999996,-4.3511125385,-8.783620272,0.033362,0.45971,1.548,-2.4999999999941735e-05,4.999999999988347e-05,0.00019999999999997797,-0.0017375016034622548,-0.0008093478016832911,0.00021855826470143502
149580000000.0,2,-0.10955989379999999,0.037804635749999996,-0.007286340949999999,0.013049,0.03712,0.013275,0.293611101,-4.3517009374999995,-8.7833260725,0.033416,0.45978,1.5483,-2.4999999999941735e-05,9.999999999998899e-05,9.999999999998899e-05,5.677305677270761e-05,-7.100913696733713e-05,0.0006622557525467199
149580000000.0,2,-0.10488212174999999,0.0669794195,0.02121178395,0.019654,0.059446,0.007912,0.29641580289999997,-4.352289336499999,-8.782933806499999,0.033736,0.45985,1.5485,-2.500000000016378e-05,9.999999999998899e-05,0.00019999999999997797,-0.000984608881624438,-0.00011233531557630627,0.00024212701281353666
149580000000.0,2,-0.10421526954999999,0.09254535604999999,0.04925880294999999,0.02199,0.079679,-0.000656,0.30128970795,-4.353368068,-8.782247341,0.034293,0.45996,1.5485,-2.4999999999941735e-05,9.999999999998899e-05,9.999999999998899e-05,0.0009041940929850334,-0.00045197065194058084,-0.0002044454886029612
149580000000.0,2,-0.11237440235,0.09504605179999999,0.0728045696,0.023106,0.080741,-0.009192,0.3072031179,-4.354348733,-8.781560875499999,0.034969,0.46008,1.5485,-5.0000000000105516e-05,9.999999999998899e-05,0.00019999999999997797,0.0006321073532252752,-0.0005381429734705456,0.00019948101494135506
149580000000.0,2,-0.10919704775,0.07068633319999999,0.0505630874,-0.000268,0.085206,-0.022047,0.31374415345,-4.354054533499999,-8.781462809,0.035713,0.46005,1.5484,-4.999999999988347e-05,9.999999999998899e-05,9.999999999998899e-05,0.0002708060850784011,-0.000859472254034932,4.345416424006432e-05
149580000000.0,2,-0.09187850385,0.04029552484999999,0.030155448749999997,-0.022602,0.089657,-0.029563,0.32127566064999996,-4.3520932035,-8.7821492745,0.036566,0.45982,1.5482,-9.999999999998899e-05,9.999999999998899e-05,9.999999999998899e-05,-0.0005092442549635146,-0.001030051060372017,0.0004010513988373099
149580000000.0,2,-0.060752196749999994,0.027772432799999996,0.015317987299999999,-0.027989,0.081178,-0.032758,0.3290523341,-4.3491512084999995,-8.7833260725,0.037446,0.45949,1.5479,-9.999999999998899e-05,9.999999999998899e-05,9.999999999998899e-05,0.0005709396902657815,-0.0006799322825183918,-0.0001589590309702682
149580000000.0,2,-0.03139108665,0.0243989452,0.036549384549999994,-0.025991,0.066239,-0.029526,0.33620138195,-4.346503413,-8.784404804,0.038254,0.45919,1.5476,-9.999999999998899e-05,9.999999999998899e-05,0.00010000000000021103,-0.0002873304075364236,-0.0008392477265675158,-4.6858213853695485e-05
149580000000.0,2,0.0039814999,0.048386011099999994,0.05718257615,-0.026251,0.033209,-0.030536,0.34153619955,-4.3437575509999995,-8.785581601999999,0.038855,0.45887,1.5472,-9.999999999998899e-05,0.00020000000000020002,9.999999999998899e-05,0.0014393840996438922,-0.00013344258529990327,-0.00045445329775886667
149580000000.0,2,0.0448752304,0.04417895825,0.018691474899999998,-0.02549,-0.006221,-0.0326,0.3438799889,-4.3409136225,-8.7868564665,0.039116,0.45855,1.5469,-9.999999999998899e-05,9.999999999998899e-05,9.999999999998899e-05,0.000989095390058703,-0.00019954059525573165,-0.00017311107291170802
149580000000.0,2,0.06441988385,0.0292826569,-0.03186180585,-0.025697,-0.033919,-0.035755,0.34408592855,-4.3377754945,-8.788327463999998,0.039133,0.4582,1.5464,-0.00019999999999997797,9.999999999998899e-05,9.999999999998899e-05,0.0005499081606987755,0.0006809664355815759,-0.0011055545102163222
149580000000.0,2,0.037716375899999995,0.0342448218,-0.08504326879999999,-0.010795,-0.039367,-0.037855,0.34281106405,-4.335323831999999,-8.789700394999999,0.038982,0.45791,1.546,-5.0000000000105516e-05,0.00019999999999997797,9.999999999998899e-05,0.0014443902281984777,0.0008956889727331774,-0.0014972446584326504
149580000000.0,2,-0.0329699573,0.035490266349999994,-0.09452629935,0.008543,-0.020349,-0.034652,0.34152639290000003,-4.3342451005,-8.790190727499999,0.038834,0.4578,1.5456,-4.999999999988347e-05,0.00019999999999997797,0.00019999999999997797,-0.0006875397721193277,-0.00015256293848664448,-0.00013418819855348652
149580000000.0,2,-0.08043414329999998,0.03494109395,-0.09915503815,0.036438,0.003919,-0.027173,0.3410949003,-4.3358141645,-8.789504262,0.038788,0.45797,1.5453,-0.00019999999999997797,0.00019999999999997797,9.999999999998899e-05,0.001382917647865134,-0.00012596926408647846,-0.0014354323226541676
149580000000.0,2,-0.12825136869999998,0.040403398,-0.09615420324999999,0.059042,0.032495,-0.021844,0.3422324717,-4.3393445585,-8.7876409985,0.038925,0.45837,1.5452,-9.999999999998899e-05,0.00019999999999997797,0.00019999999999997797,-0.0004613253696226227,-0.0001110972796465326,-0.00026336925685890855
149580000000.0,2,-0.12470136139999999,0.033989848899999994,-0.093751574,0.076188,0.046196,-0.015431,0.34467432754999994,-4.344640149499999,-8.784993202999999,0.039214,0.45897,1.5451,-0.00010000000000021103,0.00029999999999996696,0.00019999999999997797,-0.00012484780866262035,-0.0006178896590522953,0.0004150883654151505
149580000000.0,2,-0.07915927879999998,0.0027262486999999995,-0.044090698399999996,0.081485,0.040823,-0.016478,0.34776342229999996,-4.351602871,-8.7813647425,0.039581,0.45977,1.5449,-9.999999999998899e-05,0.00019999999999997797,0.00029999999999996696,-0.0007341071647680719,-0.0004956997651905937,0.0005027509354271487
149580000000.0,2,-0.02083913125,-0.0393638931,0.0022947561,0.069649,0.024941,-0.021807,0.3509407769,-4.358663659,-8.7778343485,0.039959,0.46057,1.5447,-9.999999999998899e-05,0.00019999999999997797,0.00019999999999997797,0.0014470112562697812,-0.0006148283253435416,1.0597431077175035e-05
149580000000.0,2,0.051582978999999994,-0.08331729839999999,-0.0028831550999999997,0.052342,-0.009007,-0.028183,0.3528824936,-4.3646457155,-8.7746962205,0.040195,0.46125,1.5443,-0.00019999999999997797,0.00019999999999997797,0.00019999999999997797,-0.001960265889188406,0.00026032908882922534,-0.0007233135160371607
149580000000.0,2,0.09917465145,-0.09242767625,-0.0028635417999999997,0.046729,-0.044123,-0.028133,0.35257848745,-4.370039373,-8.772048425,0.040172,0.46187,1.5439,-9.999999999998899e-05,0.00010000000000021103,0.00020000000000020002,-0.0015445894362428048,-0.0003256215859952505,0.00019364787980177822
149580000000.0,2,0.10443101585,-0.06724419905,0.02099603765,0.05303,-0.059086,-0.031301,0.35061715745,-4.375531097,-8.7694006295,0.039961,0.46249,1.5434,-9.999999999998899e-05,0.00019999999999997797,0.00019999999999997797,0.000718765192967763,0.0009546460682356983,-0.0004028180172516993
149580000000.0,2,0.10213625975,-0.028507931549999997,0.07583482445,0.063782,-0.051708,-0.035567,0.34902848014999993,-4.381807353,-8.766360568,0.039793,0.4632,1.5429,-9.999999999998899e-05,0.00019999999999997797,0.00019999999999997797,-0.001092532320346895,0.00015176676138617395,-0.0005162814937131333
149580000000.0,2,0.08499423554999999,-0.00167693715,0.10460753554999999,0.056526,-0.023942,-0.033496,0.34925403309999997,-4.387691342999999,-8.763418573,0.039832,0.46387,1.5425,9.999999999998899e-05,9.999999999998899e-05,9.999999999998899e-05,-0.0006345813637090858,-0.00020682518355630286,0.0005553127195654928
149580000000.0,2,0.030939980749999995,-0.0168478247,0.09205502354999999,0.038655,0.012431,-0.028255,0.35138207615,-4.392202402,-8.760966910499999,0.040086,0.4644,1.5421,-9.999999999998899e-05,0.00019999999999997797,0.00019999999999997797,-0.0014574564823863767,-0.00020858288115710444,0.0004289554284298558
149580000000.0,2,0.030626167949999998,-0.057731748549999996,0.0665087003,0.02607,0.046623,-0.016597,0.3560402349,-4.395928929,-8.758907513999999,0.040626,0.46482,1.5418,-4.999999999988347e-05,0.00019999999999997797,0.00019999999999997797,-0.0004813727086148134,-0.0004102087799671139,-0.00010126971883672731
149580000000.0,2,0.0201624724,-0.062105514449999996,0.07852184655,0.020894,0.075423,-0.001714,0.36275779015,-4.3991651234999996,-8.7570442505,0.041401,0.46519,1.5417,-5.0000000000105516e-05,5.0000000000105516e-05,9.999999999998899e-05,-0.001072431215618841,-0.0007308565159802605,0.0006829160159219638
149580000000.0,2,0.03070462115,-0.029890669199999997,0.08301329225,0.027373,0.091343,0.008943,0.3707698232,-4.402401318,-8.7550829205,0.042324,0.46555,1.5417,-9.999999999998899e-05,4.999999999988347e-05,0.00019999999999997797,-0.0002680993444699187,-0.0008852826727692165,0.0007062865198382284
149580000000.0,2,0.0324403982,0.009610516999999999,0.12022952899999999,0.043304,0.082688,0.010052,0.3786151432,-4.406520111,-8.752631258,0.04323,0.46603,1.5418,-9.999999999998899e-05,9.999999999998899e-05,9.999999999998899e-05,-0.00032142628246639715,-0.000799328102932817,0.0009335266656837204
149580000000.0,2,0.070411747,0.0346567011,0.1566318138,0.054819,0.05489,0.010119,0.38508753219999997,-4.411815702,-8.749689263,0.043983,0.46664,1.5418,-9.999999999998899e-05,9.999999999998899e-05,0.00019999999999997797,-0.0010515613827953851,-0.000756078341869193,0.0006655222700416852
149580000000.0,2,0.09893929185,0.046571780849999994,0.16239812399999998,0.04703,0.011273,0.004843,0.38857869959999997,-4.416719027,-8.747139533999999,0.044395,0.46719,1.5418,-4.999999999988347e-05,9.999999999998899e-05,0.00019999999999997797,-0.00012200846005677723,-0.00044883614290003315,-0.00023219522226375355
149580000000.0,2,0.10472521534999998,0.04938628939999999,0.09946885094999999,0.049917,-0.029238,0.002782,0.38848063310000003,-4.421033952999999,-8.744982070999999,0.044394,0.46769,1.5417,-5.0000000000105516e-05,9.999999999998899e-05,9.999999999998899e-05,-0.0007944044394381788,-0.00025795459693722655,0.00028096612532163556
149580000000.0,2,0.09969440389999999,0.045787248850000004,0.10707881135,0.065805,-0.043219,0.003899,0.3864800765,-4.4266237434999995,-8.742236209,0.044179,0.46832,1.5416,-5.0000000000105516e-05,0.00019999999999997797,9.999999999998899e-05,-0.0007466827244640428,0.00038565264622847373,3.930637410795579e-05
149580000000.0,2,0.0171812508,0.06433162399999999,0.18105037229999998,0.066869,-0.044292,0.002835,0.38280258274999995,-4.432998066,-8.739098081,0.043775,0.46905,1.5416,-4.999999999988347e-05,9.999999999998899e-05,0.00020000000000020002,-0.0006522234682099226,0.00038245667440683917,-0.000746538929184859
149580000000.0,2,-0.028390251749999998,0.0872595717,0.1451972599,0.058565,-0.018644,-0.002561,0.38019401384999996,-4.438097524,-8.7366464185,0.043489,0.46964,1.5416,-4.999999999988347e-05,9.999999999998899e-05,4.999999999988347e-05,-0.0005173903878030739,-2.626619818979492e-05,7.274441981908186e-05
149580000000.0,2,-0.054319034349999996,0.06747955865,0.11934693049999999,0.03865,0.022018,-0.009071,0.38068434635,-4.441824051,-8.734783155,0.043555,0.47006,1.5415,-5.0000000000105516e-05,0.00019999999999997797,5.0000000000105516e-05,-0.0009574749011471706,-0.001100760816013846,0.0005189471162082571
149580000000.0,2,-0.05339720925,0.025105024,0.12148478019999999,0.004809,0.062783,-0.003863,0.38484236595,-4.4434911815,-8.733704423499999,0.044036,0.47025,1.5415,-9.999999999998899e-05,0.00010000000000021103,9.999999999998899e-05,-8.746756351951657e-05,-0.0007776105017038848,6.445230908322386e-05
149580000000.0,2,-0.025595356499999996,-0.020466478549999997,0.06767569165,-0.022807,0.085375,0.007791,0.39131475495,-4.4428047159999995,-8.733802489999999,0.044775,0.47017,1.5416,-2.4999999999941735e-05,9.999999999998899e-05,4.999999999988347e-05,-9.725799748749875e-05,-0.00019921188553517766,0.00026644797357788796
149580000000.0,2,0.0046679654,-0.0474837993,0.0546230405,-0.048463,0.085576,0.01842,0.39845399615,-4.4401569205,-8.734783155,0.045585,0.46987,1.5418,-2.4999999999941735e-05,9.999999999998899e-05,5.0000000000105516e-05,-5.9465736323094376e-05,-0.00063478697685726,0.00024313259266531273
149580000000.0,2,0.0306163613,-0.032509044749999993,0.0018436501999999997,-0.051795,0.069619,0.019509,0.4046812189,-4.435940061,-8.7366464185,0.046286,0.46939,1.542,-2.500000000016378e-05,0.00019999999999997797,5.0000000000105516e-05,0.0013107260833488121,-0.0003216433833397314,0.0003924959662657823
149580000000.0,2,0.038834334,0.0109638347,-0.018054042649999998,-0.028518,0.045985,0.020657,0.40902556485,-4.4326058,-8.738117416,0.046775,0.46901,1.5422,-2.4999999999941735e-05,9.999999999998899e-05,4.999999999988347e-05,-9.670575030285011e-05,-0.0005251315645469212,0.00042398307747903985
149580000000.0,2,0.0372456567,0.034627281149999994,0.027095773949999995,0.006521,0.02545,0.021821,0.4113693542,-4.432213534,-8.7382154825,0.047042,0.46896,1.5424,-1.999999999990898e-05,0.00019999999999997797,4.999999999988347e-05,-0.0001008896726212849,-0.000283239107310429,6.08625879653657e-05
149580000000.0,2,0.033862362449999996,0.057417935749999996,0.0328718908,0.039399,0.001736,0.022986,0.4116047138,-4.4346651965,-8.7370386845,0.047076,0.46924,1.5426,-2.0000000000131024e-05,0.00019999999999997797,5.0000000000105516e-05,-0.0011999196940716828,0.00012639963088489914,0.0005296506061317763
149580000000.0,2,0.01638691215,0.056388237499999994,0.07200042429999999,0.055189,-0.025034,0.02306,0.40918247124999996,-4.439078189,-8.734783155,0.04681,0.46975,1.5428,-1.999999999990898e-05,0.00019999999999997797,9.999999999998899e-05,-0.0010460102210873012,3.545823275175053e-05,-0.00011093775202283829
149580000000.0,2,0.027517459899999996,0.013386077249999998,0.06775414485,0.049734,-0.044162,0.01668,0.40537749105,-4.443981514,-8.7325276255,0.046389,0.47031,1.543,-2.0000000000131024e-05,9.999999999998899e-05,4.999999999988347e-05,0.0007771229644840671,0.0009863939879120043,-0.00037427574002027453
149580000000.0,2,0.03982480565,-0.030047575599999998,0.052740163699999995,0.036903,-0.050444,0.012398,0.4011508249,-4.44829644,-8.7305662955,0.045916,0.4708,1.5431,-1.999999999990898e-05,0.00019999999999997797,5.0000000000105516e-05,-0.0001001196881551536,0.000417750836809061,-2.80337733090108e-05
149580000000.0,2,0.01987807955,-0.0716866115,0.0951048917,0.019906,-0.041779,0.012353,0.39701241859999997,-4.4521210335,-8.7288010985,0.045452,0.47124,1.5432,4.999999999988347e-05,0.00019999999999997797,9.999999999998899e-05,-6.041387349109417e-05,0.0004996955184592977,-0.0001977306097313003
149580000000.0,2,-0.0025987622499999996,-0.06772472489999999,0.13380193259999998,0.006142,-0.031006,0.009108,0.3935997044,-4.454964962,-8.727526233999999,0.045069,0.47156,1.5433,5.0000000000105516e-05,9.999999999998899e-05,-9.999999999998899e-05,0.000304220685739931,0.00069141557562169,0.0004940936030883303
149580000000.0,2,0.0097674234,-0.0569962498,0.14054890779999998,-0.003335,-0.013881,0.012263,0.3918541207,-4.456534026,-8.726741702,0.044873,0.47174,1.5434,-9.999999999998899e-05,9.999999999998899e-05,9.999999999998899e-05,0.0004996141109701591,9.673713717539556e-05,-0.0005600770109403241
149580000000.0,2,0.00924767095,-0.04246279449999999,0.16884109304999997,-0.008586,9e-06,0.018634,0.39117746184999996,-4.457710824,-8.726153303,0.044798,0.47188,1.5436,9.999999999998899e-05,9.999999999998899e-05,-3.333333333332966e-05,-9.043326295432585e-05,0.00011276465462350949,0.0008221239337788955
149580000000.0,2,0.0216334699,-0.025203090499999997,0.19284777224999997,-0.017172,-0.004186,0.022895,0.39061848279999994,-4.4582011564999995,-8.72595717,0.044735,0.47194,1.5438,3.333333333332966e-05,0.00020000000000020002,-3.333333333332966e-05,0.00065065784460272,0.0009955671658818943,-0.0008590289145354868
149580000000.0,2,0.0542307745,-0.025556129899999995,0.16880186644999998,-0.024836,-0.024375,0.030388,0.38869637939999996,-4.457710824,-8.7262513695,0.044514,0.47188,1.5441,3.333333333332966e-05,9.999999999998899e-05,-3.333333333332966e-05,-0.0003033077901056225,7.623044186577665e-05,0.0003214748413734869
149580000000.0,2,0.0673716855,-0.0040795664,0.13517486359999997,-0.018778,-0.06492,0.034738,0.383636148,-4.4569262919999995,-8.726937835,0.043932,0.47179,1.5444,3.333333333332966e-05,9.999999999998899e-05,-9.999999999998899e-05,-4.622500485601533e-05,0.0007743018552976988,0.0003347978657995132
149580000000.0,2,0.08883844234999999,0.01420983585,0.09908639159999999,0.001179,-0.10983,0.02631,0.37519262235,-4.457122425,-8.7272320345,0.042964,0.47181,1.5446,3.333333333332966e-05,9.999999999998899e-05,9.999999999998899e-05,-0.0005686922599724697,0.0011683957840080694,0.00027300116803591346
149580000000.0,2,0.09882161204999998,0.052740163699999995,0.058290727599999995,0.039307,-0.14956,0.018972,0.36370903520000003,-4.4593779545,-8.7264475025,0.041654,0.47207,1.5448,3.333333333332966e-05,9.999999999998899e-05,-9.999999999998899e-05,0.00033055499691703183,0.0013782265249311365,-0.0007735738542664905
149580000000.0,2,0.07991439084999999,0.10394068335000001,0.08073814945,0.073221,-0.1818,0.012681,0.3490971267,-4.464379345999999,-8.724584239,0.039991,0.47264,1.5448,3.333333333332966e-05,9.999999999998899e-05,-1.999999999990898e-05,-0.0012630978292109685,0.0016128517057902858,-0.0005645845472942446
149580000000.0,2,0.0956540641,0.10427410945,0.09533044465,0.089064,-0.20111,0.013807,0.3329161542,-4.4713420675,-8.721642244,0.038152,0.47343,1.5448,9.999999999998899e-05,0.00019999999999997797,-2.0000000000131024e-05,-0.0008049223225051194,0.0015786696941366696,-0.0007542116028931845
149580000000.0,2,0.0455616959,0.058173047799999995,0.06876422979999999,0.078613,-0.17438,0.012674,0.31700976789999996,-4.4782067224999995,-8.718700249,0.036343,0.47422,1.5449,4.999999999988347e-05,9.999999999998899e-05,-1.999999999990898e-05,-0.0005831531829501024,0.0014288477420294488,-0.0010104885443036338
149580000000.0,2,-0.021182364,0.020044792599999996,0.10411720305,0.051335,-0.11342,0.017857,0.30460435565,-4.4838945795,-8.716248586499999,0.034932,0.47488,1.5451,5.0000000000105516e-05,9.999999999998899e-05,-2.0000000000131024e-05,-0.00047507224665249703,0.0010635356553478914,9.116623406887903e-05
149580000000.0,2,-0.0679993111,-0.01999575935,0.16760545514999997,0.004893,-0.041659,0.032595,0.29709246175,-4.4869346409999995,-8.714875655499998,0.034077,0.47523,1.5455,5.0000000000105516e-05,9.999999999998899e-05,-1.999999999990898e-05,0.0003740865737780208,0.0004840461510808858,-3.422966320315579e-05
149580000000.0,2,-0.10735339755,-0.0733733553,0.1812661186,-0.058746,0.01213,0.044135,0.29350322785,-4.4856597764999995,-8.7156601875,0.033663,0.47508,1.5461,4.999999999988347e-05,9.999999999998899e-05,-9.999999999998899e-05,-0.0005949918271388466,-0.0003985269656607837,0.0005018097987230519
149580000000.0,2,-0.07921811869999999,-0.12237718535,0.10056719574999999,-0.10646,0.053007,0.050387,0.29379742735,-4.479579653499999,-8.718798315499999,0.033684,0.47438,1.5467,1.4285714285744433e-05,9.999999999998899e-05,-9.999999999998899e-05,0.0010828996955462578,4.70152619125308e-06,0.00033193810665030354
149580000000.0,2,-0.0645473703,-0.1209748344,0.059232165999999996,-0.11582,0.082919,0.05032,0.29722975484999997,-4.4715382004999995,-8.722819042,0.034062,0.47346,1.5474,1.4285714285744433e-05,1.6666666666775853e-05,-0.00019999999999997797,0.0025275896943194875,0.00010612258585895873,4.4486283387323855e-05
149580000000.0,2,-0.05759445544999999,-0.05416212795,0.12215163239999999,-0.10517,0.074314,0.041816,0.30105434835,-4.463889013499999,-8.7266436355,0.034485,0.47258,1.548,1.4285714285744433e-05,1.666666666655381e-05,-0.00019999999999997797,0.0008495028687274808,-0.0001994593448602089,0.0006245101044367041
149580000000.0,2,-0.031214566949999998,0.0070019481,0.0885736628,-0.10212,0.042341,0.021597,0.3038492436,-4.4552591615,-8.730860495,0.034788,0.4716,1.5483,1.4285714285522388e-05,1.666666666655381e-05,-0.00010000000000021103,0.001695648729577448,-0.00012458531701065034,2.7043094118633926e-05
149580000000.0,2,0.016082905999999998,0.0173577705,-0.05580964515,-0.092662,0.013511,0.003518,0.30548695415,-4.44633511,-8.735371554,0.034957,0.47058,1.5485,1.4285714285744433e-05,1.6666666666775853e-05,-9.999999999998899e-05,0.0004653680730901111,-0.0002130314678632228,0.0003816809153140699
149580000000.0,2,0.026487761649999997,0.0105127288,-0.07112763244999999,-0.075681,-0.00154,-0.002831,0.30615380635,-4.438783989499999,-8.7391961475,0.035018,0.46971,1.5484,1.4285714285744433e-05,1.6666666666775853e-05,-0.00019999999999997797,0.0004721253875962783,9.436544656349355e-06,0.00011076566019599388
149580000000.0,2,-0.030430034949999997,-0.0094928372,-0.048386011099999994,-0.06509,-0.011218,-0.002794,0.30485932855,-4.4326058,-8.7423342755,0.034858,0.46901,1.5485,1.4285714285744433e-05,1.666666666655381e-05,-9.999999999998899e-05,0.000730324269555882,0.0002972453905625283,0.00047612686030845675
149580000000.0,2,-0.06414529765,-0.0455224693,-0.08085582925,-0.057575,-0.008081,-0.007055,0.3031235515,-4.4274082754999995,-8.7450801375,0.034648,0.46842,1.5485,-1.666666666655381e-05,5.0000000000105516e-05,-9.999999999998899e-05,0.0003283935877667621,-5.4085470658105095e-05,0.00019034721296853907
149580000000.0,2,-0.07354006834999999,-0.06705787269999999,-0.10098888169999999,-0.041526,-0.001823,-0.005969,0.30174081385,-4.423583681999999,-8.747041467499999,0.034483,0.46797,1.5485,-1.6666666666775853e-05,4.999999999988347e-05,-9.999999999998899e-05,-0.00039827042429813053,1.3831048766066445e-05,0.0001870896994930482
149580000000.0,2,-0.09098609869999999,-0.05591751829999999,-0.0787473995,-0.018034,0.001176,-0.004863,0.300475756,-4.4217204185,-8.748120198999999,0.034334,0.46776,1.5485,-1.6666666666775853e-05,4.999999999988347e-05,-3.333333333332966e-05,0.000436292604604982,-0.0003670856878175144,0.0003335447784226231
149580000000.0,2,-0.06747955865,-0.04759167245,-0.0784532,0.014962,-0.003369,0.003743,0.29897533854999997,-4.422406884,-8.747727933,0.034164,0.46784,1.5486,-1.666666666655381e-05,5.0000000000105516e-05,-3.333333333332966e-05,-0.0007135290460518751,0.00015771619773286005,-2.99458111613915e-05
149580000000.0,2,-0.053897348399999996,-0.0306163613,-0.062350680699999994,0.04582,-0.011089,0.008081,0.29675903565,-4.425937278,-8.7460608025,0.033917,0.46824,1.5487,-1.666666666655381e-05,9.999999999998899e-05,-3.333333333332966e-05,0.00029426617426758783,0.0001691721716841066,8.228776606714061e-05
149580000000.0,2,-0.03301899055,-0.0224768418,-0.022447421849999996,0.051097,-0.019656,0.005972,0.2944348596,-4.4305464035,-8.743805273,0.033661,0.46878,1.5488,-1.6666666666775853e-05,9.999999999998899e-05,9.999999999998899e-05,-0.001218316562287436,-5.550045219249178e-05,0.00048191308132519706
149580000000.0,2,0.0004609125499999999,-0.051249552899999995,-0.045287109699999994,0.035129,-0.020581,-0.002594,0.29267946925,-4.4344690635,-8.741843943,0.033468,0.46922,1.5488,-3.333333333332966e-05,5.0000000000105516e-05,3.333333333332966e-05,0.00014532596816929644,0.0003577105568679517,-0.00036641846710491754
149580000000.0,2,0.03543142645,-0.08785777735,-0.06642044044999999,0.01388,-0.01294,-0.007982,0.29227739659999996,-4.436920725999999,-8.740667145,0.033426,0.4695,1.5487,-3.333333333332966e-05,4.999999999988347e-05,3.333333333332966e-05,8.383023783231636e-05,0.000240844715532873,-4.1401351802805575e-05
149580000000.0,2,0.03955021945,-0.09966498395,-0.031616639599999996,-0.00725,0.01281,-0.008065,0.29383665394999997,-4.4378033245,-8.7401768125,0.033607,0.4696,1.5486,-3.333333333332966e-05,0.00010000000000021103,3.333333333332966e-05,9.797347380047228e-06,-0.000595424565374314,0.00023928759559624369
149580000000.0,2,0.015347407249999999,-0.09058402605,0.018740508149999998,-0.032705,0.033263,-0.004943,0.29679826225,-4.4368226595,-8.740471011999999,0.033944,0.46949,1.5485,-3.333333333332966e-05,1.999999999990898e-05,1.6666666666775853e-05,-0.00039659268922709323,-0.0004193982051412526,0.0002385321495878001
149580000000.0,2,-0.0252227038,-0.0966543424,0.03717701015,-0.056118,0.040914,-0.003929,0.29995600354999996,-4.433978731,-8.741942009499999,0.034299,0.46916,1.5485,-3.333333333332966e-05,2.0000000000131024e-05,1.666666666655381e-05,0.00014146824416672032,-0.0005906463880294144,0.00037421885478702843
149580000000.0,2,-0.0092770909,-0.11451225204999999,0.00177500365,-0.066727,0.046336,-0.006077,0.30406498989999997,-4.429663805,-8.7439033395,0.03476,0.46867,1.5484,-3.333333333332966e-05,1.999999999990898e-05,1.666666666655381e-05,0.0012563905933540287,7.744888966376706e-06,-2.08128932033258e-06
149580000000.0,2,-0.02827257195,-0.0797280645,0.033028797199999994,-0.071946,0.05704,-0.011441,0.30884082845,-4.424662413499999,-8.7462569355,0.035297,0.4681,1.5484,-4.999999999988347e-05,2.0000000000131024e-05,1.6666666666775853e-05,0.001074665445279288,-0.0003784034912555079,2.656610489454314e-06
149580000000.0,2,-0.053701215399999995,-0.05302455655,0.031293020149999996,-0.074898,0.087965,-0.0115,0.31541128394999995,-4.419072623,-8.748904731,0.036036,0.46746,1.5483,-5.0000000000105516e-05,1.999999999990898e-05,1.6666666666775853e-05,0.0007424596325072419,-0.0009545635228969118,0.0005860545895009783
149580000000.0,2,-0.0649004097,-0.05557428555,0.029184590399999998,-0.070368,0.12841,0.001247,0.32482566794999995,-4.4136789655,-8.751258326999999,0.0371,0.46684,1.5484,-0.00014999999999987246,-9.999999999998899e-05,1.666666666655381e-05,0.0010839567302113329,-0.0011338521046091454,0.00024136210439579253
149580000000.0,2,-0.10272465874999999,-0.0480133584,0.04082508395,-0.066883,0.17099,0.012922,0.33690746074999994,-4.4086775739999995,-8.753317723499999,0.03847,0.46627,1.5486,-0.0001500000000000945,3.333333333332966e-05,-9.999999999998899e-05,-0.00011338580265063403,-0.0010465458902235714,0.00036326598258856757
149580000000.0,2,-0.0671755525,-0.055623318799999995,0.0660772077,-0.073186,0.19233,0.027819,0.3514899493,-4.4036761825,-8.755279053499999,0.040125,0.46571,1.5489,-1.999999999990898e-05,3.333333333332966e-05,4.999999999988347e-05,0.0014287310568682487,-0.0011875518520383377,0.000692987118438626
149580000000.0,2,-0.007198081099999999,-0.05706489635,0.0544072942,-0.069135,0.16885,0.034272,0.36557229869999996,-4.3989689905,-8.7570442505,0.041722,0.46517,1.5493,-2.0000000000131024e-05,3.333333333332966e-05,5.0000000000105516e-05,0.00028487131119259157,-0.0011649028559952423,0.001156500059913107
149580000000.0,2,0.0540934814,-0.0569374099,0.031430313249999994,-0.06523,0.11662,0.023695,0.37685975284999995,-4.3940656655,-8.7590055805,0.042999,0.4646,1.5496,-1.999999999990898e-05,-8.333333333387927e-06,2.4999999999941735e-05,0.0011974099404239436,-0.0007799517146556134,0.0004917895704632247
149580000000.0,2,0.0991844581,-0.011875853149999999,0.0042560861,-0.045414,0.048277,0.005701,0.38399899404999993,-4.389750739499999,-8.760868843999999,0.043803,0.46411,1.5497,-2.0000000000131024e-05,-8.333333333165882e-06,2.500000000016378e-05,0.0008903733463635488,-0.0005241637293436074,0.0005564079852006243
149580000000.0,2,0.1464328978,0.03221484525,-0.0204174453,-0.011814,-0.026576,-0.005854,0.38597993734999997,-4.387102944,-8.7621437085,0.044022,0.46381,1.5495,-1.999999999990898e-05,-8.333333333387927e-06,2.4999999999941735e-05,-0.0003050004413565066,0.00021004360798571042,-9.343654143686986e-05
149580000000.0,2,0.15859314379999997,0.0434042329,-0.0093947707,0.030383,-0.089783,-0.011011,0.38235147685,-4.388181675499999,-8.7617514425,0.043611,0.46393,1.5493,9.999999999998899e-05,-8.333333333387927e-06,2.4999999999941735e-05,-0.00032063574336949063,0.0003477391354629322,-0.0005559806361391528
149580000000.0,2,0.1180916793,0.06204667455,0.0129643913,0.068499,-0.12632,-0.010884,0.37450615685,-4.392594667999999,-8.759888179,0.042727,0.46443,1.549,-1.1764705882377768e-05,-8.333333333387927e-06,9.999999999998899e-05,-0.0009352744831682136,0.0006452461330399561,0.00032788819734375085
149580000000.0,2,0.0801203305,0.07546217174999999,0.0314597332,0.08861,-0.14354,-0.006551,0.36385613494999997,-4.39926319,-8.756946183999998,0.041527,0.4652,1.5488,-1.1764705882377768e-05,-8.333333333387927e-06,9.999999999998899e-05,-0.0016347943392543973,0.0010325724973281325,-0.0003166495460533436
149580000000.0,2,0.0363434449,0.04349249274999999,0.0479545185,0.080157,-0.12856,0.000879,0.35286288029999996,-4.406323978,-8.7539061225,0.040287,0.466,1.5487,-1.1764705882377768e-05,-8.333333333165882e-06,0.00010000000000021103,-0.0001668690324715394,0.0015276738775000798,-0.0010988807330566952
149580000000.0,2,-0.0101596894,0.005717276949999999,0.06667541335,0.048387,-0.094207,0.008235,0.3432523633,-4.411815702,-8.75145446,0.039202,0.46663,1.5488,-1.1764705882377768e-05,-8.333333333387927e-06,9.999999999998899e-05,-0.001468174598410421,0.000883746922871298,4.281190784574673e-05
149580000000.0,2,-0.04478697055,-0.028547158149999998,0.07329490209999999,0.013459,-0.053438,0.017711,0.33627983515,-4.4146596305,-8.750277661999998,0.038412,0.46695,1.549,-1.1764705882155724e-05,-8.333333333387927e-06,5.0000000000105516e-05,-0.0006575099724844824,0.0003626100323814718,-0.00026068733761688834
149580000000.0,2,-0.0567608902,-0.060624710299999995,0.1107366918,-0.025749,-0.01902,0.019719,0.33223949534999997,-4.414855763499999,-8.7503757285,0.037951,0.46698,1.5493,-1.1764705882377768e-05,-8.333333333165882e-06,4.999999999988347e-05,0.0005909585504637049,0.0008337409388654571,-0.000533219125366774
149580000000.0,2,-0.05751600225,-0.05579003184999999,0.1443146614,-0.057585,-0.000639,0.015363,0.33030758529999993,-4.412207968,-8.751748659499999,0.037724,0.46668,1.5495,-1.1764705882377768e-05,-8.333333333387927e-06,-9.999999999998899e-05,0.0020974608493186664,0.0008826420612348951,-6.726808132920259e-05
149580000000.0,2,-0.0348920607,-0.02762533305,0.13408632545,-0.078827,0.00381,0.003578,0.3296799597,-4.4070104435,-8.754396455,0.037641,0.46609,1.5497,-1.1764705882377768e-05,-8.333333333387927e-06,-5.0000000000105516e-05,0.0003086336259010003,-0.0003518173309542405,0.00031199082063740335
149580000000.0,2,-0.013660663449999999,-0.014033316149999999,0.09226096319999999,-0.071238,0.011218,-0.008163,0.33059197814999997,-4.4012245199999995,-8.757338449999999,0.037732,0.46542,1.5496,-1.1764705882377768e-05,-3.333333333332966e-05,-5.0000000000105516e-05,-0.00032839363896514095,-2.395482018036077e-05,-1.9235220970054145e-05
149580000000.0,2,-0.029880862549999995,0.06204667455,0.06285081984999999,-0.029585,0.019395,-0.003835,0.3319943291,-4.397105727,-8.75929978,0.037884,0.46495,1.5496,-1.1764705882377768e-05,-3.333333333355171e-05,2.500000000016378e-05,0.000663851850971342,-5.797172235655346e-05,-3.20074622258415e-05
149580000000.0,2,-0.05249499745,0.14876688049999998,0.1217789797,0.023602,0.005093,0.004823,0.33202374905,-4.3968115275,-8.759495913,0.037886,0.46492,1.5497,-1.1764705882377768e-05,-3.333333333332966e-05,2.4999999999941735e-05,-0.0006935560396741369,-0.0005268381771701414,0.0006227101821185688
149580000000.0,2,-0.0253403836,0.15082627699999998,0.11574788994999999,0.062746,-0.031468,0.012428,0.3294053735,-4.4003419215,-8.757730716,0.037595,0.46533,1.5498,-1.1764705882377768e-05,0.00010000000000021103,2.4999999999941735e-05,0.0002706308394279655,0.000325695550969618,-0.00035972041525839105
149580000000.0,2,0.043776885599999996,0.12122000064999999,0.0731183824,0.09658,-0.072234,0.008287,0.32417842905,-4.4070104435,-8.754592588,0.037013,0.46608,1.5498,-1.1764705882155724e-05,3.333333333332966e-05,2.500000000016378e-05,-0.0003499848472318656,0.0007842858557229881,-0.0007759898178861246
149580000000.0,2,0.0796496113,0.0849648156,0.11827800565,0.089898,-0.11585,-0.005526,0.31644098219999994,-4.4150518965,-8.750866061,0.036145,0.467,1.5497,-1.1764705882377768e-05,3.333333333332966e-05,-0.00010000000000021103,-0.000741100854635357,0.0009034274253243435,-0.0002803320158895617
149580000000.0,2,0.09414383999999999,0.04488503705,0.1238776028,0.072741,-0.13807,-0.023665,0.30718350459999993,-4.4221126845,-8.747629866499999,0.035101,0.4678,1.5494,-1.1764705882377768e-05,3.333333333332966e-05,-5.0000000000105516e-05,-0.0009492134676460373,0.001077610284856645,-0.0009254904185349022
149580000000.0,2,0.08670059264999999,-0.010944221399999999,0.1000866699,0.040788,-0.13673,-0.032264,0.2978671871,-4.427114076,-8.745374337,0.034047,0.46838,1.5489,-1.1764705882377768e-05,-0.000600000000000156,-4.999999999988347e-05,-0.0009472225059148909,0.0012876450827365993,-0.000714793087275789
149580000000.0,2,0.05161239895,-0.0460716417,0.1449815136,0.005785,-0.11086,-0.031304,0.2898649607,-4.430056070999999,-8.744197539,0.033137,0.46871,1.5485,-1.1764705882377768e-05,-0.0005999999999999339,0.000400000000000178,0.002700395500152497,-0.0022405590653682417,-0.015173056786486783
149580000000.0,2,0.018112882549999997,-0.0587222202,0.16801733444999997,-0.028064,-0.070097,-0.023963,0.28430459015,-4.4301541375,-8.744393672,0.032501,0.46872,1.5482,4.999999999988347e-05,-9.999999999998899e-05,-9.999999999998899e-05,-0.0009178519478206248,-3.932251901073158e-05,-0.00024392649397858568
149580000000.0,2,0.00102969825,-0.04702288674999999,0.18321764195,-0.05764,-0.026176,-0.01235,0.2817842811,-4.427702475,-8.7456685365,0.032209,0.46845,1.5481,5.0000000000105516e-05,-0.00019999999999997797,-9.999999999998899e-05,-0.00014942969697562258,0.000298911600137286,0.0001658020909300062
149580000000.0,2,-0.0006374322499999999,-0.044531997649999995,0.20493937169999998,-0.075488,0.01552,-0.002848,0.2827061062,-4.423191416,-8.747924066,0.032305,0.46793,1.548,5.0000000000105516e-05,-9.999999999998899e-05,-0.00020000000000020002,-0.000750730609588468,-0.0005558213206127149,0.0004952392622461776
149580000000.0,2,-0.005099457999999999,-0.0491705431,0.18347261485,-0.099853,0.043416,0.007735,0.2858246209,-4.41691516,-8.7509641275,0.03265,0.46721,1.5481,4.999999999988347e-05,-9.999999999998899e-05,-0.00019999999999997797,0.0014550734312651636,-0.0002459022785588072,0.0004936439982102803
149580000000.0,2,-0.00722750105,-0.0434630728,0.1314483366,-0.11262,0.050974,0.013037,0.28973747424999996,-4.4085795075,-8.7550829205,0.033082,0.46626,1.5483,9.999999999998899e-05,-0.00019999999999997797,-0.00019999999999997797,0.0015221323326418124,-8.76584669238234e-05,-0.0006564837340959362
149580000000.0,2,0.01750487025,-0.04247260115,0.0925551627,-0.12016,0.038255,0.008776,0.2932972882,-4.3993612565,-8.7595939795,0.03347,0.46521,1.5484,9.999999999998899e-05,-9.999999999998899e-05,-0.00019999999999997797,0.0009897177549483827,-0.0005582295640651491,0.0001813491611566409
149580000000.0,2,0.04870963055,-0.04021707164999999,0.044826197150000004,-0.10864,0.009394,0.004576,0.29530765145,-4.390241072,-8.764105038499999,0.033683,0.46417,1.5485,9.999999999998899e-05,-9.999999999998899e-05,-0.00019999999999997797,0.0021159554064176245,0.0002868849900976578,-0.0007616782734220784
149580000000.0,2,0.04213917504999999,-0.00542307745,0.00222610955,-0.087438,-0.014212,-0.004953,0.29544494455,-4.381807353,-8.768321898,0.033682,0.46321,1.5484,9.999999999998899e-05,-0.00010000000000021103,-9.999999999998899e-05,0.001443665186178833,0.0009356736599444027,-0.0010411504779048453
149580000000.0,2,0.0413056098,0.05875164014999999,-0.015661220049999997,-0.051339,-0.037948,-0.008052,0.2934345813,-4.3758252964999995,-8.771361959499998,0.033442,0.46252,1.5484,9.999999999998899e-05,-9.999999999998899e-05,-9.999999999998899e-05,-0.0014634394767734094,0.0023866667656076146,-0.00444762291377121
149580000000.0,2,0.037902702249999996,0.0749424193,-0.03763792269999999,-0.02053,-0.052057,-0.004773,0.28995322055,-4.371804569999999,-8.7735194225,0.033037,0.46207,1.5483,9.999999999998899e-05,-9.999999999998899e-05,-9.999999999998899e-05,3.9178316178223316e-05,7.28901288182815e-05,-0.0002989645143821329
149580000000.0,2,0.02837063845,0.0699606411,-0.051779111999999995,0.005051,-0.050143,0.002739,0.28601094725,-4.3704316389999995,-8.7743039545,0.032585,0.46191,1.5482,0.0001500000000000945,5.0000000000105516e-05,-9.999999999998899e-05,0.000858402525710511,0.0008818751042627415,-0.001760071992654183
149580000000.0,2,0.01240541225,0.0460324151,0.00318716125,0.008272,-0.039527,0.015534,0.28193138084999997,-4.3705297055,-8.7743039545,0.032121,0.46192,1.5484,0.00014999999999987246,4.999999999988347e-05,-9.999999999998899e-05,-0.003053633627192409,0.003167329527077989,-0.003259757791963802
149580000000.0,2,0.03138128,-0.00410898635,0.004795451849999999,-0.005576,-0.028769,0.028299,0.27867557305,-4.3705297055,-8.7745000875,0.031749,0.46192,1.5486,-9.999999999998899e-05,-0.00019999999999997797,-0.00019999999999997797,0.004665754747143147,-0.0010430145962243564,0.0028376173639213242
149580000000.0,2,0.03982480565,-0.05971269184999999,0.034176175249999996,-0.03116,-0.024298,0.031448,0.275762998,-4.369745173499999,-8.77499042,0.031416,0.46183,1.549,9.999999999998899e-05,-0.00029999999999996696,-9.999999999998899e-05,-0.0021903815780672797,-0.0013306666705852344,0.001415141392211855
149580000000.0,2,0.0331660903,-0.08860308274999999,0.028115665550000002,-0.068374,-0.018646,0.015362,0.27358592169999996,-4.3658225134999995,-8.77695175,0.031161,0.46138,1.5492,0.00039999999999995595,9.999999999998899e-05,-9.999999999998899e-05,-0.001425327072847704,0.0035898457821563756,-0.004593610348830018
149580000000.0,2,0.0192014207,-0.09291800875,-0.049660875599999994,-0.080908,0.00279,-0.003911,0.27363495495,-4.359644324,-8.7799918115,0.031156,0.46069,1.5492,0.00019999999999997797,-0.00019999999999997797,-5.0000000000105516e-05,-7.365284070548483e-05,-0.00036362933241984585,-0.0012588576479663771
149580000000.0,2,-0.014817848149999998,-0.07051962015,-0.02697809415,-0.069992,0.031474,-0.007144,0.2757826113,-4.353956467,-8.78283574,0.03139,0.46004,1.5491,-0.0002500000000000835,0.000500000000000167,-4.999999999988347e-05,0.0016943224806490464,0.0007560530752370731,-0.0008661409466139691
149580000000.0,2,-0.0502688879,-0.0415409694,-0.00222610955,-0.051788,0.04623,0.003537,0.27877363955,-4.349445408,-8.7848951365,0.031722,0.45952,1.5492,-0.00024999999999986144,0.0004999999999999449,-0.001000000000000112,0.0016202299794704222,-0.0027165473772596815,0.03029695041482064
149580000000.0,2,-0.0306752012,-0.04651294095,-0.01915238745,-0.031601,0.042854,0.01532,0.28161756805,-4.346895678999999,-8.786170000999999,0.032041,0.45923,1.5494,9.999999999998899e-05,-0.00019999999999997797,-9.999999999998899e-05,-0.002100613340515034,-0.0010649166720713144,0.001070320336239633
149580000000.0,2,0.011365907350000001,-0.0526028706,-0.024771597899999998,-0.021137,0.018257,0.017516,0.2832748919,-4.3454246815,-8.7867584,0.032227,0.45906,1.5496,5.0000000000105516e-05,-0.00010000000000021103,-9.999999999998899e-05,0.0004979230406850776,-7.415454522696763e-05,1.0718442765650371e-05
149580000000.0,2,0.048699823899999994,-0.0173185439,-0.06418452424999999,-0.020301,-0.015838,0.009037,0.28290223919999996,-4.3434633515,-8.787739065,0.032181,0.45884,1.5497,4.999999999988347e-05,-9.999999999998899e-05,-9.999999999998899e-05,-0.0003166168554549209,0.00010326245753122798,2.8651338301793894e-05
149580000000.0,2,0.09250612945,-0.0137489233,-0.09435958629999999,-0.022595,-0.040318,0.001602,0.2812939486,-4.341011689,-8.7890139295,0.031994,0.45856,1.5496,9.999999999998899e-05,-9.999999999998899e-05,-9.999999999998899e-05,0.0015700136353750116,0.000572619746605163,-0.0003885951493010076
149580000000.0,2,0.08696537219999999,-0.0281646988,-0.09493817865,-0.025885,-0.048817,0.005879,0.2784500201,-4.3383638934999995,-8.7903868605,0.031667,0.45827,1.5496,9.999999999998899e-05,-9.999999999998899e-05,-3.333333333332966e-05,-9.39454094021075e-05,0.0010450462404156813,-0.00020568156670264237
149580000000.0,2,0.051563365699999995,-0.041001603649999996,-0.09935117114999999,-0.033298,-0.039169,0.010117,0.27509614579999997,-4.3354218985,-8.7919559245,0.031279,0.45793,1.5497,9.999999999998899e-05,-9.999999999998899e-05,-3.333333333332966e-05,-0.001425385958329528,-0.0002933426364060132,0.00033880179388859344
149580000000.0,2,0.0169262779,-0.031018433949999997,-0.11529678404999999,-0.024575,-0.011541,0.016488,0.27292887615,-4.3326760365,-8.793426922,0.031028,0.45762,1.5499,9.999999999998899e-05,-9.999999999998899e-05,-3.333333333332966e-05,0.0010068157331637462,0.0008736144152909908,-0.00020125793239594847
149580000000.0,2,-0.015553346899999999,-0.00661948875,-0.08322903855,-0.018978,0.024637,0.021771,0.2732328823,-4.330518573499999,-8.7945056535,0.031058,0.45737,1.5501,9.999999999998899e-05,-9.999999999998899e-05,4.999999999988347e-05,0.0007755128704171055,7.653233229687473e-05,0.00018732929917300578
149580000000.0,2,-0.0443456713,0.0141804159,-0.06759723845,-0.013469,0.048031,0.023875,0.27539034529999995,-4.3283611104999995,-8.795486318499998,0.0313,0.45713,1.5504,0.00020000000000020002,-9.999999999998899e-05,5.0000000000105516e-05,-0.0006276930886496834,-0.0006274074956675868,0.0008515901112877144
149580000000.0,2,-0.05684915005,0.022555295,-0.1006358423,-0.020833,0.05875,0.019575,0.27846963339999997,-4.3260075145,-8.796466983499998,0.031646,0.45686,1.5507,9.999999999998899e-05,-9.999999999998899e-05,3.333333333332966e-05,-0.00046498326826766023,-0.0008185036427048598,0.0006817266994649518
149580000000.0,2,-0.048895956899999996,0.02023111895,-0.12849653495,-0.019734,0.059811,0.014239,0.28218635374999995,-4.3230655195,-8.797839914499999,0.032063,0.45652,1.5509,9.999999999998899e-05,-1.2499999999970868e-05,3.333333333332966e-05,0.0013457456920142885,0.00038837719568207696,0.00015479820961833424
149580000000.0,2,-0.04958242239999999,0.0167497582,-0.14375568235,-0.006856,0.066102,0.008915,0.28660915289999994,-4.3209080564999995,-8.798722513,0.032563,0.45628,1.5511,9.999999999998899e-05,-1.2499999999970868e-05,3.333333333332966e-05,-9.084691493832509e-05,-0.001142953853586981,0.0005054187974222191
149580000000.0,2,-0.06341960555,0.0385009079,-0.08841675639999999,0.011281,0.067015,0.010013,0.2910221454,-4.3204177239999995,-8.7988205795,0.033063,0.45622,1.5513,9.999999999998899e-05,-1.2499999999970868e-05,9.999999999998899e-05,0.0003706704294805796,7.669110548214064e-05,-0.0004230551533775939
149580000000.0,2,-0.05292649005,0.055613512149999995,-0.0329699573,0.020786,0.055214,0.010052,0.29488596549999996,-4.321202255999999,-8.798330246999999,0.033504,0.45631,1.5514,9.999999999998899e-05,-1.2500000000192912e-05,9.999999999998899e-05,-0.0006722434304096137,-0.0006901426689653878,0.00020513393888785258
149580000000.0,2,-0.0103165958,0.025850329399999997,-0.01921122735,0.026988,0.031717,0.012239,0.29762202085,-4.323163586,-8.7972515155,0.033818,0.45653,1.5515,9.999999999998899e-05,-1.2499999999970868e-05,4.999999999988347e-05,0.0018127735256826538,-2.4082184525431316e-05,-8.646118637326006e-05
149580000000.0,2,0.010855961549999998,0.0014709974999999999,0.0009120184499999999,0.024602,0.000834,0.013356,0.29814177329999997,-4.3254191155,-8.796172784,0.033882,0.45679,1.5517,4.999999999988347e-05,-1.2499999999970868e-05,5.0000000000105516e-05,-9.270591633825376e-05,0.0009007317933111825,-0.0007845198234996409
149580000000.0,2,0.032146198699999996,0.0058643767,0.00089240515,0.016878,-0.03107,0.013399,0.2960039236,-4.327086246,-8.795388252,0.033642,0.45698,1.5518,5.0000000000105516e-05,-1.2499999999970868e-05,9.999999999998899e-05,0.00016212112461544415,0.0003814608933851993,-0.0002265501668961556
149580000000.0,2,0.01850514855,0.01840708205,-0.0011964113,0.013562,-0.048087,0.009153,0.29199300375,-4.3279688445,-8.7950940525,0.033187,0.45708,1.5519,9.999999999998899e-05,-1.2499999999970868e-05,4.999999999988347e-05,-0.0006591213727934475,0.00027097076141568976,0.00020928471749395716
149580000000.0,2,-0.010404855650000001,0.037186816799999994,0.0176911966,0.0051,-0.039492,0.008056,0.2876878844,-4.3281649775,-8.7950940525,0.032698,0.45711,1.552,9.999999999998899e-05,-3.333333333332966e-05,5.0000000000105516e-05,9.015841161752469e-05,0.0005274630660325741,-0.00031685364325087506
149580000000.0,2,-0.0936142809,0.06949972855,0.05490743334999999,0.006447,-0.007532,0.002667,0.28454975639999996,-4.328459177,-8.7950940525,0.032342,0.45714,1.5521,9.999999999998899e-05,-3.333333333332966e-05,9.999999999998899e-05,-8.530263049810749e-07,0.00017824017624290533,0.00028726967977318885
149580000000.0,2,-0.1444715678,0.0893778081,0.06255662035,0.000367,0.030878,-0.00061,0.2840790372,-4.327870777999999,-8.795388252,0.032287,0.45707,1.5522,0.00019999999999997797,-3.333333333332966e-05,4.999999999988347e-05,-0.0008479382622402776,-0.0006362268404433991,0.0007416040127617984
149580000000.0,2,-0.18270769615000002,0.0669990328,0.0831800053,-0.008996,0.062914,0.002524,0.285961914,-4.326890113,-8.795780518,0.032499,0.45696,1.5524,4.999999999988347e-05,-2.4999999999941735e-05,5.0000000000105516e-05,0.00010272397874905304,-0.0006505902718276779,0.0003690765060339607
149580000000.0,2,-0.18604195714999996,0.05333836935,0.1046369555,-0.021707,0.070479,-0.003912,0.2891392686,-4.325321049,-8.796466983499998,0.032858,0.45678,1.5525,5.0000000000105516e-05,-2.500000000016378e-05,-2.4999999999941735e-05,0.001096297674715363,-0.00042777680232086723,0.0002718982778185386
149580000000.0,2,-0.11212923609999999,0.028615804699999997,0.10352880404999999,-0.031366,0.062033,-0.006046,0.2931992217,-4.3230655195,-8.7974476485,0.033315,0.45652,1.5526,1.666666666655381e-05,-2.4999999999941735e-05,-2.500000000016378e-05,0.0005272603596791492,-0.0006369885931400976,0.000568595714255965
149580000000.0,2,-0.07473647964999999,0.0077864801,0.14373606905,-0.046464,0.042972,-0.003902,0.296356963,-4.320221590999999,-8.7988205795,0.033669,0.4562,1.5526,1.6666666666775853e-05,-2.4999999999941735e-05,-2.4999999999941735e-05,0.0002462068629478509,-0.00033123471466867116,0.0001317561563382308
149580000000.0,2,-0.0259680092,-0.015072821049999999,0.14479518724999998,-0.071107,0.030386,-0.002855,0.298906692,-4.315710532,-8.800879976,0.03395,0.45569,1.5526,1.6666666666775853e-05,-9.999999999998899e-05,-2.4999999999941735e-05,-0.00017513997768103806,-0.00011751600780329774,0.00010401069159912679
149580000000.0,2,-0.00758054045,-0.020809711300000002,0.12249486514999999,-0.085969,0.045417,0.0067,0.30221153305,-4.3097284755,-8.8037239045,0.034315,0.45501,1.5527,1.666666666655381e-05,-5.0000000000105516e-05,-9.999999999998899e-05,0.0012462579537562135,-0.0002650104893742178,0.00020869190827887962
149580000000.0,2,-0.042178401649999996,-0.022447421849999996,0.1417649324,-0.1221,0.070211,0.017268,0.30658529895,-4.3009024904999995,-8.8078426975,0.034794,0.454,1.5529,1.666666666655381e-05,-4.999999999988347e-05,-9.999999999998899e-05,2.628187998632292e-05,-0.0007648467959751049,0.0005344158972152568
