Time,placement_label,user_acc_x(m/s^2),user_acc_y(m/s^2),user_acc_z(m/s^2),rotation_rate_x(rad/s),rotation_rate_y(rad/s),rotation_rate_z(rad/s),gravity_x(m/s^2),gravity_y(m/s^2),gravity_z(m/s^2),attitude_roll(rad),attitude_pitch(rad),attitude_yaw(rad),target_delta_x,target_delta_y,target_delta_z,target_delta_roll,target_delta_pitch,target_delta_yaw
150000000000.0,1,0.0150826277,0.058153434500000004,-0.00665871535,-0.040268,0.027518,-0.16947,-1.5005155165,-9.657981186,0.8010856251999999,-2.0612,1.3965,-1.5032,0.0,0.0,0.0,0.0,0.0,0.0
150000000000.0,1,0.03709855695,0.1342530385,-0.000588399,-0.038317,0.00406,-0.1705,-1.4834519454999997,-9.660923181,0.7975552311999999,-2.0641,1.3982,-1.5002,-2.0000000000020002e-05,-9.999999999998899e-05,5.999999999994898e-05,0.0009184008578222436,-0.0015694088369624382,0.0003174081622707714
150000000000.0,1,-0.04659139415,0.11507123109999999,0.0242616521,-0.030976,-0.01092,-0.16832,-1.4681535715,-9.66347291,0.7952997017,-2.0672,1.3997,-1.497,-2.0000000000020002e-05,-9.999999999998899e-05,-5.000000000032756e-06,0.00034886386626253874,-0.0019131624080117593,0.0006501334459627639
150000000000.0,1,-0.026811381099999997,0.13037941174999998,0.042364728,-0.035466,-0.038589,-0.16721,-1.4528551975,-9.6659245725,0.79395619065,-2.0709,1.4012,-1.4936,-3.999999999992898e-05,-9.999999999998899e-05,-5.000000000032756e-06,0.001067925743206466,-0.0023047131297564416,-1.5440980400960314e-06
150000000000.0,1,-0.05159278565,0.09615420324999999,-0.0187503148,-0.050544,-0.055515,-0.16614,-1.4377529564999998,-9.668474301499998,0.789827591,-2.0731,1.4027,-1.4919,1.999999999990898e-05,-9.999999999998899e-05,-4.999999999921734e-06,0.00035168764729864854,-0.0014653947723892724,-0.000686797136645767
150000000000.0,1,-0.15962284205,0.08013013714999999,-0.005011198149999999,-0.064508,-0.067122,-0.16506,-1.4254946439999998,-9.670729831,0.7847673595999999,-2.074,1.4041,-1.4916,2.0000000000020002e-05,-0.00019999999999997797,-5.000000000032756e-06,0.00032288272299019205,-0.0024149607057768474,-0.00013808862014363932
150000000000.0,1,-0.1002828029,0.11690507464999998,0.09621304315,-0.059313,-0.084215,-0.16289,-1.4116672675,-9.672887293999999,0.7826098965999999,-2.077,1.4055,-1.4894,-2.0000000000020002e-05,-9.999999999998899e-05,-2.0000000000020002e-05,0.0006134262593158191,-0.0015264508063352888,-0.0012419879822971325
150000000000.0,1,-0.1466290308,-0.024908891,0.10717687784999999,-0.067912,-0.093732,-0.16395,-1.39842829,-9.675044757,0.780020941,-2.0796,1.4068,-1.4877,-2.999999999997449e-05,-9.999999999998899e-05,-1.999999999990898e-05,0.0014080409410357486,-0.0019997387782719755,-0.0013316878611797645
150000000000.0,1,-0.26535814235,-0.12260273829999999,0.0376771493,-0.06916,-0.11716,-0.16389,-1.3872487089999999,-9.677006086999999,0.77546084875,-2.0805,1.408,-1.4879,-9.00000000000345e-05,-0.00019999999999997797,-4.999999999999449e-05,0.0012976531278754422,-0.0021097507099068213,-0.0007361967240271383
150000000000.0,1,-0.2283184253,-0.1247602013,-0.03133224675,-0.067189,-0.13636,-0.16171,-1.3751865294999999,-9.67916355,0.7696455052999999,-2.081,1.4094,-1.4886,-9.99999999995449e-06,-0.00010000000000021103,-3.0000000000085514e-05,-0.0012167617892819838,-0.001680085356649208,-0.00039072933098460716
150000000000.0,1,-0.22654342165,-0.0939869336,0.0109638347,-0.073693,-0.14697,-0.15742,-1.3635166159999998,-9.6812229465,0.7647617936,-2.082,1.4107,-1.4891,-4.0000000000040004e-05,-0.00019999999999997797,4.0000000000040004e-05,2.317619627367762e-05,-0.0019187057299767662,-0.0006399849320142259
150000000000.0,1,-0.2714872986,-0.0826112196,0.0687250032,-0.08444,-0.15434,-0.15208,-1.3533177,-9.68308621,0.7601134414999999,-2.0826,1.4119,-1.49,-0.00011999999999989797,-0.00019999999999997797,-2.999999999997449e-05,-0.00025762670583207026,-0.0010835633308881043,-0.002096818200839401
150000000000.0,1,-0.2479905652,-0.059428299,0.08267005949999999,-0.10379,-0.16379,-0.13607,-1.343707183,-9.684851407,0.7543961645499999,-2.0824,1.413,-1.4918,-0.00017000000000000348,-9.999999999998899e-05,2.999999999997449e-05,0.0006660731097631878,-0.00144613140816241,-0.0006019022979686373
150000000000.0,1,-0.2219244895,0.0155141203,0.08888747559999999,-0.11669,-0.17115,-0.12646,-1.3347831315,-9.686616604,0.7474432496999999,-2.0813,1.4142,-1.4946,-6.0000000000060005e-05,-0.00019999999999997797,4.999999999999449e-05,0.0006349002209520282,-0.0007905198515907319,-0.0011113728750540286
150000000000.0,1,-0.1373911665,0.0454440161,0.11954306349999999,-0.11574,-0.18075,-0.1179,-1.3249764815,-9.688381801,0.7414709998499999,-2.081,1.4153,-1.4967,-0.00027999999999994696,-0.00019999999999997797,1.0000000000065512e-05,0.0007442708063007952,-0.0011792297487924763,-0.0012116691690693404
150000000000.0,1,-0.27236009045,-0.07293205605,0.12188685285,-0.10737,-0.19575,-0.10717,-1.318406026,-9.689754731999999,0.7358321761,-2.0798,1.4162,-1.4998,-0.00036000000000002697,-0.00029999999999996696,2.999999999997449e-05,0.0018947631710697355,-0.0015117178358317052,-0.0029631573354989005
150000000000.0,1,-0.30838972255,-0.14611908499999998,0.08114022209999999,-0.10433,-0.21176,-0.099655,-1.3131104349999998,-9.690931529999999,0.7297422464500001,-2.078,1.417,-1.5037,-0.00019999999999997797,-0.00029999999999996696,2.999999999997449e-05,0.0007527085554561719,-0.0018172652445365145,-0.0015985997832455023
150000000000.0,1,-0.31259677539999997,-0.1295850731,0.016867438,-0.093758,-0.22251,-0.095333,-1.3083051765,-9.6920102615,0.7233875372499999,-2.0759,1.4178,-1.5081,-0.000180000000000069,-0.00019999999999997797,9.00000000000345e-05,0.0010150499202061791,-0.0010818551743412286,-0.0018198285057848818
150000000000.0,1,-0.3146365586,-0.0552506661,0.044198571549999996,-0.084247,-0.23005,-0.087816,-1.304480583,-9.692892859999999,0.7188078317,-2.0744,1.4183,-1.5118,-0.00017000000000000348,-9.999999999998899e-05,7.999999999996898e-05,0.0011675399954638177,-0.0009507026614963277,-0.001777207851524798
150000000000.0,1,-0.3132636276,0.02121178395,0.05746696899999999,-0.073716,-0.24293,-0.079221,-1.3016366544999998,-9.693481259,0.7158658366999999,-2.0736,1.4187,-1.515,-0.00017999999999995797,-0.00019999999999997797,9.999999999998899e-05,0.001378570354595876,-0.0007817174721438391,-0.0019313047876177158
150000000000.0,1,-0.2773516753,0.10509786805,0.019760399749999998,-0.069571,-0.2515,-0.067442,-1.2991849919999998,-9.694069657999998,0.7128650018,-2.0726,1.4191,-1.5185,-0.00031000000000003247,-0.00020000000000020002,-2.0000000000020002e-05,0.001022476025508201,-0.0007982676402089606,-0.003194364839381958
150000000000.0,1,-0.24987344199999997,0.153179873,-0.0177500365,-0.069654,-0.25365,-0.053548,-1.2975178615,-9.694559990499998,0.70922673465,-2.071,1.4194,-1.5227,-0.00030999999999992145,-0.00029999999999996696,9.00000000000345e-05,0.0025421492250043976,-0.0007809646772602985,-0.002563052702069246
150000000000.0,1,-0.24554870934999998,0.13925443,0.0036676871,-0.056916,-0.25695,-0.044967,-1.296635263,-9.69485419,0.7069613985,-2.07,1.4196,-1.5263,-0.0002700000000001035,-0.00019999999999997797,2.999999999997449e-05,0.0010323165244847665,-0.000954835554872302,-0.003928139849783907
150000000000.0,1,-0.25925840604999995,0.09291800875,0.0394815729,-0.052745,-0.26446,-0.036394,-1.296635263,-9.69485419,0.70616705985,-2.0695,1.4197,-1.5294,-0.00022999999999995246,-0.00019999999999997797,-2.999999999997449e-05,-0.000931227814378488,-0.0007538275330849498,-0.0018242600540285814
150000000000.0,1,-0.2920224237,0.07420692055,0.04362978585,-0.049584,-0.26555,-0.0289,-1.298008194,-9.6947561235,0.70575518055,-2.0688,1.4196,-1.5328,-0.000260000000000038,-9.999999999998899e-05,-2.999999999997449e-05,-0.0018105252346272138,-0.0008829524370652653,-0.002952574195272728
150000000000.0,1,-0.31184166334999996,0.07861991304999999,0.011513007099999998,-0.063533,-0.26864,-0.017161,-1.3008521224999998,-9.694461923999999,0.7037546239499999,-2.0667,1.4194,-1.5375,-0.00023999999999990695,-0.00019999999999997797,9.99999999995449e-06,-0.001035069886949458,-0.0013227857247926078,-0.0027745110800934114
150000000000.0,1,-0.29326786825,0.143765489,0.0126898051,-0.063547,-0.26758,-0.01181,-1.3039902505,-9.694265791,0.7013814146499999,-2.0643,1.4192,-1.5427,-0.000180000000000069,-9.999999999998899e-05,-2.0000000000020002e-05,-0.0005710246802506092,-3.087438212112659e-05,-0.002735166288680535
150000000000.0,1,-0.23880173415,0.14826674135,0.06379225825,-0.062424,-0.258,-0.006476,-1.306638046,-9.693971591499999,0.70026345655,-2.0628,1.419,-1.5468,-0.00026999999999999247,-0.00019999999999997797,-3.999999999992898e-05,0.00029787280296056373,-9.416075843726723e-05,-0.002690075793540414
150000000000.0,1,-0.3134989872,0.0742951804,0.0668225131,-0.063528,-0.26013,-0.001122,-1.3111491050000001,-9.693481259,0.6988709122499999,-2.0605,1.4187,-1.5517,-0.00024000000000001798,-9.999999999998899e-05,-1.0000000000065512e-05,0.0032172900557756456,-0.0007014392679540737,-0.001573640441636659
150000000000.0,1,-0.29360129435,0.04635603455,0.00610954295,-0.063506,-0.25587,0.002088,-1.315464031,-9.693088993,0.6962917632999999,-2.0576,1.4184,-1.5572,-0.00044999999999995044,-0.00019999999999997797,-4.999999999999449e-05,0.0019137641251325554,0.0002163620411226308,-0.0035920825791180278
150000000000.0,1,-0.2707812198,0.04314926,-0.024889277699999997,-0.061352,-0.2495,0.008499,-1.3198770234999997,-9.692696727,0.6930163421999999,-2.0543,1.4182,-1.563,-0.0005100000000000104,-0.00019999999999997797,-7.00000000000145e-05,0.001868116116143348,-0.0007760057019730038,-0.0024098307823443577
150000000000.0,1,-0.24397964534999997,0.0197309798,0.02489908435,-0.048501,-0.24002,0.014921,-1.3243880825,-9.6922063945,0.69171205775,-2.0521,1.4178,-1.5677,-0.000280000000000058,-0.00010000000000021103,-5.999999999994898e-05,0.00020286766126220712,-0.0006248329938636221,-0.0019562201666674106
150000000000.0,1,-0.2001537265,-0.010169496049999999,0.0352254868,-0.035646,-0.23054,0.020273,-1.3285068755,-9.6916179955,0.69171205775,-2.0508,1.4175,-1.5713,-0.00032999999999994145,-9.999999999998899e-05,-0.000160000000000049,-0.0032268360942055985,-0.00035187326960617327,-0.003172508798697571
150000000000.0,1,-0.18037371344999997,-0.01077750835,-0.0130624578,-0.020696,-0.2264,0.024571,-1.3327237349999999,-9.6910295965,0.6921141303999999,-2.0498,1.4171,-1.5746,-0.00029999999999996696,-9.999999999998899e-05,-0.00012999999999996348,-0.0023227871027191593,-4.304664627952093e-05,-0.002261136974987865
150000000000.0,1,-0.19067069594999997,-0.01173856005,-0.06606740105,-0.011047,-0.21902,0.026719,-1.337430927,-9.690343130999999,0.6924573631499998,-2.0485,1.4166,-1.5781,-0.00021999999999999797,-3.333333333332966e-05,-2.999999999997449e-05,-0.0010135232733694544,0.0001870582726197778,-0.002539257694202046
150000000000.0,1,-0.2044294259,-0.01018910935,-0.0942222932,-0.006677,-0.20733,0.024583,-1.3424323185,-9.6896566655,0.6926240761999999,-2.0471,1.4161,-1.5816,-0.0002500000000000835,-3.333333333332966e-05,-9.00000000000345e-05,-0.00043098885982817414,0.0003924573403626397,-0.0018264679704163012
150000000000.0,1,-0.20046753929999997,-0.0049621649000000006,-0.0683915771,-0.005498,-0.19242,0.025637,-1.3473356435000001,-9.6888721335,0.6934282214999999,-2.0461,1.4157,-1.5846,-0.00029999999999996696,-3.333333333332966e-05,-4.0000000000040004e-05,0.003286873014296088,4.845498928607306e-05,-0.002999218259644998
150000000000.0,1,-0.18963119104999998,0.011915079749999998,-0.054319034349999996,-0.005382,-0.17644,0.027754,-1.352533168,-9.6880876015,0.6943206266499999,-2.0451,1.4151,-1.5874,-0.00034999999999996145,1.999999999990898e-05,-7.999999999996898e-05,-0.0006087550101889772,0.00015813845261924975,-0.0027222926729411068
150000000000.0,1,-0.15701427315,0.023692866400000002,-0.07820803374999999,-0.011637,-0.15721,0.028785,-1.3573384265,-9.687401136,0.6939675872499999,-2.0434,1.4147,-1.5906,-0.00031000000000003247,2.0000000000131024e-05,-3.999999999992898e-05,0.002493615741281374,0.00018709804406435993,-0.0016691100467092213
150000000000.0,1,-0.13530235005,0.030047575599999998,-0.11414940599999998,-0.015788,-0.14013,0.031958,-1.361947552,-9.686910803499998,0.6922023902499999,-2.041,1.4144,-1.5945,-0.00036999999999998145,1.999999999990898e-05,-0.00010000000000010001,-0.0015114645908451685,0.0006066332397252072,-0.0022017703093228924
150000000000.0,1,-0.10598046655,0.018054042649999998,-0.13121297699999998,-0.014609,-0.12415,0.034074,-1.3664586109999999,-9.686420470999998,0.6899566674,-2.0384,1.4141,-1.5984,-0.00041999999999997595,2.0000000000131024e-05,-0.00014999999999998348,-0.00019411593493834367,0.00025983385424988015,-0.001482643137997064
150000000000.0,1,-0.07978690439999998,0.0310478539,-0.1399605088,-0.010249,-0.10927,0.038331,-1.37096967,-9.6859301385,0.68778939775,-2.0358,1.4137,-1.6021,-0.000300000000000078,1.999999999990898e-05,-7.999999999996898e-05,-0.001155797281443105,5.735734359380018e-05,-0.000981022072825466
150000000000.0,1,-0.08348401144999999,0.05374044199999999,-0.1579459049,-0.005841,-0.092255,0.03618,-1.3756768619999997,-9.685439806,0.68541618845,-2.033,1.4134,-1.6058,-0.00022999999999995246,9.999999999998899e-05,-5.999999999994898e-05,-0.0006801077579865478,-0.0004025857724450077,-0.0012760349733125231
150000000000.0,1,-0.10219509965,0.07817861379999999,-0.17647066675,-0.00035,-0.073115,0.034028,-1.3806782535,-9.6849494735,0.6829939459,-2.0302,1.4131,-1.6095,-0.00024999999999997247,4.999999999988347e-05,-0.00010000000000010001,-0.0010316932994274275,7.924888868249269e-06,-0.0006384878738989741
150000000000.0,1,-0.0925355494,0.07903179234999999,-0.19946726099999998,-0.00019,-0.052866,0.032933,-1.3855815784999999,-9.684459141,0.6801009841499999,-2.0271,1.4127,-1.6131,-0.00029000000000001247,5.0000000000105516e-05,-0.00012999999999996348,0.0006498623705006867,0.00015882359636543164,-0.0010289339812572518
150000000000.0,1,-0.07970845119999999,0.04870963055,-0.2327510311,-0.004311,-0.032585,0.033964,-1.3902887705,-9.684066875,0.67598219115,-2.0233,1.4125,-1.6172,-0.000260000000000038,9.999999999998899e-05,-0.00015999999999993797,0.00042544603441085904,0.0005354282347218575,-0.00043910631892996044
150000000000.0,1,-0.0669794195,0.01832862885,-0.24774539895,-0.010563,-0.011221,0.036057,-1.3949959624999997,-9.683772675499998,0.67076505335,-2.019,1.4123,-1.6217,-0.00010999999999994348,0.00010000000000021103,-8.000000000008001e-05,-0.0009819798074395258,-0.00022182141197224503,0.00048220190634840066
150000000000.0,1,-0.05263229055,-0.027262487,-0.23699731055,-0.02002,0.010169,0.03921,-1.399801221,-9.683478476,0.66450841065,-2.014,1.4121,-1.6266,-0.00012000000000000899,9.999999999998899e-05,-0.00014999999999998348,-0.001478318060694539,0.00040093828813581034,0.0003578045850864964
150000000000.0,1,-0.033989848899999994,-0.0677051116,-0.21600127289999999,-0.031568,0.036903,0.042348,-1.4045084129999998,-9.683282342999998,0.6571338098499999,-2.0084,1.412,-1.6319,-4.0000000000040004e-05,9.999999999998899e-05,-5.999999999994898e-05,0.0002773741963275622,0.00018555304430445396,0.0005263631166674276
150000000000.0,1,-0.0188091547,-0.13161504965,-0.19082760235,-0.041023,0.060419,0.048697,-1.4095098044999999,-9.68308621,0.6488668039,-2.0022,1.4119,-1.6376,-0.0001100000000000545,9.999999999998899e-05,-0.0001300000000000745,-0.0004026006751083333,0.0008910278355713785,-0.0005717605660102709
150000000000.0,1,0.00679600845,-0.17582342785,-0.17354828505,-0.041968,0.082796,0.058263,-1.4149034619999998,-9.682890077,0.64026637185,-1.9957,1.4118,-1.6433,-0.00016999999999989246,9.999999999998899e-05,-7.999999999996898e-05,0.001762206654155607,0.0014608647294467314,-0.0006280101359681378
150000000000.0,1,0.036196345149999996,-0.16803694775,-0.16550683205,-0.039697,0.10621,0.066764,-1.420787452,-9.682595877499999,0.6316267132000001,-1.9891,1.4116,-1.6489,-3.0000000000085514e-05,9.999999999998899e-05,-2.999999999997449e-05,0.0028027630468032694,0.0008417533529010424,0.00022019283932972478
150000000000.0,1,0.08263083289999999,-0.16360434194999998,-0.19766283739999999,-0.03003,0.12211,0.077425,-1.4269656414999998,-9.6822036115,0.6230851210499999,-1.9825,1.4113,-1.6544,-0.00015999999999993797,5.0000000000105516e-05,-0.00012999999999996348,0.00037878182966633034,0.0005668515399195329,-0.00028792563375557023
150000000000.0,1,0.0816893945,-0.11259995529999998,-0.2424792279,-0.016078,0.13584,0.080625,-1.4338302965,-9.6818113455,0.6146219820999999,-1.9758,1.411,-1.6598,-0.00012000000000000899,4.999999999988347e-05,-9.00000000000345e-05,0.0013474573489564712,0.0009216686300739241,0.0003556025428728127
150000000000.0,1,0.09570309735,-0.07848261995,-0.25865039375,0.004244,0.1442,0.081711,-1.440793018,-9.6812229465,0.6076004207,-1.9699,1.4107,-1.6643,-1.0000000000065512e-05,9.999999999998899e-05,-4.999999999999449e-05,0.0006510144558207198,0.0008944351962012487,0.001093382275931143
150000000000.0,1,0.09617381654999999,-0.053505082399999994,-0.23748764304999997,0.020324,0.15579,0.082784,-1.4479518725,-9.6804384145,0.6025990292,-1.9652,1.4102,-1.6675,-3.999999999992898e-05,3.333333333332966e-05,-0.00012000000000000899,-0.001144835137965483,0.0009972800816755445,0.0016080718950903794
150000000000.0,1,0.0888678623,-0.04000132535,-0.21469698845,0.031084,0.16637,0.079579,-1.4552087934999998,-9.679555816,0.59911766845,-1.9614,1.4096,-1.6696,8.999999999992347e-05,3.333333333332966e-05,-7.999999999996898e-05,-0.00021846833058525306,0.000671291488201442,0.0024648215331786183
150000000000.0,1,0.08254257304999998,-0.03923640665,-0.20283094194999998,0.037611,0.18124,0.07636,-1.462171515,-9.6786732175,0.5962247066999999,-1.958,1.4091,-1.6712,0.0001500000000000945,3.333333333332966e-05,-7.00000000000145e-05,0.0002880636914164292,0.0005188795746473573,0.0011324380834687453
150000000000.0,1,0.08329768509999999,-0.0517987253,-0.17719635885,0.047322,0.19182,0.069952,-1.4687419704999998,-9.677790619,0.5945379628999999,-1.9554,1.4085,-1.6718,0.00010999999999994348,-9.999999999998899e-05,-7.00000000000145e-05,7.828082951943927e-05,0.0004028376565730074,0.0018283611288842927
150000000000.0,1,0.09010350019999999,-0.0349705139,-0.16538915225,0.054862,0.19709,0.062481,-1.474527894,-9.676908020499999,0.5938024641499999,-1.9536,1.408,-1.6716,9.00000000000345e-05,-9.999999999998899e-05,-4.999999999999449e-05,-0.0014619101577468818,-0.0008737157125453532,0.001432793148958389
150000000000.0,1,0.08314077869999999,-0.028537351499999995,-0.1542586045,0.056021,0.20349,0.052863,-1.4795292855,-9.676221555,0.5934396180999999,-1.9522,1.4075,-1.6709,0.00019000000000002348,4.999999999988347e-05,-0.0001100000000000545,-0.0005187262739607679,0.0011233336079574663,0.0017906551629758294
150000000000.0,1,0.058643767,-0.05020024135,-0.14540319955,0.059295,0.2088,0.045386,-1.4842364775,-9.6755350895,0.5934200048,-1.9511,1.4071,-1.6699,0.00013999999999991797,5.0000000000105516e-05,-8.999999999992347e-05,-0.0009614998363876026,0.0009708474279286339,0.001038889596667314
150000000000.0,1,0.037686955949999996,-0.04311984005,-0.11724830739999999,0.057239,0.21522,0.038966,-1.4887475365,-9.6747505575,0.5936945909999999,-1.9503,1.4066,-1.6686,0.000140000000000029,3.333333333332966e-05,-6.0000000000060005e-05,0.0011641330760594482,0.00048557718941721895,0.001281722390257256
150000000000.0,1,0.031175340349999997,-0.0390500803,-0.08392531069999999,0.054049,0.21631,0.03789,-1.493160529,-9.674064092,0.5943418299,-1.9496,1.4062,-1.667,0.00017999999999995797,3.333333333332966e-05,-9.00000000000345e-05,0.0006784491964197947,0.0012377693221485853,0.0015698125971805865
150000000000.0,1,0.021349077049999998,-0.024516625,-0.058947773149999994,0.050825,0.21314,0.036822,-1.4975735215000001,-9.673377626499999,0.5951067486,-1.9491,1.4057,-1.6654,0.00019000000000002348,3.333333333332966e-05,-7.999999999996898e-05,0.0014137271127467876,0.0007396021821279852,0.0014626121217395927
150000000000.0,1,0.0089632781,-0.0164359454,-0.04947454925,0.045446,0.20786,0.036822,-1.502182647,-9.6725930945,0.5954990146,-1.9482,1.4053,-1.6641,0.000280000000000058,4.999999999988347e-05,-3.999999999992898e-05,-0.0007784643681230108,0.00021014303939304035,0.0026177532550200056
150000000000.0,1,-0.00403053315,-0.04189400879999999,-0.02774301285,0.040093,0.20577,0.036817,-1.5069879055,-9.671808562499999,0.5957637941499999,-1.9473,1.4048,-1.6629,0.00030999999999992145,5.0000000000105516e-05,-7.00000000000145e-05,-0.0015148325200102786,0.00023022931827254567,0.002760297980031412
150000000000.0,1,-0.0202213123,-0.09242767625,0.0168282114,0.035759,0.19941,0.040023,-1.51218543,-9.670925964,0.5965385195,-1.9465,1.4043,-1.6617,0.00034000000000000696,5.0000000000105516e-05,-4.0000000000040004e-05,-0.001266469781542101,5.434904728573997e-05,0.0022145887382840623
150000000000.0,1,-0.0323031051,-0.12786890935,0.03911872685,0.030367,0.192,0.040027,-1.5174810209999998,-9.670141432,0.59729363155,-1.9458,1.4037,-1.6605,0.00029000000000001247,4.999999999988347e-05,-4.999999999999449e-05,-0.0019293546325036548,0.00046316928888567865,0.0024517345076209285
150000000000.0,1,-0.0309301741,-0.140823494,0.05995785809999999,0.022816,0.1814,0.040033,-1.522580479,-9.669258833499999,0.5976957042,-1.9449,1.4032,-1.6595,0.000300000000000078,9.999999999998899e-05,2.0000000000020002e-05,0.0003645815262709462,-0.00035450493377631176,0.0026708205261507523
150000000000.0,1,-0.032950344,-0.1314875632,0.08714189189999999,0.015288,0.17294,0.038967,-1.5277780035,-9.668474301499998,0.59819584335,-1.944,1.4027,-1.6586,0.00013999999999991797,3.333333333332966e-05,-9.00000000000345e-05,-0.0009688258393636406,0.0012822767388356304,0.001219464663223535
150000000000.0,1,-0.030890947499999998,-0.07455995995,0.11719927414999999,0.00882,0.1634,0.037906,-1.532779395,-9.667591703,0.59866656255,-1.9431,1.4022,-1.6579,0.00021000000000004349,3.333333333332966e-05,-2.0000000000020002e-05,0.0009968634136381382,0.0003644893824072959,0.0017804228664335398
150000000000.0,1,-0.00869849855,-0.028331411849999998,0.13502776384999998,0.006657,0.15703,0.03471,-1.5373885204999997,-9.666807170999999,0.5992451549,-1.9425,1.4017,-1.657,0.000140000000000029,3.333333333332966e-05,-9.99999999995449e-06,0.0025842983543005182,0.0005718031755856945,0.0014219126293726347
150000000000.0,1,0.02017227905,-0.00803164635,0.14338302965,0.004418,0.14319,0.034729,-1.5412131139999998,-9.666218771999999,0.59986297385,-1.942,1.4013,-1.656,0.00015999999999993797,4.999999999988347e-05,-1.0000000000065512e-05,0.0010039458366644105,0.0001930608160112257,0.0012093863158142426
150000000000.0,1,0.040373978049999995,-0.0082964259,0.13536118995,0.007569,0.13358,0.030479,-1.544351242,-9.665630372999999,0.6008534455,-1.9418,1.401,-1.6548,0.00021000000000004349,5.0000000000105516e-05,4.999999999999449e-05,0.0019494229747245573,0.0005292596982233722,0.002099724410135506
150000000000.0,1,0.0606443236,0.00930651085,0.12426986879999999,0.011753,0.12183,0.029436,-1.5469990375,-9.665140040499999,0.6022165698499999,-1.942,1.4007,-1.6534,9.999999999998899e-05,9.999999999998899e-05,1.4999999999987246e-05,0.0012388319421148264,0.0005998400627234002,0.0007594374610533361
150000000000.0,1,0.08305251885,0.01877973475,0.11688546135,0.015949,0.10901,0.024124,-1.5487642345,-9.6647477745,0.6040700267,-1.9427,1.4005,-1.6517,0.00019999999999997797,3.333333333332966e-05,1.5000000000098268e-05,-0.0006652495391505919,-3.5847555528434327e-06,0.0017971366212623519
150000000000.0,1,0.08428815675,0.028115665550000002,0.11903311769999998,0.025478,0.097211,0.020955,-1.5501371654999998,-9.6643555085,0.6068551152999999,-1.9439,1.4002,-1.6494,2.0000000000020002e-05,3.333333333332966e-05,-6.0000000000060005e-05,0.0015697926330116019,0.0006218250412513004,0.0002882062307980604
150000000000.0,1,0.08444506315,0.03135186005,0.11764057339999999,0.026451,0.082288,0.016708,-1.5510197639999999,-9.6639632425,0.6101893762999999,-1.9456,1.4,-1.6469,7.999999999996898e-05,3.333333333332966e-05,2.999999999997449e-05,-0.00036080948130257084,0.0002962491376188314,0.0008162067400725448
150000000000.0,1,0.06015399109999999,0.0166516917,0.1051076747,0.024261,0.072718,0.013516,-1.5519023625,-9.663669042999999,0.6133078909999999,-1.9472,1.3998,-1.6446,6.0000000000060005e-05,5.0000000000105516e-05,-0.00011999999999989797,-0.0013561791555405378,0.00024151776821845772,0.00044783838516337937
150000000000.0,1,0.0333818366,-0.018691474899999998,0.09700738179999999,0.019923,0.062099,0.01139,-1.552784961,-9.663276777,0.6161616261499999,-1.9485,1.3996,-1.6426,0.00012000000000000899,4.999999999988347e-05,-2.0000000000020002e-05,0.00023286931653498932,0.0002759957987743533,0.0013128700093243406
150000000000.0,1,0.03331319005,-0.05282842355,0.12122000064999999,0.015595,0.054674,0.01246,-1.5536675594999998,-9.6629825775,0.61904478125,-1.95,1.3994,-1.6406,0.00010999999999994348,4.999999999988347e-05,-2.0000000000020002e-05,-0.0005849670764574988,0.0004838955034258685,0.0005814668285473168
150000000000.0,1,0.0434630728,-0.0459147353,0.14163744595,0.010207,0.047258,0.012461,-1.554157892,-9.662688377999999,0.62181025655,-1.9514,1.3993,-1.6387,0.00012999999999996348,5.0000000000105516e-05,-2.5000000000052758e-05,-0.001884976764594759,2.999587055874109e-05,0.0014121660646908563
150000000000.0,1,0.053377595949999995,-0.046454101049999995,0.1221712457,0.010121,0.0366,0.013543,-1.5546482245,-9.662492245,0.6243697922,-1.9527,1.3991,-1.637,4.999999999999449e-05,3.333333333332966e-05,-2.4999999999941735e-05,-0.0006507342984272135,0.00023139773058411528,0.00021628979368859547
150000000000.0,1,0.0660772077,-0.046964046849999996,0.09839011945,0.008965,0.027015,0.016756,-1.5551385569999998,-9.662296112,0.6264586086499999,-1.9537,1.399,-1.6357,-1.999999999990898e-05,3.333333333332966e-05,-4.999999999999449e-05,0.0004682185641300407,0.0002803230623251718,-3.590316933799187e-05
150000000000.0,1,0.0777275079,-0.03337202995,0.087279185,0.008914,0.019557,0.015698,-1.5554327565,-9.662099978999999,0.62843955195,-1.9548,1.3989,-1.6344,2.999999999997449e-05,3.333333333332966e-05,-4.999999999999449e-05,-0.0007749424596037446,9.789622545897103e-05,0.00039144533713586505
150000000000.0,1,0.10150863415,-0.028615804699999997,0.072373077,0.016304,0.012031,0.019988,-1.555530823,-9.661903846,0.6309206344,-1.9561,1.3988,-1.6329,2.999999999997449e-05,-9.999999999998899e-05,5.000000000032756e-06,-0.0004712170227947343,9.004936564016575e-05,0.0001491788912948433
150000000000.0,1,0.1056764604,-0.026134722249999996,0.044620257499999996,0.020477,0.001338,0.022144,-1.5558250225,-9.661707712999998,0.6335292033000001,-1.9575,1.3986,-1.6315,9.999999999998899e-05,-2.4999999999941735e-05,4.999999999921734e-06,-0.0008883896941462854,0.00011236161517413912,0.0009793231362367205
150000000000.0,1,0.10932453419999999,-0.03621595845,0.02083913125,0.023627,-0.005082,0.022155,-1.5560211554999999,-9.661511579999999,0.63606912565,-1.9588,1.3985,-1.6302,2.0000000000020002e-05,-2.500000000016378e-05,-3.999999999992898e-05,-0.00035494223958765225,0.0001929278573993276,0.00012229947453490375
150000000000.0,1,0.10085158859999999,-0.035813885799999993,0.00679600845,0.018202,-0.015695,0.023227,-1.5564134214999998,-9.661315446999998,0.6382952351999999,-1.96,1.3984,-1.6292,4.0000000000040004e-05,-2.4999999999941735e-05,9.99999999995449e-06,-0.0007636535843955627,0.00027021789493719695,2.1262059857196647e-05
150000000000.0,1,0.072765343,-0.0695683751,0.0039128533499999995,0.014963,-0.020995,0.02216,-1.5570018204999998,-9.661021247499999,0.6402761785,-1.9609,1.3983,-1.6284,7.999999999996898e-05,-2.4999999999941735e-05,9.99999999995449e-06,0.0003658025370349982,-0.0002768184072763358,0.0004791074479189028
150000000000.0,1,0.056486304,-0.0920648302,0.010444082249999998,0.008539,-0.025203,0.020018,-1.557688286,-9.6608251145,0.64167852945,-1.9616,1.3982,-1.628,7.999999999996898e-05,-4.999999999988347e-05,-1.999999999990898e-05,-0.0007086019920008457,2.8005088585025817e-05,-0.00031957104888769017
150000000000.0,1,0.05066115389999999,-0.07071575315,0.0271840338,0.003157,-0.030488,0.021083,-1.5583747515,-9.6606289815,0.64289455405,-1.9621,1.398,-1.6279,1.0000000000065512e-05,-5.0000000000105516e-05,-1.0000000000065512e-05,-0.00040295816468138845,0.00019755334359139454,-0.0001799223122154192
150000000000.0,1,0.06271352675,-0.0581338212,0.0226533615,-0.002228,-0.036837,0.021081,-1.5589631505,-9.660530914999999,0.6436888927,-1.9624,1.398,-1.6279,-4.0000000000040004e-05,-9.999999999998899e-05,-9.99999999995449e-06,0.00010030733918631185,0.00040715087886100676,-0.0006056506208027557
150000000000.0,1,0.0592125527,-0.038755880799999996,0.0031577413,-0.00653,-0.043192,0.01788,-1.5593554165,-9.6604328485,0.6438752190499999,-1.9624,1.3979,-1.6283,-2.0000000000020002e-05,-9.999999999998899e-05,9.99999999995449e-06,0.00010881806193396848,-2.5408616751487756e-05,-0.0003578922232267967
150000000000.0,1,0.0473268929,-0.025752262899999996,-0.018161915799999998,-0.008695,-0.049564,0.013616,-1.5595515494999999,-9.6604328485,0.6434927597,-1.9621,1.3979,-1.6291,1.0000000000065512e-05,-9.999999999998899e-05,-2.3333333333375172e-05,0.00012229521518203335,0.00015622583010244107,-0.00010471927862654162
150000000000.0,1,0.03080268765,-0.027546879849999997,-0.02203554255,-0.009764,-0.051683,0.010414,-1.559845749,-9.6604328485,0.6428847474,-1.9617,1.3979,-1.63,-6.0000000000060005e-05,-9.999999999998899e-05,-2.333333333326415e-05,0.0005233231051799958,-0.00014350567893051114,-0.0008705548205882874
150000000000.0,1,0.02697809415,-0.040403398,-0.019760399749999998,-0.008766,-0.060216,0.01043,-1.559845749,-9.6604328485,0.6425513212999999,-1.9615,1.3979,-1.6308,-0.00012000000000000899,-9.999999999998899e-05,-2.3333333333375172e-05,0.0005834745808095398,0.000420621208283789,-0.0012723531664398102
150000000000.0,1,0.03229329845,-0.05066115389999999,-0.02079990465,-0.009855,-0.063402,0.009364,-1.5596496159999997,-9.660530914999999,0.6421002154000001,-1.9613,1.3979,-1.6316,7.00000000000145e-05,-9.999999999998899e-05,0.0001100000000000545,0.0001898923343357506,-0.0010667513830526776,0.0002853068952204385
150000000000.0,1,0.04778780544999999,-0.04534594959999999,-0.0173577705,-0.007742,-0.066615,0.008304,-1.5591592834999999,-9.6606289815,0.64209040875,-1.9615,1.398,-1.6322,-4.999999999999449e-05,-9.999999999998899e-05,2.0000000000020002e-05,-0.0004257778853800076,4.080891407753917e-05,-0.0006419882011257094
150000000000.0,1,0.06431201069999999,-0.032754211,-0.026487761649999997,-0.008825,-0.069801,0.00617,-1.5581786185,-9.660727048,0.641943309,-1.9616,1.3981,-1.6327,-4.999999999999449e-05,-9.999999999998899e-05,2.999999999997449e-05,0.0005881980223461092,-0.00028914679972369406,-0.00016172784802703788
150000000000.0,1,0.07165719155,-0.035264713399999995,-0.0229867876,-0.009938,-0.074057,0.008307,-1.557099887,-9.660923181,0.6417373693499999,-1.9617,1.3982,-1.6333,7.00000000000145e-05,-9.999999999998899e-05,7.999999999996898e-05,0.0005968203771338221,-0.00020579373042362015,-7.104706597593768e-05
150000000000.0,1,0.05900661305,-0.040207265,-0.0048837117,-0.013134,-0.074029,0.007231,-1.556315355,-9.661119314,0.6415902695999999,-1.9618,1.3983,-1.634,-7.999999999996898e-05,-9.999999999998899e-05,1.4999999999987246e-05,0.00027582024636485514,-4.5026361210176447e-05,-0.0004441900906666518
150000000000.0,1,0.0586829936,-0.03957963939999999,-0.00122583125,-0.016331,-0.072939,0.008288,-1.5553346899999998,-9.661315446999998,0.6410803237999999,-1.9618,1.3984,-1.6348,9.99999999995449e-06,-9.999999999998899e-05,1.4999999999987246e-05,-5.093813836309913e-05,-7.577408537251529e-05,-0.00022282640046422664
150000000000.0,1,0.048680210599999996,-0.046758107199999996,0.008168939449999999,-0.01846,-0.07292,0.007215,-1.5546482245,-9.6614135135,0.6405115380999999,-1.9616,1.3985,-1.6357,-9.99999999995449e-06,-9.999999999998899e-05,-9.99999999995449e-06,0.00033022823470640894,-0.00012829408057868363,-0.0004633781439224993
150000000000.0,1,0.056486304,-0.0484056244,0.01118938765,-0.014201,-0.074021,0.007221,-1.553765626,-9.6616096465,0.64032521175,-1.9617,1.3986,-1.6363,-4.0000000000040004e-05,-0.00019999999999997797,-9.99999999995449e-06,-0.0005256992277002936,-0.0003427687782342481,-0.000858847965481413
150000000000.0,1,0.044659484099999994,-0.01803442935,-0.00159848395,-0.010988,-0.075109,0.002957,-1.5528830274999998,-9.661707712999998,0.64040366495,-1.962,1.3987,-1.6369,-2.999999999997449e-05,-9.999999999998899e-05,-4.0000000000040004e-05,0.00013154789717972903,-0.0004493278752213392,-2.1125254169085395e-05
150000000000.0,1,0.0251638639,0.020829324599999997,-0.029223817,-0.007817,-0.079396,0.001902,-1.552196562,-9.6618057795,0.6403448250499999,-1.9621,1.3987,-1.6375,-2.0000000000020002e-05,-9.999999999998899e-05,2.0000000000020002e-05,-0.0008026426159055688,0.0002461857363402764,-0.0009907237510971
150000000000.0,1,0.01269961175,0.0375398562,-0.030116222149999997,-0.007799,-0.078328,-0.000235,-1.5516081629999998,-9.661903846,0.6403350184000001,-1.9622,1.3988,-1.6382,4.999999999999449e-05,-0.00010000000000021103,2.0000000000020002e-05,-0.0008616431804993052,-2.372451803278608e-05,-0.0006853598150049489
150000000000.0,1,0.0007060788,0.03115572705,-0.0122386992,-0.007825,-0.081525,-0.00023,-1.5511178305,-9.6620019125,0.64071747775,-1.9625,1.3988,-1.6387,-6.0000000000060005e-05,-0.00019999999999997797,-2.0000000000020002e-05,-0.00036956646794461534,-0.00024311428876244712,-0.0009029385116208211
150000000000.0,1,0.00015690639999999998,0.014445195449999998,0.0185541818,-0.010985,-0.077235,-0.00131,-1.5505294315,-9.6620019125,0.64134510335,-1.963,1.3988,-1.639,7.00000000000145e-05,-0.00019999999999997797,-2.5000000000052758e-05,-0.00028307551696116207,-0.00018131355395389903,-0.0004303139632497732
150000000000.0,1,-0.010247949249999999,-0.0268309944,0.0371475902,-0.014212,-0.079342,0.000823,-1.5501371654999998,-9.6620019125,0.64191388905,-1.9634,1.3989,-1.6394,-4.999999999999449e-05,-9.999999999998899e-05,-2.4999999999941735e-05,-0.0006271560065223003,-6.062986408483795e-06,-0.001349764001629561
150000000000.0,1,-0.017416610399999997,-0.0663321806,0.04672868725,-0.015283,-0.079335,0.001889,-1.5498429660000002,-9.662099978999999,0.64250228805,-1.9638,1.3989,-1.6398,-9.999999999998899e-05,-0.00019999999999997797,-2.0000000000020002e-05,0.0006012697515567211,-0.0005560124572223657,-0.00024875501920407217
150000000000.0,1,-0.019819239649999997,-0.07753137489999999,0.0449536836,-0.018482,-0.079309,0.001883,-1.5497448995,-9.662099978999999,0.6426297745,-1.9639,1.3989,-1.6405,-9.99999999995449e-06,-0.00019999999999997797,2.999999999997449e-05,0.0002680640345023022,-0.00023288962607415087,-0.0007159860984873312
150000000000.0,1,-0.030812494299999996,-0.0682935106,0.05520163285,-0.018493,-0.080375,0.002953,-1.5498429660000002,-9.6620019125,0.64301223385,-1.9641,1.3989,-1.6412,-2.0000000000020002e-05,-0.00019999999999997797,9.99999999995449e-06,-0.0005295387102284277,1.6620525447041956e-05,-0.0011365694167013718
150000000000.0,1,-0.035352973249999996,-0.054721107,0.055593898850000004,-0.019547,-0.080365,0.000817,-1.5499410324999998,-9.6620019125,0.6433652732499999,-1.9643,1.3988,-1.6418,-6.0000000000060005e-05,-9.999999999998899e-05,7.00000000000145e-05,2.075938148560219e-05,0.00046102724128416206,-0.00025625385627559005
150000000000.0,1,-0.024153778949999996,-0.01258193195,0.05571157865,-0.015302,-0.081469,0.00403,-1.550039099,-9.661903846,0.6440027055,-1.9646,1.3988,-1.6424,-3.999999999992898e-05,-0.00019999999999997797,3.0000000000085514e-05,-8.043779371491588e-05,-0.00048260860890736446,-0.0008380053922867337
150000000000.0,1,-0.01372931,0.03013583545,0.042933513699999995,-0.011036,-0.082569,0.002972,-1.5501371654999998,-9.6618057795,0.6449441439,-1.9651,1.3987,-1.6427,5.999999999994898e-05,-9.999999999998899e-05,8.999999999992347e-05,-0.0003651558079167394,0.00038717383447450793,-0.0010479276627037848
150000000000.0,1,-0.00983606995,0.0491509298,0.0399522921,-0.005742,-0.085813,0.00619,-1.550431365,-9.661707712999998,0.64628765495,-1.9657,1.3987,-1.6429,-0.00012999999999996348,-0.00029999999999996696,2.0000000000020002e-05,0.0008581262831095504,-5.428688226105649e-05,-0.0011707661223174792
150000000000.0,1,-0.014396162199999998,0.037794829099999996,0.0263406619,-0.003596,-0.085828,0.00406,-1.550627498,-9.6616096465,0.64777826575,-1.9665,1.3986,-1.643,-7.00000000000145e-05,-9.999999999998899e-05,2.0000000000020002e-05,-0.00017585752600712823,-0.00013320062168586944,-0.0014586345000755507
150000000000.0,1,-0.02842947835,0.0289688441,0.01485707475,-0.003615,-0.089024,0.002999,-1.5510197639999999,-9.6614135135,0.6490825501999999,-1.9671,1.3985,-1.6432,-0.00014999999999998348,-0.00020000000000020002,-2.999999999997449e-05,-0.0011363947566391808,5.076400740477993e-05,-0.0014315787276744096
150000000000.0,1,-0.037853669,0.01834824215,0.0264583417,-0.007865,-0.086857,0.00299,-1.55141203,-9.661315446999998,0.6502103149499999,-1.9677,1.3984,-1.6436,4.999999999999449e-05,-9.999999999998899e-05,2.999999999997449e-05,0.0006537536786384024,-0.0001620406196414237,-0.0010967838267448293
150000000000.0,1,-0.047846645349999994,-0.0036480737999999998,0.05020024135,-0.012113,-0.084691,0.002981,-1.5519023625,-9.661119314,0.65130865975,-1.9681,1.3983,-1.644,-0.00014999999999998348,-0.00019999999999997797,9.99999999995449e-06,0.0005187412814460224,0.00025039772809964944,-0.0017780188603420122
150000000000.0,1,-0.044090698399999996,0.030312355149999998,0.0528774568,-0.016372,-0.082527,0.005106,-1.5525888279999998,-9.661021247499999,0.6520735784499999,-1.9684,1.3982,-1.6446,-6.0000000000060005e-05,-9.999999999998899e-05,-3.999999999992898e-05,-0.0014853468005151527,-0.0003070508591336285,-0.0006119255759080566
150000000000.0,1,-0.036010018799999995,0.06130136914999999,0.03904027365,-0.01742,-0.080388,0.005103,-1.5532752935,-9.6608251145,0.6524364245000001,-1.9685,1.3981,-1.6454,-0.00012999999999996348,-0.00019999999999997797,1.999999999990898e-05,0.00102881291578516,0.00015991630908929189,-0.001225142988011907
150000000000.0,1,-0.01048330885,0.07434421364999999,0.024595078199999995,-0.011045,-0.082574,0.007253,-1.5538636925,-9.660727048,0.65295617695,-1.9686,1.3981,-1.646,-0.00012999999999996348,-9.999999999998899e-05,-1.999999999990898e-05,-0.00011937022689689769,-0.00019541398553912792,0.00043742797543444567
150000000000.0,1,-0.0126701918,0.045179236549999995,0.0028635417999999997,-0.004652,-0.083692,0.007267,-1.5543540249999999,-9.6606289815,0.6537505156,-1.9689,1.398,-1.6466,-0.00014999999999998348,-0.00019999999999997797,-1.0000000000065512e-05,0.0009134505734007536,0.00011797293510684703,-0.0013376697615206101
150000000000.0,1,-0.037912508899999996,0.014464808749999999,-0.012905551399999998,-0.000377,-0.082661,0.007275,-1.5551385569999998,-9.6604328485,0.65470176065,-1.9693,1.3979,-1.647,-0.0001100000000000545,-4.999999999988347e-05,-7.00000000000145e-05,-0.0005322753640430999,-0.00023266122244969267,-0.000704916257857624
150000000000.0,1,-0.05071018715,-0.010149882749999999,-0.022251288850000002,0.003858,-0.088021,0.005159,-1.5559230889999998,-9.660138649,0.6559668185,-1.9698,1.3977,-1.6474,-9.00000000000345e-05,-5.0000000000105516e-05,-9.99999999995449e-06,0.0006347196593117221,0.00024252999896212657,-0.00038495639298452566
150000000000.0,1,-0.06086987654999999,-0.039530606149999994,-0.024291072049999998,0.002821,-0.084814,0.004086,-1.556707621,-9.659942516,0.6571043899,-1.9702,1.3976,-1.6478,1.0000000000065512e-05,-0.00019999999999997797,4.0000000000040004e-05,-0.00025453053373913903,-0.00036833059682561675,0.00021089701048992993
150000000000.0,1,-0.06889171625,-0.05598616484999999,-0.024212618849999996,-0.002465,-0.080505,0.00087,-1.5573940865,-9.6598444495,0.6577712420999999,-1.9704,1.3975,-1.6484,-0.0001100000000000545,-9.999999999998899e-05,-3.500000000000725e-05,0.0019931878332346553,-6.343287061350011e-05,-0.00026953645842620055
150000000000.0,1,-0.09489895205,-0.09666414905,-0.018377662099999997,-0.00992,-0.079376,-0.000208,-1.5581786185,-9.659746383,0.6577810487499999,-1.9703,1.3975,-1.6494,-0.00010999999999994348,-9.999999999998899e-05,-3.500000000000725e-05,-0.0011944495904303576,0.00022041866256294895,-0.001321124668682172
150000000000.0,1,-0.1182093591,-0.14012722184999998,-0.0015592573499999998,-0.019487,-0.078225,-0.00556,-1.5587670175,-9.6596483165,0.6572711029499999,-1.9698,1.3974,-1.6506,-0.000140000000000029,-9.999999999998899e-05,-6.0000000000060005e-05,-0.001662821135987036,0.00010310033257265871,-0.0013740259200012428
150000000000.0,1,-0.12730993029999998,-0.15376827199999998,-0.01621039245,-0.024794,-0.07392,-0.004505,-1.5595515494999999,-9.6596483165,0.6557608788499999,-1.9688,1.3974,-1.6524,-9.999999999998899e-05,-9.999999999998899e-05,-2.999999999997449e-05,2.8755685689496602e-05,-5.647561227961617e-05,-0.0011016126869907161
150000000000.0,1,-0.1173071473,-0.12651559164999998,-0.02017227905,-0.0269,-0.06964,-0.003444,-1.560238015,-9.6596483165,0.6537407089499999,-1.9676,1.3974,-1.6543,-6.0000000000060005e-05,-9.999999999998899e-05,-9.99999999995449e-06,0.00035228661409369977,-7.69261097441909e-05,-0.0001713268962140191
150000000000.0,1,-0.07689394265,-0.0610365896,-0.041452709549999994,-0.026882,-0.066444,-0.002379,-1.5607283475,-9.659746383,0.6513773062999999,-1.9662,1.3975,-1.6564,-0.00018999999999991246,-3.333333333332966e-05,2.999999999997449e-05,0.00039955951461312367,-7.314669547731079e-05,-0.0014529795788424948
150000000000.0,1,-0.035245100099999996,0.012552512,-0.0717062248,-0.025814,-0.06326,0.001889,-1.5611206135,-9.6598444495,0.6487098975,-1.9646,1.3975,-1.6586,-4.999999999999449e-05,-3.333333333332966e-05,5.999999999994898e-05,0.00032720262120733423,-0.000115074973150886,-0.0002931645493866597
150000000000.0,1,0.0037657536,0.056702050299999994,-0.104735022,-0.016201,-0.060143,0.004035,-1.56121868,-9.660040582499999,0.64613074855,-1.9632,1.3976,-1.6607,-0.00014999999999998348,-3.333333333332966e-05,3.0000000000085514e-05,0.0006618682309225132,0.00012878696208828977,-0.0008667023275739094
150000000000.0,1,0.0193975537,0.057417935749999996,-0.12380895625,-0.004481,-0.060241,0.00619,-1.56121868,-9.660138649,0.64424787175,-1.9622,1.3977,-1.6623,-3.0000000000085514e-05,-5.0000000000105516e-05,1.999999999990898e-05,0.00021028510966392133,0.00038067014280818157,-0.0006051337145969171
150000000000.0,1,0.0154356671,0.02560516315,-0.11300202795,0.000908,-0.052825,0.006186,-1.5613167464999997,-9.660138649,0.64316914025,-1.9615,1.3977,-1.6634,-0.00012999999999996348,-5.0000000000105516e-05,-2.999999999997449e-05,0.0006688382607331622,3.845078385533718e-05,-0.0007975210142803224
150000000000.0,1,-0.00013729309999999998,-0.028537351499999995,-0.11765038005,0.005159,-0.054989,0.00513,-1.5615128795,-9.6602367155,0.6424336414999999,-1.9611,1.3978,-1.6644,-7.999999999996898e-05,-5.0000000000105516e-05,2.999999999997449e-05,0.0017048701146344936,-8.655002676105639e-05,-0.0009076903690641291
150000000000.0,1,-0.01830901555,-0.0778451877,-0.10633350594999999,-9.1e-05,-0.046416,0.000837,-1.5614148129999998,-9.6602367155,0.6414431698499999,-1.9606,1.3978,-1.6654,-3.0000000000085514e-05,-4.999999999988347e-05,5.000000000032756e-06,0.0006579612886921105,-0.0007106267036116609,-0.0003308510489148375
150000000000.0,1,-0.032489431449999995,-0.11722869409999999,-0.06830331725,-0.004281,-0.038917,-0.003452,-1.5611206135,-9.660334782,0.640374245,-1.9601,1.3979,-1.6663,-1.4999999999987246e-05,1.999999999990898e-05,5.000000000032756e-06,-0.00033356205078938217,-0.0001293324284274977,-0.0006604118998030373
150000000000.0,1,-0.029557243100000002,-0.11376694664999999,-0.04308061345,-0.012747,-0.031385,-0.005614,-1.560630281,-9.660530914999999,0.6389424741,-1.9594,1.398,-1.6673,-1.4999999999987246e-05,2.0000000000131024e-05,2.999999999997449e-05,0.00041713690656774993,0.00027145161031194576,-0.0014279813206379277
150000000000.0,1,-0.01660265845,-0.08520017519999999,-0.034391921549999996,-0.023339,-0.022771,-0.007783,-1.559845749,-9.6608251145,0.6366771379499999,-1.9583,1.3981,-1.6686,-2.0000000000020002e-05,1.999999999990898e-05,4.999999999999449e-05,0.0008870817736443826,-0.0002008333461001044,-0.00018014807122757048
150000000000.0,1,-0.0018142302499999999,-0.053259916149999996,-0.0427962206,-0.029688,-0.01526,-0.00674,-1.5588650839999998,-9.6612173805,0.6334115235,-1.9567,1.3984,-1.6704,4.0000000000040004e-05,2.0000000000131024e-05,6.0000000000060005e-05,0.00028661826250142575,0.0003492556260962232,-0.0015617133781906656
150000000000.0,1,0.0273605535,-0.013984282899999999,-0.0375594695,-0.030718,-0.007796,-0.002486,-1.5579824855,-9.6616096465,0.629979196,-1.955,1.3986,-1.6722,-2.0000000000020002e-05,1.999999999990898e-05,5.999999999994898e-05,0.001088281373076816,-8.026836828367578e-05,1.7308742208177463e-05
150000000000.0,1,0.050827866949999995,0.014778621550000001,-0.0352254868,-0.0243,-0.00359,0.000718,-1.557099887,-9.661903846,0.6270372009999999,-1.9536,1.3988,-1.6737,-5.999999999994898e-05,-9.999999999998899e-05,2.999999999997449e-05,0.00024044395667432994,-9.944485192692198e-05,-0.0002051957623838696
150000000000.0,1,0.04886653694999999,0.03805960865,-0.0426785408,-0.016858,-0.00472,0.003933,-1.5566095545,-9.662099978999999,0.6246149584499999,-1.9524,1.3989,-1.675,4.999999999921734e-06,1.1111111111183902e-05,6.0000000000060005e-05,0.00037941983113864985,0.0002337200029667308,-7.75529394643204e-05
150000000000.0,1,0.04169787579999999,0.0365395779,-0.042080335149999995,-0.008336,-0.004792,0.006081,-1.556511488,-9.662296112,0.6229772479,-1.9515,1.399,-1.6759,5.000000000032756e-06,1.1111111110961858e-05,2.0000000000020002e-05,5.027879636854138e-05,-0.0004137900594227695,-0.00024517892639019934
150000000000.0,1,0.02978279605,0.029370916749999997,-0.023506540049999997,-0.001924,-0.002715,0.007155,-1.556707621,-9.662296112,0.6223496223,-1.9511,1.399,-1.6763,-2.0000000000020002e-05,1.1111111111183902e-05,9.99999999995449e-06,0.00033881237882993354,-0.0001020610278996692,-5.0896280787471326e-05
150000000000.0,1,0.0019122967499999998,0.024447978449999998,0.0026281822,0.002327,-0.004881,0.007166,-1.5573940865,-9.662198045499998,0.62255556195,-1.9511,1.3989,-1.6764,3.0000000000085514e-05,1.1111111111183902e-05,2.0000000000020002e-05,-0.0005517154876653052,1.5734158554270294e-05,-6.414122742715023e-05
150000000000.0,1,-0.027733206199999996,0.01197391965,0.018259982299999998,-0.001931,-0.00378,0.007158,-1.5585708844999997,-9.6620019125,0.6227909215499999,-1.9509,1.3988,-1.6766,1.999999999990898e-05,1.1111111110961858e-05,-3.3333333333551707e-06,-0.00019184102672942238,-0.00014355421618805764,0.00020316586967905614
150000000000.0,1,-0.05523105279999999,-0.0235555733,0.05935965245,-0.010431,-0.001576,0.00394,-1.559845749,-9.661707712999998,0.6229870545499999,-1.9508,1.3987,-1.6768,2.0000000000020002e-05,1.1111111111183902e-05,-3.3333333333551707e-06,2.7305543951028355e-05,3.0675761382825684e-05,-0.00016843948858347169
150000000000.0,1,-0.0785316532,-0.05184775855,0.08738705815,-0.023174,0.002795,-0.000357,-1.5610225469999999,-9.6616096465,0.6224967220500001,-1.9502,1.3986,-1.6773,-2.999999999997449e-05,1.1111111111183902e-05,-3.3333333333551707e-06,0.00033226833575361603,7.515803400814924e-05,-6.132027927185923e-05
150000000000.0,1,-0.0740598208,-0.0505827007,0.1095991204,-0.028477,0.004972,-0.002502,-1.5619051455,-9.661511579999999,0.62153567035,-1.9495,1.3985,-1.678,2.0000000000020002e-05,1.1111111110961858e-05,4.0000000000040004e-05,0.0001234626781896342,1.0895460193616202e-05,0.0001394553513500707
150000000000.0,1,-0.044649677449999994,-0.03530394,0.13241919494999999,-0.030555,0.009254,-0.005714,-1.5621993449999998,-9.661511579999999,0.6207021051,-1.949,1.3985,-1.6785,-2.999999999997449e-05,1.1111111111183902e-05,4.999999999999449e-05,0.00047366582900676413,0.00013220675325742448,-0.00015249824434238057
150000000000.0,1,-0.0188483813,0.0042855060499999995,0.11996474945,-0.026269,0.010284,-0.006775,-1.5619051455,-9.6616096465,0.6199960263,-1.9487,1.3986,-1.6788,-9.00000000000345e-05,5.0000000000105516e-05,-2.999999999997449e-05,0.0002519629347832453,9.31277394600194e-05,-0.0004932560196462266
150000000000.0,1,-0.0005491723999999999,0.03631402495,0.08235624669999998,-0.017706,0.011282,-0.009965,-1.56121868,-9.6618057795,0.6192997541499999,-1.9484,1.3987,-1.6789,-2.0000000000020002e-05,5.0000000000105516e-05,4.999999999999449e-05,0.000148458629071202,-0.00041002488951114024,0.0002792650590597301
150000000000.0,1,0.0243989452,0.0375594695,0.05879086675,-0.005985,0.009054,-0.009941,-1.5599438154999998,-9.661903846,0.6193684007,-1.9487,1.3988,-1.6785,-9.99999999995449e-06,5.0000000000105516e-05,2.999999999997449e-05,-0.0008283005918230391,-3.3556625627539916e-05,0.00016924205810497917
150000000000.0,1,0.034529214649999994,0.0079629998,0.0598597916,0.007889,0.007875,-0.012052,-1.558276685,-9.662099978999999,0.62069229845,-1.9498,1.3989,-1.6773,-0.00017000000000000348,4.999999999988347e-05,-2.999999999997449e-05,-0.00022961488158923515,-0.0005039599394052185,0.0003011316042749179
150000000000.0,1,0.0235947999,-0.012836904849999999,0.0485233042,0.014328,0.011021,-0.014182,-1.5566095545,-9.662296112,0.62259478855,-1.9513,1.399,-1.6758,-7.00000000000145e-05,9.999999999998899e-05,-2.0000000000020002e-05,-0.0013287554798564472,-0.00030601918960582175,0.000942814355025412
150000000000.0,1,0.03182257925,-0.02017227905,0.055270279400000004,0.016485,0.014198,-0.013118,-1.5548443575,-9.6623941785,0.6248307047499999,-1.9529,1.3991,-1.674,-9.00000000000345e-05,5.0000000000105516e-05,2.0000000000020002e-05,-1.4281924664905077e-05,5.959990422366168e-05,0.00012011394556643573
150000000000.0,1,0.046326614599999996,-0.0168282114,0.0407760507,0.01332,0.018486,-0.013134,-1.5528830274999998,-9.662590311499999,0.6266057084,-1.9543,1.3992,-1.6724,-4.999999999999449e-05,4.999999999988347e-05,9.99999999995449e-06,-0.00016663446361397938,-0.0004037658651501186,0.00010163464558599067
150000000000.0,1,0.04235492135,-0.00946341725,0.031420506599999995,0.012286,0.02382,-0.011013,-1.5511178305,-9.6627864445,0.6280374793,-1.9555,1.3993,-1.671,-4.999999999999449e-05,9.999999999998899e-05,1.0000000000065512e-05,-0.00044931095541667077,-0.00013835442414267263,-9.216904358355649e-05
150000000000.0,1,0.0181423025,0.0006472389,0.0277920461,0.011235,0.027023,-0.008886,-1.5501371654999998,-9.662884511,0.62926331055,-1.9564,1.3994,-1.6699,-2.0000000000020002e-05,5.0000000000105516e-05,-2.0000000000020002e-05,-0.0007230185700144443,8.199242507878068e-05,0.00017246994802744275
150000000000.0,1,0.00199074995,0.009669356899999999,-0.00040207264999999996,0.010183,0.030226,-0.006759,-1.5495487665,-9.6629825775,0.6299203561,-1.9569,1.3994,-1.6691,-4.999999999999449e-05,4.999999999988347e-05,2.999999999997449e-05,-0.0008528099288900304,-7.815558578783133e-05,-0.0003221729218629843
150000000000.0,1,0.00199074995,0.009669356899999999,-0.00040207264999999996,0.010183,0.030226,-0.006759,-1.5495487665,-9.6629825775,0.6299203561,-1.9569,1.3994,-1.6691,-4.999999999999449e-05,9.999999999998899e-05,-2.0000000000020002e-05,-0.000262618634605305,-0.00035930350912161124,0.00018102551884280338
150000000000.0,1,-0.0111207411,0.004903325,-0.01464132845,0.005922,0.03239,-0.004635,-1.5494507,-9.6629825775,0.6298026763,-1.9569,1.3994,-1.6688,2.0000000000020002e-05,9.999999999998899e-05,2.999999999997449e-05,0.0009320335580351724,-2.655706292986615e-05,0.00048385110007398424
150000000000.0,1,-0.019858466249999998,-0.006648908699999999,-0.030685007849999998,0.005913,0.033453,-0.001434,-1.5498429660000002,-9.6629825775,0.62938099035,-1.9565,1.3994,-1.6688,-2.0000000000020002e-05,9.999999999998899e-05,-9.99999999995449e-06,-6.83678103932106e-05,-0.00015028009153050803,0.00036632185079876756
150000000000.0,1,-0.01634768555,0.013935249649999999,-0.04455161095,0.00806,0.03663,0.0007,-1.5505294315,-9.662884511,0.6287435581,-1.956,1.3993,-1.6689,-2.0000000000020002e-05,9.999999999998899e-05,-2.0000000000020002e-05,9.209838073487298e-05,3.6837771959508103e-06,8.98385953267411e-05
150000000000.0,1,-0.0026085689,0.015200307499999998,-0.04733669954999999,0.008062,0.039823,0.004965,-1.5512158969999998,-9.6627864445,0.62822380565,-1.9556,1.3993,-1.6689,-9.99999999995449e-06,9.999999999998899e-05,-1.666666666666483e-05,0.0001869477475826553,-0.0002008976091421033,0.00025304518798852094
150000000000.0,1,0.0102969825,-0.00208881645,-0.05715315619999999,0.010211,0.044065,0.008163,-1.552000429,-9.662688377999999,0.62757656675,-1.9551,1.3992,-1.6691,-1.0000000000065512e-05,9.999999999998899e-05,-1.666666666666483e-05,0.00014964259697469728,-0.00013238771945145444,0.0004034927316363124
150000000000.0,1,0.0301652554,-0.00408937305,-0.06429239739999999,0.011276,0.044057,0.008163,-1.5525888279999998,-9.662688377999999,0.62692932785,-1.9546,1.3992,-1.6691,-4.999999999999449e-05,4.999999999988347e-05,-1.666666666666483e-05,-0.00037730057064555567,-8.405066183714283e-06,-3.715771644730026e-05
150000000000.0,1,0.0402661049,-0.019966339399999998,-0.06329211909999999,0.011307,0.048319,0.008154,-1.552981094,-9.662688377999999,0.6262232490499999,-1.9541,1.3992,-1.6691,-1.999999999990898e-05,5.0000000000105516e-05,-2.0000000000020002e-05,6.09970978129315e-05,-0.00016562713504852944,0.00036070612591232454
150000000000.0,1,0.0529166834,-0.0579376882,-0.06655773355,0.011321,0.050451,0.008148,-1.5530791605,-9.662688377999999,0.6254485236999999,-1.9537,1.3992,-1.669,-2.4999999999941735e-05,9.999999999998899e-05,-2.4999999999941735e-05,-0.0005264270233809043,-0.00016916051312620972,0.0005160830704515895
150000000000.0,1,0.0560155848,-0.0925551627,-0.06283120655,0.01031,0.055791,0.004931,-1.5528830274999998,-9.6627864445,0.6244286320999999,-1.9531,1.3993,-1.669,-2.5000000000052758e-05,4.999999999988347e-05,-2.5000000000052758e-05,-0.0006274066610050255,-0.00027983420024479955,0.0011409053659092727
150000000000.0,1,0.062144741049999994,-0.08703401874999998,-0.06476311659999999,0.008208,0.060071,0.004917,-1.5524907614999999,-9.662884511,0.6232126075,-1.9525,1.3994,-1.669,-5.0000000000105516e-05,5.0000000000105516e-05,-1.666666666666483e-05,-5.5548675207628406e-05,-0.00020018378478625642,0.0005804582405297687
150000000000.0,1,0.09346718115,-0.044022051849999994,-0.0667636732,0.009331,0.067521,0.004902,-1.5517062295,-9.663080643999999,0.6219181296999999,-1.952,1.3995,-1.6688,-1.4999999999987246e-05,9.999999999998899e-05,-1.666666666666483e-05,-0.0005024495087500025,-0.0004954099870444484,0.0013755666572150549
150000000000.0,1,0.1084027091,0.0003726527,-0.07266727649999999,0.009347,0.068589,0.00276,-1.550627498,-9.6633748435,0.6206432651999999,-1.9515,1.3996,-1.6686,-1.4999999999987246e-05,4.999999999988347e-05,-1.666666666666483e-05,-0.0006300473463449752,7.705493159826382e-05,0.0007176886269701921
150000000000.0,1,0.11784651304999999,0.014592295199999999,-0.08888747559999999,0.013651,0.072817,0.001688,-1.549254567,-9.663669042999999,0.61935859405,-1.9511,1.3998,-1.6683,2.0000000000020002e-05,5.0000000000105516e-05,-4.999999999999449e-05,-0.0008486331932577862,-0.0005844537430936825,0.0009362320615067254
150000000000.0,1,0.1183662655,0.0163771055,-0.0895739411,0.017934,0.07385,-0.000446,-1.547881636,-9.6639632425,0.61839754235,-1.9509,1.4,-1.6678,-2.999999999997449e-05,5.0000000000105516e-05,-4.999999999999449e-05,-0.0006655557738886042,-0.00013959632770643715,0.0005347155406203452
150000000000.0,1,0.1064217658,0.00138273765,-0.07183371125,0.019017,0.07491,-0.002586,-1.5464106384999998,-9.664257442,0.6178581766,-1.9509,1.4002,-1.667,4.999999999999449e-05,4.999999999988347e-05,-2.999999999997449e-05,0.00014602077310765793,-0.00022427484393894304,0.0011732227365737202
150000000000.0,1,0.08545514809999999,-0.03849110124999999,-0.0383440015,0.01477,0.077077,-0.003668,-1.5450377075,-9.664453575,0.6175835904,-1.9511,1.4003,-1.666,2.0000000000020002e-05,4.999999999988347e-05,-1.4999999999987246e-05,-0.00025172931651451513,-0.00017136460753497396,0.0007543909264999815
150000000000.0,1,0.0642531708,-0.07954173815,-0.0221238024,0.011587,0.078171,-0.005814,-1.5437628429999999,-9.6647477745,0.6170834512499999,-1.9511,1.4004,-1.6652,4.999999999999449e-05,5.0000000000105516e-05,-1.4999999999987246e-05,-0.0006678847595742443,-0.00025215680276735597,0.0011440677060392535
150000000000.0,1,0.04178613565,-0.08819120344999999,0.00250069575,0.009454,0.078188,-0.00582,-1.5426841115,-9.6649439075,0.61684809165,-1.9512,1.4006,-1.6643,2.999999999997449e-05,5.0000000000105516e-05,-4.999999999999449e-05,-0.00124106539587987,-0.00014960353143211869,0.0008216990260738744
150000000000.0,1,0.031646059549999994,-0.07561907814999999,0.020240925599999997,0.006245,0.077149,-0.005826,-1.5418015129999998,-9.665041974,0.61661273205,-1.9512,1.4007,-1.6635,7.999999999996898e-05,4.999999999988347e-05,4.999999999999449e-05,6.219369765303462e-05,-7.431336873198191e-06,0.0009834257136642766
150000000000.0,1,0.03490186735,-0.03970712585,0.0049229383,0.004092,0.076099,-0.003695,-1.5411150475,-9.665140040499999,0.6159262665499999,-1.951,1.4007,-1.663,2.0000000000020002e-05,5.0000000000105516e-05,-4.0000000000040004e-05,-0.0006624624490847442,-0.0002193000780612575,0.0008944435921900418
150000000000.0,1,0.029223817,-0.021486370149999996,0.0205743517,0.000879,0.075058,-0.002633,-1.5407227815,-9.665336173499998,0.6152299943999999,-1.9507,1.4008,-1.6625,-4.0000000000040004e-05,5.0000000000105516e-05,-3.3333333333551707e-06,0.0009669263834659603,7.63821910285678e-05,0.00049321067605268
150000000000.0,1,0.044414317849999996,0.0112188076,0.041119283449999995,0.000861,0.07399,-0.000498,-1.5403305154999998,-9.66543424,0.61488676165,-1.9506,1.4009,-1.6619,5.0000000000105516e-05,4.999999999988347e-05,-3.3333333332441484e-06,1.3469689658096584e-05,-3.5611330797769014e-05,0.0011125527208897257
150000000000.0,1,0.06900939604999999,0.02489908435,0.03913834014999999,0.004017,0.070763,0.00378,-1.5399382495,-9.66543424,0.6147788885,-1.9506,1.4009,-1.6611,-4.0000000000040004e-05,5.0000000000105516e-05,-3.3333333333551707e-06,0.00037351610256863843,-0.00025425382504451477,0.000737624784466151
150000000000.0,1,0.0881617835,0.03019467535,0.043041386849999995,0.010386,0.066447,0.003795,-1.5393498504999998,-9.6655323065,0.61535748085,-1.9511,1.4009,-1.66,4.0000000000040004e-05,2.4999999999941735e-05,-1.0000000000065512e-05,-0.0004207652519179206,-0.0001023800904611516,0.001131883923418453
150000000000.0,1,0.09411442005,0.02650737495,0.032783630949999996,0.016743,0.060002,0.002745,-1.5385653185,-9.6655323065,0.61649505225,-1.9519,1.401,-1.6586,5.999999999994898e-05,2.500000000016378e-05,-9.99999999995449e-06,0.0003378996010623414,0.0006383185216181086,-0.0012199025753998338
150000000000.0,1,0.08124809525,-0.0167105316,0.0340094622,0.018844,0.055722,0.002753,-1.5377807865,-9.665630372999999,0.61796604975,-1.9529,1.401,-1.657,9.999999999998899e-05,2.4999999999941735e-05,-2.0000000000020002e-05,0.0003659399336297664,0.00020186642147557166,-0.0002501769897340633
150000000000.0,1,0.07689394265,-0.0476407057,0.048042778349999996,0.014609,0.058954,0.001668,-1.5368981879999999,-9.665630372999999,0.6194860805,-1.9539,1.401,-1.6554,9.99999999995449e-06,2.4999999999941735e-05,-9.99999999995449e-06,-8.904253834107756e-05,2.3924840495404e-06,0.0004785032212912821
150000000000.0,1,0.0818070743,-0.07926715194999999,0.06034031744999999,0.009268,0.057932,0.001657,-1.5358194564999998,-9.665728439499999,0.6206628784999999,-1.9549,1.4011,-1.6539,-5.000000000032756e-06,-2.4999999999941735e-05,-4.0000000000040004e-05,-0.0006336685165835299,-0.00020953952469593418,0.000825559567080969
150000000000.0,1,0.10262659225,-0.0650377028,0.0641551043,0.003948,0.060105,0.002706,-1.534544592,-9.6659245725,0.6213395373499999,-1.9555,1.4012,-1.6526,-4.999999999921734e-06,-2.4999999999941735e-05,-4.0000000000040004e-05,0.0001090151066871492,-7.66298380614483e-05,0.00013240883618426125
150000000000.0,1,0.1359005557,-0.030498681499999996,0.0717454514,-0.001366,0.062279,0.002686,-1.532779395,-9.6661207055,0.6215258637,-1.956,1.4013,-1.6515,-2.0000000000020002e-05,-2.500000000016378e-05,1.0000000000065512e-05,0.00016285518909175956,6.717994566041163e-05,0.0008252559242192259
150000000000.0,1,0.14791370194999998,-0.0068450417,0.0640570378,0.001831,0.060123,0.000554,-1.5307199985,-9.6665129715,0.6217318033499999,-1.9566,1.4015,-1.6503,-7.00000000000145e-05,-2.4999999999941735e-05,-4.0000000000040004e-05,-0.000579092236149048,0.0004821846442122357,0.00022098118293145674
150000000000.0,1,0.15487642345,-0.003530394,0.0517987253,0.003958,0.059039,0.000552,-1.5285625355,-9.666807170999999,0.6220161961999999,-1.9573,1.4017,-1.6491,3.0000000000085514e-05,-5.0000000000105516e-05,-4.0000000000040004e-05,-0.0003039195516540971,-8.74008348774602e-05,0.0009336095283374313
150000000000.0,1,0.1279767825,-0.00758054045,0.0240459058,0.010317,0.05153,-0.002631,-1.526503139,-9.6671013705,0.62253594865,-1.958,1.4019,-1.6478,-4.0000000000040004e-05,-4.999999999988347e-05,-3.999999999992898e-05,-7.147805810925334e-05,2.2767104502774416e-05,0.0003191993868898457
150000000000.0,1,0.10027299625,1.9613299999999997e-05,0.00605070305,0.009236,0.048344,-0.004767,-1.5246398755,-9.66739557,0.62286937475,-1.9586,1.402,-1.6467,-2.0000000000020002e-05,-3.333333333332966e-05,-4.999999999999449e-05,0.0005523071267867774,4.7379987275331104e-05,0.000373527424251785
150000000000.0,1,0.07646245004999999,0.0128074849,0.01932890715,0.010277,0.04301,-0.007961,-1.522972745,-9.667591703,0.62351661365,-1.9594,1.4022,-1.6456,-9.99999999995449e-06,-3.333333333355171e-05,-2.0000000000020002e-05,-0.00011032969915092394,-0.0001873453426406435,0.00046410735011592763
150000000000.0,1,0.0602716709,0.0285569648,0.033891782399999994,0.009183,0.038757,-0.009026,-1.5215017475000001,-9.667787836,0.6243697922,-1.9602,1.4023,-1.6443,-2.999999999997449e-05,-3.333333333332966e-05,-7.00000000000145e-05,-0.00030996161064100747,-0.0003964450256561669,0.0010045153388871242
150000000000.0,1,0.05647649735,0.040246491599999996,0.043737659,0.004878,0.034529,-0.007961,-1.5201288165,-9.667983969,0.6251445175499999,-1.961,1.4024,-1.6432,-1.0000000000065512e-05,-4.999999999988347e-05,-4.0000000000040004e-05,-0.0004431559553579323,-2.6163479037055737e-05,0.00040102245711559625
150000000000.0,1,0.04382591885,0.0395011862,0.029890669199999997,0.006962,0.028118,-0.007948,-1.5188539519999997,-9.6680820355,0.62596827615,-1.9617,1.4025,-1.6421,-4.0000000000040004e-05,-5.0000000000105516e-05,-3.999999999992898e-05,0.00010306146994021326,-0.00014832524228092225,0.0005019920214615059
150000000000.0,1,0.01893664115,0.01503359445,0.023673253099999996,0.007982,0.02278,-0.00687,-1.5179713535000001,-9.668180101999999,0.6268018414,-1.9624,1.4025,-1.6412,-3.999999999992898e-05,-9.999999999998899e-05,-4.999999999999449e-05,0.0004733063500919066,-0.00026910524440304506,0.00034981630149211185
150000000000.0,1,0.013846989799999999,-3.9226599999999995e-05,0.00946341725,0.007903,0.014254,-0.004721,-1.5173829545,-9.668180101999999,0.6275471467999999,-1.9629,1.4026,-1.6405,-4.0000000000040004e-05,-4.999999999988347e-05,-6.0000000000060005e-05,0.0001454959861371119,0.00011207982213679024,-5.60374943388009e-05
150000000000.0,1,0.004971971549999999,-0.01018910935,0.00401091985,0.006778,0.008932,-0.001512,-1.5170887549999998,-9.668180101999999,0.6280570926,-1.9633,1.4026,-1.64,-4.999999999999449e-05,-5.0000000000105516e-05,-7.00000000000145e-05,-0.00020171925139078617,-0.000713431549660859,0.0008925900402372289
150000000000.0,1,-0.0077080269,-0.030430034949999997,0.0031577413,0.005658,0.003611,0.000631,-1.5170887549999998,-9.668180101999999,0.62861607165,-1.9636,1.4025,-1.6397,-7.00000000000145e-05,-5.0000000000105516e-05,-4.999999999999449e-05,7.565067864478969e-05,-0.00021443651176378253,-8.997721917736179e-05
150000000000.0,1,-0.018377662099999997,-0.06647928035,0.00516810455,0.007714,-0.002805,0.005983,-1.517677154,-9.6680820355,0.6292927305,-1.9639,1.4025,-1.6394,-6.0000000000060005e-05,-4.999999999988347e-05,-9.99999999995449e-06,-0.000364423925190982,0.0006304755270307716,0.0004265283554876209
150000000000.0,1,-0.0105127288,-0.09358486094999999,0.0031185146999999996,0.004427,-0.010243,0.011327,-1.518461686,-9.6678859025,0.62985170955,-1.964,1.4024,-1.6394,-5.999999999994898e-05,-4.999999999988347e-05,-9.00000000000345e-05,0.0001490305944555903,0.00011492361627030157,-0.0007972419916686402
150000000000.0,1,-0.0013140911,-0.11189387649999999,0.00914960445,0.002246,-0.013426,0.015598,-1.5196384839999997,-9.667689769499999,0.63040088195,-1.964,1.4022,-1.6395,3.0000000000085514e-05,-5.0000000000105516e-05,-1.4999999999987246e-05,0.0001341988597121091,-0.0002904030573631644,0.0004818672705535487
150000000000.0,1,0.0092574776,-0.09195695705,-0.00980665,0.001099,-0.018753,0.023076,-1.521207548,-9.66739557,0.63049894845,-1.9637,1.4021,-1.6399,-4.0000000000040004e-05,-5.0000000000105516e-05,-1.4999999999987246e-05,0.00022104791427990378,9.305945538273797e-05,2.4592022569436267e-06
150000000000.0,1,0.032930730699999994,-0.06023244429999999,-0.00869849855,0.004252,-0.02198,0.027355,-1.5228746785,-9.6671013705,0.6310383142,-1.9636,1.4019,-1.6402,-4.0000000000040004e-05,-4.999999999988347e-05,-4.0000000000040004e-05,0.0001309405798093355,-6.313311196448623e-05,-2.3869486922789562e-05
150000000000.0,1,0.057947494849999996,-0.0466404274,-0.01825017565,0.010585,-0.028429,0.030577,-1.5245418089999998,-9.666807170999999,0.6319209127,-1.9637,1.4017,-1.6404,-2.0000000000020002e-05,-9.999999999998899e-05,-1.999999999990898e-05,0.00046048756993122275,0.00026492739657446585,-0.00025842232236938933
150000000000.0,1,0.0787473995,-0.03398004225,-0.04155077605,0.016915,-0.033815,0.035931,-1.526307006,-9.666414905,0.6330682907499999,-1.964,1.4015,-1.6405,-6.999999999990347e-05,-9.999999999998899e-05,-7.00000000000145e-05,-0.00021689900133980977,-0.00015425076336228472,-0.0007775403007659332
150000000000.0,1,0.09142739794999999,-0.01250347875,-0.06409626439999999,0.020065,-0.03917,0.037009,-1.5280722029999998,-9.666022639,0.6345098682999999,-1.9644,1.4013,-1.6405,2.999999999997449e-05,-9.999999999998899e-05,-2.0000000000020002e-05,0.0003456316337593357,0.00013296935022766299,-0.00056245804784405
150000000000.0,1,0.08454312964999999,-0.025350190249999998,-0.08265044619999999,0.026398,-0.046682,0.038097,-1.530033533,-9.665630372999999,0.6363044852499999,-1.9649,1.401,-1.6404,9.99999999995449e-06,-9.999999999998899e-05,-7.00000000000145e-05,0.0004738467050398043,0.00031469569966691147,-0.00022715323028821288
150000000000.0,1,0.07161796494999999,-0.0564470774,-0.09603652345,0.025276,-0.053066,0.038103,-1.5320929295,-9.665238107,0.6378735492500001,-1.9653,1.4007,-1.6405,4.0000000000040004e-05,-9.999999999998899e-05,-9.99999999995449e-06,-0.00021449853819488496,0.00041673662900731934,-0.000783490695690503
150000000000.0,1,0.047219019749999994,-0.09089783885,-0.08062046964999998,0.019899,-0.057285,0.039166,-1.5344465255,-9.6647477745,0.6393739667,-1.9656,1.4005,-1.6407,2.999999999997449e-05,-9.999999999998899e-05,-4.999999999999449e-05,0.0004223086418606581,0.0005108085955993769,-0.0007578804609977841
150000000000.0,1,0.04237453465,-0.12560357319999998,-0.06847983695,0.011315,-0.063607,0.038092,-1.5368001214999998,-9.664257442,0.6403938583,-1.9656,1.4002,-1.6413,-2.0000000000020002e-05,-9.999999999998899e-05,-3.0000000000085514e-05,-0.0009014447735982145,-0.00015108786166950772,0.0003790666531036102
150000000000.0,1,0.038559747799999995,-0.12930068025,-0.07926715194999999,-0.000474,-0.067775,0.041279,-1.539447917,-9.663865176,0.6402565652,-1.9649,1.4,-1.6427,0.0001100000000000545,-9.999999999998899e-05,1.0000000000065512e-05,-0.001170715932580224,0.0007326947731940425,-0.0012845885836803017
150000000000.0,1,0.04106044354999999,-0.13261532795,-0.08016936375,-0.010091,-0.069826,0.040196,-1.5418995795,-9.663570976499999,0.63906996055,-1.9637,1.3998,-1.6446,4.999999999999449e-05,-0.00019999999999997797,2.0000000000020002e-05,0.0001884355797092674,0.0004652581248130172,-0.0011844070587967437
150000000000.0,1,0.054858400099999996,-0.1243679353,-0.0519948583,-0.015462,-0.074044,0.040191,-1.5441551089999999,-9.663276777,0.637824516,-1.9625,1.3996,-1.6466,2.0000000000020002e-05,-9.999999999998899e-05,3.999999999992898e-05,0.00029389832515303027,0.0008191297396140662,-0.0009191001466635207
150000000000.0,1,0.07867875295,-0.084729456,-0.052936296699999996,-0.018697,-0.079343,0.038055,-1.545920306,-9.663080643999999,0.6363731318,-1.9613,1.3995,-1.6486,-1.0000000000065512e-05,-9.999999999998899e-05,2.999999999997449e-05,0.0012241024190235983,0.000652417349414014,-0.0017995565277755254
150000000000.0,1,0.09387906045,-0.04651294095,-0.06716574585,-0.019799,-0.084659,0.035924,-1.5471951704999998,-9.6629825775,0.63459812815,-1.96,1.3994,-1.6507,-7.999999999996898e-05,-0.00020000000000020002,6.0000000000060005e-05,0.0012086037653500359,0.0004597855362657999,-0.0007478813676204954
150000000000.0,1,0.10726513769999999,-0.0196329133,-0.06605759439999999,-0.018775,-0.091059,0.033797,-1.5481758355,-9.6629825775,0.6330290641499999,-1.959,1.3994,-1.6527,2.0000000000020002e-05,-9.999999999998899e-05,4.0000000000040004e-05,0.0003424808265481971,0.0005264310518722226,-0.0015084352963228298
150000000000.0,1,0.10382300354999999,-0.02015266575,-0.05822208104999999,-0.015614,-0.096412,0.03274,-1.5490584339999998,-9.662884511,0.6319307193499999,-1.9581,1.3994,-1.6545,-0.00012000000000000899,-0.00029999999999996696,-4.0000000000040004e-05,-0.0012748669802413737,0.0007455420413780001,-0.00043794814596287424
150000000000.0,1,0.10045932259999998,-0.0173969971,-0.03862839435,-0.016708,-0.0996,0.032739,-1.5498429660000002,-9.6627864445,0.6311952206,-1.9575,1.3993,-1.6561,-1.0000000000065512e-05,-9.999999999998899e-05,2.0000000000020002e-05,0.0013687528950654393,0.0006876509232247585,-0.0015529709238741862
150000000000.0,1,0.09139797799999999,-0.025713036300000002,-0.01801481605,-0.019955,-0.10597,0.031673,-1.550627498,-9.662688377999999,0.6306264349,-1.9571,1.3993,-1.6577,-9.99999999995449e-06,-9.999999999998899e-05,0.00010999999999994348,0.0008870488924934694,0.0006089415674179754,-0.0006228508830259383
150000000000.0,1,0.07993400415,-0.0485429175,0.01420983585,-0.02424,-0.11019,0.028467,-1.5513139635,-9.662688377999999,0.6302832021499999,-1.9567,1.3992,-1.6591,3.999999999992898e-05,-0.00019999999999997797,-2.999999999997449e-05,0.0002987024568668062,-2.5769678359210957e-05,-0.0015551283040955433
150000000000.0,1,0.0526420972,-0.06287043315,0.036088471999999996,-0.029597,-0.11441,0.026327,-1.552196562,-9.662492245,0.6299399694,-1.9563,1.3991,-1.6607,4.0000000000040004e-05,-0.00019999999999997797,4.0000000000040004e-05,-0.00043348406680099316,0.0001718103341090682,-0.0015924507462750093
150000000000.0,1,0.0427766073,-0.0640570378,0.05607442469999999,-0.031779,-0.12078,0.026333,-1.5530791605,-9.6623941785,0.62971441645,-1.956,1.3991,-1.6623,2.0000000000020002e-05,-0.00019999999999997797,-1.0000000000065512e-05,-0.00017098385029679086,5.637274859804364e-05,-0.0012858509653510541
150000000000.0,1,0.05059250735,-0.07477570624999999,0.06837196379999999,-0.030747,-0.12612,0.025274,-1.5536675594999998,-9.662296112,0.6296849965,-1.9558,1.399,-1.6637,-3.999999999992898e-05,-9.999999999998899e-05,1.0000000000065512e-05,0.0003574975071833908,0.0002638373677079642,-0.0017607657058948956
150000000000.0,1,0.03399965555,-0.0732752888,0.07842378005,-0.030767,-0.13038,0.023144,-1.5544520915,-9.662099978999999,0.6299595827,-1.9558,1.3989,-1.665,3.999999999992898e-05,-0.00019999999999997797,9.99999999995449e-06,-0.00041780801098223463,-0.00014052929497920807,-0.00154400053656234
150000000000.0,1,0.03086152755,-0.04574802225,0.0669794195,-0.031893,-0.13677,0.025287,-1.5553346899999998,-9.6620019125,0.6301851356499999,-1.9558,1.3988,-1.6665,-9.99999999995449e-06,-0.00019999999999997797,-4.999999999921734e-06,-2.9664799094497596e-05,-2.0326676894333318e-05,-0.0014740562583241967
150000000000.0,1,0.03584330575,-0.028252958649999996,0.05524085945,-0.028721,-0.13999,0.026363,-1.556315355,-9.6618057795,0.63040088195,-1.9557,1.3987,-1.668,-4.0000000000040004e-05,-0.00019999999999997797,-5.000000000032756e-06,-0.00030600634280331107,-0.0002988628018387729,-0.0012119356570052808
150000000000.0,1,0.04631680795,0.0053544309,0.0570550897,-0.024488,-0.14322,0.028509,-1.5573940865,-9.6616096465,0.6309794742999999,-1.9557,1.3986,-1.6694,2.999999999997449e-05,-0.00020000000000020002,-1.0000000000065512e-05,-0.0006856902333283177,-0.00026146659384229665,-0.0012612553973545548
150000000000.0,1,0.06431201069999999,0.03401926885,0.07140221865,-0.021313,-0.14751,0.027452,-1.5581786185,-9.6614135135,0.63234259865,-1.9563,1.3985,-1.6704,6.0000000000060005e-05,-0.00019999999999997797,1.0000000000065512e-05,0.0006135984750499368,-0.00015940425663307778,-0.001548009722454502
150000000000.0,1,0.07828648695,0.026791767799999998,0.0624487472,-0.01601,-0.15182,0.027466,-1.5586689509999998,-9.6612173805,0.6341176022999999,-1.9572,1.3984,-1.671,-1.0000000000065512e-05,-0.00019999999999997797,5.000000000032756e-06,-0.0002610527617084024,3.672247153385655e-05,-0.0008676248621970473
150000000000.0,1,0.08005168395,0.011944499699999998,0.05694721654999999,-0.013893,-0.15503,0.026404,-1.5589631505,-9.661021247499999,0.63616719215,-1.9583,1.3982,-1.6715,-9.99999999995449e-06,-0.00019999999999997797,4.999999999921734e-06,-0.0007185095860857693,-8.094864332397478e-05,-0.001320678786292273
150000000000.0,1,0.0745501533,0.0077472535,0.05002372164999999,-0.017016,-0.14755,0.02318,-1.559061217,-9.6608251145,0.6381677487499999,-1.9593,1.3982,-1.672,-9.00000000000345e-05,-0.00019999999999997797,-2.999999999997449e-05,-0.00016102523035743666,-0.0007120406863037054,-0.00037022210856085813
150000000000.0,1,0.06857790344999999,0.018103075899999998,0.0628998531,-0.017023,-0.15074,0.01998,-1.559061217,-9.660727048,0.6399525590499999,-1.9603,1.3981,-1.6726,-3.999999999992898e-05,-0.00019999999999997797,2.999999999997449e-05,0.0008874252831727603,-0.0006179177381993028,-0.00026269070334405953
150000000000.0,1,0.07220636394999999,0.037049523699999996,0.0715493184,-0.019107,-0.14752,0.015698,-1.5586689509999998,-9.660727048,0.6417667893,-1.9614,1.3981,-1.6731,-9.00000000000345e-05,-0.00029999999999996696,4.0000000000040004e-05,0.0007736376820308699,-3.457850713672883e-05,-0.0014323667609743573
150000000000.0,1,0.0954971577,0.07479531955,0.07050000684999999,-0.021218,-0.14644,0.013554,-1.5577863524999997,-9.660727048,0.64342411315,-1.9625,1.3981,-1.6734,-2.999999999997449e-05,-0.00019999999999997797,2.0000000000020002e-05,-0.00034216469886105827,8.837789167581711e-05,-0.0006187756670246181
150000000000.0,1,0.0858866407,0.13710677364999999,0.056270557699999994,-0.021187,-0.1443,0.011413,-1.5568056875,-9.6608251145,0.6447774308499999,-1.9635,1.3981,-1.674,-4.499999999996174e-05,-0.00019999999999997797,-3.0000000000085514e-05,-0.001832164152459681,7.247561185019791e-05,-0.0009166378983114232
150000000000.0,1,0.07924753864999999,0.16366318184999998,0.0428746738,-0.014762,-0.14435,0.007152,-1.555726956,-9.6608251145,0.6463563014999999,-1.9646,1.3982,-1.6743,-4.500000000007276e-05,-9.999999999998899e-05,1.0000000000065512e-05,-0.00017545784896544347,0.00033368422847068757,-0.001163362926779321
150000000000.0,1,0.08089505585,0.17093971614999998,0.021456950199999998,-0.008309,-0.14014,0.003951,-1.5543540249999999,-9.660923181,0.64817053175,-1.9659,1.3982,-1.6744,2.0000000000020002e-05,-0.000300000000000189,-7.00000000000145e-05,-0.0010931430423211097,-9.807385486615416e-05,-0.0015000124499575662
150000000000.0,1,0.0733341287,0.1510027967,0.00024516625,0.000234,-0.14127,0.000763,-1.552784961,-9.661119314,0.650377028,-1.9674,1.3983,-1.6743,-7.499999999993623e-05,-0.00019999999999997797,-4.0000000000040004e-05,-0.0003579745129966838,9.006023330937474e-05,-0.001239871477440424
150000000000.0,1,0.062958693,0.12085715459999999,-0.013101684399999999,0.006645,-0.14132,-0.001362,-1.5511178305,-9.661119314,0.6531032767,-1.9693,1.3983,-1.6738,-7.500000000004725e-05,-0.00029999999999996696,-0.000140000000000029,-0.0008514230306617687,0.000792963462539209,-0.0020492140780461465
150000000000.0,1,0.03601982545,0.04390437205,-0.0334014499,0.009875,-0.14028,-0.00563,-1.549254567,-9.661315446999998,0.6557412655499999,-1.9712,1.3984,-1.6733,-4.0000000000040004e-05,-0.00019999999999997797,-8.999999999992347e-05,0.0001258272395632254,7.599149720061149e-05,-0.002628819360596335
150000000000.0,1,-0.0044718324,-0.0383047749,-0.026674088000000002,0.005659,-0.13492,-0.007781,-1.5476855029999999,-9.661315446999998,0.6581438948,-1.9729,1.3984,-1.673,-4.999999999999449e-05,-0.00019999999999997797,-0.000140000000000029,-0.0003732308652044658,-0.00015913641112108579,-0.0018325945744765981
150000000000.0,1,-0.028929617499999997,-0.11205078289999999,-0.00885540495,-0.002807,-0.12951,-0.013142,-1.5458222394999999,-9.661511579999999,0.6599287051,-1.9743,1.3985,-1.6729,-9.99999999995449e-06,-0.00029999999999996696,-4.0000000000040004e-05,0.00015900530010592995,-0.0013908201399290832,-0.0015955407147620893
150000000000.0,1,-0.0659203013,-0.16573238499999998,0.011532620399999999,-0.009141,-0.12306,-0.016365,-1.5441551089999999,-9.661707712999998,0.6610858897999999,-1.9753,1.3987,-1.6731,-6.0000000000060005e-05,-0.00019999999999997797,-3.999999999992898e-05,8.475575384392364e-05,-6.625445224828219e-05,-0.0017301759214574108
150000000000.0,1,-0.08160113465,-0.15887753664999998,0.00102969825,-0.019749,-0.11658,-0.018527,-1.542586045,-9.6620019125,0.66096821,-1.9756,1.3988,-1.674,-4.999999999999449e-05,-0.00019999999999997797,-4.0000000000040004e-05,-0.0004960043009962778,-0.0001578406798241616,-0.0012140039221890664
150000000000.0,1,-0.06472388999999999,-0.13759710614999998,-0.0032263878499999995,-0.01969,-0.10912,-0.018538,-1.5407227815,-9.662296112,0.66042884425,-1.9758,1.399,-1.675,-9.99999999995449e-06,-0.00019999999999997797,2.0000000000020002e-05,0.0007364613316795943,0.00017513525940326957,-0.0024327617464507956
150000000000.0,1,-0.06112484945,-0.11122702429999999,-0.022388581949999996,-0.017532,-0.10594,-0.018538,-1.5389575844999999,-9.662688377999999,0.65970315215,-1.9758,1.3992,-1.676,-8.000000000008001e-05,-0.000300000000000189,-6.0000000000060005e-05,0.0001120866673469667,-0.0007569790137529342,-0.0017433594357789683
150000000000.0,1,-0.06347844544999999,-0.0791396655,-0.0585653138,-0.016445,-0.10382,-0.019605,-1.5371923875,-9.6629825775,0.6584675142499999,-1.9755,1.3994,-1.6773,-6.999999999990347e-05,-0.00019999999999997797,-6.999999999990347e-05,-0.00017538824080531867,1.9669827944213125e-07,-0.001035005311520898
150000000000.0,1,-0.0719415844,-0.03974635245,-0.08222876024999999,-0.014254,-0.097438,-0.021745,-1.5356233235,-9.6633748435,0.6571338098499999,-1.9751,1.3996,-1.6787,2.999999999997449e-05,-9.999999999998899e-05,2.999999999997449e-05,0.00048352394290396283,-0.00010926477119599376,-0.0013698463334026467
150000000000.0,1,-0.07954173815,-0.023290793749999997,-0.07762944139999998,-0.008906,-0.09535,-0.021736,-1.5341523259999998,-9.663669042999999,0.6562806312999999,-1.975,1.3998,-1.6797,3.999999999992898e-05,-0.00019999999999997797,2.999999999997449e-05,0.0009273856340608067,-0.00031672993810238914,-0.0005501990513081534
150000000000.0,1,-0.08499423554999999,-0.0483271712,-0.07297128265,-0.003515,-0.087935,-0.021736,-1.5326813285,-9.663865176,0.6558099121,-1.9751,1.4,-1.6805,-2.999999999997449e-05,-9.999999999998899e-05,2.0000000000020002e-05,0.00030026254545933995,-2.5149239542887614e-05,-0.0007934069304824654
150000000000.0,1,-0.07424614715,-0.053897348399999996,-0.0734125819,-0.002423,-0.083682,-0.020672,-1.5312103309999998,-9.664159375499999,0.6555059059499999,-1.9753,1.4001,-1.6812,-3.999999999992898e-05,-9.999999999998899e-05,-2.0000000000020002e-05,-0.0002720722566473821,-0.00015402405477438208,-0.0015387108883804235
150000000000.0,1,-0.07351064839999999,-0.0638609048,-0.08573954095,0.000803,-0.077318,-0.016405,-1.530033533,-9.6643555085,0.6551038333,-1.9754,1.4003,-1.6819,2.999999999997449e-05,-9.999999999998899e-05,-2.999999999997449e-05,-0.0004956793635062517,7.840177384776936e-05,-0.0007319437954627084
150000000000.0,1,-0.06816602414999999,-0.06308617945,-0.08954452115,0.001898,-0.072001,-0.014275,-1.529052868,-9.6645516415,0.65472137395,-1.9754,1.4004,-1.6826,-1.0000000000065512e-05,-0.00019999999999997797,-1.0000000000065512e-05,-0.00036195667575356083,-0.00029089384343317093,0.0002897190708228692
150000000000.0,1,-0.08241508659999999,-0.040403398,-0.07781576774999999,-0.001249,-0.063452,-0.012158,-1.5287586684999999,-9.664649707999999,0.6542212347999999,-1.9752,1.4004,-1.6834,7.00000000000145e-05,-9.999999999998899e-05,3.0000000000085514e-05,0.0013893221497343067,-0.0005662955173764139,-0.0010415909327485817
150000000000.0,1,-0.09122145829999999,-0.0158279331,-0.0676266584,-0.005487,-0.05809,-0.010036,-1.5287586684999999,-9.664649707999999,0.6536132225,-1.9748,1.4004,-1.6843,-5.999999999994898e-05,-9.999999999998899e-05,-1.0000000000065512e-05,-0.0012246654215557484,-0.0001603642327436816,-0.0008102234422482368
150000000000.0,1,-0.0996747906,-0.0255169033,-0.05839860075,-0.009707,-0.051661,-0.01005,-1.5289548014999998,-9.6647477745,0.6526129441999999,-1.9742,1.4005,-1.6855,2.0000000000020002e-05,-9.999999999998899e-05,-9.99999999995449e-06,0.00011904529021866672,-0.00024065867938682928,-0.0005990235096733354
150000000000.0,1,-0.1265646249,-0.04770935225,-0.06644986039999999,-0.007556,-0.048482,-0.008979,-1.5297393334999998,-9.664649707999999,0.6513773062999999,-1.9733,1.4004,-1.6868,5.999999999994898e-05,-9.999999999998899e-05,2.0000000000020002e-05,-0.000554452275346895,-0.0004122381221658422,-0.0005258960802121404
150000000000.0,1,-0.12961449305,-0.046140288249999994,-0.0455616959,-0.010718,-0.042064,-0.006856,-1.5307199985,-9.6645516415,0.65024954155,-1.9725,1.4004,-1.6881,6.0000000000060005e-05,-9.999999999998899e-05,4.999999999999449e-05,0.0007414198248936188,-0.0006132772932210262,0.00036343782267778124
150000000000.0,1,-0.1116192903,-0.028733484499999996,-0.027154613850000002,-0.011729,-0.033532,-0.004733,-1.5318967964999999,-9.664453575,0.6492002299999999,-1.9717,1.4003,-1.6893,3.999999999992898e-05,-2.4999999999941735e-05,2.0000000000020002e-05,-0.0005523355329473123,0.000320098733473273,-0.0009113881193056894
150000000000.0,1,-0.07981632435,-0.014317708999999998,-0.01509243435,-0.009598,-0.030358,0.000606,-1.5328774615,-9.6643555085,0.6483568581,-1.971,1.4003,-1.6903,2.999999999997449e-05,-2.4999999999941735e-05,1.999999999990898e-05,-9.858641660631662e-05,-4.584313191680067e-05,-0.00031275427202981376
150000000000.0,1,-0.0658810747,-0.020927391099999998,-0.020338992099999998,-0.002152,-0.030424,0.004891,-1.5340542595,-9.664257442,0.6480724652500001,-1.9705,1.4002,-1.691,9.999999999998899e-05,-2.500000000016378e-05,2.0000000000020002e-05,-0.00011374504068339952,-3.883344227784136e-05,-0.000508258048567134
150000000000.0,1,-0.058614347049999994,-0.01756371015,-0.036833777399999997,0.002144,-0.024069,0.009159,-1.5356233235,-9.6639632425,0.64779787905,-1.97,1.4,-1.6918,5.0000000000105516e-05,-2.4999999999941735e-05,-9.99999999995449e-06,-0.00015669320115629937,0.0004104512029305951,-0.0003765244709394988
150000000000.0,1,-0.0644493038,0.0029027683999999997,-0.019701559849999998,0.00214,-0.023006,0.011295,-1.5375846535,-9.663669042999999,0.648023432,-1.9697,1.3998,-1.6924,9.999999999998899e-05,1.4285714285744433e-05,2.999999999997449e-05,-0.00046947095625338164,-3.405297877634439e-05,-0.0007817939637329019
150000000000.0,1,-0.06663618674999999,-0.0014808041500000001,-0.00608992965,-0.002082,-0.016578,0.012347,-1.5397421165,-9.663276777,0.64803323865,-1.9692,1.3996,-1.693,0.00012000000000000899,1.4285714285744433e-05,5.000000000032756e-06,0.0004781194460194982,-0.0004511971762597433,-0.0004317277694889654
150000000000.0,1,-0.06329211909999999,-0.00793357985,0.02774301285,-0.008437,-0.012261,0.010196,-1.5417034465,-9.6629825775,0.648023432,-1.9687,1.3994,-1.6936,6.999999999990347e-05,1.4285714285744433e-05,4.999999999921734e-06,-0.0006915425512403761,0.00027049297754899726,-0.0003642830968126898
150000000000.0,1,-0.05906545294999999,-0.00326561445,0.05716296285,-0.014763,-0.003683,0.009106,-1.5435667100000001,-9.662688377999999,0.64777826575,-1.9681,1.3993,-1.6943,4.999999999999449e-05,1.4285714285522388e-05,1.0000000000065512e-05,0.00037128967868005347,-6.0685989949460506e-05,0.00011799473525408999
150000000000.0,1,-0.0543680676,0.005766310199999999,0.07081381965,-0.017921,0.000606,0.008028,-1.5452338405,-9.662492245,0.6472977399,-1.9675,1.3991,-1.6949,4.0000000000040004e-05,1.4285714285744433e-05,-3.3333333333551707e-06,0.00018372057348337023,0.00028795084564836593,-0.000604531470372649
150000000000.0,1,-0.028762904449999998,0.024869664399999998,0.09070170585,-0.017841,0.010195,0.008012,-1.5466067714999998,-9.662296112,0.6470133470499999,-1.967,1.399,-1.6954,4.0000000000040004e-05,1.4285714285744433e-05,-3.3333333333551707e-06,1.3127393861278591e-05,-1.651541001823631e-05,-0.0002971512168779
150000000000.0,1,-0.013395883899999999,0.0431100334,0.09249632279999999,-0.008222,0.009054,0.003762,-1.5474893699999999,-9.662099978999999,0.64746445295,-1.9671,1.3989,-1.6953,2.0000000000020002e-05,1.4285714285744433e-05,-3.3333333333551707e-06,0.00011367934642780853,5.6329743366445584e-05,-0.0003196673179295395
150000000000.0,1,-0.0001176798,0.06407665109999999,0.0773156286,-0.004962,0.015421,0.00269,-1.5480777689999998,-9.6620019125,0.64813130515,-1.9673,1.3988,-1.6949,4.999999999999449e-05,4.999999999988347e-05,4.0000000000040004e-05,-0.00015900641547061944,0.0004828425711678186,0.00035923988555564
150000000000.0,1,0.0083748791,0.07022542065,0.07795306084999999,0.006808,0.018522,0.001637,-1.5482739019999998,-9.6618057795,0.6495826893500001,-1.968,1.3987,-1.694,1.999999999990898e-05,5.0000000000105516e-05,-4.999999999999449e-05,-0.0005649428515408506,-0.00047553641745667896,-8.628636400431766e-05
150000000000.0,1,0.0237909329,0.05378947525,0.08366053115,0.011107,0.020619,-0.000494,-1.5481758355,-9.661707712999998,0.6518087989,-1.9693,1.3987,-1.6925,4.999999999999449e-05,5.0000000000105516e-05,2.999999999997449e-05,0.0002815100418998018,0.0003712182807189546,0.0004893687822578041
150000000000.0,1,0.03521568015,0.0292826569,0.08064008294999998,0.016496,0.026967,-0.000498,-1.5477835695,-9.6616096465,0.6543781411999999,-1.9708,1.3986,-1.6908,3.0000000000085514e-05,4.999999999988347e-05,-2.999999999997449e-05,-0.00048436476745084,-0.00011097649405056309,0.0008080940081882648
150000000000.0,1,0.047611285749999996,0.0011081514499999999,0.0744324735,0.017597,0.030155,-0.001571,-1.5469990375,-9.6616096465,0.656849417,-1.9723,1.3986,-1.6889,1.999999999990898e-05,4.999999999988347e-05,-4.0000000000040004e-05,0.0008223285552257931,-2.2073879281547804e-05,9.961519987622403e-05
150000000000.0,1,0.0481114249,-0.02495792425,0.07760982809999999,0.016607,0.038688,-0.002658,-1.546116439,-9.661511579999999,0.659203013,-1.9738,1.3986,-1.6871,2.0000000000020002e-05,5.0000000000105516e-05,-2.999999999997449e-05,-0.0005948148384680163,-0.00024655315104360476,0.0005249042812820459
150000000000.0,1,0.04457122425,-0.0203193788,0.08966220094999999,0.016673,0.045083,-0.004806,-1.545135774,-9.661511579999999,0.6616742888,-1.9754,1.3985,-1.6851,-2.999999999997449e-05,5.0000000000105516e-05,-4.0000000000040004e-05,0.00041735406058718283,8.983601415435416e-05,-0.00022984648325685697
150000000000.0,1,0.054642653799999996,-0.026105302299999997,0.09995918345,0.013547,0.052569,-0.006962,-1.5438609094999998,-9.6616096465,0.6639396249499999,-1.9769,1.3986,-1.683,2.0000000000020002e-05,4.999999999988347e-05,-2.999999999997449e-05,0.0002319739797471687,-6.87775149290637e-05,0.0005855389233546671
150000000000.0,1,0.048886150249999996,-0.0478956786,0.09464397914999999,0.013591,0.056831,-0.008039,-1.542586045,-9.6616096465,0.6659696015,-1.9784,1.3986,-1.6811,2.0000000000020002e-05,9.999999999998899e-05,-9.99999999995449e-06,0.0005209441624360878,-0.00038894815700096785,0.0009202065774340795
150000000000.0,1,0.060860069899999994,-0.043453266149999996,0.0764722567,0.015777,0.064269,-0.005917,-1.5412131139999998,-9.661707712999998,0.6676759586000001,-1.9796,1.3987,-1.6792,9.99999999995449e-06,9.999999999998899e-05,-4.0000000000040004e-05,-0.0005698280140362666,-0.000287842117159931,0.0008058879008647768
150000000000.0,1,0.07710968894999999,-0.051563365699999995,0.06582223479999999,0.020089,0.069561,-0.005923,-1.53964405,-9.661903846,0.6694901888499999,-1.981,1.3987,-1.6771,-3.999999999992898e-05,3.333333333332966e-05,-3.999999999992898e-05,-0.00026723689909147197,-0.0004456758585036358,0.0006818853490417887
150000000000.0,1,0.09134894475,-0.0346763144,0.0415213561,0.025437,0.071646,-0.004854,-1.538074986,-9.6620019125,0.6713436457,-1.9824,1.3988,-1.675,-1.0000000000065512e-05,3.333333333332966e-05,-4.0000000000040004e-05,0.00010546804989575165,3.877345894576223e-06,0.000672602014453183
150000000000.0,1,0.08929935489999999,-0.0038834333999999996,0.012297539099999998,0.031848,0.072658,-0.004849,-1.5364078555,-9.662099978999999,0.6733442022999999,-1.9838,1.3989,-1.6728,1.0000000000065512e-05,3.333333333332966e-05,-2.0000000000020002e-05,-0.00029653615418823165,-0.00041441220029247994,0.0006917503080696719
150000000000.0,1,0.09160391764999999,0.0056290171,-0.01320955755,0.03506,0.074761,-0.003784,-1.5350349245,-9.662198045499998,0.67535456555,-1.9853,1.3989,-1.6706,5.999999999994898e-05,9.999999999998899e-05,-4.999999999999449e-05,8.134526281100563e-05,-0.0002683088685480062,0.0013008865215566878
150000000000.0,1,0.07830610025,0.014327515649999999,-0.025144250599999998,0.038271,0.076865,-0.002718,-1.5339561929999999,-9.662198045499998,0.6774139620499999,-1.9866,1.399,-1.6684,-2.999999999997449e-05,4.999999999988347e-05,-4.999999999999449e-05,-0.0015920635817459061,-0.0005283704392680111,0.0015728910997492296
150000000000.0,1,0.0703136805,0.0074432473499999995,-0.03660822445,0.038273,0.077929,-0.001656,-1.533171661,-9.662198045499998,0.6793066455,-1.9879,1.399,-1.6664,8.999999999992347e-05,5.0000000000105516e-05,-2.0000000000020002e-05,0.00023194135631232626,0.00023253463826922172,0.00020665924726293028
150000000000.0,1,0.05353450235,-0.00021574629999999997,-0.0404622379,0.034007,0.079029,-0.0006,-1.5326813285,-9.662198045499998,0.6807580296999999,-1.9888,1.3989,-1.6646,4.0000000000040004e-05,9.999999999998899e-05,-2.0000000000020002e-05,-0.00037251642425473186,-6.143629597077371e-05,0.0008822243057624579
150000000000.0,1,0.032479624799999995,-0.034499794699999996,-0.0518379519,0.028676,0.079074,-0.001679,-1.5324851954999998,-9.662198045499998,0.68151314175,-1.9893,1.3989,-1.6634,7.00000000000145e-05,4.999999999988347e-05,-3.999999999992898e-05,-0.0009999237264421978,-0.00014107093364224,0.0006875110031656639
150000000000.0,1,0.025781682849999998,-0.06755801185,-0.06032070415,0.019052,0.078086,0.000439,-1.5324851954999998,-9.662198045499998,0.6813072021,-1.9891,1.3989,-1.6627,4.0000000000040004e-05,5.0000000000105516e-05,-3.0000000000085514e-05,-0.00015251702040353088,-0.00018823795509192998,0.0010666689171305865
150000000000.0,1,0.013395883899999999,-0.09055460609999999,-0.052524417399999995,0.010527,0.080287,0.001487,-1.5326813285,-9.662198045499998,0.6802480838999999,-1.9885,1.399,-1.6625,2.999999999997449e-05,5.0000000000105516e-05,-2.999999999997449e-05,9.302040998049321e-05,0.0004263690003771803,0.0004143812872570152
150000000000.0,1,-0.006158576199999999,-0.1382541517,-0.0434042329,0.00411,0.079273,0.002544,-1.533171661,-9.662296112,0.6786201799999999,-1.9875,1.399,-1.6627,7.00000000000145e-05,4.999999999988347e-05,1.0000000000065512e-05,0.0011886704034735907,0.0002216339584231175,2.727923601142379e-05
150000000000.0,1,-0.004726805299999999,-0.170831843,-0.0403837847,-0.001251,0.078249,0.005738,-1.5338581264999998,-9.662296112,0.67649213695,-1.9862,1.399,-1.6632,2.0000000000020002e-05,4.999999999988347e-05,1.999999999990898e-05,-4.679333130197527e-05,0.00024105544007890778,0.00024051450848028288
150000000000.0,1,0.00228494945,-0.1676348751,-0.0462677747,-0.005535,0.077218,0.006799,-1.534544592,-9.6623941785,0.6739914412,-1.9846,1.399,-1.664,2.999999999997449e-05,5.0000000000105516e-05,3.0000000000085514e-05,0.0008154285680124218,-0.00046025241099356684,0.0008863236290070908
150000000000.0,1,-0.005756503549999999,-0.12568202639999998,-0.06277236665,-0.007698,0.074039,0.0068,-1.535525257,-9.6623941785,0.6710494462,-1.9828,1.3991,-1.6651,-4.999999999999449e-05,5.0000000000105516e-05,4.999999999999449e-05,9.010886705951293e-05,-3.658109633697393e-05,0.000952548973286671
150000000000.0,1,0.0097085835,-0.07069613984999999,-0.0645865969,-0.008807,0.069785,0.007872,-1.5365059220000001,-9.662492245,0.66792112485,-1.9809,1.3991,-1.6663,5.999999999994898e-05,4.999999999988347e-05,2.999999999997449e-05,0.0001781004414602716,-0.00021026158058057298,0.0011239805029898964
150000000000.0,1,0.021486370149999996,-0.0077766734499999995,-0.05042579429999999,-0.01096,0.067672,0.007871,-1.537290454,-9.662590311499999,0.6649791298499999,-1.9791,1.3992,-1.6674,-2.5000000000052758e-05,4.999999999988347e-05,-9.99999999995449e-06,0.00016369043843900144,-0.00020786512111747868,0.0004824860674519371
150000000000.0,1,0.0368926173,0.02195708935,-0.034911674,-0.010985,0.063412,0.005742,-1.5377807865,-9.662688377999999,0.662341141,-1.9775,1.3992,-1.6684,-2.4999999999941735e-05,5.0000000000105516e-05,-4.0000000000040004e-05,-0.00029270158021676984,0.00017014288079342244,7.4995227751673e-05
150000000000.0,1,0.044335864649999994,0.02478140455,-0.026772154499999996,-0.007826,0.056995,0.003623,-1.5378788529999998,-9.6627864445,0.66019348465,-1.9763,1.3993,-1.669,9.00000000000345e-05,9.999999999998899e-05,9.00000000000345e-05,-0.0009631179845346338,5.042594822879387e-05,0.0007194063931081907
150000000000.0,1,0.03764772935,0.0065312289,-0.01830901555,-0.009956,0.054886,-0.000649,-1.5377807865,-9.6629825775,0.6581537014500001,-1.9752,1.3994,-1.6695,-6.0000000000060005e-05,9.999999999998899e-05,-6.0000000000060005e-05,0.000528753343345123,0.00018143249613888912,9.242609337745122e-05
150000000000.0,1,0.03763792269999999,-0.0061879961500000006,-0.00446202575,-0.010006,0.05062,0.002559,-1.5375846535,-9.663080643999999,0.65629043795,-1.9742,1.3995,-1.67,0.000140000000000029,5.0000000000105516e-05,9.00000000000345e-05,5.7084922820749284e-05,-0.00032675324948794326,0.0012807857857555227
150000000000.0,1,0.03725546335,-0.025232510450000002,0.022231675549999996,-0.011095,0.048497,0.003627,-1.5374865869999998,-9.663178710499999,0.6548782803500001,-1.9735,1.3995,-1.6703,-7.999999999996898e-05,5.0000000000105516e-05,3.999999999992898e-05,0.00040462702787058547,-4.684905578633547e-05,0.0007194842022641978
150000000000.0,1,0.05673147025,-0.0283216052,0.058153434500000004,-0.005813,0.044186,0.00791,-1.5373885204999997,-9.663276777,0.6544173677999999,-1.9732,1.3996,-1.6701,-9.99999999995449e-06,5.0000000000105516e-05,5.000000000032756e-06,0.0007339627093705392,-8.662805525139206e-06,0.0006165713942924977
150000000000.0,1,0.08545514809999999,0.013425303849999999,0.05577041855,0.00375,0.040906,0.011131,-1.537290454,-9.663276777,0.65485866705,-1.9735,1.3996,-1.6694,-1.0000000000065512e-05,4.999999999988347e-05,5.000000000032756e-06,4.3477720072626624e-05,-0.00016325638930059228,0.00042070412310701855
150000000000.0,1,0.1180916793,0.02478140455,0.03607866535,0.012205,0.033372,0.015423,-1.5368001214999998,-9.663276777,0.6559962384499999,-1.9742,1.3996,-1.6683,2.0000000000020002e-05,9.999999999998899e-05,-1.0000000000065512e-05,-0.0009374004450588558,0.00036412012920994385,1.1448957740523014e-05
150000000000.0,1,0.139646696,0.006452775699999999,-0.0018828768,0.025985,0.024729,0.019726,-1.5365059220000001,-9.663178710499999,0.6578987285499999,-1.9754,1.3995,-1.6669,-2.999999999997449e-05,1.999999999990898e-05,-2.999999999997449e-05,5.339274203453037e-05,9.657994032052919e-05,0.00044216080103454125
150000000000.0,1,0.14991425854999998,-0.01644575205,-0.00771783355,0.03447,0.020393,0.022943,-1.536309789,-9.6629825775,0.66058575065,-1.9769,1.3994,-1.6652,8.999999999992347e-05,2.0000000000131024e-05,2.0000000000020002e-05,0.0002431476239923569,0.0002727386407161969,-0.0003132397093437156
150000000000.0,1,0.1443735013,-0.04559111585,0.00306948145,0.030196,0.018298,0.020798,-1.5358194564999998,-9.662884511,0.6632629660999999,-1.9785,1.3994,-1.6634,3.0000000000085514e-05,1.999999999990898e-05,-2.0000000000020002e-05,-0.00027585428048726435,9.806711940596458e-05,0.0004844679796212059
150000000000.0,1,0.12444638849999999,-0.06024225095,0.013337044000000001,0.023801,0.018351,0.019713,-1.5357213899999997,-9.6627864445,0.66572443525,-1.9798,1.3993,-1.6618,3.999999999992898e-05,2.0000000000131024e-05,-9.99999999995449e-06,-8.465495735832107e-05,-0.00025799270793336326,0.00021688142608455863
150000000000.0,1,0.10958931374999999,-0.06481214985,0.02980240935,0.01528,0.01736,0.015425,-1.535329124,-9.662688377999999,0.6676563453,-1.981,1.3992,-1.6605,-2.0000000000020002e-05,1.999999999990898e-05,-2.0000000000020002e-05,0.0007003967265044597,0.0005466225398982338,-0.00045203014403871755
150000000000.0,1,0.1254074402,-0.06908784925,0.0345586346,0.00354,0.015327,0.013267,-1.534544592,-9.6627864445,0.66858797705,-1.9817,1.3993,-1.6597,8.000000000008001e-05,-4.999999999988347e-05,4.0000000000040004e-05,-0.0007655714370120581,5.741258665969973e-05,0.00013336593244273054
150000000000.0,1,0.1458641121,-0.07516797224999999,0.03370545605,-0.006044,0.017536,0.01324,-1.5332697274999998,-9.6629825775,0.66839184405,-1.9819,1.3994,-1.6593,1.999999999990898e-05,-5.0000000000105516e-05,9.99999999995449e-06,-0.0001809271379202837,7.559628885256409e-05,0.00028650595661683376
150000000000.0,1,0.1544155109,-0.08809313695,0.036098278649999996,-0.006064,0.015403,0.014303,-1.531994863,-9.663178710499999,0.6679505448,-1.982,1.3995,-1.6591,-4.999999999999449e-05,-3.333333333332966e-05,-2.0000000000020002e-05,0.00040418133640618414,2.4695061848989397e-05,0.00012916504068383183
150000000000.0,1,0.16322188259999998,-0.05399541489999999,0.02993970245,-0.008217,0.012224,0.01323,-1.5304257989999999,-9.66347291,0.66737195245,-1.982,1.3997,-1.659,2.0000000000020002e-05,-3.333333333332966e-05,2.999999999997449e-05,0.00025465658183043693,6.050734395346424e-05,9.634669153224529e-05
150000000000.0,1,0.15915212285,-0.0099047165,0.0141804159,-0.005072,0.005803,0.014306,-1.529052868,-9.6637671095,0.6669698798,-1.9821,1.3999,-1.6588,2.0000000000020002e-05,-3.333333333332966e-05,-1.999999999990898e-05,-0.00030108255720362465,3.141089831482091e-05,-8.662027349748413e-05
150000000000.0,1,0.1425494644,0.010012589649999999,0.0215157901,0.000231,0.000433,0.012184,-1.5278760699999998,-9.663865176,0.6672640793,-1.9826,1.4,-1.6583,2.0000000000020002e-05,-4.999999999988347e-05,1.999999999990898e-05,-8.197887096028644e-05,0.00015280306042475544,0.00010914864856981232
150000000000.0,1,0.1147770316,-0.0018828768,0.0225160684,0.004454,-0.005995,0.01113,-1.5270915379999999,-9.6639632425,0.66805841795,-1.9832,1.4,-1.6578,9.99999999995449e-06,-5.0000000000105516e-05,3.0000000000085514e-05,0.0011748360517722656,0.00030047653447251577,-0.0007522971313675964
150000000000.0,1,0.08801468375,-0.03550987965,0.0241439723,0.004398,-0.014518,0.009006,-1.526307006,-9.6639632425,0.6691273428,-1.984,1.4,-1.6571,2.999999999997449e-05,-0.00010000000000021103,9.99999999995449e-06,-0.0002303179321030413,-4.2224233691268154e-05,6.415195710607335e-05
150000000000.0,1,0.07340277525,-0.05758464879999999,0.036647451049999995,0.001158,-0.020883,0.006873,-1.525522474,-9.664061309,0.67009820115,-1.9847,1.4001,-1.6566,1.0000000000065512e-05,-5.0000000000105516e-05,1.0000000000065512e-05,-0.00012752075458100087,-1.3917492748483085e-05,-0.0003028583470585655
150000000000.0,1,0.06514557594999999,-0.08650445965,0.04090353715,-0.003126,-0.025107,0.003667,-1.5244437425,-9.664159375499999,0.67092195975,-1.9854,1.4001,-1.6561,-1.0000000000065512e-05,-4.999999999988347e-05,-2.0000000000020002e-05,-0.0004570246541191203,-9.312494293656215e-05,-0.00014115057901431527
150000000000.0,1,0.043041386849999995,-0.1098737066,0.042286274799999995,-0.005282,-0.02935,0.001533,-1.5233650109999999,-9.664257442,0.67149074545,-1.986,1.4002,-1.6559,1.0000000000065512e-05,-9.999999999998899e-05,5.999999999994898e-05,0.0006113703616967836,8.014766770791937e-05,-0.000526224033175593
150000000000.0,1,0.04598338184999999,-0.12943797334999999,0.0444241245,-0.008499,-0.033583,-0.00167,-1.52199208,-9.664453575,0.6718928181,-1.9865,1.4003,-1.6557,-1.0000000000065512e-05,-5.0000000000105516e-05,2.0000000000020002e-05,-0.00029679218308387156,0.00012270280799686617,-0.000476357420875706
150000000000.0,1,0.04233530804999999,-0.139646696,0.03892259385,-0.01173,-0.038882,-0.003804,-1.5203249495,-9.6647477745,0.67200069125,-1.987,1.4005,-1.6556,-3.999999999992898e-05,-4.999999999988347e-05,5.999999999994898e-05,0.0004008748798585149,-0.00012340979281533215,-0.00022173421305127228
150000000000.0,1,0.03682397075,-0.13934268984999998,0.024212618849999996,-0.009639,-0.046356,-0.006992,-1.5183636194999999,-9.665041974,0.6719026247500001,-1.9874,1.4007,-1.6556,-7.00000000000145e-05,-0.00019999999999997797,8.000000000008001e-05,0.0006938292653886347,0.00027893136800560825,-0.0007231640628806435
150000000000.0,1,0.0143765489,-0.12690785764999998,0.00534462425,-0.011803,-0.052727,-0.011256,-1.5165984225,-9.665336173499998,0.67147113215,-1.9876,1.4009,-1.6559,-5.999999999994898e-05,-4.999999999988347e-05,7.00000000000145e-05,0.0003662604717928897,0.00026809090770241184,-0.0001500789147101944
150000000000.0,1,-0.00051975245,-0.11072688515,0.0081787461,-0.015041,-0.058028,-0.012321,-1.5147351589999998,-9.665728439499999,0.6710298329,-1.9878,1.401,-1.6563,-0.00010000000000010001,-5.0000000000105516e-05,5.999999999994898e-05,-0.001508139380185236,-0.0003283569407213083,0.00020360565586607926
150000000000.0,1,-0.015504313649999999,-0.09122145829999999,0.011395327299999999,-0.017204,-0.064399,-0.016583,-1.512773829,-9.666022639,0.6705002738,-1.988,1.4013,-1.6567,-5.999999999994898e-05,-5.0000000000105516e-05,9.999999999998899e-05,0.000247068889845492,0.0002887691766895184,-0.0001177886531957828
150000000000.0,1,-0.02958666305,-0.061575955349999996,0.01032640245,-0.018322,-0.070783,-0.016573,-1.5109105655000001,-9.666316838499998,0.6699314880999999,-1.9881,1.4015,-1.6573,-0.00014999999999998348,-4.999999999988347e-05,7.999999999996898e-05,0.0007548539239972119,-0.0004449858344701685,0.0004005039304069147
150000000000.0,1,-0.040364171399999996,-0.03792231555,-0.0115522337,-0.016235,-0.077193,-0.017624,-1.509243435,-9.666709104499999,0.669205796,-1.9881,1.4016,-1.6581,-2.999999999997449e-05,-4.999999999988347e-05,9.00000000000345e-05,0.0007513687862219509,-8.528990379952361e-06,-0.0016947871972063933
150000000000.0,1,-0.02682118775,0.00281450855,-0.02307504745,-0.014179,-0.0868,-0.017602,-1.5073801715000001,-9.667003304,0.66860759035,-1.9883,1.4018,-1.6588,-4.0000000000040004e-05,-5.0000000000105516e-05,9.00000000000345e-05,-0.0012324007484783017,-0.0001367089473089944,-0.0002893827388441572
150000000000.0,1,-0.0231829206,0.049660875599999994,-0.03656899785,-0.013161,-0.092137,-0.016522,-1.505713041,-9.6672975035,0.66803880465,-1.9884,1.402,-1.6596,-4.999999999999449e-05,-2.4999999999941735e-05,9.999999999998899e-05,-0.0006554019939042366,-0.00015613469338315866,-0.0004161834802178799
150000000000.0,1,-0.024408751849999997,0.0695291485,-0.04551266265,-0.012184,-0.10174,-0.014367,-1.5041439769999998,-9.667591703,0.6677053785499999,-1.9886,1.4022,-1.6604,-9.999999999998899e-05,-2.500000000016378e-05,9.00000000000345e-05,0.00030390875120422933,-0.0002372038022200318,-0.0008050290587107156
150000000000.0,1,-0.0342252085,0.0815324881,-0.0414232896,-0.0165,-0.1049,-0.010097,-1.5031633119999999,-9.667787836,0.6672052394,-1.9885,1.4023,-1.6615,-2.999999999997449e-05,-2.4999999999941735e-05,8.999999999992347e-05,-0.00034210592927408356,-0.00067752431273993,-0.0004017567927840915
150000000000.0,1,-0.03658861115,0.05994805145,-0.0166909183,-0.01977,-0.11021,-0.004754,-1.502574913,-9.6678859025,0.6668620066500001,-1.9885,1.4024,-1.6626,-5.0000000000105516e-05,-2.4999999999941735e-05,4.999999999999449e-05,-0.0009797634976858038,-0.00023403091826446065,-0.0009534417099750225
150000000000.0,1,-0.02858638475,0.036853390699999995,0.0005295590999999999,-0.026204,-0.11229,-0.001558,-1.502182647,-9.667983969,0.66625399435,-1.9882,1.4024,-1.664,-8.999999999992347e-05,-4.999999999988347e-05,3.0000000000085514e-05,-0.0002577783422843538,-0.00012677938865346405,-0.0015077400236838123
150000000000.0,1,-0.030910560799999997,0.0036971070499999996,-0.00781590005,-0.028413,-0.11761,0.004853,-1.5022807134999998,-9.6680820355,0.6651654562,-1.9876,1.4025,-1.6658,-7.999999999996898e-05,-5.0000000000105516e-05,5.999999999994898e-05,8.223285524100454e-05,-0.0006975276992069457,-0.0016225314661284518
150000000000.0,1,-0.024732371299999997,-0.018524761849999998,-0.0129840046,-0.031659,-0.12184,0.006991,-1.5024768465,-9.6680820355,0.6637631052499999,-1.9868,1.4025,-1.6679,-7.00000000000145e-05,-2.4999999999941735e-05,4.0000000000040004e-05,-0.0003075152927050073,-0.0002276303842805305,-0.0009285794197222419
150000000000.0,1,-0.013180137599999999,-0.03256788465,0.0028341218499999994,-0.034878,-0.12076,0.012321,-1.5029671789999999,-9.668180101999999,0.6623117210499999,-1.9859,1.4025,-1.67,-4.0000000000040004e-05,-2.500000000016378e-05,7.999999999996898e-05,-0.0005324840890421623,-7.939482192997893e-05,-0.001372679499419549
150000000000.0,1,0.0002941995,-0.03805960865,-0.0010983447999999999,-0.037,-0.11861,0.013381,-1.5034575115,-9.668180101999999,0.6605563307,-1.9848,1.4026,-1.6724,-9.999999999998899e-05,-2.4999999999941735e-05,4.999999999999449e-05,0.0016273024824897675,-0.00014395225328511785,-0.0013665502669066854
150000000000.0,1,0.025369803549999997,-0.025722842949999998,0.00848275225,-0.037004,-0.11648,0.017645,-1.503751711,-9.6682781685,0.6587519071,-1.9837,1.4026,-1.6747,-7.00000000000145e-05,-2.4999999999941735e-05,5.999999999994898e-05,0.0003036832586864602,0.00025580582246242933,-0.0011126842175868124
150000000000.0,1,0.04341403955,-0.035235293449999996,0.013964669599999998,-0.033805,-0.11545,0.019782,-1.5040459105,-9.6682781685,0.65731032955,-1.9828,1.4026,-1.6767,-0.00017000000000000348,-4.999999999988347e-05,3.0000000000085514e-05,0.001150002216968593,-2.4667033646785796e-06,-0.0023365533152401863
150000000000.0,1,0.06218396765,-0.03878530075,0.026742734549999998,-0.029533,-0.11442,0.020851,-1.5041439769999998,-9.668376235,0.6564963776,-1.9823,1.4027,-1.6784,-9.00000000000345e-05,-5.0000000000105516e-05,7.999999999996898e-05,0.0007968856721447537,-0.0002463649679946833,-0.001235407262383692
150000000000.0,1,0.06414529765,-0.03723585005,0.00016671305,-0.027374,-0.11124,0.020846,-1.5042420435,-9.668376235,0.6553980328,-1.9817,1.4027,-1.6802,-0.00013999999999991797,-3.333333333332966e-05,9.99999999995449e-06,0.0004702548452510946,0.0006265563834477739,-0.00169686920447365
150000000000.0,1,0.07162777159999999,-0.04747399265,-0.0081002929,-0.028407,-0.10697,0.020833,-1.5042420435,-9.668474301499998,0.6540839417,-1.981,1.4027,-1.6821,-7.00000000000145e-05,-3.333333333332966e-05,9.999999999998899e-05,0.0013203635307257322,0.0005423188926061417,-0.0011179139937000926
150000000000.0,1,0.07324586884999999,-0.0334799031,-0.0077080269,-0.027301,-0.10271,0.019757,-1.5042420435,-9.668572368,0.6529463703,-1.9803,1.4028,-1.6838,-4.0000000000040004e-05,-3.333333333332966e-05,4.0000000000040004e-05,0.00036459438363811714,0.0003374700094045391,-0.001090154623921702
150000000000.0,1,0.08070872949999999,0.0023634026499999997,0.00901231135,-0.029383,-0.096303,0.019738,-1.5042420435,-9.6686704345,0.6517793789499999,-1.9797,1.4028,-1.6854,-9.00000000000345e-05,-9.999999999998899e-05,4.999999999999449e-05,-0.0005631313465570553,-0.0001682477207356481,-0.001284266669961065
150000000000.0,1,0.08297406565,0.04119773665,0.021143137399999998,-0.031459,-0.089892,0.018652,-1.5042420435,-9.668768501,0.6505829676499999,-1.979,1.4029,-1.6871,-7.999999999996898e-05,-5.0000000000105516e-05,2.0000000000020002e-05,-0.000530720843385124,0.00039063631260671805,-0.0013400263963558867
150000000000.0,1,0.0931043351,0.05692760325,0.024791211199999996,-0.031402,-0.085626,0.014372,-1.503751711,-9.668866567499999,0.6493179097999999,-1.9784,1.403,-1.6885,-2.4999999999941735e-05,-4.999999999988347e-05,2.999999999997449e-05,0.00014220763201366893,-0.0002606463260399483,-0.0005189124495363906
150000000000.0,1,0.0914175913,0.06039915735,0.03066539455,-0.028136,-0.080321,0.010094,-1.5029671789999999,-9.6690627005,0.6483862780499999,-1.9781,1.4031,-1.6897,-2.5000000000052758e-05,-4.999999999988347e-05,4.0000000000040004e-05,-0.00013304623049625874,-0.00030269947425565213,-0.0007150379372919957
150000000000.0,1,0.0783747468,0.05118090634999999,0.026683894649999998,-0.021664,-0.075041,0.004756,-1.5018884475,-9.669258833499999,0.64773903915,-1.978,1.4032,-1.6906,2.999999999997449e-05,-5.0000000000105516e-05,4.0000000000040004e-05,0.00018762225611035355,-0.00034359890344082267,-0.0001984733714410769
150000000000.0,1,0.06836215714999999,0.0381086419,0.026085689,-0.011981,-0.069786,-0.002711,-1.500221317,-9.669553033,0.6478861388999999,-1.9785,1.4034,-1.6909,-7.999999999996898e-05,-5.0000000000105516e-05,-1.0000000000065512e-05,0.00032476833528338744,-0.0003330628334454744,-0.0008057166154928908
150000000000.0,1,0.05180853195,0.0293022702,0.009051537949999999,-0.008721,-0.067673,-0.011251,-1.498063854,-9.669847232499999,0.6481607251,-1.9791,1.4036,-1.6909,-2.999999999997449e-05,-4.999999999988347e-05,2.999999999997449e-05,-0.0006942257104707306,-0.00010092348089840719,-0.0005356663119802096
150000000000.0,1,0.040893730499999996,-0.00687446165,0.019181807399999997,-0.007594,-0.062351,-0.014462,-1.495710258,-9.670141432,0.6486510575999999,-1.98,1.4038,-1.6907,-2.999999999997449e-05,-3.333333333332966e-05,9.99999999995449e-06,9.639069474931539e-05,-0.00012984782897906832,-0.0004893787424504747
150000000000.0,1,0.024085132399999997,-0.05427000109999999,0.03580407915,-0.00967,-0.05594,-0.015546,-1.4932585954999997,-9.670533698,0.6492394565999999,-1.9809,1.404,-1.6903,-2.0000000000020002e-05,-3.333333333332966e-05,1.0000000000065512e-05,-0.0004361610689058715,-0.0006377421905725544,-0.0005438230430989677
150000000000.0,1,0.017063571,-0.0973211946,0.06506712275,-0.010644,-0.045275,-0.016636,-1.4907088665,-9.670925964,0.6499063087999999,-1.9819,1.4042,-1.6898,-7.00000000000145e-05,-3.333333333332966e-05,2.0000000000020002e-05,-0.0006107312967900125,-0.0006149571529974196,-0.0003266279047091647
150000000000.0,1,0.0206724182,-0.1115212238,0.06887210295,-0.011687,-0.039943,-0.012379,-1.488453337,-9.6712201635,0.6504358679,-1.9828,1.4044,-1.6894,-7.00000000000145e-05,-3.333333333332966e-05,-9.99999999995449e-06,-0.0007750579725613882,-0.00047011880755132296,-0.0006893214983776375
150000000000.0,1,0.025046184099999997,-0.05990882484999999,0.032469818149999996,-0.013793,-0.034601,-0.009192,-1.48668814,-9.671514363,0.650180895,-1.9831,1.4046,-1.6895,-5.999999999994898e-05,-3.333333333332966e-05,2.999999999997449e-05,-0.00015489214228425752,-0.00022690878752884558,5.417779201266626e-06
150000000000.0,1,0.0185541818,-0.0014611908499999999,-0.0063547092,-0.013772,-0.029278,-0.004932,-1.4856094085,-9.671710496,0.6492002299999999,-1.9828,1.4047,-1.6901,-7.00000000000145e-05,-3.333333333332966e-05,3.999999999992898e-05,-0.0006459721309135524,-0.00047504281980303986,-0.0002657918190021036
150000000000.0,1,0.00795319315,0.036519964599999996,-0.0158475464,-0.01055,-0.023981,-0.000667,-1.4852171425,-9.671808562499999,0.648219565,-1.9823,1.4048,-1.6908,-1.0000000000065512e-05,-0.00010000000000021103,1.0000000000065512e-05,-0.0008706633407611353,-0.00040144358809346414,-7.989781627171233e-05
150000000000.0,1,-0.00344213415,0.0441495383,-0.01450403535,-0.005212,-0.020832,0.003607,-1.4854132754999998,-9.671808562499999,0.64762135935,-1.9819,1.4048,-1.6914,-0.00013999999999991797,-3.333333333332966e-05,9.99999999995449e-06,0.0006997214881359071,-6.300495114097693e-05,-0.00045639934915397973
150000000000.0,1,0.00726672765,0.0532108829,-0.0206528049,0.001209,-0.015562,0.007879,-1.4860016745,-9.671808562499999,0.64748406625,-1.9817,1.4047,-1.6918,-4.0000000000040004e-05,-3.333333333332966e-05,1.0000000000065512e-05,-0.00023634126948657297,-0.0001645910999636957,-0.00013572018109275774
150000000000.0,1,0.0157494799,0.0650377028,-0.026683894649999998,0.005477,-0.013469,0.011084,-1.486884273,-9.6716124295,0.64768019925,-1.9816,1.4047,-1.692,-9.999999999998899e-05,-3.333333333332966e-05,-3.0000000000085514e-05,-5.137549318945389e-05,-0.00017718392449750375,-0.00038183530630275797
150000000000.0,1,-0.005236751099999999,0.04084469725,-0.04053088445,0.010797,-0.012451,0.015362,-1.488257204,-9.6714162965,0.6480626586,-1.9815,1.4045,-1.6923,-1.0000000000065512e-05,-3.333333333332966e-05,1.0000000000065512e-05,0.0008456754318797444,-0.00015982930291436048,0.00043607515721921786
150000000000.0,1,-0.030469261549999998,0.0014709974999999999,-0.036971070499999995,0.008692,-0.009236,0.014287,-1.4901204675,-9.6710240305,0.6485431844499999,-1.9813,1.4043,-1.6926,-5.999999999994898e-05,-3.333333333332966e-05,-2.999999999997449e-05,-0.00037126412192978187,0.0004401149067974064,-0.0005154714829316287
150000000000.0,1,-0.0456401491,-0.015494507,-0.028988457399999997,0.006603,-0.002825,0.015341,-1.492375997,-9.670729831,0.6487883507,-1.9809,1.4041,-1.693,-2.999999999997449e-05,-3.333333333332966e-05,-1.0000000000065512e-05,-0.0006506031517732325,3.858309888471467e-06,-2.2848460789592906e-05
150000000000.0,1,-0.04955300245,-0.033666229449999995,-0.0162986523,0.003456,0.004659,0.016392,-1.494729593,-9.670337564999999,0.6488177706499999,-1.9803,1.4039,-1.6935,-1.0000000000065512e-05,-1.999999999990898e-05,-2.0000000000020002e-05,-0.00035546422164722813,-0.00011411418561224629,0.000352365078054806
150000000000.0,1,-0.037706569249999995,-0.0281646988,-0.0060310897499999995,0.000287,0.010011,0.018513,-1.4969851225,-9.669945299,0.64858241105,-1.9796,1.4037,-1.6941,-7.999999999996898e-05,-2.0000000000131024e-05,-1.999999999990898e-05,-2.2779914688797476e-05,2.1165321241412016e-05,-0.00016036484379933214
150000000000.0,1,-0.01077750835,-0.018867994599999997,-0.032263878499999996,0.001398,0.016395,0.019572,-1.499044519,-9.669749165999999,0.6478665255999999,-1.9787,1.4035,-1.6949,-4.0000000000040004e-05,-1.999999999990898e-05,-1.0000000000065512e-05,-1.870536915005161e-05,0.00010056494975851926,-3.994507853910534e-05
150000000000.0,1,0.0019319100499999998,-0.022270902149999997,-0.045473436049999996,0.005672,0.017425,0.019577,-1.501005849,-9.6694549665,0.6473173532,-1.978,1.4033,-1.6955,-3.999999999992898e-05,-2.0000000000131024e-05,-9.99999999995449e-06,-0.00038121070706753635,7.669049134029216e-05,0.00036285826080662
150000000000.0,1,0.0063350959,-0.07006851425,-0.0704509736,0.008903,0.021662,0.019575,-1.5026729795,-9.669258833499999,0.6465524345,-1.9771,1.4032,-1.6962,2.999999999997449e-05,-1.999999999990898e-05,2.999999999997449e-05,0.001001471410386312,-0.00037526869024984144,0.0009486471816329001
150000000000.0,1,0.00936535075,-0.116503002,-0.075707338,0.012148,0.026964,0.018502,-1.5042420435,-9.6690627005,0.6458267423999999,-1.9763,1.4031,-1.6967,-7.00000000000145e-05,9.999999999998899e-05,-9.99999999995449e-06,0.00037963880179714415,0.00038175187045808023,5.9610374335550276e-05
150000000000.0,1,0.0289100042,-0.12006281595,-0.07379504124999998,0.01432,0.030147,0.015296,-1.5052227084999998,-9.668964633999998,0.6454050564499999,-1.9759,1.403,-1.6968,-9.99999999995449e-06,-9.999999999998899e-05,-2.0000000000020002e-05,-0.0013717665452124272,0.0003009529326745142,-0.0003766075986453288
150000000000.0,1,0.03394081565,-0.10202838659999999,-0.07842378005,0.010114,0.037642,0.014206,-1.506105307,-9.668866567499999,0.64450284465,-1.9751,1.403,-1.6972,-2.0000000000020002e-05,1.4285714285744433e-05,9.99999999995449e-06,0.0007762779298268185,0.00019321435751429306,8.682954391403541e-05
150000000000.0,1,0.03890298055,-0.08629852,-0.08205224054999999,0.006965,0.041935,0.009921,-1.5065956394999998,-9.668866567499999,0.6430514604500001,-1.9742,1.403,-1.6977,4.999999999999449e-05,1.4285714285744433e-05,2.999999999997449e-05,-0.00024541691855861636,-1.752853458714121e-05,0.0007353404821215381
150000000000.0,1,0.029753376099999996,-0.05021985464999999,-0.06432181734999999,0.004887,0.047284,0.006704,-1.5069879055,-9.668866567499999,0.6417667893,-1.9734,1.403,-1.698,2.999999999997449e-05,1.4285714285744433e-05,4.0000000000040004e-05,-0.00025497755734904537,0.0002538082035301592,0.00046608536963943514
150000000000.0,1,0.025732649599999997,-0.0103362091,-0.06591049465,0.002815,0.052634,0.00242,-1.5071840385,-9.668964633999998,0.6402271452499999,-1.9725,1.403,-1.6984,-9.99999999995449e-06,1.4285714285522388e-05,9.99999999995449e-06,0.0009325575789254081,0.00011770979491942946,0.0004601078367256761
150000000000.0,1,0.023280987099999997,0.0207312581,-0.06479253655,0.004956,0.052619,0.000288,-1.507282105,-9.6690627005,0.63865808125,-1.9716,1.4031,-1.6988,3.999999999992898e-05,1.4285714285744433e-05,4.999999999999449e-05,0.000282829736507173,0.00013377421613336438,-1.353633341971694e-05
150000000000.0,1,0.01301342455,0.0437180457,-0.07534449195,0.007089,0.051538,-0.001841,-1.507282105,-9.669160767,0.6370890172499999,-1.9707,1.4031,-1.6991,3.0000000000085514e-05,1.4285714285744433e-05,3.0000000000085514e-05,0.00022393328798431256,-7.851001348124775e-05,0.0007544350078063644
150000000000.0,1,0.0031185146999999996,0.060850263249999995,-0.08628871334999999,0.00923,0.051523,-0.003972,-1.5073801715000001,-9.669258833499999,0.6356082130999999,-1.9698,1.4032,-1.6995,7.00000000000145e-05,1.4285714285744433e-05,2.0000000000020002e-05,-0.0007793075432187546,-0.00019559264479895866,0.0007532572086910161
150000000000.0,1,-0.00922805765,0.0605854837,-0.06614585425,0.009241,0.05259,-0.00504,-1.5076743709999998,-9.669258833499999,0.63461774145,-1.9692,1.4032,-1.6995,7.999999999996898e-05,3.333333333332966e-05,9.99999999995449e-06,0.00027605720527024147,-7.791389614886235e-05,0.0003755048320059906
150000000000.0,1,-0.018818961349999996,0.022731814700000002,-0.042296081449999995,0.006016,0.050485,-0.003974,-1.5079685704999999,-9.669258833499999,0.6338135961499999,-1.9687,1.4032,-1.6995,7.999999999996898e-05,3.333333333332966e-05,-9.99999999995449e-06,-5.11550549533446e-05,-6.073503458803309e-05,0.0004991098289885976
150000000000.0,1,-0.01564160675,-0.014523648649999998,-0.010395048999999998,0.000688,0.052658,-0.001851,-1.5082627699999998,-9.669258833499999,0.6330388708,-1.9682,1.4032,-1.6995,7.00000000000145e-05,3.333333333332966e-05,1.999999999990898e-05,1.3054035592263702e-05,9.767899036261518e-05,0.0005211662095769842
150000000000.0,1,-0.012160246,-0.02427145875,0.019505426849999997,-0.006804,0.051651,0.00134,-1.5087531024999998,-9.669258833499999,0.63216607895,-1.9676,1.4032,-1.6996,9.00000000000345e-05,5.0000000000105516e-05,3.0000000000085514e-05,1.883208505226719e-05,-0.00013342325528564736,0.0005894856253281233
150000000000.0,1,-0.01624961905,-0.0329895706,0.0387166542,-0.010008,0.051676,0.002402,-1.509439568,-9.669258833499999,0.6310677341500001,-1.9668,1.4032,-1.6999,1.999999999990898e-05,4.999999999988347e-05,-1.0000000000065512e-05,0.0005577616291978504,1.553082701399866e-05,0.00034215768846102
150000000000.0,1,-0.011081514499999999,-0.046091255,0.06970566819999999,-0.01108,0.052747,0.005601,-1.5103221665,-9.669160767,0.6302930087999999,-1.9662,1.4031,-1.7,3.0000000000085514e-05,5.0000000000105516e-05,-6.666666666710341e-06,0.0006409509605704855,0.00011269448806405791,0.00038389816602579785
150000000000.0,1,0.010395048999999998,-0.042756994,0.0817090078,-0.00899,0.049528,0.009879,-1.5111066985,-9.6690627005,0.62996938935,-1.9658,1.4031,-1.6999,2.999999999997449e-05,5.0000000000105516e-05,-6.666666666599319e-06,-0.00022070636647564257,0.00040346769412114014,0.0004580247434784468
