Time,placement_label,user_acc_x(m/s^2),user_acc_y(m/s^2),user_acc_z(m/s^2),rotation_rate_x(rad/s),rotation_rate_y(rad/s),rotation_rate_z(rad/s),gravity_x(m/s^2),gravity_y(m/s^2),gravity_z(m/s^2),attitude_roll(rad),attitude_pitch(rad),attitude_yaw(rad),target_delta_x,target_delta_y,target_delta_z,target_delta_roll,target_delta_pitch,target_delta_yaw
150100000000.0,-1,0.0665283136,-0.0077864801,0.01754409685,-0.10413,0.056787,-0.04927,0.25219761804999996,-2.809997491,-9.392024838,0.026846,0.29062,2.8586,0.0,0.0,0.0,0.0,0.0,0.0
150100000000.0,-1,0.06545938875,-0.01220927925,0.01883857465,-0.025346,-0.025113,-0.059008,0.2532665429,-2.8055844985,-9.393299702499998,0.026956,0.29015,2.858,9.999999999998899e-05,0.00010000000000021103,-3.333333333332966e-05,-0.00022554071465369363,0.0007719123658496141,-0.0007538539771942687
150100000000.0,-1,0.06749917194999999,0.031646059549999994,0.038638201,0.052363,-0.088102,-0.044239,0.249285043,-2.8083303605,-9.392613236999999,0.026534,0.29044,2.8575,9.999999999998899e-05,4.999999999988347e-05,-3.333333333332966e-05,0.00015588481036754587,-0.00015307625472615882,-0.00028816107002491154
150100000000.0,-1,0.051239746249999996,-0.03327396345,-0.007109821249999999,0.092749,-0.12985,-0.013476,0.2396549127,-2.817058279,-9.390259640999998,0.025516,0.29136,2.8572,5.0000000000105516e-05,4.999999999988347e-05,-3.333333333332966e-05,0.00021334329272881813,-0.0008342795451110607,0.00018742410665770204
150100000000.0,-1,0.0646062102,-0.023859579449999998,-0.009610516999999999,0.10014,-0.14278,0.009897,0.22628844874999998,-2.8264726629999997,-9.3878079785,0.0241,0.29236,2.8572,4.999999999988347e-05,0.00010000000000021103,-4.999999999988347e-05,0.0006948337670883986,7.271457950897009e-05,2.7622428328905047e-05
150100000000.0,-1,0.010885381500000001,-0.0183972754,0.0009708583499999999,0.084172,-0.12157,0.017387,0.2137261301,-2.835494781,-9.385356316,0.022768,0.29333,2.8573,9.999999999998899e-05,-2.0000000000131024e-05,-5.0000000000105516e-05,0.0002848812135883283,-0.0015402842053491295,0.0015614388942203905
150100000000.0,-1,-0.02468333805,0.0179265562,0.03421540185,0.066148,-0.079012,0.008969,0.20425290619999997,-2.8420652365,-9.383591119,0.021763,0.29402,2.8575,9.999999999998899e-05,-2.0000000000131024e-05,-9.999999999998899e-05,-0.00028006149341536224,-0.0012103942114960464,0.0008342078401242792
150100000000.0,-1,-0.020123245799999998,0.022682781449999998,0.0328718908,0.045994,-0.03959,-0.004775,0.1996830073,-2.8467724284999996,-9.382218188,0.02128,0.29453,2.8574,9.999999999998899e-05,-1.9999999999686935e-05,-9.999999999998899e-05,3.415797450706526e-05,-0.0013039038193316532,0.0008877326946821751
150100000000.0,-1,-0.05098477334999999,0.030910560799999997,-0.020927391099999998,0.031155,-0.008674,-0.018536,0.1973294113,-2.849224091,-9.3815317225,0.02103,0.29479,2.8573,9.999999999998899e-05,-2.0000000000131024e-05,1.999999999990898e-05,-0.0002974644786550851,-0.0001732347348133434,-1.0865570328033591e-05
150100000000.0,-1,-0.06632237395,-0.03156760635,0.03146953985,0.022691,0.024217,-0.016336,0.19770206399999998,-2.852558352,-9.3805510575,0.021073,0.29514,2.8572,9.999999999998899e-05,-2.0000000000131024e-05,2.0000000000131024e-05,0.00047530880439727863,0.0012204257000345553,-0.0004373373948149961
150100000000.0,-1,-0.0712943455,-0.030655587899999996,0.0310870805,0.006735,0.057052,-0.002439,0.20267403555,-2.8534409505,-9.3801587915,0.021603,0.29524,2.8571,9.999999999998899e-05,-9.999999999976694e-05,1.999999999990898e-05,-0.0001831081453698702,0.00099330239173967,-0.0007644871946739795
150100000000.0,-1,-0.03560794615,-0.05231847775,0.028870777599999998,-0.008184,0.078201,0.013561,0.2085874455,-2.8544216154999997,-9.3797665255,0.022235,0.29534,2.8572,0.00010000000000021103,-0.00010000000000021103,2.0000000000131024e-05,-0.00031085382369766545,0.00020303544970645682,4.435825785176206e-05
150100000000.0,-1,-0.02199631595,-0.066096821,0.07632515695,-0.012483,0.080203,0.031647,0.21548152045,-2.853342884,-9.379864591999999,0.022969,0.29523,2.8575,4.999999999988347e-05,-0.0005999999999999339,1.999999999990898e-05,-0.00028030878531720704,0.0009583741757954733,-0.00031601436908373914
150100000000.0,-1,-0.026654474699999996,-0.06693038625,0.0764722567,-0.008303,0.05357,0.045416,0.22012987255,-2.8524602855,-9.380060725,0.023464,0.29514,2.858,5.0000000000105516e-05,-0.0005999999999999339,0.00019999999999997797,-0.0008807151928933443,0.0003781905006534636,-5.37659378108124e-06
150100000000.0,-1,0.1070690047,-0.029468983249999997,0.04186458885,0.007563,-0.000632,0.052743,0.22287573454999998,-2.8539312829999997,-9.3795703925,0.023758,0.29529,2.8584,-0.0009000000000001229,-0.0005999999999999339,0.00019999999999997797,0.008404978265974694,0.005294531152213677,0.030492058142803258
150100000000.0,-1,0.1246032949,-0.0501904347,0.049778555399999994,0.031966,-0.056967,0.056876,0.21716826425,-2.8563829454999996,-9.378981993499998,0.023151,0.29555,2.859,9.999999999998899e-05,-0.00010000000000021103,-4.999999999988347e-05,-0.0005451320784403135,-7.359264507433849e-05,0.00042376518001296937
150100000000.0,-1,0.09829205295,0.011052094549999999,0.07690374929999999,0.055379,-0.093027,0.0451,0.21026438265,-2.8616785365,-9.377510996,0.022418,0.29612,2.8594,9.999999999998899e-05,-9.999999999976694e-05,-5.0000000000105516e-05,0.0007616780920838839,-0.0006613877726493467,0.00024238841798765454
150100000000.0,-1,-0.04139386965,-0.0175539035,0.10711803795,0.061809,-0.10241,0.020615,0.20000662675,-2.868837391,-9.375549666,0.02133,0.29688,2.8597,3.333333333332966e-05,-0.00010000000000021103,-5.0000000000105516e-05,0.0007755568206444519,-0.00023391170398934236,0.00064350359918805
150100000000.0,-1,-0.0933396947,-0.05512317965,0.17074358315,0.04804,-0.083063,-0.007,0.1891114386,-2.876290445,-9.3734902695,0.020172,0.29768,2.8598,3.333333333332966e-05,-4.999999999988347e-05,-4.999999999988347e-05,0.0013569203549740894,-0.00020036179961091527,0.00020869294419983975
150100000000.0,-1,-0.08945626129999999,-0.05204389155,0.1698707913,0.027908,-0.033044,-0.019656,0.18522800519999996,-2.8793305064999997,-9.372607670999999,0.01976,0.298,2.8596,3.333333333332966e-05,-4.999999999988347e-05,-9.999999999998899e-05,0.0004116341773012233,-0.0007800514441742568,-1.4011815693271146e-05
150100000000.0,-1,-0.0829838723,-0.11428669909999999,0.16066234695,-0.000783,0.021096,-0.012094,0.18234485009999998,-2.8875680924999996,-9.370156008499999,0.019458,0.29888,2.8595,-1.4285714285744433e-05,-0.00010000000000021103,1.666666666655381e-05,-5.1881841266254725e-05,-0.00042659799143618393,-0.00013885276110750522
150100000000.0,-1,-0.0829838723,-0.11428669909999999,0.16066234695,-0.000783,0.021096,-0.012094,0.18234485009999998,-2.8875680924999996,-9.370156008499999,0.019458,0.29888,2.8595,-1.4285714285744433e-05,-9.999999999976694e-05,1.6666666666775853e-05,0.0005373970387297922,0.0003342632372349552,-0.00012764741521764655
150100000000.0,-1,-0.051769305349999996,-0.11389443309999998,0.150237878,-0.023144,0.061291,0.01352,0.18584582414999998,-2.8896274889999995,-9.3693714765,0.019833,0.2991,2.8596,-1.4285714285744433e-05,-0.00010000000000021103,1.6666666666775853e-05,0.00014485702763444852,0.0005502903040162099,-0.0004378520351483173
150100000000.0,-1,-0.02986124925,-0.014366742249999998,0.09379080059999999,-0.046592,0.11298,0.062561,0.19969281395,-2.8859009619999996,-9.370254075,0.021308,0.2987,2.8607,-1.4285714285522388e-05,-9.999999999976694e-05,1.666666666655381e-05,-0.0008242221605961331,0.0001929499491934994,-0.00041719287638947167
150100000000.0,-1,-0.00559959715,-0.0201036325,0.05207331149999999,-0.047656,0.11404,0.062563,0.20865609205,-2.8822725014999997,-9.37123474,0.022262,0.29832,2.8614,-1.4285714285744433e-05,-0.00010000000000021103,1.666666666655381e-05,-0.001212778673357895,0.00022261157559722022,-0.0002092083992333016
150100000000.0,-1,-0.012778064949999998,-0.0242616521,0.053181462949999994,-0.044493,0.082344,0.045473,0.21583455985,-2.8781537084999997,-9.372313471499998,0.023025,0.29787,2.8619,-1.4285714285744433e-05,-9.999999999976694e-05,1.6666666666775853e-05,-9.37010890032508e-05,0.00030059194717035886,-3.2868187124779347e-06
150100000000.0,-1,-0.021378497,-0.03329357675,0.020123245799999998,-0.039247,0.016797,0.015543,0.21770762999999999,-2.8755059129999996,-9.373098003499999,0.023223,0.29759,2.8622,-1.4285714285744433e-05,-9.999999999976694e-05,3.333333333332966e-05,0.00027258345593489386,0.00025546186796798764,-0.0001223476595346995
150100000000.0,-1,-0.01862282835,-0.036304218299999996,0.021103910799999997,-0.028652,-0.048715,-0.021831,0.2149421547,-2.8724658515,-9.3740786685,0.022926,0.29727,2.8621,-9.999999999998899e-05,-0.00010000000000021103,3.333333333332966e-05,0.0006308884842832763,2.728858722234051e-05,-4.763733282944771e-05
150100000000.0,-1,-0.054721107,-0.0253796102,0.08197378735,-0.008425,-0.086815,-0.043185,0.20720470784999998,-2.8721716519999996,-9.3742748015,0.0221,0.29724,2.8617,-3.333333333332966e-05,-0.00010000000000021103,3.333333333332966e-05,-0.0007187176018405572,-0.00012915828763992998,-9.353740524964405e-05
150100000000.0,-1,-0.08693595224999999,-0.00579573015,0.0753935252,0.018234,-0.091181,-0.04106,0.19767264405,-2.8738387824999996,-9.373980602,0.021084,0.29741,2.8614,-3.333333333332966e-05,-9.999999999976694e-05,-1.0000000000065512e-05,0.0004692182939288192,-0.00021534328830385974,-9.096465445249113e-05
150100000000.0,-1,-0.11872911154999999,-0.03501954715,0.06914668915,0.045986,-0.067063,-0.019724,0.18861129945,-2.8787421074999995,-9.372705737499999,0.020121,0.29794,2.8612,-3.333333333332966e-05,-0.00010000000000021103,-9.999999999843467e-06,-2.536482959064612e-05,0.0006093682974093184,5.538671839289133e-05
150100000000.0,-1,-0.13284088089999999,-0.07204945755,0.0994590443,0.049226,-0.02698,0.00696,0.18207026389999997,-2.8857048290000002,-9.3707444075,0.019427,0.29868,2.8613,-9.999999999998899e-05,-0.00019999999999997797,-1.0000000000065512e-05,0.00034983778445990543,0.0002801981664235509,5.651226617031657e-05
150100000000.0,-1,-0.1037151304,-0.0536423755,0.021045070899999997,0.02793,0.007945,0.027245,0.17629414705,-2.8913926859999997,-9.369077276999999,0.018814,0.29929,2.8616,-4.999999999988347e-05,-0.00010000000000021103,-1.0000000000065512e-05,-0.0004615777216379069,-0.00021203516563006453,-0.00017621982988394458
150100000000.0,-1,-0.10513709464999998,-0.0536619888,0.0210254576,-0.01044,0.031372,0.034734,0.17770630465,-2.8913926859999997,-9.369077276999999,0.018965,0.29928,2.862,-5.0000000000105516e-05,-9.999999999976694e-05,-1.0000000000065512e-05,-0.0001527212206118289,0.0007609887150983319,1.1865630221347123e-05
150100000000.0,-1,-0.07373620134999999,-0.050945546749999994,0.05665301705,-0.04561,0.043209,0.030497,0.17907923564999997,-2.8892352229999996,-9.369665675999999,0.01911,0.29906,2.8624,-9.999999999998899e-05,-0.00019999999999997797,-9.999999999843467e-06,0.0004936905856012253,5.796307999350603e-06,-0.0001756111996311649
150100000000.0,-1,-0.07009793419999999,0.022771041299999996,0.0093359308,-0.066923,0.044432,0.019859,0.18007951395,-2.8839396319999997,-9.37123474,0.019214,0.2985,2.8627,-9.999999999998899e-05,-0.00010000000000021103,-1.0000000000065512e-05,-0.00039096844220770643,0.00016570424291728614,3.7014394104056825e-05
150100000000.0,-1,-0.07388330109999999,0.016475172,0.0111991943,-0.065835,0.043455,0.008156,0.1838746875,-2.8776633759999997,-9.373098003499999,0.019614,0.29783,2.8629,-9.999999999998899e-05,-9.999999999976694e-05,-1.0000000000065512e-05,-0.0012710834704582341,0.0013100643440140392,0.0006470274639019391
150100000000.0,-1,-0.0538385085,0.0275370732,0.00687446165,-0.046635,0.030748,-0.004632,0.18596350395,-2.8721716519999996,-9.374765134,0.019834,0.29724,2.8629,-9.999999999998899e-05,-0.00019999999999997797,-9.999999999843467e-06,-0.0003287780948049157,-0.000739340293722579,-0.000304755656535427
150100000000.0,-1,-0.038648007649999996,0.015072821049999999,-0.054122901349999995,-0.02428,0.004193,-0.011067,0.18560065789999997,-2.8680528589999996,-9.3760399985,0.019792,0.2968,2.8628,-9.999999999998899e-05,-0.00019999999999997797,-1.0000000000065512e-05,0.001020595199880181,-0.000846618129703991,-0.0010535464052555121
150100000000.0,-1,-0.035882532349999996,0.027036934049999996,-0.0202801522,-0.001952,-0.035087,-0.017532,0.18282537594999998,-2.866679928,-9.376530331,0.019496,0.29666,2.8627,-9.999999999998899e-05,-0.000300000000000189,-4.999999999988347e-05,0.0005093736696657469,-0.00030058686367739895,-0.0013014667016928438
150100000000.0,-1,-0.031057660549999998,0.02872367785,-0.02070183815,0.025722,-0.061725,-0.015458,0.17800050415,-2.8684451249999996,-9.376138065,0.018982,0.29684,2.8625,-9.999999999998899e-05,-0.00019999999999997797,-5.0000000000105516e-05,0.000644911540826909,0.0004603345076390486,-0.0005977244905994994
150100000000.0,-1,-0.0521125381,0.05522124614999999,0.0191621941,0.049176,-0.066086,-0.01227,0.17092010284999998,-2.8715832530000003,-9.3752554665,0.018229,0.29717,2.8624,-9.999999999998899e-05,-0.0002999999999997449,-9.999999999998899e-05,0.0013633027482475302,0.0007247977082085466,-0.0007176503724553862
150100000000.0,-1,-0.06059529034999999,0.022261095499999998,-0.0203782187,0.058786,-0.057681,-0.00693,0.16414370769999997,-2.876486578,-9.3738825355,0.017509,0.29769,2.8624,-9.999999999998899e-05,-0.00020000000000042206,-0.00019999999999997797,4.238880740775608e-05,-0.00125908503699379,-0.000936821861857895
150100000000.0,-1,-0.0778844143,0.017995202749999998,0.03819690175,0.057759,-0.033344,0.000571,0.15869121029999997,-2.8818802355,-9.372313471499998,0.016931,0.29828,2.8624,-9.999999999998899e-05,-0.00019999999999997797,-4.999999999988347e-05,0.0005124723145125687,0.0008616011113573574,-0.00013750741783044584
150100000000.0,-1,-0.08311135874999999,-0.0174362237,0.043345393,0.038696,-0.007871,0.002853,0.15553346899999998,-2.886685494,-9.370842474,0.016596,0.29879,2.8625,-0.00010000000000021103,-0.00019999999999997797,-5.0000000000105516e-05,0.0012001935295014032,0.00016456936415698564,-0.00039473254472477404
150100000000.0,-1,-0.043482686099999994,-0.06253700705,0.034391921549999996,0.014186,0.002839,0.001807,0.15466067714999998,-2.8901178215,-9.369861809,0.016505,0.29915,2.8625,-9.999999999998899e-05,-0.00019999999999997797,-5.0000000000105516e-05,-0.00022306075354844301,2.9356793448620522e-05,0.00016030156653676353
150100000000.0,-1,-0.0557802252,-0.04850369089999999,0.1005377758,-0.004998,0.006136,-0.003508,0.15409189145,-2.891588819,-9.3693714765,0.016445,0.29931,2.8625,-9.999999999998899e-05,-0.00019999999999997797,-5.0000000000105516e-05,-0.00039130071004267464,-0.0003712866845466678,-0.00041178186753473844
150100000000.0,-1,-0.0376771493,-0.03064578125,0.13981340905,-0.019916,0.008364,-0.009889,0.1543958976,-2.8912946194999996,-9.369469543,0.016477,0.29928,2.8625,0.0024000000000001798,-0.0009999999999998899,-0.0012999999999998568,-0.010240520199448933,-0.015910274820177595,-0.005370925038918228
150100000000.0,-1,-0.00726672765,-0.023251567149999996,0.11101127799999999,-0.026323,0.00626,-0.008832,0.15525888279999997,-2.890019755,-9.369861809,0.016569,0.29914,2.8624,-9.999999999998899e-05,-9.999999999976694e-05,-9.999999999998899e-05,-0.00010872400453182385,0.0004528800981615788,-0.0004169242883461377
150100000000.0,-1,-0.027644946349999998,-0.022967174299999997,0.09212367009999999,-0.029532,0.003083,-0.007776,0.15528830274999997,-2.888254558,-9.370450208,0.016571,0.29895,2.8623,-0.000300000000000189,-0.00020000000000042206,0.00019999999999997797,-0.0006758935218326712,0.0008000494806192915,-0.0008500202268764134
150100000000.0,-1,-0.05207331149999999,0.0152199208,0.10204799989999999,-0.023129,0.00096,-0.01097,0.1547293237,-2.8861951615,-9.371038607,0.01651,0.29873,2.8622,-0.0026999999999999247,0.000600000000000378,0.0010999999999998789,0.011628147477201423,0.0159868781177126,0.0040691428127838936
150100000000.0,-1,-0.03672590425,0.0393835064,0.09929233124999999,-0.01353,-0.007499,-0.019496,0.1540428582,-2.8844299644999998,-9.371627006,0.016436,0.29855,2.8621,-9.999999999998899e-05,-0.00010000000000021103,-3.333333333332966e-05,-0.00025212166073423914,0.0006443630300934089,-0.000488645661400694
150100000000.0,-1,-0.03982480565,0.0052857843499999994,0.0734321952,0.000315,-0.020265,-0.021648,0.152199208,-2.8844299644999998,-9.371627006,0.016239,0.29855,2.8619,-0.00019999999999997797,-0.00019999999999997797,-3.333333333332966e-05,-0.000334809901897104,-0.0007126189447430598,-0.0004919288201620242
150100000000.0,-1,-0.0510730332,0.01793636285,0.10384261684999999,0.009911,-0.02138,-0.019521,0.1496887056,-2.8854106295,-9.3713328065,0.015972,0.29865,2.8617,-9.999999999998899e-05,-9.999999999976694e-05,-3.333333333332966e-05,0.00042761315248002196,-0.00038101227335429755,-0.0001195460548824856
150100000000.0,-1,-0.03635325154999999,-0.0063154826,0.12182801295,0.010997,-0.016059,-0.022699,0.14798234849999997,-2.8873719595000003,-9.3707444075,0.015791,0.29886,2.8615,-9.999999999998899e-05,-0.00020000000000042206,-9.999999999998899e-05,0.00041472853019547395,-0.000788216900260652,-3.063975868383695e-06
150100000000.0,-1,-0.013807763199999998,-0.016337878899999998,0.1368616074,0.005657,-0.023421,-0.028036,0.14653096429999998,-2.8891371564999995,-9.370254075,0.015637,0.29905,2.8612,-0.00019999999999997797,-0.00019999999999997797,-4.999999999988347e-05,-0.0006329122161247147,8.536112003354468e-05,0.0005108889399647321
150100000000.0,-1,0.008257199299999999,-0.01222889255,0.12150439349999999,-0.015682,-0.035966,-0.040834,0.1446677008,-2.8891371564999995,-9.3703521415,0.015438,0.29904,2.8608,-0.00019999999999997797,-9.999999999976694e-05,-5.0000000000105516e-05,-0.0001672189720864914,0.0004283416600121548,0.00016411484075051774
150100000000.0,-1,-0.0040795664,-0.011463973849999998,0.12428948209999999,-0.030613,-0.044302,-0.052557,0.14204932525,-2.8874700259999995,-9.370842474,0.015157,0.29887,2.8603,-0.0001500000000000945,-0.00019999999999997797,-9.999999999998899e-05,-0.0006998610231860325,-0.0001104402570493157,-2.942697923938309e-05
150100000000.0,-1,-0.0013925443,-0.0154160538,0.1255447333,-0.045539,-0.045255,-0.058945,0.13936230314999998,-2.883547366,-9.372117338499999,0.014868,0.29845,2.8597,-0.0001500000000000945,-0.00010000000000021103,-9.999999999998899e-05,1.1577355383318721e-05,0.0018447483961374633,-0.00015031895371439563
150100000000.0,-1,0.0108657682,-0.0117287534,0.09331027474999999,-0.057278,-0.042066,-0.053623,0.13712638694999998,-2.8789382404999997,-9.3734902695,0.014628,0.29796,2.8591,-0.00029999999999996696,-9.999999999976694e-05,-5.0000000000105516e-05,0.0002805723317714226,0.0010747293627120236,-0.0010634316310132452
150100000000.0,-1,-0.0120033396,0.03082230095,0.0684111904,-0.061538,-0.028351,-0.041892,0.1351552503,-2.8728581175,-9.3754515995,0.014415,0.29732,2.8587,-9.999999999998899e-05,-0.00019999999999997797,-4.999999999988347e-05,-0.0008206197243822433,-0.0011050646588020019,-0.0014552823434234308
150100000000.0,-1,-0.0112188076,0.025212897149999997,0.07014696744999999,-0.058327,-0.014658,-0.031224,0.1343707183,-2.8672683269999997,-9.37711873,0.014329,0.29672,2.8583,-9.999999999998899e-05,-0.00019999999999997797,1.6666666666775853e-05,-0.00034608390804086175,-0.0003510604774779047,-0.0014894594164288344
150100000000.0,-1,-0.0395992527,0.09380060725,-0.03949137955,-0.048709,-0.000959,-0.024808,0.13387057915,-2.8603056055,-9.379276192999999,0.014272,0.29597,2.8581,-0.00019999999999997797,-0.00019999999999997797,1.666666666655381e-05,-3.3653204747075005e-05,0.0002552383946228254,-0.0011796150474396305
150100000000.0,-1,-0.0503669544,0.12139652034999998,0.0097478101,-0.026275,0.015895,-0.021573,0.13461588454999998,-2.8548138814999997,-9.3809433235,0.014349,0.29539,2.8579,-0.00019999999999997797,-0.00019999999999997797,1.666666666655381e-05,-0.0001385546571952001,-0.0009769530861085673,-0.0015058704245244081
150100000000.0,-1,-0.0528186169,0.1205041152,0.009983169699999999,-0.003868,0.017918,-0.020499,0.13706754705,-2.8539312829999997,-9.3811394565,0.014609,0.29529,2.8577,-0.00019999999999997797,-0.00019999999999997797,1.6666666666775853e-05,-0.0013566244490773594,-5.3745386436654385e-05,-0.00027548769814730867
150100000000.0,-1,0.0528186169,0.12083754129999999,-0.0748443528,0.017409,-0.00867,-0.021617,0.13871506425,-2.8523622189999998,-9.381629789,0.014785,0.29512,2.8574,-0.00019999999999997797,-0.00020000000000042206,1.6666666666775853e-05,-0.00014909920200811833,0.0004657131462235675,0.00025404306547407995
150100000000.0,-1,0.07083343295,0.12910454724999998,-0.0391873734,0.032291,-0.037313,-0.02806,0.1382149251,-2.8522641524999996,-9.3817278555,0.014731,0.29511,2.8571,-0.00019999999999997797,-0.00019999999999997797,1.666666666655381e-05,0.0007291119550648095,0.00017350343567645865,-0.00017652994177655423
150100000000.0,-1,0.0753346853,0.13283107425,-0.040256298249999996,0.041852,-0.063791,-0.037691,0.13370386609999999,-2.8559906794999996,-9.380649124,0.014253,0.29551,2.8567,-0.00019999999999997797,-0.00019999999999997797,-9.999999999998899e-05,-0.0003953985965048923,-0.00037824925599250214,-9.89749628848291e-05
150100000000.0,-1,0.012866324799999999,0.056682437,0.014847268099999998,0.035455,-0.070057,-0.04728,0.1285455682,-2.858442342,-9.379962658499998,0.013703,0.29578,2.8562,-0.00020000000000020002,-0.00019999999999997797,-9.999999999998899e-05,-0.00014267274268625618,-0.0010306987807886525,-0.00040081665707422665
150100000000.0,-1,-0.032509044749999993,0.019436780299999998,0.07734504854999999,0.01313,-0.042332,-0.055732,0.12454445499999998,-2.8603056055,-9.379472325999998,0.013277,0.29597,2.8557,-9.999999999998899e-05,-0.0002999999999997449,-9.999999999998899e-05,0.000871713329589463,-0.0003992400752661496,-0.0007095444279368035
150100000000.0,-1,-0.03331319005,0.0187503148,0.07754118155,-0.013443,0.002307,-0.054575,0.12533879365,-2.85961914,-9.379668459,0.013362,0.2959,2.8551,-0.00019999999999997797,-0.00019999999999997797,-0.00019999999999997797,0.001094039416320025,-0.00020561508769612047,-0.0008301014008281205
150100000000.0,-1,0.00314793465,-0.04492426365,0.10573530029999999,-0.042191,0.03733,-0.042802,0.1297223662,-2.8577558764999997,-9.3801587915,0.013829,0.2957,2.8546,-9.999999999998899e-05,-0.00019999999999997797,-9.999999999998899e-05,0.0009114575008210557,0.0005536540945034751,-0.0004383246349174974
150100000000.0,-1,0.0204762852,-0.01368027675,0.11326680749999998,-0.060328,0.051069,-0.026821,0.1357436493,-2.853342884,-9.381335589499999,0.014468,0.29523,2.8543,-9.999999999998899e-05,-0.00019999999999997797,-9.999999999998899e-05,-2.70266116605411e-05,1.938186380168183e-05,-0.00011527347419415523
150100000000.0,-1,0.015288567349999999,-0.019417167,0.11493393799999999,-0.059288,0.046759,-0.018321,0.14093136715,-2.847655027,-9.383002719999999,0.015019,0.29462,2.8541,1.4285714285744433e-05,-0.00019999999999997797,-9.999999999998899e-05,0.0010479169326281235,0.00030333745069088813,0.00015054587938673203
150100000000.0,-1,0.0264583417,0.055172212899999996,0.06860732339999999,-0.043329,0.019195,-0.027952,0.14487364044999998,-2.8423594359999997,-9.384571784,0.015437,0.29406,2.8538,1.4285714285744433e-05,-0.00019999999999997797,-3.333333333332966e-05,-0.00017739583939951897,-0.0012325048713865971,-0.0005180026320295572
150100000000.0,-1,0.0019221033999999998,0.10535284095,0.08830888325,-0.015628,-0.015752,-0.049298,0.14562875249999999,-2.8385348424999997,-9.385748582,0.015514,0.29365,2.8534,1.4285714285744433e-05,-0.00020000000000042206,-3.333333333332966e-05,0.0007066023275373867,-0.0008050538650401506,-0.00033082585806631926
150100000000.0,-1,0.0042168595,0.10578433354999998,0.08821081674999999,0.013135,-0.054928,-0.07278,0.14332418975,-2.8389271085,-9.3856505155,0.01527,0.29369,2.8527,1.4285714285522388e-05,-9.999999999976694e-05,-3.333333333332966e-05,-0.00042961913892408665,-0.0006106485357448843,-0.00028025848575349843
150100000000.0,-1,-0.036843584049999996,0.10680422514999999,-0.014513841999999999,0.037608,-0.094169,-0.085626,0.1368027675,-2.8395155074999994,-9.385552449,0.014575,0.29375,2.8518,1.4285714285744433e-05,-0.00010000000000021103,2.4999999999941735e-05,-9.975533476930254e-05,-0.0001590323077382827,0.00010798268856354598
150100000000.0,-1,-0.06710690595,0.0673716855,-0.026615248099999995,0.057835,-0.11123,-0.083532,0.1274079968,-2.8428497685,-9.3846698505,0.013576,0.29411,2.851,1.4285714285744433e-05,-9.999999999976694e-05,2.4999999999941735e-05,-0.00030220978368022955,-0.00015214678235886403,0.0002597273938036715
150100000000.0,-1,-0.0595655921,0.0740009809,-0.02852754485,0.075983,-0.098645,-0.074989,0.1198764896,-2.8495182905,-9.382806587,0.012775,0.29482,2.8502,1.4285714285744433e-05,-0.00010000000000021103,2.500000000016378e-05,-1.8741795186849597e-05,-0.0008555898236679571,0.00025914315958805445
150100000000.0,-1,-0.05276958365,0.0091790244,0.02181979625,0.085628,-0.070132,-0.064285,0.1132275809,-2.8573636105,-9.380452990999999,0.01207,0.29566,2.8495,0.000500000000000167,-0.0002999999999997449,2.4999999999941735e-05,-0.00306630894208082,-0.00238477936895376,0.0008492154114533579
150100000000.0,-1,-0.00344213415,-0.038245934999999995,0.08050278984999999,0.077163,-0.035142,-0.05889,0.1107366918,-2.8661895954999994,-9.377805195499999,0.011808,0.2966,2.8489,0.0005999999999999339,-0.000300000000000189,-9.999999999998899e-05,-0.003996981722605986,-0.0023809147500959416,0.002177934348907673
150100000000.0,-1,-0.00381478685,-0.03276401765,0.07882585269999999,0.051608,-0.004358,-0.049254,0.11109953785,-2.8716813194999995,-9.376138065,0.011849,0.29719,2.8483,0.0016000000000000458,-0.00019999999999997797,-0.001100000000000101,-0.002947630285065228,-0.010908162017273515,-0.004989168024594981
150100000000.0,-1,0.031400893299999996,-0.0547603336,0.14324573655,0.01218,0.022255,-0.041758,0.11390423975,-2.8738387824999996,-9.3754515995,0.012148,0.29741,2.8478,-0.0025000000000001688,0.000700000000000145,0.0014000000000000679,0.008981757321334494,0.015090574668082501,0.0048995856105706614
150100000000.0,-1,0.14122556665,-0.0811794487,0.20421367959999998,-0.023001,0.03931,-0.034284,0.12198491935,-2.875702046,-9.374765134,0.013011,0.29761,2.8474,0.000600000000000156,-0.00024999999999986144,-5.0000000000105516e-05,0.00022661742305241095,0.00019085465575607863,0.0005414380335956037
150100000000.0,-1,0.1359005557,-0.08507268875,0.20534144434999999,-0.045386,0.046831,-0.035336,0.12730993029999998,-2.8717793859999996,-9.375843865499998,0.013577,0.29719,2.847,0.0005999999999999339,-0.00025000000000030553,-4.999999999988347e-05,-0.007021640554831565,-0.005779470889865745,0.0014041824794982227
150100000000.0,-1,0.157690932,-0.0812579019,0.20549835075,-0.056043,0.041659,-0.047051,0.13260552129999997,-2.8665818615,-9.3774129295,0.01414,0.29664,2.8466,0.0015000000000000568,-0.0002999999999997449,-0.001000000000000112,-0.0032598774010089704,-0.010375342387022979,-0.005501130341645177
150100000000.0,-1,0.1627315501,-0.02837063845,0.1357044227,-0.054959,0.036459,-0.060892,0.14238275135,-2.8629534009999995,-9.3783935945,0.015181,0.29625,2.8458,-0.0025000000000001688,0.0006999999999997009,0.0013000000000000789,0.009651025306336714,0.01561694112690204,0.004772206443932475
150100000000.0,-1,0.1585146906,-0.03296015065,0.1370381271,-0.046456,0.021587,-0.061987,0.14659961085,-2.8583442755,-9.379668459,0.015628,0.29576,2.8452,0.00010000000000021103,-0.0002666666666666373,9.999999999998899e-05,-0.0005940805281959283,-0.0007570860455179407,-1.6844495322410058e-05
150100000000.0,-1,0.1817956777,-0.03615711855,0.09250612945,-0.043329,-0.000784,-0.050336,0.14860016745,-2.854127416,-9.3809433235,0.015839,0.29531,2.8446,0.0012499999999999734,-0.0002666666666666373,-0.0005500000000000504,-0.000742193818275394,-0.0012407658072630667,4.766277999823654e-05
150100000000.0,-1,0.15966206865,0.0863181333,-0.055083953049999995,-0.036976,-0.008342,-0.035461,0.1535329124,-2.8475569605,-9.382904653499999,0.016361,0.29462,2.8441,0.0012499999999999734,-0.0002666666666666373,-0.0005500000000000504,-0.009322551006952229,-0.0152132017828146,-0.0043505047470088765
150100000000.0,-1,0.1587500502,0.08405279715,-0.0544072942,-0.018823,0.005316,-0.027979,0.15444493085,-2.8453014309999998,-9.383493052499999,0.016457,0.29437,2.8438,9.999999999998899e-05,-9.999999999976694e-05,-3.333333333332966e-05,0.000170044759391641,-0.0007928812374473626,0.0007391017808018874
150100000000.0,-1,0.13754807289999998,0.11158987035,-0.03192064575,-0.003873,0.021084,-0.017303,0.15664162045,-2.8446149655,-9.3836891855,0.016691,0.29429,2.8436,4.999999999988347e-05,-4.999999999988347e-05,-3.333333333332966e-05,0.0007921930976538261,-0.0005107223113918202,0.000498198804704808
150100000000.0,-1,0.1391563635,0.0947518523,-0.14196106539999997,0.00252,0.023142,-0.011979,0.1634180156,-2.8408884385,-9.384767917,0.017411,0.2939,2.8433,5.0000000000105516e-05,-5.000000000032756e-05,-3.333333333332966e-05,0.0004901331934104025,-0.0007545698757394081,0.000346486949907604
150100000000.0,-1,0.13687141405,0.0950264385,-0.1420787452,0.002507,0.020989,-0.007729,0.16570296504999998,-2.841182638,-9.384571784,0.017655,0.29393,2.8432,5.0000000000105516e-05,-2.0000000000131024e-05,-1.4285714285744433e-05,0.0004819792424567426,-0.000544037550043619,0.0005037308976038324
150100000000.0,-1,0.1292712603,0.0918098573,-0.127682583,0.008881,0.018773,0.00184,0.1713417888,-2.838240643,-9.385356316,0.018255,0.29362,2.8431,4.999999999988347e-05,-1.9999999999686935e-05,-1.4285714285744433e-05,0.0001315027136181146,-0.0006454343801194362,0.0004045075268507836
150100000000.0,-1,0.09431055305,0.09332008139999999,-0.09372215404999999,0.019555,0.030325,0.011441,0.17638240689999998,-2.8364754459999997,-9.3858466485,0.018791,0.29343,2.8431,4.999999999988347e-05,-2.0000000000131024e-05,-1.4285714285744433e-05,-7.583006291045358e-05,-0.00037759209165488805,0.00035413092747554886
150100000000.0,-1,0.0906526726,0.09620323649999998,-0.09466359245,0.03344,0.05136,0.027448,0.18004028735,-2.8393193745,-9.3848659835,0.019182,0.29374,2.8433,5.0000000000105516e-05,-1.9999999999686935e-05,-1.4285714285522388e-05,-5.622755223266829e-05,-0.00015459713629883964,0.00033629145953506523
150100000000.0,-1,0.08752435125000001,0.089632781,-0.09210405679999999,0.03664,0.066066,0.044501,0.18481612590000002,-2.842947835,-9.3836891855,0.019693,0.29412,2.8437,9.999999999998899e-05,-2.0000000000131024e-05,-1.4285714285744433e-05,-0.0001464908371042184,-0.0003265018582188084,0.00046663887537448656
150100000000.0,-1,0.1087949751,0.05076902705,-0.0565451439,0.030221,0.067082,0.054074,0.1931713917,-2.8440265664999997,-9.383198853,0.020584,0.29424,2.8441,9.999999999998899e-05,-2.0000000000131024e-05,-1.4285714285744433e-05,-0.00011639912196026447,-0.00012158106084969589,0.00016567119609275927
150100000000.0,-1,0.10420546289999999,0.053259916149999996,-0.0573885158,0.022747,0.062886,0.051935,0.19776090389999998,-2.8465762954999994,-9.3823162545,0.021075,0.29451,2.8447,9.999999999998899e-05,-2.0000000000131024e-05,-1.4285714285744433e-05,0.00011244679404753821,-0.0003973452292715951,0.0004098730470116496
150100000000.0,-1,0.08471964935000001,0.03965809259999999,-0.028792324399999996,0.014211,0.048193,0.035944,0.20153646414999998,-2.848243426,-9.3817278555,0.021478,0.29468,2.8451,9.999999999998899e-05,-1.9999999999686935e-05,1.2499999999970868e-05,8.757584825630493e-05,0.00018653137251956053,0.00024180565688994293
150100000000.0,-1,0.07162777159999999,0.0449929102,-0.0035990405499999995,0.015267,0.033432,0.02421,0.20670456869999998,-2.8481453595,-9.381629789,0.022029,0.29468,2.8453,0.00019999999999997797,-2.0000000000131024e-05,1.2499999999970868e-05,-0.0003944168970392292,0.00011394396167863086,0.0005684194250857588
150100000000.0,-1,0.03201871225,0.009296704199999999,0.04457122425,0.025911,0.02068,0.022057,0.20935236419999997,-2.8504989554999995,-9.3809433235,0.022313,0.29492,2.8455,9.999999999998899e-05,-2.0000000000131024e-05,1.2499999999970868e-05,-0.00022352077563653205,0.0003885080990073675,0.00048757679471408966
150100000000.0,-1,0.00330484105,0.055083953049999995,0.08732821824999999,0.045108,0.015325,0.018858,0.2105291622,-2.8534409505,-9.379962658499998,0.02244,0.29524,2.8457,0.00019999999999997797,0.0001285714285712558,1.2499999999970868e-05,-0.00021184359981157863,0.0002562748992869235,0.0003318410310576836
150100000000.0,-1,-0.06142885559999999,0.0480721983,0.09421248654999999,0.060053,0.017401,0.01674,0.20971521025,-2.858442342,-9.378491661,0.022358,0.29577,2.8459,0.00020000000000020002,0.0001285714285716999,1.2500000000192912e-05,0.00027014903879346575,0.0003267921596301626,0.00045110889917177044
150100000000.0,-1,-0.028047019,0.06559668184999999,0.11286473485,0.059034,0.030202,0.007195,0.21120582105,-2.863345667,-9.376922597,0.02252,0.2963,2.846,9.999999999998899e-05,0.0001285714285712558,1.2499999999970868e-05,-0.0005597932197062283,0.00011646611464577461,0.00031107710817943057
150100000000.0,-1,-0.0547407203,0.04119773665,0.1250544008,0.043085,0.049394,0.001916,0.21380458329999996,-2.8678567259999994,-9.3754515995,0.022801,0.29678,2.8461,0.00019999999999997797,0.0001285714285716999,1.2499999999970868e-05,-2.8138843726710494e-05,0.0002679334711217507,0.00029815455209342145
150100000000.0,-1,-0.03625518505,-0.0027556686499999998,0.14053910114999998,0.014303,0.063262,0.006195,0.21836467554999997,-2.871190987,-9.374372868,0.023289,0.29713,2.8462,9.999999999998899e-05,0.0001285714285712558,1.2499999999970868e-05,-0.0005083081153751667,-0.0001829132337749506,0.00016830529503253366
150100000000.0,-1,-0.036755324199999995,-0.013503757049999999,0.1120311696,-0.018766,0.074971,0.017914,0.22395446605,-2.8714851865,-9.374176734999999,0.023886,0.29717,2.8463,0.00019999999999997797,0.0001285714285716999,0.000600000000000156,7.58731893902298e-05,-0.0005136044621092406,0.0005492959656106522
150100000000.0,-1,-0.050180628049999995,0.03209716545,0.07674684289999999,-0.044385,0.077122,0.027486,0.2291421839,-2.8675625265,-9.3752554665,0.024437,0.29675,2.8467,-0.0024999999999999467,0.0001285714285712558,0.0005999999999999339,0.006893103963510172,0.017884013334732884,0.00638460705423069
150100000000.0,-1,-0.0060997363,0.0857689609,0.058163241149999996,-0.055056,0.074007,0.024285,0.23533998669999998,-2.8607959379999994,-9.37711873,0.025092,0.29602,2.8469,9.999999999998899e-05,3.333333333310762e-05,4.999999999988347e-05,-0.0002873246401062235,-1.5243552266674953e-05,0.0008262342701522429
150100000000.0,-1,-0.0121014061,0.08115002874999999,0.05941849235,-0.04546,0.067638,0.020018,0.24135146315,-2.8561868125,-9.3783935945,0.025729,0.29553,2.8472,9.999999999998899e-05,3.333333333355171e-05,5.0000000000105516e-05,-2.267690310447934e-05,0.00042345195376114475,0.0008772343763779888
150100000000.0,-1,0.02125101055,0.06322347254999999,0.05828092095,-0.026283,0.059054,0.023194,0.24735313294999997,-2.8520680194999994,-9.379472325999998,0.026365,0.29509,2.8474,0.00019999999999997797,3.333333333310762e-05,3.333333333332966e-05,0.00026242336386961274,-0.000162803345158391,0.0004188163574457282
150100000000.0,-1,0.12433851534999998,0.025369803549999997,0.10784373004999999,-0.006052,0.046209,0.028488,0.25483560689999996,-2.8512834875,-9.3795703925,0.027163,0.29501,2.8476,5.0000000000105516e-05,2.0000000000131024e-05,3.333333333332966e-05,0.0004757138470458111,0.0007962912476124906,4.099084223779803e-05
150100000000.0,-1,0.12184762625,0.025781682849999998,0.10764759705,0.005649,0.034465,0.03272,0.25733630265,-2.8516757535,-9.379374259499999,0.02743,0.29505,2.8479,4.999999999988347e-05,2.0000000000131024e-05,3.333333333332966e-05,0.0006128925999049906,0.0004389796459813855,-7.306263724071727e-05
150100000000.0,-1,0.09099590535,-0.0035107806999999996,0.1092264677,0.00139,0.032411,0.026331,0.26229846754999997,-2.852950618,-9.3787858605,0.027959,0.29518,2.8481,9.999999999998899e-05,1.9999999999686935e-05,3.333333333332966e-05,0.000478147247090277,-6.707014043261239e-05,0.00011858543184523063
150100000000.0,-1,0.09099590535,-0.0035107806999999996,0.1092264677,0.00139,0.032411,0.026331,0.26229846754999997,-2.852950618,-9.3787858605,0.027959,0.29518,2.8481,9.999999999998899e-05,2.0000000000131024e-05,3.333333333332966e-05,0.00010118564273914332,-0.0005628921096754169,0.00020321034289028095
150100000000.0,-1,0.12299500429999999,-0.058369180799999996,0.06779337145,-0.002853,0.032518,0.014629,0.26830994399999997,-2.8548138814999997,-9.378099395,0.028602,0.29538,2.8482,9.999999999998899e-05,2.0000000000131024e-05,3.333333333332966e-05,0.00012411930409950145,-0.0013221275054660087,0.0006315192479130205
150100000000.0,-1,0.1407842674,-0.05824169435,0.08385666415,-0.003971,0.018659,0.025234,0.2764102369,-2.8557945465,-9.377510996,0.029467,0.29549,2.8484,9.999999999998899e-05,3.333333333310762e-05,9.999999999998899e-05,-0.0002747380228014795,-0.0009350588375109936,0.000824505838602746
150100000000.0,-1,0.1076966303,-0.05399541489999999,0.03763792269999999,0.000212,-0.002709,0.044332,0.27851866664999997,-2.8574616769999994,-9.376922597,0.029694,0.29567,2.8487,9.999999999998899e-05,3.333333333355171e-05,9.999999999998899e-05,-0.0001799841550925163,-0.001004533505291727,0.0008379295144033683
150100000000.0,-1,0.0727849563,-0.0049621649000000006,0.06314501935,0.002277,-0.021901,0.057053,0.27722418885,-2.8583442755,-9.376726463999999,0.029556,0.29577,2.8492,9.999999999998899e-05,3.333333333310762e-05,9.999999999998899e-05,-0.00017244462194554444,-0.0008405480830924184,0.00033908095647441905
150100000000.0,-1,0.02378112625,0.0098654899,0.05575080524999999,0.003312,-0.030436,0.063416,0.2732524956,-2.8589326745,-9.3766283975,0.029133,0.29583,2.8499,9.999999999998899e-05,-9.999999999976694e-05,9.999999999998899e-05,-0.0002638089730120363,-0.00019699948233076192,5.458297192101336e-05
150100000000.0,-1,0.02378112625,0.0098654899,0.05575080524999999,0.003312,-0.030436,0.063416,0.2732524956,-2.8589326745,-9.3766283975,0.029133,0.29583,2.8499,5.0000000000105516e-05,1.1111111111183902e-05,5.0000000000105516e-05,-7.387982693357609e-05,0.0001850628588886405,-8.428131571538988e-05
150100000000.0,-1,-0.02968472955,0.043139453349999995,-0.011836626549999998,-0.004144,-0.029307,0.058099,0.26790787135,-2.857853943,-9.377216796499999,0.028563,0.29571,2.8505,4.999999999988347e-05,1.1111111111183902e-05,4.999999999988347e-05,-0.0012589972406807926,-0.0001450008438175221,-2.901386807069306e-05
150100000000.0,-1,-0.07666838969999999,0.09867451229999999,-0.011081514499999999,0.008799,0.009025,0.030533,0.26161200204999996,-2.855500347,-9.378099395,0.027889,0.29546,2.8515,9.999999999998899e-05,1.1111111110739813e-05,9.999999999998899e-05,-0.00017775238356892986,-0.00014050706308155192,-0.00013509992116084169
150100000000.0,-1,-0.1011850147,0.11516929759999998,-0.05659417715,0.028075,0.037619,0.025285,0.26114128285,-2.8546177485,-9.3783935945,0.027838,0.29536,2.8518,0.00019999999999997797,1.1111111111183902e-05,0.00010000000000021103,-0.0004557495880948004,0.00014031427594751733,0.00032653025980772243
150100000000.0,-1,-0.10527438774999999,0.11888601794999999,-0.05783962169999999,0.041973,0.056597,0.032777,0.2652306559,-2.8583442755,-9.37711873,0.028278,0.29576,2.8521,9.999999999998899e-05,1.1111111111183902e-05,5.0000000000105516e-05,-0.000276749538303922,0.0008062885097221972,0.0002681049278047687
150100000000.0,-1,-0.0304202283,0.02968472955,0.024497011699999998,0.045165,0.062864,0.04343,0.26639764725,-2.8605017385,-9.3764322645,0.028404,0.296,2.8526,9.999999999998899e-05,1.1111111111183902e-05,4.999999999988347e-05,0.00023051386513445182,0.0010194438348483104,0.0007371777415681735
150100000000.0,-1,-0.0091201845,-0.0026183755499999996,0.03862839435,0.038716,0.050092,0.052972,0.26993784789999997,-2.864914731,-9.374961267,0.028786,0.29646,2.8532,5.0000000000105516e-05,1.1111111110739813e-05,4.999999999988347e-05,0.0002202698746309184,0.0008692411916380038,0.0007015312862359291
150100000000.0,-1,-0.0097674234,0.00050013915,0.037657536,0.029026,0.012998,0.055013,0.2705850868,-2.8680528589999996,-9.373980602,0.028858,0.29679,2.8537,5.0000000000105516e-05,1.1111111111183902e-05,5.0000000000105516e-05,0.00034703402686170337,0.0008856357031017392,0.0008445359018158516
150100000000.0,-1,0.010895188149999999,-0.006276256,0.06605759439999999,0.020418,-0.026149,0.047477,0.2678784514,-2.870798721,-9.373196069999999,0.028572,0.29709,2.8542,1.999999999990898e-05,1.1111111111183902e-05,9.999999999998899e-05,0.00025470064410948456,0.0006905374698522593,0.0006454010455899661
150100000000.0,-1,-0.011209000949999999,0.01999575935,0.0369906838,0.01719,-0.048319,0.035725,0.26230827419999997,-2.872367785,-9.3729018705,0.027978,0.29726,2.8546,2.0000000000131024e-05,-2.4999999999941735e-05,9.999999999998899e-05,0.00015148920799135102,0.0008259344835603866,0.00042341006802712466
150100000000.0,-1,-0.00648219565,0.0214765635,0.03666706435,0.012972,-0.037601,0.022984,0.2575814689,-2.8738387824999996,-9.372607670999999,0.027475,0.29742,2.8549,1.999999999990898e-05,-2.4999999999941735e-05,9.999999999998899e-05,-0.0007321519689288958,0.0009097637677537573,0.00040618597505043263
150100000000.0,-1,-0.061144462749999996,0.0219865093,0.0012748644999999999,0.008818,0.007003,0.016702,0.25492386675,-2.8744271814999998,-9.3725096045,0.027193,0.29747,2.8551,2.0000000000131024e-05,-2.4999999999941735e-05,9.999999999998899e-05,-0.00010493256198906842,0.00018523245037926905,-0.0002096943230706083
150100000000.0,-1,-0.0983018596,0.030469261549999998,-0.024467591749999996,-0.000646,0.066442,0.014707,0.2569146167,-2.873740716,-9.372607670999999,0.027405,0.2974,2.8554,1.999999999990898e-05,-2.4999999999941735e-05,5.0000000000105516e-05,-0.0007308999992218235,-0.0003319288128058595,-0.0002629223519669821
150100000000.0,-1,-0.1070297781,0.029674922899999998,-0.024467591749999996,-0.01124,0.10777,0.024371,0.26565234185,-2.872956184,-9.372607670999999,0.028336,0.29732,2.8556,4.999999999988347e-05,-0.00010000000000021103,4.999999999988347e-05,-0.001117828885890293,-0.000991885792618774,-0.0005688069903654058
150100000000.0,-1,-0.08134616174999999,-0.00940457735,-0.019760399749999998,-0.018693,0.11837,0.028648,0.2740762542,-2.87138712,-9.372803804,0.029233,0.29716,2.8559,5.0000000000105516e-05,-4.999999999988347e-05,0.00019999999999997797,-0.0003252208401621215,-3.5442615809566647e-05,-0.00018443124877434713
150100000000.0,-1,0.01267999845,-0.032999377249999996,0.08673001259999999,-0.01018,0.10353,0.023298,0.28404961725,-2.8715832530000003,-9.3725096045,0.030298,0.29718,2.8562,5.0000000000105516e-05,-4.999999999988347e-05,0.00019999999999997797,0.0009162509593177437,-9.562188938927463e-05,-0.0003919998280689785
150100000000.0,-1,0.0060408964,-0.03266595115,0.0864161998,0.006823,0.065358,0.013643,0.2906887193,-2.871975519,-9.372215404999999,0.031006,0.29721,2.8564,4.999999999988347e-05,-0.00019999999999997797,9.999999999998899e-05,-0.0007577188734570472,-0.001800252942628422,-0.00027635702792216943
150100000000.0,-1,0.00508965135,-0.036235571749999994,0.08715169855,0.020603,0.015541,0.002897,0.29344438795,-2.8765846445,-9.370646340999999,0.031305,0.29771,2.8564,4.999999999988347e-05,-4.999999999988347e-05,9.999999999998899e-05,-0.0002540385933956224,-5.4171282365400586e-05,0.00011966475880759164
150100000000.0,-1,0.00922805765,-0.023604606549999997,0.07463841315,0.031195,-0.022647,-0.001441,0.29243430299999995,-2.8804092379999995,-9.369567609499999,0.031202,0.29812,2.8564,5.0000000000105516e-05,-5.000000000032756e-05,0.00019999999999997797,-0.0003929801891797702,-0.0005355980102577096,-0.00017483757854808157
150100000000.0,-1,0.01307226445,-0.0205743517,0.0738244612,0.032197,-0.043924,0.007021,0.28859990285,-2.8834492995,-9.368685010999998,0.030795,0.29844,2.8564,9.999999999998899e-05,-9.999999999976694e-05,0.00019999999999997797,-0.0004483360677399184,-0.00018075864361422056,0.0001411325060631241
150100000000.0,-1,-0.0007256920999999999,-0.0051190713,0.09990034354999999,0.028941,-0.048329,0.030411,0.28399077734999995,-2.8876661589999997,-9.367508212999999,0.030307,0.29889,2.8566,9.999999999998899e-05,-0.00010000000000021103,0.00019999999999997797,-0.0006345365068456399,-0.0005752684984881018,0.0003879695376386161
150100000000.0,-1,-0.025212897149999997,0.007374600799999999,0.07214752405,0.021425,-0.043221,0.060204,0.27765568145,-2.890412021,-9.366919814,0.029633,0.29919,2.8572,9.999999999998899e-05,0.00010000000000021103,0.00010000000000021103,0.0003462653373951796,-0.0007722728526542433,0.0002041939606799159
150100000000.0,-1,-0.018828768,0.008237586,0.07206907084999999,0.00111,-0.04436,0.08147,0.2712715523,-2.8912946194999996,-9.3668217475,0.028952,0.29928,2.858,9.999999999998899e-05,3.333333333310762e-05,0.00029999999999996696,-0.0009878109010892921,-0.0006641103830549167,0.0010002159730045923
150100000000.0,-1,-0.09293762204999999,0.024447978449999998,-0.0060408964,-0.016942,-0.041137,0.080496,0.26247498725,-2.8897255554999997,-9.367508212999999,0.028012,0.29911,2.8589,-9.999999999998899e-05,3.333333333355171e-05,0.00019999999999997797,0.001141918288793231,-0.0008394414145969087,0.0004951899284262595
150100000000.0,-1,-0.14797254185,0.026154335549999998,0.026791767799999998,-0.016885,-0.025152,0.069896,0.2540706882,-2.887862292,-9.3683908115,0.027113,0.29891,2.8598,9.999999999998899e-05,3.333333333310762e-05,9.999999999998899e-05,-6.536397473538846e-05,-0.0007365644443091401,0.0010894475204945853
150100000000.0,-1,-0.14404988185,0.025693422999999996,0.027036934049999996,-0.002994,-0.02197,0.062461,0.2501480282,-2.8873719595000003,-9.368586944499999,0.026694,0.29886,2.8605,9.999999999998899e-05,0.00010000000000021103,0.00029999999999996696,-0.0017098095647412048,-0.00022758982528658933,0.0014372965322845266
150100000000.0,-1,-0.12200453265,-0.0073353742,-0.0107088618,0.014074,-0.029408,0.055003,0.24291072049999998,-2.888646824,-9.3683908115,0.025923,0.29899,2.8612,-9.999999999998899e-05,9.999999999976694e-05,0.00019999999999997797,-0.0011289322605995689,0.00020755485644174954,0.0017320027369678859
150100000000.0,-1,-0.12200453265,-0.0073353742,-0.0107088618,0.014074,-0.029408,0.055003,0.24291072049999998,-2.888646824,-9.3683908115,0.025923,0.29899,2.8612,9.999999999998899e-05,0.00010000000000021103,0.00019999999999997797,-0.002162990192756009,-0.0007721493237962118,0.0010649655926145973
150100000000.0,-1,-0.06779337145,-0.09243748289999999,0.02368305975,0.032208,-0.037909,0.047543,0.2364383315,-2.8935501489999997,-9.367017880499999,0.025236,0.29952,2.8617,9.999999999998899e-05,4.999999999988347e-05,0.00019999999999997797,-0.0021927472090182976,-0.0016284496692593464,-0.0001440291397423188
150100000000.0,-1,-0.027546879849999997,-0.1174444404,0.024251845449999997,0.047158,-0.050543,0.027309,0.22432711874999997,-2.9048277965,-9.363879752499999,0.023952,0.30072,2.8625,9.999999999998899e-05,4.999999999988347e-05,0.00019999999999997797,-0.001161429084626353,-0.0005590766996552698,0.00014467202076784424
150100000000.0,-1,0.06407665109999999,-0.11770921994999999,0.024291072049999998,0.048254,-0.047293,0.017743,0.22067904495,-2.9121827839999996,-9.3617222895,0.023568,0.3015,2.8626,-3.333333333332966e-05,0.00010000000000021103,9.999999999998899e-05,-0.0014635070804298045,-0.0004621520569907389,-0.00023938583653043688
150100000000.0,-1,0.06757762515,-0.11341390725,0.02303582085,0.045117,-0.029164,0.006083,0.21717807089999996,-2.91649771,-9.360447425,0.023198,0.30196,2.8627,-3.333333333332966e-05,9.999999999976694e-05,0.00020000000000020002,-0.0011199958297700707,0.0006840659582632025,0.00032655777188181356
150100000000.0,-1,0.0775902148,-0.06390993805,0.01642613875,0.046275,0.000607,-0.004487,0.2198847063,-2.924931429,-9.357701563,0.023494,0.30287,2.8626,-3.333333333332966e-05,-1.4285714285744433e-05,5.0000000000105516e-05,7.150000919464716e-05,0.0004210451074946331,-0.00022172047831589548
150100000000.0,-1,0.0815717147,-0.0331857036,-0.03233252505,0.037816,0.028262,-0.01081,0.2241407924,-2.9293444214999997,-9.356230565499999,0.023951,0.30334,2.8624,-5.0000000000105516e-05,-1.4285714285744433e-05,4.999999999988347e-05,-0.00016824714663826734,0.0001269277140723002,-6.145242257310501e-05
150100000000.0,-1,0.0780805473,-0.0307732677,-0.0331660903,0.021831,0.033652,-0.013993,0.22763195979999998,-2.9317960839999997,-9.355347967,0.024326,0.3036,2.8623,-4.999999999988347e-05,-1.4285714285744433e-05,-5.0000000000105516e-05,-0.00047779967837230375,-0.00046626986137976445,0.00011840392436648917
150100000000.0,-1,0.10173418709999998,0.06918591575,-0.022525875049999998,0.010109,0.039013,-0.015048,0.23644813815,-2.9310115519999997,-9.3554460335,0.025268,0.30352,2.8619,1.6666666666775853e-05,-1.4285714285300344e-05,-5.0000000000105516e-05,0.0006868327887650794,-0.00010986697556614189,0.0004211930153833199
150100000000.0,-1,0.09742906774999999,0.06985276794999999,-0.022849494499999998,0.006911,0.044296,-0.010782,0.24075325749999998,-2.9316980174999996,-9.3550537675,0.02573,0.30359,2.8618,1.666666666655381e-05,-1.4285714285744433e-05,-4.999999999988347e-05,-4.7233039920879794e-05,-0.000429440854109453,0.0007363069678814615
150100000000.0,-1,0.0660772077,0.12021972235,-0.02382035285,0.01331,0.049526,-0.004387,0.24696086695,-2.9299328204999995,-9.3554460335,0.026392,0.30341,2.8617,1.666666666655381e-05,-1.4285714285744433e-05,-5.0000000000105516e-05,0.0005882881450356425,-0.00036722915540909895,0.0009308283301000531
150100000000.0,-1,-0.0133174307,0.16346704885,0.0328522775,0.031452,0.06316,0.006285,0.25304098994999996,-2.9262062934999995,-9.356524765,0.027038,0.30301,2.8617,1.6666666666775853e-05,-1.4285714285744433e-05,-9.999999999998899e-05,0.000683361156726292,-0.00010295262988435638,0.00038435056432961634
150100000000.0,-1,-0.020329185450000002,0.16803694775,0.0312243736,0.054954,0.084212,0.014848,0.2600527447,-2.930815419,-9.354857634499998,0.027792,0.3035,2.8618,1.6666666666775853e-05,-0.00010000000000021103,-9.999999999998899e-05,0.0006569045922256156,-0.0006048408929324456,0.0003928683606668204
150100000000.0,-1,-0.0644885304,0.17531348205,0.01399408955,0.068844,0.10001,0.02127,0.2672508258,-2.933561281,-9.353778903,0.028564,0.30379,2.862,1.666666666655381e-05,-9.999999999976694e-05,-9.999999999998899e-05,0.001340092974626672,0.00017845019674855855,8.422702354238254e-06
150100000000.0,-1,-0.0289100042,0.15594534829999998,0.03817728845,0.065644,0.11161,0.031932,0.27536092535,-2.9339535469999998,-9.353386637,0.029432,0.30383,2.8624,-9.999999999998899e-05,-5.000000000032756e-05,-9.999999999998899e-05,0.0005662060637361965,0.0006475982766915855,-0.00033852382253177216
150100000000.0,-1,-0.0381086419,0.16124093929999997,0.036235571749999994,0.051748,0.10947,0.04256,0.28455956305,-2.9392491379999997,-9.3515233735,0.03042,0.3044,2.8628,9.999999999998899e-05,-4.999999999988347e-05,-9.999999999998899e-05,0.00013042269155688624,-9.286402576202946e-05,-0.0005154328277551246
150100000000.0,-1,-0.010404855650000001,0.14644270445,-0.023379053599999998,0.044222,0.089307,0.047831,0.2920224237,-2.940622069,-9.350836908,0.031219,0.30455,2.8632,-9.999999999998899e-05,-3.333333333310762e-05,-9.999999999998899e-05,0.0004314850248010593,0.0011126708797992713,-0.0003911452871235288
150100000000.0,-1,-0.04862137069999999,0.1453737796,0.04486542375,0.060166,0.074308,0.059502,0.29671980904999995,-2.9434659974999997,-9.3497581765,0.031725,0.30485,2.8638,-4.999999999988347e-05,-3.333333333355171e-05,-9.999999999998899e-05,4.941504620348258e-05,-3.0350118485067412e-05,-0.0004210073641395251
150100000000.0,-1,-0.10450946905,0.18176625775,0.08626910004999999,0.089985,0.05927,0.069049,0.30068169564999997,-2.9513113174999996,-9.3472084475,0.032158,0.30568,2.8645,-5.0000000000105516e-05,-3.333333333310762e-05,-0.00019999999999997797,0.0006994696399307831,-0.00034740775102615196,-4.443219821020916e-05
150100000000.0,-1,-0.0912802982,0.13998992875,0.13951920955,0.12086,0.028431,0.063669,0.3003188496,-2.9603334355,-9.344364518999999,0.032128,0.30666,2.8652,-5.0000000000105516e-05,-0.00010000000000021103,-9.999999999998899e-05,0.001631653655249088,-0.00043439219481999913,0.0002856825409058572
150100000000.0,-1,-0.10055738909999999,-0.016337878899999998,0.18702262215,0.1304,-0.012872,0.050815,0.29493499875,-2.9738666125,-9.340245726,0.031567,0.3081,2.8659,-4.999999999988347e-05,-4.999999999988347e-05,-0.00019999999999997797,0.001945843189248897,-9.47995707192284e-05,0.0005444932959078608
150100000000.0,-1,-0.1267803712,-0.05308339645,0.27298771605,0.11969,-0.044526,0.034786,0.28749175139999994,-2.9884785209999998,-9.335734667,0.030785,0.30966,2.8663,-4.999999999988347e-05,-4.999999999988347e-05,-0.00019999999999997797,0.0008254497571048569,-0.00133106263952798,0.00040056917210115617
150100000000.0,-1,-0.1219162728,-0.0436003659,0.27009475429999996,0.094129,-0.044272,0.01457,0.28261784635,-2.997892905,-9.3328907385,0.030273,0.31068,2.8665,-5.0000000000105516e-05,-0.00010000000000021103,-9.999999999998899e-05,0.0009410856524032507,0.00019190883004016612,0.00046242146231936787
150100000000.0,-1,-0.1219162728,-0.0436003659,0.27009475429999996,0.094129,-0.044272,0.01457,0.28261784635,-2.997892905,-9.3328907385,0.030273,0.31068,2.8665,-9.999999999998899e-05,-9.999999999976694e-05,-9.999999999998899e-05,0.0007918506157036376,-0.0004246134702194926,-0.00010069540478507832
150100000000.0,-1,-0.12943797334999999,-0.0474445727,0.27106561264999995,0.057925,-0.030216,-0.002426,0.2741350941,-3.0100531509999997,-9.329262278,0.029376,0.31198,2.8667,-4.999999999988347e-05,-0.00010000000000021103,-0.00019999999999997797,-0.0002268177731572507,-0.0009157485233408647,-0.0009113817924366885
150100000000.0,-1,-0.10749069065,-0.04627758135,0.31376376675,-0.003811,0.033641,-0.000169,0.27343882195,-3.0165255399999995,-9.3272028815,0.029308,0.31267,2.8666,-5.0000000000105516e-05,-9.999999999976694e-05,-9.999999999998899e-05,-0.0008370096719342301,0.00029213028895469506,-0.0008303637020707633
150100000000.0,-1,-0.08842656305,-0.04543420945,0.31820617919999994,-0.031484,0.07184,0.011611,0.27742032185,-3.0172120055,-9.3268106155,0.029735,0.31274,2.8668,-5.0000000000105516e-05,-0.00019999999999997797,-5.0000000000105516e-05,-0.0010881337737104202,-0.00010589127845128665,-0.0012575077950919833
150100000000.0,-1,0.00212804305,-0.0475622525,0.2761944906,-0.055991,0.094136,0.021228,0.285177382,-3.0127009465,-9.32808548,0.030562,0.31226,2.867,-4.999999999988347e-05,-0.00010000000000021103,-5.0000000000105516e-05,-0.000248594971669458,0.0008821184354845801,-0.000910019706536036
150100000000.0,-1,0.07589366435,-0.036519964599999996,0.24105726364999996,-0.081593,0.096345,0.023353,0.2955135911,-3.0078956879999996,-9.329262278,0.031665,0.31174,2.8672,-9.999999999998899e-05,-0.00010000000000021103,-9.999999999998899e-05,-8.331303730652051e-05,0.0013657100554669288,-0.0006719224573887017
150100000000.0,-1,0.11919983074999999,0.012366185649999998,0.1995457142,-0.090153,0.083665,0.022257,0.3084583691,-3.0021097645,-9.3307332755,0.033046,0.31113,2.8673,-0.00019999999999997797,-4.999999999988347e-05,-9.999999999998899e-05,4.928246278568249e-06,0.001197921521009615,-0.0001850813972319454
150100000000.0,-1,0.1142278592,0.00475622525,0.201820857,-0.078488,0.049707,0.018993,0.31344014729999997,-2.994558644,-9.332988805,0.033571,0.31031,2.8675,-5.0000000000105516e-05,-4.999999999988347e-05,-4.999999999988347e-05,-0.00027982532760778556,1.215564749390552e-05,-0.0002691457432069111
150100000000.0,-1,0.09391828705,0.025075604049999995,0.1368812207,-0.054057,-0.00547,0.010364,0.31608794279999997,-2.98906692,-9.334655935499999,0.033848,0.30973,2.8676,-5.0000000000105516e-05,-9.999999999976694e-05,-5.0000000000105516e-05,-0.0003957814643432145,-0.0010569011531975647,-0.0003392860693410271
150100000000.0,-1,0.0149649479,0.037294689949999994,0.12124942059999999,-0.021089,-0.061718,-0.001455,0.31303807464999994,-2.9859287919999997,-9.335734667,0.033519,0.30939,2.8676,-9.999999999998899e-05,-0.00010000000000021103,-5.0000000000105516e-05,-0.0001547518647053714,-0.0007420904548940399,-4.415643558619564e-05
150100000000.0,-1,0.022574908299999998,0.03682397075,0.12165149324999999,-0.000854,-0.091373,-0.017472,0.30542811425,-2.9854384594999996,-9.3362249995,0.032703,0.30934,2.8674,-9.999999999998899e-05,-0.00010000000000021103,-4.999999999988347e-05,0.0003919907639117759,-0.0007050552202958471,0.0001063247122596589
150100000000.0,-1,-0.048180071449999994,0.032577691299999996,0.051269166199999994,-0.000836,-0.0871,-0.021717,0.2964354162,-2.9850461934999997,-9.3366172655,0.031739,0.3093,2.8673,-9.999999999998899e-05,-4.999999999988347e-05,-9.999999999998899e-05,0.0013000193165182972,-0.0009979574555663007,-0.000620045401242636
150100000000.0,-1,-0.17791224429999997,-0.0012356379,0.0843764166,-0.021016,-0.042524,-0.016302,0.2851969953,-2.984163595,-9.337205664499999,0.030535,0.30921,2.8673,-0.00019999999999997797,-4.999999999988347e-05,-9.999999999998899e-05,0.0012165996510511978,0.0002445796828252078,-0.00040558769620693824
150100000000.0,-1,-0.17915768885,-0.005462304049999999,0.08569050769999999,-0.05288,0.028584,-0.006576,0.28644243984999995,-2.9799467354999996,-9.3385785955,0.030664,0.30875,2.8672,-9.999999999998899e-05,-0.00010000000000021103,-9.999999999998899e-05,0.00046427408485250066,-0.0008833232433476113,-0.00012107281668860548
150100000000.0,-1,-0.1785202566,0.013788149899999998,0.09980227705,-0.079417,0.095433,0.002078,0.2902964533,-2.9732782135,-9.3405399255,0.031069,0.30804,2.8673,-9.999999999998899e-05,-4.999999999988347e-05,-9.999999999998899e-05,0.0015803847383100145,0.0006049772571856682,-0.0005018321331212439
150100000000.0,-1,-0.0173969971,0.025654196399999996,0.06383148485,-0.091055,0.14001,0.00324,0.3000638767,-2.964550295,-9.342991588,0.032105,0.3071,2.8675,-0.00019999999999997797,-4.999999999988347e-05,3.333333333332966e-05,-0.00020597470752975466,0.00013181448311105903,-0.0001610711686781119
150100000000.0,-1,-0.0313420534,0.017298930599999998,0.06602817445,-0.087829,0.14851,6.9e-05,0.314008933,-2.9562146425,-9.3452471175,0.033588,0.30621,2.8675,-9.999999999998899e-05,-5.000000000032756e-05,3.333333333332966e-05,-0.0006121117821547561,0.0007190935995053938,-0.00015133242616688358
150100000000.0,-1,0.02495792425,-0.0037363336499999997,0.033636809499999996,-0.075107,0.1082,-0.005337,0.32624763219999997,-2.9489577215,-9.347110380999998,0.034889,0.30543,2.8675,-9.999999999998899e-05,-4.999999999988347e-05,3.333333333332966e-05,-0.0006068033302544795,0.0005965935556286883,-0.00017390368573091952
150100000000.0,-1,0.0112972608,0.044022051849999994,0.027262487,-0.058156,0.040387,-0.022505,0.33376933275,-2.9426814654999998,-9.3487775115,0.035686,0.30476,2.8673,-4.999999999988347e-05,-9.999999999976694e-05,-3.333333333332966e-05,-0.0008976968741367108,0.0005272185901021853,-0.00018338172238893669
150100000000.0,-1,0.010414662299999999,0.03982480565,0.028547158149999998,-0.037958,-0.017796,-0.052415,0.3346421246,-2.938464606,-9.350052375999999,0.035775,0.30431,2.8668,-5.0000000000105516e-05,-0.00010000000000021103,-3.333333333332966e-05,-4.6660576211443594e-05,-6.241764512049386e-05,-0.0006157797492690187
150100000000.0,-1,-0.0094732239,-0.0030008349,0.029792602699999997,-0.018785,-0.055842,-0.080151,0.33223949534999997,-2.9362090765,-9.350836908,0.035516,0.30407,2.8661,-9.999999999998899e-05,-0.00019999999999997797,-3.333333333332966e-05,0.0005386629458233871,0.0005731624044336137,-0.0005050896860397114
150100000000.0,-1,-0.03223445855,-0.013866603099999998,0.05310300974999999,-0.000687,-0.081294,-0.089777,0.32702235755,-2.9359148769999996,-9.351131107499999,0.034957,0.30405,2.8652,4.999999999988347e-05,-9.999999999976694e-05,-9.999999999998899e-05,-0.0006374122593552634,-0.0012060940217930582,-0.00028787953262846
150100000000.0,-1,0.0048837117,-0.03827535494999999,0.0574473557,0.010995,-0.09732,-0.080237,0.3207362949,-2.9375820074999996,-9.350836908,0.034286,0.30422,2.8643,5.0000000000105516e-05,-0.00019999999999997797,-9.999999999998899e-05,0.0011099676602659425,-0.0016012880853217837,-0.0009396541764035149
150100000000.0,-1,0.0124544455,-0.0365984178,0.0571727695,0.022676,-0.099672,-0.055775,0.31316556109999993,-2.9392491379999997,-9.350542708499999,0.033479,0.3044,2.8636,-9.999999999998899e-05,-0.00010000000000021103,2.4999999999941735e-05,0.00035860410670929266,0.0002584890449934818,-0.0002257773105975025
150100000000.0,-1,-0.0663910205,0.03378390925,0.0399522921,0.036538,-0.079779,-0.029134,0.30417286304999996,-2.9420930665,-9.3499543095,0.03252,0.30471,2.8633,-9.999999999998899e-05,-9.999999999976694e-05,2.4999999999941735e-05,0.0005163342309660868,0.000348857463816854,-0.0004631749223446002
150100000000.0,-1,-0.06275275335,0.03784386235,0.0387951074,0.045159,-0.03112,-0.017321,0.30052478925,-2.9462118594999995,-9.3487775115,0.032135,0.30514,2.8631,-9.999999999998899e-05,-0.00010000000000021103,2.500000000016378e-05,-0.00042022399197932936,-0.000542166417489609,-0.0006970915095821373
150100000000.0,-1,-0.06438065724999999,0.0413056098,0.03764772935,0.03357,0.024152,-0.027836,0.30215269315,-2.9496441869999996,-9.34769878,0.032313,0.30551,2.8628,-9.999999999998899e-05,-0.00010000000000021103,2.4999999999941735e-05,-0.00081245656282386,8.492123961967302e-05,-0.0009791901311248796
150100000000.0,-1,-0.10076332874999999,0.00226533615,0.00548191735,-0.00472,0.066802,-0.038386,0.3065166524,-2.9501345194999997,-9.3474045805,0.03278,0.30556,2.8625,-0.00019999999999997797,-4.999999999988347e-05,0.00019999999999997797,-0.0007011109692139916,0.0006517204233331686,-0.0008771762604430078
150100000000.0,-1,-0.01034601575,-0.038775494099999995,-0.04382591885,-0.053739,0.08088,-0.051131,0.31515631104999997,-2.9466041255,-9.3481891125,0.0337,0.30519,2.862,-0.00020000000000020002,-4.999999999988347e-05,9.999999999998899e-05,-0.0013594059526421676,0.0015705747532330783,-0.00038990218235768204
150100000000.0,-1,-0.01917200075,-0.0467188806,-0.04162922925,-0.09002,0.075739,-0.053279,0.32398229604999995,-2.9387588054999996,-9.3503465755,0.034635,0.30434,2.8615,-0.00029999999999996696,-4.999999999988347e-05,9.999999999998899e-05,0.0003094833258880936,0.0004288855472414088,-0.000789995859865833
150100000000.0,-1,0.041433096249999996,-0.0539561883,-0.052749970349999994,-0.093268,0.06085,-0.045868,0.33250427489999995,-2.93022702,-9.352700171499999,0.035537,0.30344,2.861,-9.999999999998899e-05,-5.000000000032756e-05,9.999999999998899e-05,-0.0004137774603763522,0.00044590370829533654,-0.0006432625727436914
150100000000.0,-1,0.056388237499999994,0.019024901,-0.0003726527,-0.065588,0.044753,-0.035261,0.33955525625,-2.9227739660000003,-9.354857634499998,0.036282,0.30263,2.8606,-4.999999999988347e-05,-9.999999999976694e-05,9.999999999998899e-05,-0.0007759386161742543,8.802001044960761e-05,2.290997804479944e-05
150100000000.0,-1,0.05295591,0.01568083335,0.0005491723999999999,-0.024049,0.022245,-0.025728,0.34298758375,-2.919439705,-9.355740232999999,0.036644,0.30228,2.8603,-5.0000000000105516e-05,-0.00010000000000021103,5.0000000000105516e-05,-0.00017151231520751153,0.0005477625878751446,7.676178478996376e-05
150100000000.0,-1,0.05585867839999999,0.038736267500000005,0.028547158149999998,0.01963,-0.001291,-0.021515,0.34532156645,-2.9195377714999995,-9.3556421665,0.036894,0.30229,2.86,-9.999999999998899e-05,-9.999999999976694e-05,4.999999999988347e-05,-3.5028299474659796e-05,0.00020691156398555677,-0.0002392242421548063
150100000000.0,-1,0.05585867839999999,0.038736267500000005,0.028547158149999998,0.01963,-0.001291,-0.021515,0.34532156645,-2.9195377714999995,-9.3556421665,0.036894,0.30229,2.86,-0.00019999999999997797,-4.999999999988347e-05,9.999999999998899e-05,0.00013002669454709181,0.0005420400098286038,0.00010230472789177214
150100000000.0,-1,0.0481310382,0.037069136999999995,0.04394359864999999,0.054784,-0.021604,-0.018361,0.34541963294999994,-2.9234604314999997,-9.354367301999998,0.036909,0.30271,2.8598,-9.999999999998899e-05,-5.000000000032756e-05,9.999999999998899e-05,0.0006260908420892553,0.00035792557139546766,-0.00010522783997143903
150100000000.0,-1,0.08482752249999999,-0.04610106165,0.07202003759999999,0.049411,-0.048021,-0.027996,0.3413498732,-2.9360129434999997,-9.350542708499999,0.036489,0.30406,2.8592,-9.999999999998899e-05,-9.999999999976694e-05,0.00010000000000021103,-0.00020403575411137576,-0.0013271611112386505,-0.0008434159778406558
150100000000.0,-1,0.07241230359999999,-0.0932612415,0.054220967849999996,0.008876,-0.048895,-0.0312,0.33924144344999996,-2.94003367,-9.3493659105,0.036269,0.30448,2.8588,0.0005500000000000504,-0.00010000000000021103,9.999999999998899e-05,-6.793113606951007e-05,-0.0012637109975748295,-0.0004180388872542795
150100000000.0,-1,0.0752366188,-0.09558541755,0.0550545331,-0.03377,-0.037051,-0.032248,0.33641712825,-2.9376800739999998,-9.350248509,0.035964,0.30424,2.8585,0.0005500000000000504,-9.999999999976694e-05,9.999999999998899e-05,-0.001237048942507979,-0.00039483993940114814,8.891642186034665e-05
150100000000.0,-1,0.020309572149999996,-0.046287388,0.04445354444999999,-0.063601,-0.018904,-0.032215,0.33568162949999997,-2.9334632144999997,-9.351621439999999,0.03588,0.30378,2.8581,0.0005499999999998284,-0.00010000000000021103,9.999999999998899e-05,-0.0005880667567749187,-0.0010176733345235167,-0.0005247385033875229
150100000000.0,-1,-0.01013026945,-0.011767979999999999,0.01317033095,-0.073194,-0.009369,-0.025813,0.33529917015,-2.9267946924999997,-9.3536808365,0.035831,0.30307,2.8579,0.0005500000000000504,-0.0007999999999999119,-0.001000000000000112,-0.011325669824069684,-0.0158752183109494,-0.005979466612790751
150100000000.0,-1,-0.0091201845,-0.0181423025,0.015200307499999998,-0.062562,-0.022169,-0.021585,0.33427927854999995,-2.92042037,-9.355740232999999,0.035715,0.30239,2.8577,-9.999999999998899e-05,-9.999999999976694e-05,9.999999999998899e-05,-0.0010038987419045409,4.738740888643456e-05,-0.00023212142905862376
150100000000.0,-1,-0.06111504279999999,0.021143137399999998,-0.09429093975,-0.022068,-0.044586,-0.023752,0.32971918629999997,-2.9160073774999997,-9.357309297,0.035222,0.30192,2.8575,-9.999999999998899e-05,-5.000000000032756e-05,5.0000000000105516e-05,-0.0003957495573748693,0.0002976485695800335,-0.0005932907988419056
150100000000.0,-1,-0.07624670374999999,0.06659696015,-0.09073112579999999,0.035544,-0.057424,-0.039721,0.32374693644999997,-2.9158112444999995,-9.35750543,0.034584,0.3019,2.8572,-0.00019999999999997797,-4.999999999988347e-05,4.999999999988347e-05,-0.0003688493382630331,0.0006301201713612148,-0.000995320084097473
150100000000.0,-1,-0.07221617059999999,0.07349103509999999,-0.09275129569999999,0.086784,-0.061718,-0.059927,0.31971640329999995,-2.9227739660000003,-9.3555441,0.034161,0.30263,2.8566,-0.0024999999999999467,0.0007999999999999119,0.001000000000000112,0.0111308639508656,0.017311292208341378,0.004361393251614665
150100000000.0,-1,-0.01775984315,0.024771597899999998,-0.09846857264999999,0.11027,-0.068063,-0.074827,0.3150876645,-2.9315018844999994,-9.352994371,0.033676,0.30357,2.8558,0.0023999999999999577,-0.0009000000000001229,-0.001100000000000101,-0.01033289261088538,-0.016305646820764963,-0.005312783847712665
150100000000.0,-1,0.01779906975,-0.0333033834,-0.06402761785,0.10067,-0.068017,-0.075893,0.31125326435,-2.9413085344999996,-9.3499543095,0.033277,0.30462,2.855,-9.999999999998899e-05,-9.999999999976694e-05,-9.999999999998899e-05,0.0010529238175984168,0.0002148777035742011,-0.0004522064283914995
150100000000.0,-1,0.0219276694,-0.02593858925,-0.06620469414999999,0.073979,-0.06378,-0.060999,0.3071246647,-2.948663522,-9.3477968465,0.032844,0.30541,2.8542,-1.999999999990898e-05,-0.00010000000000021103,-0.00019999999999997797,0.0011175935436877893,-0.0001495576265349019,0.0002167426915572479
150100000000.0,-1,0.1021656797,-0.039285439899999997,0.01740680375,0.035534,-0.063769,-0.041863,0.3048495219,-2.95376298,-9.3462277825,0.032606,0.30595,2.8537,-2.0000000000131024e-05,-9.999999999976694e-05,-9.999999999998899e-05,0.0016136605905403,-9.979952788263802e-05,8.885261709087877e-05
150100000000.0,-1,0.06518480255,-0.004501252349999999,0.013817569850000001,0.006723,-0.054213,-0.028021,0.30187810695,-2.9550378444999996,-9.345933582999999,0.032289,0.30609,2.8533,-1.999999999990898e-05,-4.999999999988347e-05,-9.999999999998899e-05,-0.00022915334204592908,-0.00021542836721044623,0.00010300962120543544
150100000000.0,-1,0.0678031781,-0.00459931885,0.013925443,-0.000694,-0.029808,-0.025841,0.2992597314,-2.9549397779999995,-9.3460316495,0.032009,0.30608,2.853,-2.0000000000131024e-05,-5.000000000032756e-05,-9.999999999998899e-05,0.0013760974315665253,0.0003637934982765323,-1.45926499958704e-05
150100000000.0,-1,-0.015249340749999998,0.08945626129999999,0.06246836049999999,0.001502,-0.003289,-0.027908,0.29896553189999997,-2.9533707139999996,-9.3466200485,0.031976,0.30591,2.8527,-1.999999999990898e-05,-9.999999999976694e-05,-5.0000000000105516e-05,0.0004444265528580349,4.6109174845598844e-05,-0.00034331819551158826
150100000000.0,-1,-0.011356100699999998,0.0930454952,0.0241439723,0.012216,0.013668,-0.032121,0.30060324245,-2.9522919825,-9.346914248,0.03215,0.3058,2.8524,-0.00021666666666675383,6.666666666665932e-05,-4.999999999988347e-05,1.8738496245007674e-05,0.0003691836497923262,-0.00012826351964417837
150100000000.0,-1,-0.030312355149999998,0.06582223479999999,0.027272293649999998,0.018622,0.016815,-0.031049,0.30250573254999996,-2.952586182,-9.346718114999998,0.032354,0.30583,2.8521,-0.00021666666666653178,6.666666666665932e-05,0.00019999999999997797,0.0001308001669113601,0.0006023313296554811,-0.0003885387490344394
150100000000.0,-1,-0.0347939942,0.07817861379999999,0.0146119085,0.018623,0.017875,-0.031046,0.30443764259999995,-2.9526842485,-9.3466200485,0.032561,0.30584,2.8518,-0.00021666666666675383,6.666666666665932e-05,0.00019999999999997797,-0.0005448275507607403,0.00046232383622246687,-0.00010474220600426021
150100000000.0,-1,-0.03286208415,0.0694899219,0.06515538259999999,0.021807,0.014648,-0.026798,0.30609496645,-2.953566847,-9.3462277825,0.032739,0.30593,2.8515,-0.00021666666666675383,6.666666666665932e-05,0.00019999999999997797,-0.0007361920983373071,0.0006984087736976452,-0.0003795466783579615
150100000000.0,-1,-0.037069136999999995,0.10748088399999998,0.0694899219,0.030312,0.003993,-0.024692,0.30671278539999997,-2.9544494454999994,-9.3460316495,0.032806,0.30603,2.8512,-0.00021666666666653178,6.666666666665932e-05,0.00019999999999997797,-0.00015505266829518582,0.0005962432699786469,-8.463957101709219e-05
150100000000.0,-1,-0.04810161824999999,0.10186167355,0.14017625509999998,0.047348,-0.008818,-0.022589,0.3059282534,-2.957293374,-9.345149051,0.032725,0.30632,2.851,-0.00021666666666675383,6.666666666665932e-05,0.00019999999999997797,0.003787225980893316,0.011482033355220578,0.0061389538323509685
150100000000.0,-1,0.009561483749999999,0.07828648695,0.14518745325,0.059066,-0.023647,-0.031129,0.3052810145,-2.9618044329999997,-9.3436780535,0.03266,0.30681,2.8507,0.0006500000000000394,-0.00010000000000021103,-0.0004999999999999449,-0.00033585635932609215,-0.00023334145646458637,-0.0003495504778004699
150100000000.0,-1,0.012121019399999999,0.0841018304,0.14342225625,0.064368,-0.042717,-0.036489,0.30272147885,-2.9675903564999997,-9.341912856499999,0.032393,0.30743,2.8503,0.0006500000000000394,-0.0002999999999997449,-0.0004999999999999449,-0.0036807805030907303,-0.011167556983462834,-0.006267931753850792
150100000000.0,-1,0.1167972015,-0.00095124505,0.19785897039999997,0.056873,-0.063822,-0.046113,0.30128970795,-2.9744550115,-9.33985346,0.032247,0.30816,2.8497,2.4999999999941735e-05,-2.4999999999941735e-05,-3.333333333332966e-05,0.0006565459998283396,-0.00018653730552964376,-0.00011345173652319018
150100000000.0,-1,0.11660106849999999,-0.019829046299999997,0.20157569074999998,0.035516,-0.077481,-0.051468,0.2986517191,-2.9799467354999996,-9.3381863295,0.031971,0.30875,2.8491,2.4999999999941735e-05,-2.5000000000385825e-05,-3.333333333332966e-05,0.000805667439025215,-0.000612638453778569,-0.00017707596551125304
150100000000.0,-1,0.12189665949999999,-0.0186522483,0.2013697511,0.005657,-0.06785,-0.047199,0.2933561281,-2.9811235334999995,-9.33789213,0.031405,0.30888,2.8486,2.500000000016378e-05,-2.4999999999941735e-05,-3.333333333332966e-05,0.000965688877997195,-0.0001947434276747817,-0.00023986255220120878
150100000000.0,-1,0.05207331149999999,-0.012356378999999999,0.21752130364999997,-0.028426,-0.03491,-0.037561,0.29179687075,-2.980829334,-9.338088263,0.031238,0.30885,2.8481,2.4999999999941735e-05,-2.4999999999941735e-05,-9.999999999998899e-05,0.00043248822058694625,-0.0004333580971824791,-6.265684134520999e-05
150100000000.0,-1,0.05596655155,0.00027458619999999996,0.2089600982,-0.057153,0.007553,-0.027899,0.2938856872,-2.977495073,-9.339068928,0.031458,0.30849,2.8478,-9.999999999998899e-05,0.0001500000000000945,9.999999999998899e-05,0.00010955119001138103,3.235652936872668e-05,-0.00019086524459274723
150100000000.0,-1,0.07623689709999999,0.01248386545,0.1890133721,-0.077381,0.039338,-0.012942,0.29934799125,-2.9714149499999998,-9.340834124999999,0.032037,0.30784,2.8476,-0.0014000000000000679,0.0001500000000000945,0.0009999999999998899,0.003221936569615391,0.011023221502279412,0.005968067522022169
150100000000.0,-1,0.08034588345,0.0078060934,0.11816032585,-0.086979,0.05306,0.000914,0.30617341964999994,-2.9638638294999997,-9.342991588,0.032758,0.30703,2.8475,9.999999999998899e-05,9.999999999976694e-05,-0.00039999999999995595,-0.0003626006786686675,-2.5915701135303948e-05,-0.00017748990762878059
150100000000.0,-1,0.08113041545,0.05580964515,0.07232404375,-0.081666,0.044548,0.00196,0.31256735545,-2.955332044,-9.345541317,0.033433,0.30612,2.8475,0.0013000000000000789,-0.0002999999999997449,-0.00039999999999995595,-0.0037477922009719333,-0.010466513614245443,-0.006246817860060594
150100000000.0,-1,0.11100147134999999,0.10316595799999999,0.0080806796,-0.061436,0.020142,-0.0066,0.31770604005,-2.946898325,-9.347992979499999,0.033974,0.30522,2.8474,9.999999999998899e-05,9.999999999976694e-05,5.0000000000105516e-05,-0.0002626014798545184,6.473216031976925e-05,4.549378180196406e-05
150100000000.0,-1,0.09994937679999999,0.09274148905,-0.06329211909999999,-0.036969,-0.015962,-0.013058,0.31962814344999996,-2.9405240024999997,-9.3499543095,0.034172,0.30453,2.8472,-9.999999999998899e-05,0.00010000000000021103,4.999999999988347e-05,-0.0010875488045989368,3.116410284054183e-05,-0.0001230428930418248
150100000000.0,-1,0.08905418865,0.06375303165,-0.05937926574999999,-0.009295,-0.046801,-0.016312,0.31825521245,-2.9371897414999997,-9.351033040999999,0.034021,0.30418,2.847,-0.0023999999999999577,0.0007999999999999119,0.0013000000000000789,0.00890290509386299,0.015608732082652566,0.004526032087526527
150100000000.0,-1,0.0577219419,0.08471964935000001,-0.029753376099999996,0.015213,-0.058571,-0.015269,0.31456791205,-2.9362090765,-9.3515233735,0.033626,0.30407,2.8468,-0.00010000000000021103,0.00010000000000021103,9.999999999998899e-05,3.6433387779311044e-05,6.597939383112816e-05,1.280696170977147e-05
150100000000.0,-1,0.049621649,0.0432080999,-0.00685484835,0.027984,-0.069251,-0.012099,0.30980188015,-2.9376800739999998,-9.351229173999998,0.033118,0.30423,2.8466,0.00010000000000021103,9.999999999976694e-05,9.999999999998899e-05,-0.0007596786110120601,-0.0006123726224012138,8.576340234600632e-05
150100000000.0,-1,0.0348136075,0.0058055367999999994,0.01495514125,0.035425,-0.077796,-0.007862,0.30366291725,-2.9408182019999995,-9.3503465755,0.032465,0.30456,2.8465,0.0023999999999999577,-0.000700000000000145,-0.0009000000000001229,-0.010002065432030804,-0.016428160299352568,-0.004284057006310071
150100000000.0,-1,0.0420313019,0.0091005712,0.01415099595,0.035416,-0.076775,-0.002541,0.29644522284999997,-2.9440543964999994,-9.349562043499999,0.031696,0.30492,2.8465,9.999999999998899e-05,0.00010000000000021103,9.999999999998899e-05,-0.0006514372028358917,-0.0006036927583759066,0.00021566958914873147
150100000000.0,-1,-0.03625518505,0.0028831550999999997,0.0781393872,0.033405,-0.051351,-0.002411,0.29018858015,-2.9477809235,-9.348679445,0.031031,0.30531,2.8465,-0.0024999999999999467,0.0009999999999998899,0.0013000000000000789,0.009467416203157275,0.01622445531388106,0.004646612308989689
150100000000.0,-1,-0.05461323385,-0.0037069137,0.07434421364999999,0.020709,-0.013052,-0.0119,0.28714851865,-2.950624852,-9.3477968465,0.030709,0.30561,2.8464,9.999999999998899e-05,0.00010000000000021103,0.00019999999999997797,-0.0016467244626450217,-0.0003490985766874122,0.0003081452451514921
150100000000.0,-1,-0.056172491199999994,-0.00381478685,0.07432460034999999,-0.009075,0.01684,-0.022477,0.28870777599999997,-2.950428719,-9.3477968465,0.030875,0.3056,2.8462,0.0024999999999999467,-0.000700000000000145,-0.0009999999999998899,-0.011022052298579277,-0.016434971379851282,-0.004951522020891774
150100000000.0,-1,-0.03307783045,-0.000196133,0.0125917386,-0.043156,0.037173,-0.028822,0.2925519828,-2.947094458,-9.3487775115,0.031283,0.30523,2.8459,3.333333333332966e-05,0.00010000000000021103,0.00019999999999997797,-0.0007993093851617616,0.0004725634652380517,-0.0003500783757816872
150100000000.0,-1,-0.010973641349999999,-0.01173856005,0.03872646085,-0.062335,0.048907,-0.027737,0.29753376099999995,-2.941995,-9.350248509,0.03181,0.30469,2.8456,3.333333333332966e-05,9.999999999976694e-05,9.999999999998899e-05,3.670991697540815e-05,0.0005944667284869531,-8.123146253022351e-05
150100000000.0,-1,0.006472388999999999,0.00012748645,0.00967916355,-0.063408,0.04994,-0.02348,0.30328045789999997,-2.935718744,-9.352013706,0.032418,0.30402,2.8454,3.333333333332966e-05,0.00010000000000021103,9.999999999998899e-05,0.0002578400446849316,-8.151477301288068e-05,-3.2926999246840616e-05
150100000000.0,-1,0.03507838705,0.00832584585,0.00958109705,-0.051732,0.028644,-0.018207,0.30803668315,-2.9303250865,-9.35358277,0.032921,0.30344,2.8452,5.0000000000105516e-05,9.999999999976694e-05,0.00019999999999997797,0.0003960493444555291,-2.9396958678429286e-06,0.0002802587229490672
150100000000.0,-1,0.04542440279999999,0.048042778349999996,-0.029616082999999998,-0.028327,-0.002187,-0.020398,0.31026279269999996,-2.925715961,-9.354857634499998,0.033154,0.30295,2.8449,4.999999999988347e-05,0.00010000000000021103,5.0000000000105516e-05,-7.112963340272227e-05,-0.00017715230384007796,0.0004128030977761932
150100000000.0,-1,0.01697531115,0.08809313695,-0.0151610809,0.002561,-0.022475,-0.018309,0.3095371006,-2.923166232,-9.355740232999999,0.033073,0.30268,2.8447,9.999999999998899e-05,9.999999999976694e-05,4.999999999988347e-05,-0.0004113220606519752,-0.0005476126560475247,0.0004509007020089828
150100000000.0,-1,0.0081395195,0.12915358049999998,-0.058271114299999996,0.033477,-0.03109,-0.017257,0.30744828415,-2.9224797665,-9.3560344325,0.032849,0.3026,2.8445,9.999999999998899e-05,0.00010000000000021103,9.999999999998899e-05,0.000357328565580628,-0.0003795141741542718,0.0003891065566129781
150100000000.0,-1,-0.03733391655,0.12262235159999998,-0.0695683751,0.059078,-0.026991,-0.011922,0.30429054285,-2.9244410964999994,-9.3555441,0.032514,0.30282,2.8444,9.999999999998899e-05,9.999999999976694e-05,0.00019999999999997797,0.00013984415150308793,-0.0003276230938169533,0.0002845306995478969
150100000000.0,-1,-0.03603943875,0.12941836005,-0.07165719155,0.076166,-0.014374,-0.006571,0.3029862584,-2.931207685,-9.353386637,0.032382,0.30354,2.8443,9.999999999998899e-05,0.00010000000000021103,-9.999999999998899e-05,-0.0007250887588277632,-0.0004597926295961674,0.0003374392737062748
150100000000.0,-1,-0.05106322654999999,0.08929935489999999,-0.0903976997,0.071909,-0.006957,-0.003364,0.3022997929,-2.9380723399999997,-9.3513272405,0.032316,0.30428,2.8442,4.999999999988347e-05,4.999999999988347e-05,9.999999999998899e-05,0.00031420268040438515,0.00038926056182608804,0.00015882481238949087
150100000000.0,-1,-0.013003617899999998,-0.0165928518,-0.06736187885,0.052723,0.0037,-0.000154,0.30195656015,-2.943367931,-9.34966011,0.032284,0.30484,2.8442,5.0000000000105516e-05,4.999999999988347e-05,9.999999999998899e-05,-0.0008435524014076545,0.00018895033480914591,0.00020663957940575406
150100000000.0,-1,-0.0141019627,-0.01311149105,-0.0684896436,0.031408,0.015434,0.001994,0.30305490495,-2.946898325,-9.348483311999999,0.032406,0.30521,2.8442,-0.0012999999999998568,0.000300000000000189,0.0012000000000000899,0.0032001888817981827,0.01183925130474539,0.005990256421223861
150100000000.0,-1,0.0389520138,0.0057466969,-0.032165811999999995,0.013291,0.028201,0.006273,0.3062616795,-2.9480751229999997,-9.347992979499999,0.032751,0.30534,2.8442,0.0014999999999998348,-0.00019999999999997797,-0.001100000000000101,-0.004053314150052112,-0.01090895770829925,-0.0059729637939391345
150100000000.0,-1,0.033528936349999997,0.015710253299999997,-0.0121014061,0.017608,0.036628,0.00846,0.31018433949999996,-2.949055788,-9.347600713499999,0.033171,0.30545,2.8443,-0.0006999999999999229,9.999999999976694e-05,9.999999999998899e-05,-0.0005784242568172004,0.0005410048515654964,-6.391339579020494e-05
150100000000.0,-1,0.03066539455,0.0189856744,-0.01322917085,0.041065,0.032276,0.010584,0.31305768795,-2.9522919825,-9.346423915499999,0.033482,0.3058,2.8444,-0.0006999999999999229,0.000300000000000189,0.001100000000000101,0.004191000339540951,0.01094880088405481,0.00630124147070521
150100000000.0,-1,0.0729222494,0.042168594999999996,0.0002941995,0.07091,0.01944,0.009499,0.31688228144999997,-2.9573914405,-9.344756785,0.033897,0.30634,2.8444,-0.0020000000000000018,0.000700000000000145,0.0008999999999999009,0.0022224634264131904,0.021013490228329657,0.004407564735251057
150100000000.0,-1,0.052220411249999994,-0.006060509699999999,0.06136020905,0.096474,-0.000794,0.007332,0.31843173215,-2.9666096915,-9.3417167235,0.034074,0.30733,2.8444,0.0010999999999998789,-0.00019999999999997797,-0.0005999999999999339,0.001361635041929321,-0.01801484451287405,-0.006074300866720034
150100000000.0,-1,0.0332641568,-0.0359511789,0.07044116695,0.10282,-0.026255,0.005148,0.31718628759999995,-2.9777892724999995,-9.338284395999999,0.033953,0.30852,2.8444,3.333333333332966e-05,9.999999999976694e-05,9.999999999998899e-05,-0.00035935036770612383,-0.00011654679344763608,0.0001325210433795465
150100000000.0,-1,0.0179265562,-0.047071919999999996,0.07299089595,0.084669,-0.038868,-0.000203,0.3141168061499999,-2.987890122,-9.335146267999999,0.033636,0.3096,2.8444,3.333333333332966e-05,5.000000000032756e-05,-3.333333333332966e-05,-0.00016481141377716613,0.0003255868349565372,0.0003806274151699207
150100000000.0,-1,-0.01568083335,-0.03766734265,0.07739408179999999,0.052683,-0.031309,-0.001258,0.3106158321,-2.9950489765,-9.3328907385,0.033269,0.31037,2.8443,3.333333333332966e-05,4.999999999988347e-05,-3.333333333332966e-05,-0.00023013934613325127,0.0006575398867452176,0.00015210761379552684
150100000000.0,-1,-0.014219642499999997,-0.03478418755,0.07652128995,0.023926,-0.007879,0.000915,0.30915464125,-2.997892905,-9.332106206499999,0.033116,0.31068,2.8443,4.999999999988347e-05,6.666666666665932e-05,-3.333333333332966e-05,8.877580449406786e-05,0.0005115987046473425,1.7368445118598475e-05
150100000000.0,-1,-0.07247114349999999,-0.0060408964,0.1501986514,-0.003759,0.02186,0.009485,0.3090467681,-3.0024039639999995,-9.330635208999999,0.03311,0.31116,2.8444,5.0000000000105516e-05,6.666666666665932e-05,-9.999999999998899e-05,0.00035408257014768463,0.00016404381480583652,-0.0003952911395118386
150100000000.0,-1,-0.0196329133,-0.05439748755,0.15723982609999998,-0.017581,0.050476,0.019119,0.3123221892,-3.0034826955,-9.330144876499999,0.033462,0.31127,2.8446,-0.0009999999999998899,6.666666666665932e-05,0.0005999999999999339,-0.0006163316860064438,0.016283809758470547,0.006436189379840418
150100000000.0,-1,-0.02501676415,-0.0560155848,0.15758305884999999,-0.016478,0.069536,0.022354,0.3177158467,-3.001815565,-9.330537142499999,0.034038,0.3111,2.8449,2.4999999999941735e-05,2.0000000000131024e-05,-9.999999999998899e-05,0.0005237815049460304,0.00012121627106020938,-0.00010094327651072321
150100000000.0,-1,-0.0334602898,-0.0252619304,0.12876131449999997,-0.00047,0.071593,0.022362,0.3237567431,-3.001423299,-9.330439076,0.034685,0.31106,2.8451,2.500000000016378e-05,1.9999999999686935e-05,-9.999999999998899e-05,0.0006704524106551646,0.00063479391708543,-3.1105389441482556e-05
150100000000.0,-1,0.0077080269,0.00675678185,0.0851021087,0.015504,0.048287,0.010613,0.32897388089999996,-3.0030904295,-9.3297526105,0.035247,0.31123,2.8452,2.4999999999941735e-05,2.0000000000131024e-05,-9.999999999998899e-05,0.000556484485413844,0.0003023719746921838,2.5884524675612308e-05
150100000000.0,-1,0.0058055367999999994,0.009267284249999999,0.08422931684999999,0.029303,0.01432,0.007349,0.33088617765,-3.0056401585,-9.328870012,0.035454,0.3115,2.8453,2.4999999999941735e-05,1.9999999999686935e-05,-9.999999999998899e-05,0.0008713636865086416,4.2429809326005596e-05,0.00021758004344335502
150100000000.0,-1,-0.019966339399999998,-0.0020593965,0.08480790919999999,0.039903,-0.015424,0.008348,0.32941518015,-3.0099550844999996,-9.327497080999999,0.035302,0.31197,2.8454,0.0009999999999998899,2.0000000000131024e-05,-9.999999999998899e-05,0.00014455264671453527,0.0008795855474945657,5.377826999591884e-05
150100000000.0,-1,-0.031214566949999998,-0.009483030549999999,0.10340131759999999,0.041981,-0.045086,0.002964,0.32495315439999994,-3.0149564759999996,-9.326026083499999,0.03483,0.3125,2.8454,0.001000000000000112,0.0018000000000002458,-0.001000000000000112,-0.005551044386032322,-0.01601821432157413,-0.03855588906209634
150100000000.0,-1,-0.026115108949999997,-0.005717276949999999,0.10236181269999998,0.039827,-0.054614,0.001878,0.3198536964,-3.0187810694999997,-9.324947351999999,0.034287,0.31291,2.8455,-3.333333333332966e-05,4.999999999988347e-05,-9.999999999998899e-05,0.0004089307896815164,0.00042297210318120726,-0.00036713203566743347
150100000000.0,-1,-0.0580161414,0.005099457999999999,0.15391537175,0.034527,-0.042979,0.004072,0.31390105985,-3.0232921285,-9.3236724875,0.033654,0.31339,2.8455,-3.333333333332966e-05,4.999999999988347e-05,-5.0000000000105516e-05,4.959203867621609e-05,0.00030424831870679014,-0.00028864595063748943
150100000000.0,-1,-0.086690786,0.044620257499999996,0.10792218324999998,0.021754,-0.029151,0.005164,0.30844856245,-3.0254495914999997,-9.323182155,0.033072,0.31362,2.8456,-3.333333333332966e-05,6.666666666665932e-05,-4.999999999988347e-05,0.00033516873561251215,0.00010268001284674533,-8.607077625127912e-05
150100000000.0,-1,-0.08518056189999999,0.046326614599999996,0.10742204409999999,0.018599,-0.007937,0.006275,0.306948145,-3.0271167219999997,-9.3226918225,0.032913,0.3138,2.8457,9.999999999998899e-05,6.666666666665932e-05,-9.999999999998899e-05,-9.972994665818913e-06,-0.00043404119391921014,5.9194704304488255e-05
150100000000.0,-1,-0.0776882813,0.041315416449999996,0.1599072349,0.026108,0.013216,0.009516,0.30319219805,-3.0294703179999996,-9.3221034235,0.032512,0.31405,2.8459,-9.999999999998899e-05,6.666666666665932e-05,-9.999999999998899e-05,0.0002408976840470589,-0.0003245437452370492,-0.00028301726105958713
150100000000.0,-1,-0.07897295245,0.04393379199999999,0.15901482975,0.028249,0.016389,0.009524,0.3044768692,-3.032020047,-9.321220825,0.032653,0.31433,2.846,4.999999999988347e-05,0.00010000000000021103,0.00019999999999997797,0.0009726827011258266,5.423256129599707e-05,0.0009991239988032807
150100000000.0,-1,-0.0586045404,0.012356378999999999,0.10673557859999999,0.025046,0.012183,0.006323,0.30401595665,-3.0350601084999997,-9.320240159999999,0.032607,0.31465,2.8461,5.0000000000105516e-05,0.00010000000000021103,9.999999999998899e-05,-0.0021695447279024838,-0.00043065661060559535,0.0009822106338613912
150100000000.0,-1,-0.01740680375,0.0032263878499999995,0.21264739859999998,0.017539,-0.004763,0.007347,0.30291761185,-3.0393750344999995,-9.318867228999999,0.032494,0.31512,2.8462,2.4999999999941735e-05,9.999999999976694e-05,6.666666666665932e-05,-0.0013612483661298302,0.00021787229754499648,-6.805584693320155e-05
150100000000.0,-1,-0.014915914649999999,0.00408937305,0.21244145895,0.004675,-0.030179,0.009413,0.30042672275,-3.040257633,-9.318671096,0.032228,0.31521,2.8463,2.500000000016378e-05,9.999999999976694e-05,6.666666666665932e-05,-0.0012702086622880526,0.00030854246172173916,-0.00019679952200893358
150100000000.0,-1,-0.00279489525,-0.023604606549999997,0.1391759768,-0.008163,-0.047088,0.008308,0.29593527704999995,-3.041434431,-9.3183768965,0.031747,0.31534,2.8464,2.4999999999941735e-05,0.00019999999999997797,6.666666666665932e-05,-0.0007294221457397332,0.0008369761634434703,2.6998235845648866e-05
150100000000.0,-1,-0.0541719346,0.0015886773,0.1850514855,-0.014532,-0.038539,0.003008,0.2900022538,-3.0431015614999994,-9.3179846305,0.031113,0.31552,2.8465,2.4999999999941735e-05,5.000000000032756e-05,0.00020000000000020002,-0.0006935203840165438,0.0007434947302005224,0.0007671599163319442
150100000000.0,-1,-0.05216157135,-0.0003334261,0.18573795099999998,-0.022998,-0.018268,-0.008649,0.28799189054999996,-3.0412382979999997,-9.3187691625,0.030895,0.31532,2.8465,-4.999999999988347e-05,4.999999999988347e-05,0.00019999999999997797,-0.0008851191874004183,0.00012022052436200248,0.0007817383939313916
150100000000.0,-1,-0.035029353799999996,0.000196133,0.1304088317,-0.036829,-0.002298,-0.00968,0.28702103219999997,-3.038884702,-9.319455628,0.030788,0.31507,2.8464,-5.0000000000105516e-05,0.00019999999999997797,6.666666666665932e-05,0.0002406121534531125,-0.000823049449204305,5.7377778308387306e-05
150100000000.0,-1,0.02584052275,0.011954306349999999,0.05970288519999999,-0.049631,0.006165,-9.1e-05,0.28779575755,-3.035354308,-9.320632426,0.030868,0.31469,2.8464,-1.2499999999970868e-05,9.999999999976694e-05,6.666666666665932e-05,0.00017330847730034904,-0.00020166056937176435,0.00044761408675503267
150100000000.0,-1,0.02548748335,0.00685484835,0.0613504024,-0.05606,0.006086,0.013735,0.28814879694999995,-3.03025485,-9.322299556499999,0.0309,0.31415,2.8465,-1.2499999999970868e-05,0.00010000000000021103,6.666666666665932e-05,-0.0005367148211787298,-0.00016908574169538504,0.0006763871498112195
150100000000.0,-1,0.0171224109,0.0132389775,0.04606183504999999,-0.051834,-0.000397,0.027549,0.28799189054999996,-3.0252534584999995,-9.323868620499999,0.030877,0.31361,2.8468,-1.2499999999970868e-05,0.00010000000000021103,4.999999999988347e-05,0.0002688129608766632,-0.00020389058145209304,-4.4825657323360746e-05
150100000000.0,-1,-0.038226321699999996,0.07822764704999999,-0.009483030549999999,-0.042296,-0.017437,0.029701,0.28512834875,-3.0187810694999997,-9.326124149999998,0.030564,0.31291,2.8471,-1.2500000000192912e-05,9.999999999976694e-05,5.0000000000105516e-05,0.000736121814666646,0.0005516613694380723,-0.00012454188062777094
150100000000.0,-1,-0.03486264075,0.07558965819999999,-0.0085317855,-0.024178,-0.033353,0.021161,0.2817646678,-3.016133274,-9.327104814999998,0.0302,0.31263,2.8474,-1.2499999999970868e-05,0.00010000000000021103,9.999999999998899e-05,9.637252867472634e-05,0.0003357738795537468,0.00025605195544056714
150100000000.0,-1,-0.029978929049999995,0.0765899365,0.04967068225,-0.006048,-0.047116,0.00837,0.2765867566,-3.0138777445,-9.327987413499999,0.029643,0.31238,2.8475,-1.2499999999970868e-05,9.999999999976694e-05,9.999999999998899e-05,-0.0003504067925221288,0.0001842984888908994,0.00022210485919937906
150100000000.0,-1,-0.035460846399999996,0.03886375395,0.0294591766,0.005705,-0.049197,-0.003332,0.26993784789999997,-3.0126028799999998,-9.3285758125,0.028929,0.31225,2.8476,-1.2499999999970868e-05,0.00010000000000021103,5.0000000000105516e-05,-7.929512889792711e-05,0.00019808732685477892,-0.00018524790585525142
150100000000.0,-1,-0.031400893299999996,0.039030467,0.029527823149999997,-0.000678,-0.044898,-0.007578,0.2658778948,-3.012799013,-9.3285758125,0.028494,0.31227,2.8475,-1.2499999999970868e-05,0.00019999999999997797,4.999999999988347e-05,3.546532982812156e-05,-0.0003652872283266273,-0.00012058006383358633
150100000000.0,-1,-0.021947282699999997,0.05023946795,-0.06859751675,-0.008131,-0.033243,-0.002236,0.2619748481,-3.01064155,-9.3293603445,0.028073,0.31204,2.8475,-9.999999999998899e-05,0.00019999999999997797,4.999999999988347e-05,2.4661791014013446e-05,-5.202528825587471e-05,-0.00047585466763247486
150100000000.0,-1,-0.021947282699999997,0.05023946795,-0.06859751675,-0.008131,-0.033243,-0.002236,0.2619748481,-3.01064155,-9.3293603445,0.028073,0.31204,2.8475,0.0002249999999999197,4.999999999988347e-05,5.0000000000105516e-05,-0.0008571855410083873,-0.0011518044391474191,0.0005870803252934764
150100000000.0,-1,0.025144250599999998,0.13338024665,-0.06989199454999999,-0.004895,-0.005771,0.009528,0.26051365725,-3.0046594934999997,-9.331419741,0.027911,0.31139,2.8476,0.00022500000000014175,4.999999999988347e-05,5.0000000000105516e-05,-0.0005648030051779163,-4.373879728070129e-05,-0.0001800750823119368
150100000000.0,-1,0.0486017574,0.12204375924999998,-0.12084734795,0.028117,-0.005074,0.040385,0.26069998359999996,-3.004365294,-9.331419741,0.027931,0.31137,2.8481,0.0002249999999999197,0.00010000000000021103,4.999999999988347e-05,-0.0008258571322707353,0.00012458946202453802,6.92842935459681e-05
150100000000.0,-1,0.0781982271,0.1521599814,-0.1443146614,0.047243,-0.032761,0.045645,0.25998409815,-3.0011290995,-9.3324984725,0.027851,0.31102,2.8485,0.0002249999999999197,-0.000300000000000189,0.00019999999999997797,-0.0008841681083672226,0.004807261995458889,0.0007594246300296759
150100000000.0,-1,0.08467061609999998,0.1579262916,-0.14599159855,0.065317,-0.060406,0.045587,0.25351170915,-3.006915023,-9.330831342,0.027162,0.31164,2.8489,0.0005999999999999339,-0.0019999999999997797,-0.0009999999999998899,-0.0033544128825493957,-0.019761451064278512,0.0253171797736563
150100000000.0,-1,0.0236144132,0.10464676214999999,-0.0957913572,0.07494,-0.063514,0.030691,0.24677454059999998,-3.0113280154999997,-9.3295564775,0.026445,0.31212,2.8493,-0.0008999999999999009,9.999999999976694e-05,9.999999999998899e-05,-0.00022963441990547784,0.00029802570972981,-0.00021572602676903085
150100000000.0,-1,0.0236144132,0.10464676214999999,-0.0957913572,0.07494,-0.063514,0.030691,0.24677454059999998,-3.0113280154999997,-9.3295564775,0.026445,0.31212,2.8493,-0.0008999999999999009,0.0028000000000001357,0.0007999999999999119,0.0008374596329638884,0.013743791007655659,-0.026536943601066565
150100000000.0,-1,-0.05533892594999999,0.01642613875,0.0557606119,0.069675,-0.047458,0.013707,0.24013543854999997,-3.0171139389999997,-9.327889347,0.025738,0.31273,2.8495,-5.0000000000105516e-05,9.999999999976694e-05,9.999999999998899e-05,0.000826074585351777,-0.00017982717229680922,0.0005287411622808269
150100000000.0,-1,-0.0417959423,-0.036451318049999994,0.12648617169999998,0.035687,0.00897,0.002125,0.23707576374999997,-3.028097387,-9.324457019499999,0.02542,0.31391,2.8496,-5.0000000000105516e-05,0.00010000000000021103,9.999999999998899e-05,0.0008428077634148323,0.000860466818700445,-0.00017770711575032516
150100000000.0,-1,-0.00891424485,-0.0490920899,0.07814919384999999,0.012222,0.016439,0.008518,0.23770338935,-3.0327065125,-9.322887955499999,0.025492,0.3144,2.8496,-4.999999999988347e-05,9.999999999976694e-05,-1.0000000000065512e-05,7.965164575224337e-05,-3.465608791941577e-05,9.025880904900418e-06
150100000000.0,-1,-0.010091042849999999,-0.0486605973,0.0779824808,0.002612,0.01855,0.014903,0.238889994,-3.0330987785,-9.322789889,0.025618,0.31445,2.8498,-5.0000000000105516e-05,4.999999999988347e-05,-9.999999999843467e-06,-0.0001361553070205468,-0.00044446389873975534,1.7317376202335977e-05
150100000000.0,-1,0.0015592573499999998,-0.0369122306,0.09603652345,0.006849,0.021692,0.018198,0.24041002474999998,-3.0349620419999996,-9.3221034235,0.025783,0.31465,2.85,-5.0000000000105516e-05,5.000000000032756e-05,-1.0000000000065512e-05,0.0004995979480743595,0.00042035572469134586,3.529572788932289e-05
150100000000.0,-1,-0.018005009399999997,-0.010091042849999999,0.0818070743,0.013241,0.015319,0.016058,0.24111610355,-3.0377079039999995,-9.321220825,0.025861,0.31494,2.8501,-4.999999999988347e-05,0.00010000000000021103,-1.0000000000065512e-05,-9.417485675095039e-05,0.00025323402514243476,-0.0002628338981652545
150100000000.0,-1,-0.018632634999999998,-0.008571012099999999,0.0812971285,0.015374,0.0111,0.011794,0.24174372914999998,-3.0392769679999994,-9.320632426,0.02593,0.31511,2.8503,-4.999999999988347e-05,3.333333333310762e-05,-1.0000000000065512e-05,-0.0001761842673388414,0.00014884466231235294,-0.0006165381501897771
150100000000.0,-1,-0.04629719465,-0.025232510450000002,0.0898681406,0.010054,0.009072,0.002215,0.24156720944999996,-3.041434431,-9.3199459605,0.025914,0.31534,2.8504,-5.0000000000105516e-05,3.333333333355171e-05,-9.999999999843467e-06,0.000396301874424132,-0.0002320458705744599,-0.00033785870270025553
150100000000.0,-1,-0.0684700303,-0.0327345977,0.0874949313,-0.001654,0.012372,-0.007354,0.24144952965,-3.042807362,-9.3195536945,0.025902,0.31548,2.8504,-0.00019999999999997797,3.333333333310762e-05,-1.0000000000065512e-05,2.9981978245607888e-05,-0.00012916720934841308,-0.0006993354971312482
150100000000.0,-1,-0.0791200522,-0.013866603099999998,0.0748051262,-0.015492,0.019906,-0.014786,0.24356776605,-3.0416305639999996,-9.319847893999999,0.026129,0.31536,2.8502,-5.0000000000105516e-05,-9.999999999976694e-05,-1.0000000000065512e-05,0.00029738361801795454,-0.0007182126525244747,0.0004570441245060619
150100000000.0,-1,-0.0818070743,-0.01569064,0.07532487865,-0.019747,0.025226,-0.014775,0.24625478815,-3.0397673005,-9.320436293,0.026415,0.31516,2.8501,-4.999999999988347e-05,4.999999999988347e-05,-9.999999999843467e-06,8.704605500375884e-05,-0.0004593558241852147,-7.301399732659308e-05
150100000000.0,-1,0.016936084549999997,0.05394638164999999,0.07224559055,-0.017613,0.033628,-0.005182,0.24821611815,-3.0380021034999998,-9.3209266255,0.026624,0.31497,2.85,-9.999999999998899e-05,4.999999999988347e-05,-1.0000000000065512e-05,0.0008712153797507116,-0.0004049234319540851,-0.0003053782605117461
150100000000.0,-1,0.013886216399999998,0.05378947525,0.07221617059999999,0.004771,0.031362,0.002264,0.25127579294999997,-3.0379040369999997,-9.320828558999999,0.026952,0.31496,2.85,-9.999999999998899e-05,3.333333333355171e-05,-4.999999999988347e-05,0.00045726848438604195,-0.000589124687926601,0.00020689049532637838
150100000000.0,-1,0.012385798949999999,0.056260751049999995,0.07137279869999999,0.032444,0.017337,0.019259,0.25276640375,-3.0403556994999996,-9.320044027,0.027115,0.31522,2.8502,-9.999999999998899e-05,3.333333333310762e-05,-5.0000000000105516e-05,0.0005619347763839988,-0.0006591750845619249,-8.177704903777894e-05
150100000000.0,-1,-0.01697531115,-0.007060788,0.09337892129999999,0.04839,-0.006073,0.021337,0.2522074247,-3.0449648249999997,-9.3185730295,0.027059,0.31572,2.8504,-9.999999999998899e-05,3.333333333355171e-05,2.4999999999941735e-05,0.000662533791042974,0.0002255288781514153,-0.0005889266039429408
150100000000.0,-1,-0.01468055505,-0.025850329399999997,0.09990034354999999,0.053693,-0.026196,0.014911,0.24931446295,-3.0513391475,-9.316513633,0.026754,0.3164,2.8506,-9.999999999998899e-05,3.333333333310762e-05,2.500000000016378e-05,8.668327814509436e-05,-9.196592306670581e-05,-0.0004967361657428893
150100000000.0,-1,-0.011964112999999998,-0.021780569649999998,0.09864509234999999,0.038786,-0.027077,-0.00105,0.24658821425,-3.0553598739999996,-9.3152387685,0.026466,0.31683,2.8506,-9.999999999998899e-05,3.333333333355171e-05,2.4999999999941735e-05,-7.748248360184284e-05,-7.054018016217078e-05,-0.00023737715892205302
150100000000.0,-1,-0.06661657345,-0.06368438509999999,0.0966347291,0.014313,-0.009916,-0.013781,0.24394041875,-3.058498002,-9.3142581035,0.026184,0.31717,2.8505,-9.999999999998899e-05,3.333333333310762e-05,2.4999999999941735e-05,-0.00016842474204481483,0.0010777580836633938,-0.0012381934930945915
150100000000.0,-1,-0.0282627653,-0.07479531955,0.10587259339999999,-0.00269,0.01353,-0.020115,0.24463669089999998,-3.0608515979999997,-9.3134735715,0.026261,0.31742,2.8503,-9.999999999998899e-05,-4.999999999988347e-05,4.999999999988347e-05,-0.0004951547110622623,0.00032542895486842305,-0.0003434819412201362
150100000000.0,-1,-0.031136113749999996,-0.07579559785,0.10611775965,-0.011242,0.026287,-0.017859,0.24751984599999996,-3.059870933,-9.313767771,0.026569,0.31732,2.8501,-4.999999999988347e-05,-4.999999999988347e-05,5.0000000000105516e-05,-0.0002945622652473223,0.0004615765399853533,0.00013850578654145407
150100000000.0,-1,0.011767979999999999,-0.0419136221,0.1186016251,-0.014482,0.015632,-0.009375,0.2502460947,-3.0603612655,-9.313571637999999,0.026862,0.31737,2.85,-5.0000000000105516e-05,-3.333333333355171e-05,-5.0000000000105516e-05,-0.00010843371114033218,-1.5400236927032296e-05,-0.0005490188921214445
150100000000.0,-1,0.02433029865,-0.02548748335,0.17939304844999998,-0.010283,-0.006727,0.000149,0.25100120675,-3.0610477309999995,-9.3132774385,0.026944,0.31745,2.85,-0.00019999999999997797,-3.333333333310762e-05,-4.999999999988347e-05,-0.00016680638771987555,-0.0006852091076088307,0.0005178471364895021
150100000000.0,-1,0.026232788749999996,-0.025948395899999997,0.1795989881,-0.002856,-0.023732,0.001176,0.24909871665,-3.0606554649999995,-9.3134735715,0.02674,0.3174,2.85,-5.0000000000105516e-05,-3.333333333355171e-05,9.999999999998899e-05,0.0009715694041441125,0.0012950191823977164,4.125322212461535e-05
150100000000.0,-1,-0.0944968794,-0.025144250599999998,0.17744152509999997,0.007834,-0.020546,-0.005196,0.24562716254999997,-3.0629109944999997,-9.312787106,0.026369,0.31765,2.85,-4.999999999988347e-05,0.00010000000000021103,-9.999999999998899e-05,0.00018450669462638514,-0.00022440324330164074,-0.0006736512038217901
150100000000.0,-1,-0.09556580425,0.0059036033,0.12292635774999998,0.011102,-0.006638,-0.023246,0.24295975374999998,-3.0646761915,-9.3122967735,0.026084,0.31783,2.8499,-9.999999999998899e-05,-5.000000000032756e-05,9.999999999998899e-05,0.00011315419442914365,-0.0003927254899676047,0.0006706444584460014
150100000000.0,-1,-0.09709564165,0.00685484835,0.12257331834999999,0.011172,0.007292,-0.042361,0.24448959114999996,-3.06555879,-9.312002574,0.026249,0.31793,2.8495,-2.500000000016378e-05,-4.999999999988347e-05,-9.999999999998899e-05,-0.0007228497909242404,-0.0008262727861994001,0.00039310371137218914
150100000000.0,-1,-0.07498164589999999,-0.0129643913,0.0898485273,0.006937,0.015839,-0.048724,0.24556832265,-3.0672259205,-9.311414175,0.026367,0.3181,2.849,-2.4999999999941735e-05,4.999999999988347e-05,1.6666666666775853e-05,-0.0001797725831797492,-0.0010508835031550756,0.0006411465812748707
150100000000.0,-1,-0.00705098135,-0.0518575652,0.0384028414,0.000527,0.021087,-0.038077,0.24856915755,-3.0686969179999997,-9.310825776,0.02669,0.31826,2.8486,-2.4999999999941735e-05,5.000000000032756e-05,1.666666666655381e-05,0.000525621666599807,0.00043938106299634683,-0.0001190505282815113
150100000000.0,-1,-0.0446987107,-0.021888442799999998,0.02331040705,-0.019761,0.027411,-0.022113,0.25074623385,-3.0680104525,-9.311021908999999,0.026923,0.31819,2.8483,-2.500000000016378e-05,9.999999999976694e-05,1.666666666655381e-05,0.0006944164714636214,0.0009621768743881542,-0.0004449288135533469
150100000000.0,-1,-0.04351210605,-0.001176798,0.0615661487,-0.037909,0.031645,-0.011471,0.25315866975,-3.065166524,-9.3119045075,0.02718,0.31789,2.8482,-5.0000000000105516e-05,1.4285714285744433e-05,1.6666666666775853e-05,-9.623984065842972e-06,0.0002059233765319135,1.768659917247839e-05
150100000000.0,-1,-0.0326365312,0.0216726965,0.059330232499999996,-0.04109,0.041193,-0.010386,0.25650273739999996,-3.0612438639999997,-9.313081305499999,0.027535,0.31747,2.8482,-4.999999999988347e-05,1.4285714285744433e-05,1.6666666666775853e-05,-0.0003625726844563304,0.0005165507865494412,-1.0689396023916276e-05
150100000000.0,-1,-0.009129991149999999,0.0680189244,0.047728965549999995,-0.029327,0.044408,-0.021013,0.2611118629,-3.0570270045,-9.31435617,0.028026,0.31701,2.848,-4.999999999988347e-05,1.4285714285744433e-05,1.666666666655381e-05,-0.0004760670105766751,-8.516164607574872e-05,0.00010564310164851154
150100000000.0,-1,-0.01058137535,0.0537992819,0.03188141915,-0.006917,0.032773,-0.036989,0.26541698225,-3.054771475,-9.314944569,0.028485,0.31677,2.8477,-5.0000000000105516e-05,1.4285714285744433e-05,9.999999999998899e-05,-0.00016406252601369742,-0.0005634259853457557,0.0006974313670276011
150100000000.0,-1,0.01320955755,0.0639981979,0.04455161095,0.022916,0.009379,-0.04448,0.26855511025,-3.0550656744999998,-9.314748436,0.028823,0.31681,2.8472,-5.0000000000105516e-05,1.4285714285744433e-05,4.999999999988347e-05,-0.0004266988836891805,-0.0006364844255559721,0.0004522921026622051
150100000000.0,-1,0.012415218899999999,0.0676462717,0.04333558635,0.045277,-0.011904,-0.046649,0.2693494489,-3.0587922015,-9.313571637999999,0.028913,0.3172,2.8467,-4.999999999988347e-05,1.4285714285744433e-05,5.0000000000105516e-05,-9.361202325486317e-05,-0.0009477920298393006,0.00042034645840091645
150100000000.0,-1,0.0260268491,0.028047019,0.020201699,0.0537,-0.02679,-0.043378,0.26906505605,-3.0631071275,-9.312100640499999,0.028886,0.31767,2.8462,-9.999999999998899e-05,1.4285714285744433e-05,9.999999999998899e-05,-6.895582026955616e-05,-0.0007584427318110265,-4.45376628865346e-05
150100000000.0,-1,0.0252619304,-0.0402268783,0.08865211599999999,0.044079,-0.031033,-0.038072,0.26802555115,-3.068893051,-9.310237377,0.028781,0.31829,2.8457,-0.0007999999999999119,-0.0018000000000002458,9.999999999998899e-05,0.005124250791570084,0.003589732237301524,0.03026987696902364
150100000000.0,-1,0.0294591766,-0.05788865495,0.07742350174999998,0.020592,-0.031003,-0.029568,0.26682913985,-3.0731099104999995,-9.308864446,0.028656,0.31874,2.8454,-5.0000000000105516e-05,8.333333333165882e-06,9.999999999998899e-05,0.0003089506564768474,-0.0009480714220799769,-0.0003089769514015017
150100000000.0,-1,0.0098262633,-0.016622271749999997,0.11904292435,-0.008223,-0.02777,-0.021059,0.26505413619999996,-3.0741886419999997,-9.308570246499999,0.028467,0.31885,2.8451,-4.999999999988347e-05,8.333333333609971e-06,3.333333333332966e-05,0.0001278608901165157,0.0004351921676577497,-0.00021384533370594205
150100000000.0,-1,0.0268309944,0.009129991149999999,0.09467339909999999,-0.027428,-0.025596,-0.017868,0.26376946505,-3.0723253785,-9.309158645499998,0.028327,0.31866,2.8449,-9.999999999998899e-05,8.333333333165882e-06,3.333333333332966e-05,-0.0005210024771843402,0.0002798601488771535,-0.00013644109679028515
150100000000.0,-1,-0.012944777999999999,0.033528936349999997,0.08224837355,-0.028485,-0.020298,-0.016793,0.26194542815,-3.0693833834999995,-9.310237377,0.028128,0.31834,2.8448,-3.333333333332966e-05,8.333333333609971e-06,3.333333333332966e-05,-0.0004639884986318843,0.0008254774404303777,-0.000272296310819764
150100000000.0,-1,-0.020780291349999997,0.042403954599999995,0.09276110235,-0.012438,0.002937,-0.012481,0.26154335549999996,-3.06752012,-9.3109238425,0.028083,0.31814,2.8446,-3.333333333332966e-05,8.333333333165882e-06,0.00010000000000021103,-0.0001666616315940117,-7.053132334133849e-05,-0.00042381818275818994
150100000000.0,-1,0.00514849125,0.0129643913,0.0410898635,0.014302,0.036733,-0.008143,0.2646422569,-3.0683046519999997,-9.310531576499999,0.028416,0.31822,2.8445,-3.333333333332966e-05,8.333333333165882e-06,5.0000000000105516e-05,-0.0007479576524081488,0.00012022196769234661,-0.00019950525722176038
150100000000.0,-1,0.0571139296,-0.00954187045,-0.0028635417999999997,0.018594,0.056786,0.00254,0.27088909295,-3.070265982,-9.309648978,0.02909,0.31844,2.8445,-9.999999999998899e-05,8.333333333609971e-06,4.999999999988347e-05,0.00020193671556956172,-0.0004667085674481264,-0.00016024615259746522
150100000000.0,-1,0.09238844965,-0.0505827007,-0.049131316499999994,0.002571,0.052569,0.007844,0.27781258784999996,-3.0716389129999997,-9.309060578999999,0.029835,0.31858,2.8445,-9.999999999998899e-05,8.333333333165882e-06,4.999999999988347e-05,0.00022362629781647048,-0.0002481682817034869,0.00011576380921990426
150100000000.0,-1,0.11058959205,-0.023712479699999997,-0.047611285749999996,-0.016705,0.01978,0.006701,0.28265707295,-3.070658248,-9.309256712,0.030354,0.31848,2.8445,-3.333333333332966e-05,8.333333333609971e-06,5.0000000000105516e-05,-0.00021743743222518708,-0.0006625976778500409,0.00046318907528414277
150100000000.0,-1,0.0458755087,0.007060788,-0.0169262779,-0.027465,-0.023632,0.003409,0.2822746136,-3.0679123859999997,-9.3101393105,0.03031,0.31818,2.8445,-3.333333333332966e-05,8.333333333165882e-06,5.0000000000105516e-05,0.0005687206491533647,-0.0008758215994981722,2.2923970239507874e-05
150100000000.0,-1,0.035490266349999994,0.050161014749999996,0.0091594111,-0.011514,-0.048071,0.00123,0.278901126,-3.065362657,-9.3111199755,0.029945,0.31791,2.8445,-3.333333333332966e-05,8.333333333609971e-06,4.999999999988347e-05,-0.0001555167052931239,0.00031480826076046853,0.00012755488299934226
150100000000.0,-1,-0.011856239849999999,0.04959222905,0.02509521735,0.018374,-0.044977,-0.00301,0.27432142045,-3.06555879,-9.3111199755,0.029453,0.31793,2.8445,-5.0000000000105516e-05,8.333333333165882e-06,4.999999999988347e-05,-0.00037162777423210835,0.0008788397845287399,8.239653167099736e-05
150100000000.0,-1,-0.028184312099999997,0.03735352985,0.0329699573,0.044028,-0.023862,-0.004019,0.27104599935,-3.0686969179999997,-9.310237377,0.029105,0.31827,2.8445,-4.999999999988347e-05,1.6666666666775853e-05,5.0000000000105516e-05,-0.0003355054025702131,0.0003165281591530622,-0.0006667398129854285
150100000000.0,-1,-0.008433719,-0.011581653649999999,0.07399117424999999,0.0505,0.010024,-0.00075,0.271055806,-3.0740905755,-9.30847218,0.029111,0.31885,2.8445,-0.00010000000000021103,1.6666666666331764e-05,3.333333333332966e-05,-0.0006758290335776018,0.0008716861943094401,-0.0006670469653655697
150100000000.0,-1,0.00061781895,-0.056496110649999993,0.0779040276,0.044077,0.043966,0.003688,0.27440968029999996,-3.0800726320000003,-9.306314717,0.029478,0.31949,2.8445,-9.999999999998899e-05,1.6666666666775853e-05,3.333333333332966e-05,-0.0004255575502481457,0.0003643848095589153,-0.0010469244150713708
150100000000.0,-1,-0.00406975975,-0.053612955549999994,0.07681548945,0.02489,0.052518,0.004766,0.279097259,-3.0829165604999997,-9.3052359855,0.029985,0.3198,2.8445,-5.0000000000105516e-05,1.6666666666775853e-05,3.333333333332966e-05,-0.0008331832842238818,0.0003718769344440709,-0.0009122017170689056
150100000000.0,-1,0.019005287699999998,-0.06187015485,0.010002783,-0.002866,0.037839,-0.00272,0.28355928475,-3.0845836909999997,-9.3046475865,0.030466,0.31997,2.8445,-4.999999999988347e-05,1.6666666666331764e-05,9.999999999998899e-05,-0.0012218589126152257,0.00016867655554753114,-0.0008311183242540043
150100000000.0,-1,0.019809433,-0.030214288649999997,0.10729455764999998,-0.013541,0.026288,-0.012322,0.2868052859,-3.0841914249999998,-9.3046475865,0.030814,0.31993,2.8444,-9.999999999998899e-05,1.6666666666775853e-05,9.999999999998899e-05,-0.0011470196374963604,0.0005598381562610388,-0.00017202144042718914
150100000000.0,-1,0.017455837,-0.030685007849999998,0.10737301084999999,-0.00075,0.016733,-0.017658,0.28914907525,-3.0837010924999997,-9.3046475865,0.031066,0.31988,2.8442,-5.0000000000105516e-05,-9.999999999976694e-05,9.999999999998899e-05,-0.0004896104358012021,-0.0004376514523407593,-0.0005523970459486716
150100000000.0,-1,0.026674088000000002,-0.0076688003,0.03552949295,0.014124,-0.009846,-0.016651,0.29011012695,-3.0850740235,-9.3042553205,0.03117,0.32002,2.844,-4.999999999988347e-05,-5.000000000032756e-05,5.0000000000105516e-05,0.00012665903458880523,-0.0001933978516548418,-0.00010942602628663534
150100000000.0,-1,0.0018142302499999999,0.0037461403,0.0604874172,0.030048,-0.039651,-0.010332,0.28758001125,-3.088114085,-9.3032746555,0.030902,0.32035,2.8439,-9.999999999998899e-05,-4.999999999988347e-05,4.999999999988347e-05,0.00023248824602595253,-0.00037307811739184515,-5.9317604623687625e-05
150100000000.0,-1,-0.05420135455,0.029468983249999997,0.07060788,0.039609,-0.057718,-0.01037,0.281646988,-3.0915464124999996,-9.302293990499999,0.030268,0.32072,2.8438,-0.00019999999999997797,0.00010000000000021103,3.333333333332966e-05,0.0009230019393178246,-0.00017896082695956217,-8.487765552175897e-05
150100000000.0,-1,-0.10745146404999999,0.047219019749999994,0.0683327372,0.041777,-0.047083,-0.015664,0.27489020615,-3.0948806734999996,-9.301411391999999,0.029545,0.32108,2.8437,-9.999999999998899e-05,-0.00010000000000021103,3.333333333332966e-05,0.000907646314214805,-0.0008451848453290278,-0.00027620931531077697
150100000000.0,-1,-0.10560781385,0.06895055615,0.05859473375,0.036546,-0.00777,-0.023022,0.27155594515,-3.0974304025,-9.30062686,0.02919,0.32136,2.8436,-4.999999999988347e-05,-9.999999999976694e-05,3.333333333332966e-05,-0.00042707778547379505,-0.0013169244548663084,-0.00048597789218707277
150100000000.0,-1,-0.10918724109999998,0.0716473849,0.05759445544999999,0.02706,0.041074,-0.026105,0.27513537239999997,-3.1001762645,-9.299646195,0.029577,0.32165,2.8433,-5.0000000000105516e-05,-0.00010000000000021103,-0.00039999999999995595,-8.548498966776119e-05,-0.0008795503097405177,-0.0004559866839362603
150100000000.0,-1,-0.0030989013999999995,0.014013702849999999,0.02346731345,0.011092,0.066501,-0.014351,0.2805290299,-3.1014511289999995,-9.299057796,0.030158,0.32179,2.8431,0.0012000000000000899,-9.999999999976694e-05,-0.000400000000000178,-0.0004903367413083837,3.437030560982102e-05,-0.0005475366696333084
150100000000.0,-1,0.0352843267,0.0214765635,0.1061667929,0.000376,0.059009,0.000521,0.287334845,-3.1019414614999996,-9.29866553,0.030891,0.32183,2.8431,0.0011999999999998678,-0.000800000000000356,-0.00039999999999995595,-0.009590970273796795,-0.015050731016563512,-0.004543240280343891
150100000000.0,-1,0.03188141915,0.02164327655,0.1060098865,0.003492,0.033441,0.014292,0.29073775255,-3.1020395279999997,-9.2985674635,0.031257,0.32185,2.8432,-9.999999999998899e-05,-9.999999999976694e-05,9.999999999998899e-05,-0.0008038469375238333,0.00032067081477715753,-0.0006163066706608988
150100000000.0,-1,0.0369122306,0.04755244585,0.1216220733,0.016222,0.000523,0.013157,0.29199300375,-3.1031182594999995,-9.298175197499999,0.031393,0.32197,2.8433,-0.00019999999999997797,-3.333333333355171e-05,0.00010000000000021103,-0.0009180479513105633,-0.00021120485687031731,-0.0004488418443465425
150100000000.0,-1,0.05034734109999999,0.07891411255,0.06308617945,0.026834,-0.037584,-0.001818,0.2903749065,-3.1047853899999995,-9.297684865,0.031221,0.32214,2.8433,-9.999999999998899e-05,-3.333333333310762e-05,9.999999999998899e-05,-0.00012788808016245268,-0.0003421662968323691,-0.00012200959063096706
150100000000.0,-1,0.05563312545,0.0821601137,0.06216435435,0.038531,-0.069317,-0.018906,0.28508912215,-3.1080215845,-9.296704199999999,0.030656,0.32249,2.8431,-4.999999999988347e-05,-3.333333333355171e-05,-3.333333333332966e-05,0.00012666294970864467,-0.0006782626854782148,7.783870046262908e-05
150100000000.0,-1,0.0032165811999999997,0.05680992345,0.00285373515,0.053326,-0.096829,-0.031638,0.27749877505,-3.1115519785,-9.2958216015,0.029843,0.32287,2.8428,-5.0000000000105516e-05,-1.0000000000065512e-05,-3.333333333332966e-05,0.00014212884923281432,-0.000496701743860406,0.00033292021316977394
150100000000.0,-1,-0.1267411446,0.00701175475,-0.02221206225,0.07144,-0.11171,-0.036985,0.2675450253,-3.1170437025,-9.294252537499998,0.028778,0.32347,2.8424,-5.0000000000105516e-05,-1.0000000000065512e-05,-3.333333333332966e-05,0.00020354571665792687,-0.0004131369475761648,0.00012321203787141188
150100000000.0,-1,-0.1179347729,0.014543261949999999,-0.024497011699999998,0.085326,-0.10434,-0.036965,0.2587386536,-3.124594823,-9.291997008,0.027839,0.32427,2.842,-4.999999999988347e-05,-9.999999999621423e-06,-3.333333333332966e-05,-0.00021497383952534532,-0.00035670948921251444,1.7730025640316782e-05
150100000000.0,-1,-0.08993678715,-0.007649186999999999,0.007129434549999999,0.089637,-0.08527,-0.03692,0.24930465629999998,-3.1332246749999997,-9.2893492125,0.026831,0.3252,2.8417,-3.333333333332966e-05,-1.0000000000065512e-05,-3.333333333355171e-05,9.713589248300236e-05,-0.00030197679938415156,-8.05656772667751e-06
150100000000.0,-1,-0.10294040504999999,-0.0283608318,0.029988735699999998,0.081161,-0.055576,-0.0326,0.2421065752,-3.141854527,-9.2866033505,0.026065,0.32613,2.8414,-3.333333333332966e-05,-1.0000000000065512e-05,-3.333333333332966e-05,-0.00029393860126314397,-0.000690523836119894,0.00021647827823745303
150100000000.0,-1,-0.100223963,-0.0312832135,0.08964258765,0.062015,-0.02269,-0.024021,0.23788971569999998,-3.1494056474999996,-9.284151688,0.025618,0.32694,2.8411,-3.333333333332966e-05,-1.0000000000065512e-05,-9.999999999998899e-05,-0.0005787227839423315,-0.0006962271575254864,0.00022821873714201635
150100000000.0,-1,-0.031136113749999996,-0.036971070499999995,0.09677202219999999,0.026867,0.008155,-0.017578,0.2364383315,-3.1558780365,-9.281994225,0.025467,0.32764,2.841,-3.333333333332966e-05,-1.0000000000065512e-05,-4.999999999988347e-05,0.00024088775655395356,-0.00021888582519968836,0.00019109151299001592
150100000000.0,-1,-0.012415218899999999,-0.01630845895,0.12650578499999998,-0.006138,0.039033,-0.016453,0.2397137526,-3.1570548345,-9.2815038925,0.025821,0.32777,2.8408,-3.333333333332966e-05,-9.999999999621423e-06,-5.0000000000105516e-05,-0.00022862534363665699,-4.3301816202045984e-05,2.2480696510840392e-05
150100000000.0,-1,-0.01840708205,-0.01840708205,0.12706476405,-0.025273,0.062496,-0.02385,0.24570561575,-3.154995438,-9.2820922915,0.026465,0.32754,2.8406,-3.333333333332966e-05,-1.0000000000065512e-05,-9.999999999998899e-05,0.0006685196152951822,9.666112168238428e-05,-0.00027371202438083997
150100000000.0,-1,0.04833697785,-0.0031969679,0.1148162582,-0.02309,0.072136,-0.037656,0.25498270665,-3.1542109059999994,-9.2820922915,0.027463,0.32746,2.8402,9.999999999998899e-05,-1.0000000000065512e-05,-0.00019999999999997797,0.0012932797405504348,0.00019439256548015038,-0.0003844372817399522
150100000000.0,-1,0.041384063,-0.00485429175,0.11517910425,-0.014585,0.054114,-0.043013,0.2619356215,-3.1525437754999994,-9.282386491,0.028211,0.32728,2.8398,5.0000000000105516e-05,-5.000000000032756e-05,-0.00029999999999996696,0.0017650407587654349,0.0003737269043189162,-4.8692904234537426e-05
150100000000.0,-1,0.06543977545,0.0030890947499999997,0.0742363405,-0.007212,0.011666,-0.043107,0.26690759305,-3.1519553764999997,-9.2824845575,0.028746,0.32721,2.8392,4.999999999988347e-05,-4.999999999988347e-05,-0.00029999999999996696,0.0025503541647746153,0.00011458602691205577,2.12668474637856e-05
150100000000.0,-1,0.06543977545,0.0030890947499999997,0.0742363405,-0.007212,0.011666,-0.043107,0.26690759305,-3.1519553764999997,-9.2824845575,0.028746,0.32721,2.8392,-0.0014000000000000679,0.00019999999999997797,0.0009999999999998899,0.004848293793505598,0.011003982174597082,0.005288736063414734
150100000000.0,-1,0.0364611247,0.055289892699999996,0.08966220094999999,0.004432,-0.028677,-0.043196,0.26879046985,-3.151268911,-9.2826806905,0.028949,0.32715,2.8387,5.0000000000105516e-05,-9.999999999976694e-05,-0.00019999999999997797,0.0010253391594328698,-0.0004620105847481515,-0.00028386552158099487
150100000000.0,-1,-0.00038245935,0.07765886135,0.07505029245,0.023628,-0.031936,-0.043198,0.2638969515,-3.1533283075,-9.2820922915,0.028423,0.32736,2.8378,4.999999999988347e-05,-0.00010000000000021103,-9.999999999998899e-05,0.0007959464689251128,-0.0001685984797890061,8.193315438620452e-05
150100000000.0,-1,0.03778502245,0.021721729749999998,0.08550418134999999,0.028924,0.003036,-0.036667,0.26537775565,-3.155387704,-9.281307759499999,0.028585,0.32759,2.8373,9.999999999998899e-05,-9.999999999976694e-05,9.999999999998899e-05,0.00045776051449231137,-0.00012053446085302788,2.771204263335436e-05
150100000000.0,-1,0.034607667849999996,0.02383996615,0.08470003605,0.020423,0.030539,-0.022779,0.26855511025,-3.157545167,-9.2805232275,0.02893,0.32782,2.837,-0.0010999999999998789,0.00039999999999995595,9.999999999998899e-05,0.0050859604183611795,0.004848489065921502,-0.0013653347212836398
