Time,placement_label,user_acc_x(m/s^2),user_acc_y(m/s^2),user_acc_z(m/s^2),rotation_rate_x(rad/s),rotation_rate_y(rad/s),rotation_rate_z(rad/s),gravity_x(m/s^2),gravity_y(m/s^2),gravity_z(m/s^2),attitude_roll(rad),attitude_pitch(rad),attitude_yaw(rad),target_delta_x,target_delta_y,target_delta_z,target_delta_roll,target_delta_pitch,target_delta_yaw
150000000000.0,-1,-0.0721377174,0.097281968,0.03445076145,-0.025431,0.005073,-0.045779,-1.8319802864999999,-9.625423108,0.40592666344999995,-1.7889,1.3783,-0.82873,0.0,0.0,0.0,0.0,0.0,0.0
150000000000.0,-1,-0.0983214729,0.07975748444999999,0.04459083755,-0.025541,0.008714,-0.048238,-1.8313918875,-9.625619240999999,0.40536768439999993,-1.7886,1.3783,-0.8289,6.0000000000060005e-05,-0.00019999999999997797,-3.0000000000085514e-05,-0.0024310418958093383,-0.0022608059775104383,-0.0015838711078524081
150000000000.0,-1,-0.07157873834999999,0.08260141295,0.056290171,-0.024339,0.010012,-0.055459,-1.8291363579999997,-9.626011507,0.40504406494999995,-1.7887,1.3786,-0.82873,0.00010999999999994348,-3.333333333355171e-05,-9.99999999995449e-06,-0.000659551847903117,-0.0003089586216562523,-0.0014603935672736768
150000000000.0,-1,-0.045051750099999996,0.1065394456,0.03241097825,-0.018362,0.015054,-0.059058,-1.825409831,-9.626796038999998,0.40408301324999996,-1.7887,1.379,-0.82869,0.0002500000000000835,-3.333333333310762e-05,5.999999999994898e-05,0.001726296805587113,0.0005486655512916272,0.0006144091437836341
150000000000.0,-1,-0.048905763549999995,0.1556511488,0.025144250599999998,-0.006078,0.014217,-0.058881,-1.8221736364999999,-9.627384438,0.40386726694999997,-1.7889,1.3793,-0.82827,0.00021999999999999797,-3.333333333355171e-05,0.0001100000000000545,-0.0005901175359561694,-0.0008214199296303626,-0.00040965898737721496
150000000000.0,-1,-0.03315628365,0.18517897195,0.013533176999999999,0.001308,0.013231,-0.058767,-1.8186432424999999,-9.6280709035,0.40425953295,-1.7895,1.3797,-0.8275,0.00012999999999996348,-4.999999999988347e-05,5.999999999994898e-05,-4.04528914035307e-05,-0.0002694739757511666,-0.0006519802502402694
150000000000.0,-1,-0.007600153749999999,0.20170317719999997,0.024771597899999998,0.007624,0.007378,-0.058599,-1.8139360505,-9.6288554355,0.40588743685,-1.7909,1.3801,-0.82599,9.999999999998899e-05,-4.999999999988347e-05,1.0000000000065512e-05,-0.0006119414524994315,-0.00015186410639134174,-0.0006565915699139335
150000000000.0,-1,-0.010630408599999999,0.21406936285,-0.005207331149999999,0.012511,0.007491,-0.053722,-1.8100133905,-9.629541901,0.40698578165,-1.792,1.3805,-0.82484,9.999999999998899e-05,-0.00010000000000021103,2.0000000000020002e-05,-0.0004123389846049097,0.00013576333829234954,-0.0003877792008359915
150000000000.0,-1,-0.00057859235,0.20507666479999997,-0.022810267899999997,0.016221,0.006385,-0.052454,-1.8058945975,-9.630326432999999,0.40813315969999997,-1.7931,1.3809,-0.82363,0.000260000000000038,-6.666666666665932e-05,0.00016999999999989246,0.0008593698328662747,-0.0006847540907422012,0.001446154293351043
150000000000.0,-1,0.013905829699999999,0.1770100325,-0.045277303049999995,0.015209,0.002908,-0.054565,-1.8004028735,-9.6312090315,0.40949628405,-1.7944,1.3814,-0.8222,8.999999999992347e-05,-6.666666666665932e-05,6.0000000000060005e-05,-0.000277181216779665,-0.00011127138274491521,-3.1967594683157685e-05
150000000000.0,-1,0.02093719775,0.14283385725,-0.051759498699999996,0.01013,0.007503,-0.042667,-1.795597615,-9.63209163,0.41074172859999997,-1.7957,1.3818,-0.82088,9.00000000000345e-05,-6.666666666665932e-05,0.00017000000000000348,-0.003218407853166294,-0.0030537940872614744,-0.0009780335846700794
150000000000.0,-1,0.03677493749999999,0.11213904275,-0.07297128265,-0.000847,0.00598,-0.045199,-1.7907923565,-9.6329742285,0.41100650814999995,-1.7964,1.3823,-0.82009,0.000160000000000049,-4.999999999988347e-05,9.999999999998899e-05,0.00022315708729769845,-0.0005626984751878616,0.00023825416854639236
150000000000.0,-1,0.0226533615,0.08003207065,-0.0472288264,-0.004644,0.009465,-0.04169,-1.786575497,-9.6337587605,0.4105455956,-1.7967,1.3828,-0.81971,0.00020999999999993246,-4.999999999988347e-05,0.00012000000000000899,0.0007100608584227341,-0.0003135283216371132,0.00040847273529753814
150000000000.0,-1,0.00456009225,0.048180071449999994,-0.00869849855,-0.012076,0.011632,-0.038212,-1.7827509035,-9.6345432925,0.40928053775,-1.7965,1.3832,-0.81979,0.000160000000000049,-5.000000000032756e-05,7.00000000000145e-05,0.0006089932668942311,-0.0003647140203972832,7.204386369918936e-05
150000000000.0,-1,-0.006992141449999999,0.042737380699999994,0.01166010685,-0.019609,0.017475,-0.042005,-1.7786321105,-9.635425890999999,0.407172108,-1.7958,1.3836,-0.82027,0.00022999999999995246,-4.999999999988347e-05,0.000140000000000029,0.0015539900583851907,-0.0008318359112073903,0.000709623709306717
150000000000.0,-1,-0.006992141449999999,0.042737380699999994,0.01166010685,-0.019609,0.017475,-0.042005,-1.7786321105,-9.635425890999999,0.407172108,-1.7958,1.3836,-0.82027,0.000160000000000049,-4.999999999988347e-05,4.999999999999449e-05,0.0008270493046311778,-0.00018584851938840963,-4.898518674512076e-05
150000000000.0,-1,-0.006992141449999999,0.042737380699999994,0.01166010685,-0.019609,0.017475,-0.042005,-1.7786321105,-9.635425890999999,0.407172108,-1.7958,1.3836,-0.82027,0.00017999999999995797,-4.999999999988347e-05,3.999999999992898e-05,0.0011605168669104327,-0.0004642411981312655,0.000252481919048142
150000000000.0,-1,-0.0328915041,0.03649054465,0.065116156,-0.020873,0.018638,-0.040836,-1.7771611129999998,-9.635622024,0.40938841089999994,-1.7972,1.3837,-0.81875,0.0001300000000000745,9.999999999976694e-05,1.4999999999987246e-05,0.00021744917992427837,-0.00042000749201198673,-0.0002636649195399965
150000000000.0,-1,-0.043345393,0.05803575469999999,0.06163479524999999,-0.031898,0.018287,-0.038573,-1.7715713225,-9.636798822,0.40508329155,-1.7956,1.3844,-0.82,0.00016999999999989246,-2.4999999999941735e-05,1.4999999999987246e-05,0.001043167492605912,-5.7058654504782425e-05,-2.0604053589723392e-05
150000000000.0,-1,-0.057104122949999996,0.0615661487,0.07397156095,-0.031746,0.013447,-0.037299,-1.7703945245,-9.636994955,0.40457334575,-1.7955,1.3845,-0.82003,0.00017000000000000348,-2.4999999999941735e-05,-1.333333333330966e-05,0.000956122538551929,-8.276287337216637e-05,0.0002958134254156253
150000000000.0,-1,-0.050484634199999996,0.09450668605,0.07826687365,-0.031966,0.020729,-0.042217,-1.7688254605,-9.637387221,0.40416146644999995,-1.7954,1.3847,-0.81989,0.000140000000000029,-2.4999999999941735e-05,-1.333333333330966e-05,0.0004219833752863167,-0.00024118970826858543,-0.00022561556284284023
150000000000.0,-1,-0.019927112799999997,0.0962424631,0.05278919694999999,-0.029409,0.017153,-0.038523,-1.766177665,-9.6378775535,0.402857182,-1.7951,1.385,-0.82011,0.00012000000000000899,-2.4999999999941735e-05,-1.333333333330966e-05,1.6703072653445616e-05,-0.00022922810744629984,-7.055479498019324e-05
150000000000.0,-1,-0.011424747249999999,0.1323701617,0.0414625162,-0.030656,0.018377,-0.045776,-1.761666606,-9.6388582185,0.399522921,-1.7938,1.3855,-0.8212,0.00012000000000000899,3.333333333310762e-05,-1.0000000000065512e-05,0.0005963440694150002,-0.000303797185242205,-0.00019007190129993745
150000000000.0,-1,-0.036333638249999994,0.15977974844999998,0.0032263878499999995,-0.030662,0.018359,-0.043369,-1.75735168,-9.639740817,0.39615924004999997,-1.7925,1.386,-0.82232,0.0001100000000000545,3.333333333355171e-05,-2.999999999997449e-05,7.858080317713068e-05,3.5063343686303483e-06,-3.7010575491214226e-05
150000000000.0,-1,-0.0325188514,0.18504167885,0.01685763135,-0.039187,0.016919,-0.047073,-1.7526444879999998,-9.6408195485,0.39195218719999997,-1.7908,1.3866,-0.82386,7.999999999996898e-05,3.333333333310762e-05,-7.00000000000145e-05,-0.00010311959799502723,0.0009581191150458412,-9.852674540389295e-05
150000000000.0,-1,-0.048895956899999996,0.2232581939,0.030939980749999995,-0.039058,0.013339,-0.053037,-1.74754503,-9.64189828,0.38774513434999996,-1.7891,1.3872,-0.82541,7.999999999996898e-05,6.2500000002074785e-06,1.0000000000065512e-05,0.0004129839942641489,-1.2939804582723369e-05,4.5230185174105486e-05
150000000000.0,-1,-0.044826197150000004,0.2308877676,0.0241047457,-0.041597,0.018197,-0.044452,-1.7427397715,-9.6429770115,0.3832046554,-1.7872,1.3878,-0.82716,9.00000000000345e-05,6.249999999763389e-06,-8.000000000008001e-05,0.0002526554658208724,0.0003094453157335142,0.00013198564879068897
150000000000.0,-1,-0.04425741144999999,0.25917995285,0.029498403199999995,-0.041451,0.013339,-0.040772,-1.738719045,-9.64385961,0.37886030945,-1.7853,1.3883,-0.82893,8.999999999992347e-05,6.2500000002074785e-06,-1.999999999990898e-05,0.00038437061214025015,1.491387797125654e-05,0.00011481985350791923
150000000000.0,-1,-0.019122967499999997,0.312047603,0.06132098245,-0.036598,0.014669,-0.037116,-1.7421513725,-9.6431731445,0.38086086605,-1.786,1.3879,-0.82816,9.00000000000345e-05,6.249999999763389e-06,-4.999999999999449e-05,-0.00023677762787399637,0.00048283979606633665,-0.00017656714543323737
150000000000.0,-1,-0.00887501825,0.2987301723,0.0619191881,-0.037672,0.009783,-0.034655,-1.7414649069999997,-9.643271211,0.38025285374999995,-1.7858,1.388,-0.82835,9.999999999998899e-05,6.2500000002074785e-06,-4.0000000000040004e-05,-2.541368527442245e-05,-1.2269976037648789e-05,0.00010933174028116
150000000000.0,-1,-0.00887501825,0.2987301723,0.0619191881,-0.037672,0.009783,-0.034655,-1.7414649069999997,-9.643271211,0.38025285374999995,-1.7858,1.388,-0.82835,0.000140000000000029,6.249999999763389e-06,-6.0000000000060005e-05,1.864508151205868e-05,0.00027124059594929584,-7.602797262862282e-06
150000000000.0,-1,-0.01166010685,0.2993970245,0.0661360476,-0.040179,0.010856,-0.026282,-1.7386209785,-9.6439576765,0.37604580089999995,-1.7838,1.3884,-0.83025,0.00012000000000000899,6.2500000002074785e-06,-2.999999999997449e-05,-0.0004887068597887456,0.00010065282844551326,-9.813275405790023e-05
150000000000.0,-1,-0.0094928372,0.27024185405,0.04929802955,-0.040225,0.012037,-0.02269,-1.738915178,-9.6439576765,0.37432963714999995,-1.7828,1.3884,-0.83115,0.00012000000000000899,6.249999999763389e-06,-2.0000000000020002e-05,-0.0005148900101210607,0.0001488451868694174,5.072228508140597e-05
150000000000.0,-1,-0.017298930599999998,0.2487947105,0.039393313049999996,-0.045064,0.009412,-0.014296,-1.73969971,-9.6439576765,0.37151512859999997,-1.7812,1.3884,-0.83274,0.00012999999999996348,6.2500000002074785e-06,-1.999999999990898e-05,-0.0006544874196194872,0.0004642903038023505,-0.00011259262090201894
150000000000.0,-1,-0.029625889649999997,0.19895731519999998,0.034127142,-0.047576,0.010467,-0.003517,-1.7392093775,-9.644251875999998,0.36645489719999996,-1.7785,1.3885,-0.83539,9.00000000000345e-05,6.2500000002074785e-06,-1.0000000000065512e-05,-0.00016678917949741745,0.0007255404907680063,-0.00017280602065827821
150000000000.0,-1,-0.01615155255,0.1022049063,0.06979392805,-0.037941,0.015567,0.00015,-1.7407784414999998,-9.6439576765,0.3653565524,-1.7777,1.3884,-0.83606,9.999999999998899e-05,6.249999999763389e-06,-9.99999999995449e-06,-2.4362033209213152e-05,0.0002460650102724671,-8.552742926615231e-05
150000000000.0,-1,-0.0185541818,0.11957248345,0.12250467179999999,-0.025572,0.011001,0.014819,-1.74362237,-9.6433692775,0.36740614224999996,-1.7785,1.3881,-0.83521,9.00000000000345e-05,6.2500000002074785e-06,-5.000000000032756e-06,-9.929576702849552e-05,0.0004806835238420071,-5.686459345843886e-06
150000000000.0,-1,0.03072423445,0.14116672675,0.1248778811,-0.015626,0.006449,0.017424,-1.7450933674999998,-9.6429770115,0.37072078995,-1.7801,1.3879,-0.83355,7.00000000000145e-05,6.249999999763389e-06,-5.000000000032756e-06,-0.00042157870869474756,0.000515401500723156,-0.0002446272478462408
150000000000.0,-1,0.07953193149999999,0.1987611822,0.1010281083,0.002894,0.002164,0.018937,-1.7451914339999999,-9.642878945,0.37481996965,-1.7824,1.3878,-0.83133,7.999999999996898e-05,6.2500000002074785e-06,1.0000000000065512e-05,-7.660860770242195e-05,0.00047714193363135315,7.919367660180754e-05
150000000000.0,-1,0.09513431164999998,0.24009621195,0.035980598849999997,0.009097,-5.8e-05,0.017848,-1.7451914339999999,-9.642682812,0.37746776514999997,-1.7838,1.3877,-0.8299,9.999999999998899e-05,6.249999999763389e-06,9.99999999995449e-06,-3.592966552612431e-05,0.00029975627278799877,0.0002473606416579788
150000000000.0,-1,0.12082773464999999,0.23356498305,-0.012748645,0.019029,-0.004654,0.026469,-1.7478392294999998,-9.6421924795,0.3793604486,-1.7845,1.3874,-0.8292,7.00000000000145e-05,6.2500000002074785e-06,-2.0000000000020002e-05,-0.0009752583063680209,0.0002999266440120163,-0.00036529186835498884
150000000000.0,-1,0.06724419905,0.16666401674999998,-0.057947494849999996,0.020352,-0.006962,0.016894,-1.7498986259999998,-9.641702147,0.38131197195,-1.7853,1.3871,-0.82843,9.999999999998899e-05,3.333333333310762e-05,1.0000000000065512e-05,0.0002561324942713661,7.968048065642996e-05,0.0002204464274804252
150000000000.0,-1,0.01893664115,0.10405836315,-0.07303012254999999,0.021599,-0.008186,0.024147,-1.7521541554999998,-9.641211814499998,0.38367537459999995,-1.7864,1.3869,-0.82748,9.999999999998899e-05,3.333333333355171e-05,3.999999999992898e-05,5.137523516451914e-05,-0.00012049077459574953,0.0001630074294192152
150000000000.0,-1,-0.00430511935,0.0667440599,-0.054868206749999995,0.01793,-0.005713,0.025547,-1.7545077515,-9.640721481999998,0.3857151578,-1.7872,1.3866,-0.82671,7.999999999996898e-05,3.333333333310762e-05,-9.99999999995449e-06,-0.00022081340211399514,-1.6219067169753743e-05,-0.0002802867841935619
150000000000.0,-1,-0.036431704749999995,0.05612345795,0.00858081875,0.016791,-0.008139,0.021956,-1.7589207439999999,-9.6398388835,0.3881079804,-1.788,1.3861,-0.82601,7.00000000000145e-05,0.0001500000000000945,4.0000000000040004e-05,-0.00016203486703258996,-0.0006065423096059952,-0.0001693294720139793
150000000000.0,-1,-0.01915238745,0.05887912659999999,0.041639035899999996,0.0229,-0.006667,0.01119,-1.761666606,-9.639152418,0.39260923275,-1.7901,1.3857,-0.82396,0.00043999999999999595,0.0001500000000000945,7.00000000000145e-05,0.004039271390023913,0.003944330539308538,0.0032314731605920244
150000000000.0,-1,-0.01915238745,0.05887912659999999,0.041639035899999996,0.0229,-0.006667,0.01119,-1.761666606,-9.639152418,0.39260923275,-1.7901,1.3857,-0.82396,7.999999999996898e-05,9.999999999976694e-05,2.999999999997449e-05,-0.00011205176161310781,-0.00012504443243566143,7.429189948759962e-05
150000000000.0,-1,-0.01032640245,0.08877960245,0.053612955549999994,0.019348,-0.010384,0.008788,-1.764020202,-9.638465952499999,0.39723797155,-1.7923,1.3853,-0.82186,4.0000000000040004e-05,0.00010000000000021103,2.4999999999941735e-05,-0.0005342403998052081,0.00010040454104820462,-0.00022175518141875905
150000000000.0,-1,-0.00010787314999999999,0.09081938565,0.06604778774999999,0.028077,-0.014947,0.007767,-1.7654911994999998,-9.637975619999999,0.40307292829999997,-1.7953,1.3851,-0.81902,4.0000000000040004e-05,4.999999999988347e-05,2.5000000000052758e-05,-7.445740138201096e-05,-5.138424920514417e-05,-0.00015395048584498916
150000000000.0,-1,-0.00836507245,0.12390702275,0.0605266438,0.037962,-0.017031,0.003117,-1.7670602635,-9.637387221,0.4097806768999999,-1.7987,1.3848,-0.81578,7.00000000000145e-05,4.999999999988347e-05,4.999999999999449e-05,-0.0004435249464693758,-0.0001285324153477152,5.076949152837962e-05
150000000000.0,-1,-0.02209438245,0.1213867137,0.039295246549999996,0.040471,-0.018094,-0.006459,-1.7680409285,-9.636994955,0.4159000265,-1.8018,1.3845,-0.81279,2.999999999997449e-05,4.999999999988347e-05,9.99999999995449e-06,0.0001158374890584124,-2.384917963116351e-06,-0.00034558112442861777
150000000000.0,-1,-0.03370545605,0.14443234119999998,0.0050308114499999996,0.04546,-0.020318,-0.012376,-1.7691196599999999,-9.6365046225,0.42143097709999994,-1.8047,1.3843,-0.81012,2.999999999997449e-05,5.000000000032756e-05,2.0000000000020002e-05,-0.0003911568438759172,-0.00018476341729001255,-0.00018740674560757675
150000000000.0,-1,-0.041001603649999996,0.1332331469,-0.0275370732,0.044312,-0.02277,-0.012357,-1.7678447955,-9.636602689,0.42632449544999995,-1.8074,1.3843,-0.80752,4.0000000000040004e-05,2.4999999999941735e-05,-9.99999999995449e-06,-0.00011566137645635521,-0.0001798940661990045,-0.0005470051224483186
150000000000.0,-1,-0.047179793149999996,0.13039902504999998,-0.05708450965,0.042947,-0.017932,-0.018459,-1.7658834655,-9.6367007555,0.43103168745,-1.8102,1.3844,-0.8049,4.999999999999449e-05,2.5000000000385825e-05,1.999999999990898e-05,-0.0001476982436405816,-1.587695736504635e-05,4.329274886072376e-05
150000000000.0,-1,-0.0377556025,0.12155342674999998,-0.061056202899999995,0.03563,-0.019389,-0.014928,-1.764020202,-9.636896888499999,0.43530738685,-1.8127,1.3844,-0.80254,2.999999999997449e-05,2.4999999999941735e-05,3.0000000000085514e-05,-0.0005772051305921178,-0.00015178659812153938,-0.0002948217603113701
150000000000.0,-1,-0.05820246775,0.12299500429999999,-0.06032070415,0.030743,-0.019502,-0.019804,-1.7618627389999997,-9.637093021499998,0.43889662075,-1.8149,1.3846,-0.8005,5.999999999994898e-05,2.4999999999941735e-05,-1.0000000000065512e-05,0.00014633821884224574,-4.013200945585105e-05,-0.0001470474287010859
150000000000.0,-1,-0.0551918262,0.09954730415,-0.01036562905,0.024363,-0.011189,-0.026023,-1.759116877,-9.637485287499999,0.44191706894999994,-1.8169,1.3848,-0.79864,9.00000000000345e-05,9.999999999976694e-05,2.0000000000020002e-05,0.0004230622935281758,0.0005305821642027642,0.0005839626806798393
150000000000.0,-1,-0.02374189965,0.09944923765,-0.0009610516999999999,0.025552,-0.009935,-0.027228,-1.7564690815,-9.637779487,0.44479041739999997,-1.8188,1.385,-0.79681,7.00000000000145e-05,-4.999999999988347e-05,2.0000000000020002e-05,1.549793324784332e-05,-0.00024118876120815536,0.00013976093477108265
150000000000.0,-1,-0.02789991925,0.11374733335,-0.00589379665,0.022982,-0.006403,-0.024907,-1.7562729485,-9.637779487,0.4473205331,-1.8202,1.3849,-0.79547,-5.999999999994898e-05,-4.999999999988347e-05,5.000000000032756e-06,-0.0025336770120907293,-0.002009383928309738,-0.0009851789303472192
150000000000.0,-1,-0.0089044382,0.11282550824999998,0.00444241245,0.032861,-0.008505,-0.02715,-1.754605818,-9.6378775535,0.4512039665,-1.8225,1.385,-0.79322,7.999999999996898e-05,9.999999999976694e-05,5.000000000032756e-06,-0.0005619265908505255,-3.4409820874437e-05,0.000187221439200691
150000000000.0,-1,0.0035892338999999997,0.12493672099999999,0.012542705349999999,0.034166,-0.00952,-0.023248,-1.7525464215,-9.637975619999999,0.4559699984,-1.8253,1.3851,-0.79045,2.5000000000052758e-05,0.00010000000000021103,4.999999999921734e-06,-0.00021897115425861813,-0.00017988245674560588,0.00010047029992277245
150000000000.0,-1,0.00752170055,0.1229165511,-0.0125917386,0.037732,-0.005759,-0.026862,-1.7503889585,-9.638171753,0.45970633205,-1.8276,1.3852,-0.78818,2.4999999999941735e-05,9.999999999976694e-05,5.000000000032756e-06,-0.0001245925279516058,-8.124440545165257e-05,0.00017968168556503628
150000000000.0,-1,0.00752170055,0.1229165511,-0.0125917386,0.037732,-0.005759,-0.026862,-1.7503889585,-9.638171753,0.45970633205,-1.8276,1.3852,-0.78818,-1.0000000000065512e-05,3.333333333355171e-05,9.99999999995449e-06,-0.00026888287392945465,3.285177997192079e-05,0.00019441496583394446
150000000000.0,-1,0.0005295590999999999,0.14930624625,-0.07403040085,0.037726,-0.005777,-0.024456,-1.7489179609999999,-9.638465952499999,0.46100080984999997,-1.8285,1.3853,-0.78728,2.0000000000020002e-05,3.333333333310762e-05,1.0000000000065512e-05,0.00011149718667402553,-0.00015695251576675062,0.00012453229667475085
150000000000.0,-1,0.028566771449999997,0.15169906884999998,-0.0921628967,0.032789,-0.004717,-0.024537,-1.7463682319999998,-9.6388582185,0.46116752289999996,-1.829,1.3856,-0.78683,2.999999999997449e-05,3.333333333355171e-05,3.999999999992898e-05,0.00011963546103199718,-0.0001974939605269288,0.0002846270145848706
150000000000.0,-1,0.004716998649999999,0.14485402714999998,-0.1202883689,0.028875,0.002392,-0.021081,-1.7448972345,-9.6392504845,0.4599711116,-1.8285,1.3857,-0.78716,-9.99999999995449e-06,2.4999999999941735e-05,-2.999999999997449e-05,-0.0005213409614432951,0.00016984088176519307,-9.071535513194284e-05
150000000000.0,-1,-0.0140823494,0.16054466715,-0.10988351325,0.017772,0.004457,-0.018854,-1.744603035,-9.639348551,0.45808823479999994,-1.8276,1.3858,-0.78803,2.999999999997449e-05,2.4999999999941735e-05,9.99999999995449e-06,7.29972995037187e-05,-0.00021838880542057737,0.00010266013685500397
150000000000.0,-1,0.013886216399999998,0.1456091392,-0.08191494744999998,0.011574,0.006697,-0.020172,-1.7425436384999997,-9.6396427505,0.4593042594,-1.8285,1.386,-0.787,2.0000000000020002e-05,2.4999999999941735e-05,-1.999999999990898e-05,-9.437703810100118e-05,9.498844164390619e-05,0.00023665736353351008
150000000000.0,-1,0.0012356379,0.16026027429999998,-0.062223194249999995,0.005248,0.012515,-0.015527,-1.7407784414999998,-9.63993695,0.45981420519999994,-1.829,1.3862,-0.78634,2.999999999997449e-05,2.4999999999941735e-05,9.99999999995449e-06,5.531706299222172e-05,-0.00029899908712427425,8.152388705862101e-05
150000000000.0,-1,0.0160632927,0.16001510805,-0.0437572723,-0.007146,0.016993,-0.018163,-1.7390132444999997,-9.640329216,0.459147353,-1.8289,1.3863,-0.78627,-0.00015999999999993797,-0.00019999999999997797,2.0000000000020002e-05,-0.0022868325199165707,-0.0020660431081240827,-0.0016799923713979314
150000000000.0,-1,-0.0036676871,0.1575536389,-0.019338713799999997,-0.01098,0.021696,-0.015875,-1.7372480474999998,-9.640721481999998,0.45792152175,-1.8285,1.3866,-0.78647,2.999999999997449e-05,5.000000000032756e-05,-1.0000000000065512e-05,-0.00015967260328064725,0.00013206920078356887,0.00015503097519342646
150000000000.0,-1,-0.0007060788,0.13371367274999998,-7.845319999999999e-05,-0.013549,0.025228,-0.013554,-1.7370519145,-9.6408195485,0.45632303779999994,-1.8277,1.3866,-0.78706,2.0000000000020002e-05,4.999999999988347e-05,1.0000000000065512e-05,0.00032830531219385506,0.00013209031102134894,0.00033349567663210067
150000000000.0,-1,-0.027811659399999997,0.1422160383,0.00784532,-0.012294,0.024031,-0.00991,-1.7383267789999999,-9.640623415499999,0.45512662649999996,-1.8269,1.3865,-0.78762,3.999999999992898e-05,3.333333333310762e-05,9.99999999995449e-06,7.361342893541512e-05,2.1513532505235133e-05,0.0003629865366148177
150000000000.0,-1,-0.015072821049999999,0.12820233544999998,-0.0007158854499999999,-0.00985,0.024087,-0.007472,-1.7393074439999998,-9.640525349,0.45366543564999995,-1.8259,1.3865,-0.78828,4.0000000000040004e-05,3.333333333355171e-05,2.999999999997449e-05,0.00045166236929561343,-0.00010618742626355981,0.000679031368435945
150000000000.0,-1,0.0164947853,0.1363908882,0.005275977699999999,-0.006207,0.025432,-0.011051,-1.7388171115,-9.640623415499999,0.45306722999999993,-1.8257,1.3865,-0.78826,6.0000000000060005e-05,3.333333333310762e-05,3.0000000000085514e-05,0.0006271249805398504,8.099373881820249e-05,0.0007459706320180892
150000000000.0,-1,0.02189824945,0.160436794,-0.0426785408,-0.006323,0.029056,-0.011104,-1.738130646,-9.640917615,0.4504390478,-1.8244,1.3867,-0.78927,1.999999999990898e-05,3.333333333355171e-05,-3.0000000000085514e-05,-0.0004887240138802262,0.00016068494318766113,-3.8639600782985895e-05
150000000000.0,-1,0.02283968785,0.1831097688,-0.06832293055,-0.005093,0.02911,-0.013495,-1.7370519145,-9.641113747999999,0.44944857614999995,-1.824,1.3868,-0.78936,2.0000000000020002e-05,3.333333333310762e-05,2.0000000000020002e-05,0.00018142470107562758,7.5237867756206e-05,0.00035793374606507555
150000000000.0,-1,0.02283968785,0.1831097688,-0.06832293055,-0.005093,0.02911,-0.013495,-1.7370519145,-9.641113747999999,0.44944857614999995,-1.824,1.3868,-0.78936,6.0000000000060005e-05,3.333333333355171e-05,4.0000000000040004e-05,0.00010187039397679953,-0.00020983508778016358,0.0005942864297128203
150000000000.0,-1,0.03421540185,0.15712214630000002,-0.0722357839,-0.011154,0.030297,-0.0085,-1.7363654489999998,-9.641309881,0.44796777199999993,-1.8233,1.3869,-0.78973,5.999999999994898e-05,3.333333333310762e-05,-9.99999999995449e-06,0.0006418801765035731,-6.935754669412653e-05,0.0007162761018975061
150000000000.0,-1,-0.0032361944999999997,0.1565337473,-0.07260843659999999,-0.013804,0.036235,-0.00501,-1.735973183,-9.641506013999999,0.44595740875,-1.8222,1.387,-0.7904,2.999999999997449e-05,3.333333333355171e-05,2.999999999997449e-05,-0.0002914313467214935,-0.00035399233111288453,0.00038758908756419963
150000000000.0,-1,0.009208444349999999,0.1612605526,-0.0722946238,-0.017508,0.037358,-0.008685,-1.7352867175,-9.641702147,0.44354497284999994,-1.821,1.3871,-0.79123,3.0000000000085514e-05,3.333333333310762e-05,9.99999999995449e-06,0.00014043614609637878,4.499744540931161e-05,0.00040432872485340887
150000000000.0,-1,0.011846433200000001,0.1579851315,-0.04406127844999999,-0.017717,0.043344,-0.001554,-1.7350905845,-9.64189828,0.44089717734999995,-1.8196,1.3872,-0.79221,4.999999999999449e-05,3.333333333355171e-05,1.0000000000065512e-05,0.0002209198965514858,-0.00023669653355251619,0.00045054765335583724
150000000000.0,-1,-0.00289296175,0.14561894585,-0.0355392996,-0.015152,0.039795,-0.001469,-1.7352867175,-9.64189828,0.43866126115,-1.8184,1.3873,-0.79304,-3.0000000000085514e-05,3.333333333310762e-05,-4.0000000000040004e-05,-0.0002227601172877236,-4.80419065360671e-05,-0.00010898700226213975
150000000000.0,-1,-0.0082964259,0.11025616594999998,0.006688135299999999,-0.0116,0.043512,0.000932,-1.7352867175,-9.6419963465,0.43653321809999995,-1.8172,1.3873,-0.79374,7.00000000000145e-05,3.333333333355171e-05,4.0000000000040004e-05,0.0003210292370068313,-0.00010218579018528295,0.0006832844491684309
150000000000.0,-1,-0.026105302299999997,0.10652963894999999,0.03064578125,-0.010233,0.040014,-0.011031,-1.7347963849999999,-9.6421924795,0.4347287945,-1.8163,1.3874,-0.79423,-9.99999999995449e-06,2.4999999999941735e-05,-3.0000000000085514e-05,6.097357145740112e-05,0.00040357476378449775,-9.637052834654547e-05
150000000000.0,-1,0.013356657299999998,0.1034797708,0.0161613592,-0.007861,0.042503,-0.011034,-1.7339137864999998,-9.6423886125,0.43320876374999995,-1.8156,1.3875,-0.79449,2.999999999997449e-05,2.4999999999941735e-05,-9.99999999995449e-06,0.0003192810200223217,-0.0002415451581252448,0.0005025200463408819
150000000000.0,-1,0.0128074849,0.144746154,-0.0178677163,-0.008905,0.036384,-0.004947,-1.73381572,-9.642584745499999,0.4308649744,-1.8144,1.3876,-0.79534,1.0000000000065512e-05,2.4999999999941735e-05,-2.999999999997449e-05,-0.0002741173104237049,-1.114887436526324e-05,0.00014918005130537537
150000000000.0,-1,-0.00658026215,0.14308883014999998,-0.047424959399999994,-0.006479,0.037719,-0.012152,-1.7348944515,-9.642486679,0.42675598805,-1.812,1.3876,-0.7973,9.99999999995449e-06,2.4999999999941735e-05,2.0000000000020002e-05,4.307095822064788e-05,-0.0003404429689461974,0.00026075749496246026
150000000000.0,-1,0.01958388005,0.15171868215,-0.0256149698,-0.006399,0.035312,-0.01332,-1.7341099194999998,-9.6427808785,0.4242552923,-1.8107,1.3877,-0.79818,-9.99999999995449e-06,3.333333333355171e-05,-1.0000000000065512e-05,-0.00010711700250265466,-0.0001457878342732144,0.00019585520083209573
150000000000.0,-1,-0.012170052649999999,0.15566095545,-0.021456950199999998,-0.002882,0.040245,-0.012139,-1.7351886509999999,-9.642682812,0.4223331889,-1.8096,1.3877,-0.79892,-1.0000000000065512e-05,3.333333333310762e-05,-2.0000000000020002e-05,-0.000430654315498602,0.0001244249599154923,-0.00013623164984832847
150000000000.0,-1,0.019446586949999997,0.18119747205,-0.010944221399999999,-0.005144,0.034115,-0.009677,-1.7348944515,-9.6427808785,0.42095045124999997,-1.8088,1.3877,-0.79925,-9.99999999995449e-06,3.333333333355171e-05,4.0000000000040004e-05,0.00027331907957961477,-0.00036123140481647553,0.00023931296315371497
150000000000.0,-1,0.012415218899999999,0.18360010129999998,0.009963556399999999,-0.007585,0.034067,-0.013318,-1.7335215205,-9.643075077999999,0.4194892604,-1.8082,1.3879,-0.79952,-2.0000000000020002e-05,4.999999999988347e-05,4.0000000000040004e-05,-2.3852394087198192e-05,-0.00010322286923813984,0.0003193415396067767
150000000000.0,-1,0.01379795655,0.1687920598,0.01169933345,-0.001454,0.034279,-0.016848,-1.7320505229999998,-9.6433692775,0.41850859539999996,-1.8079,1.3881,-0.79949,-4.0000000000040004e-05,4.999999999988347e-05,9.99999999995449e-06,0.00028949148319079576,-0.00024084256213052768,0.00026043572859202335
150000000000.0,-1,0.01379795655,0.1687920598,0.01169933345,-0.001454,0.034279,-0.016848,-1.7320505229999998,-9.6433692775,0.41850859539999996,-1.8079,1.3881,-0.79949,-4.999999999999449e-05,5.000000000032756e-05,9.99999999995449e-06,0.00029554189703873135,-0.0003187888405153938,0.00022838220534282527
150000000000.0,-1,0.0076688003,0.1516892622,0.0389127872,-6.4e-05,0.02952,-0.021575,-1.7299911265,-9.6437615435,0.41793000305,-1.8078,1.3883,-0.7992,-7.999999999996898e-05,4.999999999988347e-05,-5.999999999994898e-05,0.0001516536421823922,1.1869052170876415e-05,0.00016886189741116553
150000000000.0,-1,-0.00257914895,0.17420533059999999,0.00053936575,0.003851,0.026212,-0.023599,-1.7280297965,-9.6441538095,0.41769464344999996,-1.808,1.3885,-0.79876,-2.999999999997449e-05,2.0000000000131024e-05,-2.0000000000020002e-05,-0.00018324770639255306,-0.00041948545697079176,0.0003018968006767153
150000000000.0,-1,0.009924329800000001,0.17224400059999997,0.005687856999999999,0.006221,0.028693,-0.022399,-1.7270491314999998,-9.6443499425,0.41853801535,-1.8086,1.3886,-0.79787,-4.999999999999449e-05,1.9999999999686935e-05,-4.0000000000040004e-05,-0.00015407147952051226,-1.4723059206245281e-05,-0.00011636962913974536
150000000000.0,-1,-0.02260432825,0.14454021435,-0.00183384355,0.002746,0.022561,-0.024766,-1.727147198,-9.644251875999998,0.41872434169999995,-1.8087,1.3886,-0.79751,-3.0000000000085514e-05,2.0000000000131024e-05,-1.999999999990898e-05,0.0002926713364526101,-0.0004610173610539725,0.0001399483309505456
150000000000.0,-1,-0.0079629998,0.1286044081,0.02042725195,0.004042,0.020165,-0.022308,-1.726362666,-9.6443499425,0.42010707935,-1.8095,1.3886,-0.79644,-5.999999999994898e-05,1.9999999999686935e-05,-4.0000000000040004e-05,-5.834760878609124e-05,5.9207188531473776e-05,-0.0003116073347684267
150000000000.0,-1,-0.0236144132,0.12771200295,0.00930651085,-0.008161,0.018596,-0.023653,-1.726362666,-9.6443499425,0.41985210644999993,-1.8094,1.3886,-0.79636,-3.500000000000725e-05,2.0000000000131024e-05,-9.99999999995449e-06,-0.0005472338648371267,-0.0001405851628204502,0.00010809079053619719
150000000000.0,-1,-0.01473939495,0.095124505,0.031577413,-0.013155,0.020802,-0.01533,-1.726166533,-9.6443499425,0.4200384328,-1.8095,1.3886,-0.79603,-3.500000000000725e-05,2.0000000000131024e-05,-7.00000000000145e-05,0.00013296337558021953,0.00023717995807426284,-0.00022487829885498023
150000000000.0,-1,-0.056231331100000004,0.07902198569999999,0.0238497728,-0.009322,0.016099,-0.017618,-1.7244994025,-9.644742208499999,0.41862627519999995,-1.8089,1.3888,-0.7964,-5.999999999994898e-05,2.0000000000131024e-05,-3.0000000000085514e-05,0.0001988913906132428,7.890130022381037e-05,-0.00022237777322797747
150000000000.0,-1,-0.0679993111,0.04946474259999999,0.0322050386,-0.0081,0.016127,-0.016399,-1.7227342055,-9.645134474499999,0.41730237745,-1.8085,1.389,-0.79673,-8.000000000008001e-05,1.9999999999686935e-05,-4.999999999999449e-05,-0.00025800500951289607,-6.526315025956464e-06,-0.0004706783401022818
150000000000.0,-1,-0.051788918649999995,0.08974065414999999,0.06797969779999999,-0.000526,0.009086,-0.013791,-1.724401336,-9.644742208499999,0.42028359904999996,-1.8099,1.3888,-0.79524,-5.999999999994898e-05,2.0000000000131024e-05,-1.999999999990898e-05,7.122125412006852e-05,1.7507369312275145e-05,-8.162129481492642e-05
150000000000.0,-1,0.00542307745,0.1632022693,0.0760799907,0.006899,0.006892,-0.01366,-1.724205203,-9.6445460755,0.42475543144999994,-1.8123,1.3887,-0.7927,-0.00012999999999996348,2.0000000000131024e-05,-6.0000000000060005e-05,0.0003958481177381845,0.00022410107640458143,-0.0005600219711150434
150000000000.0,-1,0.031038047249999996,0.2272004672,0.05955578545,0.00949,0.002091,-0.007542,-1.723420671,-9.644448009,0.42885461114999995,-1.8147,1.3887,-0.79035,-9.00000000000345e-05,3.333333333310762e-05,-4.999999999921734e-06,0.00027364425856490904,0.0001629874241424467,-0.00027977584813387857
150000000000.0,-1,0.056025391449999996,0.27716534895,0.024977537549999998,0.019487,-0.003625,-0.010936,-1.7222438729999998,-9.644644141999999,0.430511935,-1.8158,1.3888,-0.78928,-0.0001100000000000545,3.333333333355171e-05,-5.000000000032756e-06,-0.00030735337935894336,0.00012037232426131972,-0.00032159074650728314
150000000000.0,-1,0.03792231555,0.21079394175,-0.053897348399999996,0.014821,-0.011019,-0.010894,-1.721067075,-9.644840275,0.43038444855,-1.8158,1.3889,-0.78925,-0.00012000000000000899,3.333333333310762e-05,-2.999999999997449e-05,-0.00046613145724494487,0.00010574596481682796,-0.0005582155718326653
150000000000.0,-1,-0.022290515449999996,0.1651047594,-0.06251739375,0.013514,-0.008658,-0.008539,-1.7223419395,-9.644644141999999,0.4298843094,-1.8154,1.3888,-0.78977,-6.999999999990347e-05,5.000000000032756e-05,-2.0000000000020002e-05,0.0002766072896067673,-7.939628889852557e-05,7.988337133313372e-05
150000000000.0,-1,-0.022290515449999996,0.1651047594,-0.06251739375,0.013514,-0.008658,-0.008539,-1.7223419395,-9.644644141999999,0.4298843094,-1.8154,1.3888,-0.78977,-0.00012000000000000899,4.999999999988347e-05,-2.0000000000020002e-05,-0.0008667055137636659,0.0002892426275786786,-0.0003728427103570908
150000000000.0,-1,-0.02099603765,0.1558472818,-0.046856173699999996,0.00994,-0.012445,-0.001315,-1.7239110034999998,-9.6443499425,0.4296293365,-1.815,1.3886,-0.79021,-0.0001100000000000545,3.333333333310762e-05,-2.999999999997449e-05,-0.0004391636400138399,3.4279899488121046e-05,-0.0001872309386656834
150000000000.0,-1,-0.0091005712,0.15881869675,-0.0195152335,0.006302,-0.013773,-0.000142,-1.7256762004999997,-9.644055743,0.4299627626,-1.815,1.3884,-0.7904,-0.00012000000000000899,3.333333333355171e-05,-3.0000000000085514e-05,-0.000355334827687237,0.000357853881011172,-0.0002826228358148164
150000000000.0,-1,0.02778223945,0.1673210623,0.0053740442,0.006438,-0.013594,0.000147,-1.725382001,-9.644055743,0.4314141468,-1.8158,1.3884,-0.78973,-0.00012000000000000899,3.333333333310762e-05,-5.999999999994898e-05,-0.0005988232125579973,2.5762706401977198e-05,-0.0005699512941215179
150000000000.0,-1,0.033146477,0.18461999289999997,0.015984839499999997,0.000429,-0.017411,0.001323,-1.725382001,-9.6439576765,0.4327772711499999,-1.8166,1.3884,-0.78917,-8.999999999992347e-05,0.00010000000000021103,2.0000000000020002e-05,-0.0005280988763374239,0.00015570050410795844,-0.0004147693201304037
150000000000.0,-1,0.0355392996,0.1634768555,0.0233202137,-0.004475,-0.017577,0.003666,-1.7256762004999997,-9.64385961,0.4327772711499999,-1.8165,1.3884,-0.78941,-0.000160000000000049,5.000000000032756e-05,-7.999999999996898e-05,-0.0006799462634023978,6.672176082545e-05,-0.0006774580348938297
150000000000.0,-1,0.00783551335,0.1372931,0.047925098549999996,-0.00309,-0.022353,0.001346,-1.7256762004999997,-9.6439576765,0.4327086245999999,-1.8165,1.3884,-0.78967,-0.00010999999999994348,4.999999999988347e-05,-6.0000000000060005e-05,-0.00034954496498995624,0.00010894152411577984,-0.0006340699799189942
150000000000.0,-1,-0.021751149699999996,0.11702275444999999,0.058388794099999995,-0.00306,-0.023588,0.004973,-1.7259703999999998,-9.64385961,0.43287533764999997,-1.8165,1.3883,-0.78987,-8.000000000008001e-05,4.999999999988347e-05,-2.999999999997449e-05,-0.0005827186135538565,-0.00014281407846250538,-0.000701519180068777
150000000000.0,-1,-0.028811937699999998,0.1183270389,0.0341075287,-0.00661,-0.027295,0.001368,-1.7262645994999999,-9.64385961,0.43275765785,-1.8164,1.3883,-0.79027,-9.999999999998899e-05,4.999999999988347e-05,-2.0000000000020002e-05,5.413750611937829e-05,0.00018747967286780742,-0.00048137118772073606
150000000000.0,-1,-0.0264583417,0.1058529801,0.0029812216,-0.002938,-0.027193,0.002619,-1.7282259295,-9.643467344,0.43306166399999996,-1.8163,1.3881,-0.79068,-7.999999999996898e-05,3.333333333355171e-05,-2.999999999997449e-05,-0.0002927847437916853,-0.0001306281473103521,-0.0004517764945739522
150000000000.0,-1,-0.045698988999999995,0.1015380541,0.011179581,0.000813,-0.029497,0.002702,-1.731069858,-9.642878945,0.43414039549999994,-1.8165,1.3878,-0.7908,-7.999999999996898e-05,3.333333333310762e-05,-2.999999999997449e-05,-0.0001355986414606214,0.00020683128937837303,-0.00043593270982666965
150000000000.0,-1,-0.01011065615,0.1150123912,0.014808041499999999,0.002167,-0.03304,-0.003245,-1.7309717914999998,-9.642878945,0.43469937454999996,-1.8168,1.3878,-0.79081,-0.00010000000000010001,3.333333333355171e-05,-1.0000000000065512e-05,-0.0005456784954176452,-0.0003212651503106123,-0.00046209162379207136
150000000000.0,-1,-0.0074040207499999995,0.1355082897,0.0042462794499999994,0.00947,-0.031627,-0.00076,-1.730677592,-9.642878945,0.43598404569999993,-1.8176,1.3878,-0.79039,-0.00013999999999991797,9.999999999976694e-05,-4.999999999999449e-05,-0.0003003580971006059,3.438939743749536e-05,-0.0003476305922167633
150000000000.0,-1,-0.02982202265,0.1621235378,0.0012748644999999999,0.015752,-0.036256,-0.003017,-1.7301872594999999,-9.642878945,0.43806305549999996,-1.8188,1.3878,-0.78957,-9.999999999998899e-05,5.000000000032756e-05,-2.0000000000020002e-05,-0.00024089093037571452,0.00020657254611222697,-0.0004345272178849502
150000000000.0,-1,-0.026213175449999997,0.17860851644999998,-0.0021770762999999997,0.023163,-0.038493,0.003131,-1.730285326,-9.6427808785,0.44076969089999996,-1.8202,1.3877,-0.78849,-9.999999999998899e-05,4.999999999988347e-05,-3.999999999992898e-05,-0.0006947194053130712,-0.00027953205597341935,0.00012274093955899623
150000000000.0,-1,-0.026213175449999997,0.17860851644999998,-0.0021770762999999997,0.023163,-0.038493,0.003131,-1.730285326,-9.6427808785,0.44076969089999996,-1.8202,1.3877,-0.78849,-9.00000000000345e-05,9.999999999976694e-05,2.999999999997449e-05,0.0005766279042234146,7.494369479621454e-05,-0.0002877674079408976
150000000000.0,-1,-0.019966339399999998,0.18601253719999997,-0.029557243100000002,0.02827,-0.044331,-0.003937,-1.729696927,-9.642682812,0.44434911814999994,-1.8222,1.3877,-0.78691,-0.00012999999999996348,0.00019999999999997797,-0.00014999999999998348,0.0017359560366458915,0.002730235277303761,-0.0005804756928813326
150000000000.0,-1,-0.0375986961,0.17220477399999998,-0.0035794272499999995,0.030565,-0.039426,-0.003975,-1.7290104615,-9.642584745499999,0.4481540983499999,-1.8244,1.3876,-0.78514,-8.000000000008001e-05,0.00019999999999997797,-4.0000000000040004e-05,-0.00011912600075159041,2.5971669985080936e-05,-0.00019514092125327842
150000000000.0,-1,-0.032911117399999995,0.1599268482,-0.05783962169999999,0.023324,-0.043306,0.000794,-1.7322466559999998,-9.6419963465,0.44884056384999993,-1.8243,1.3873,-0.78561,-5.999999999994898e-05,4.999999999988347e-05,2.5000000000052758e-05,0.0003436594657644232,7.317588618205306e-05,0.00015493251372666883
150000000000.0,-1,-0.01823056235,0.1726558799,-0.06787182465,0.0208,-0.040956,-0.000476,-1.734600252,-9.641604080499999,0.44899747025,-1.8241,1.3871,-0.78624,-4.0000000000040004e-05,5.000000000032756e-05,2.4999999999941735e-05,0.00037461304542962814,4.565813395696061e-05,0.00014485340813075176
150000000000.0,-1,-0.009414384,0.16077022009999997,-0.0604481906,0.019621,-0.038419,0.000956,-1.7365615819999998,-9.641211814499998,0.44935050965,-1.824,1.3868,-0.78669,-7.999999999996898e-05,9.999999999976694e-05,-6.666666666710341e-06,0.0001201359082170228,4.488761251764117e-05,4.500327045509067e-05
150000000000.0,-1,-0.0046679654,0.14401065524999998,-0.058830093349999994,0.013396,-0.034937,-0.005193,-1.7358751165,-9.641211814499998,0.45163545909999997,-1.8253,1.3869,-0.78573,-6.0000000000060005e-05,0.00010000000000021103,-6.666666666599319e-06,0.00012134818631559519,-4.3621829547646485e-05,-0.0002656433954959514
150000000000.0,-1,-0.013778343249999998,0.1280160091,-0.0268898343,0.010906,-0.033812,-0.004039,-1.735384784,-9.641211814499998,0.45350852925,-1.8264,1.3869,-0.78499,-7.999999999996898e-05,9.999999999976694e-05,-6.666666666710341e-06,0.0003021038345525362,0.00020310019527247647,2.509165897279786e-06
150000000000.0,-1,-0.0579573015,0.09441842619999999,0.018161915799999998,0.008341,-0.030262,-0.004124,-1.7378364465,-9.640721481999998,0.45513643314999996,-1.8269,1.3866,-0.78476,-0.00010999999999994348,0.00010000000000021103,-2.999999999997449e-05,0.00011786745231079365,0.00043743132221640835,-0.0003448985776350888
150000000000.0,-1,-0.059771531749999995,0.1019107068,0.026585828149999997,0.011897,-0.026537,-0.002925,-1.7411707075,-9.63993695,0.4582451412,-1.8281,1.3862,-0.78385,-6.0000000000060005e-05,9.999999999976694e-05,4.999999999921734e-06,0.0002609817340049059,0.0005515138325700164,9.183592068873203e-05
150000000000.0,-1,-0.059869598249999996,0.09564425744999999,0.00842391235,0.014318,-0.02522,-0.007723,-1.7437204364999999,-9.639348551,0.46069680369999993,-1.8291,1.3858,-0.78317,-9.999999999998899e-05,5.000000000032756e-05,5.000000000032756e-06,-0.0015044590668786828,-0.000421982051022729,-0.00048294749336563747
150000000000.0,-1,-0.052759777,0.13177195604999997,-0.0263798885,0.017945,-0.023927,-0.004083,-1.7463682319999998,-9.6388582185,0.46197166819999996,-1.8294,1.3855,-0.78307,-2.999999999997449e-05,4.999999999988347e-05,3.0000000000085514e-05,0.00024681510902535564,0.00010963160071120193,0.00027039583440924275
150000000000.0,-1,-0.02299659425,0.1433536097,-0.0444241245,0.011961,-0.028996,0.003127,-1.7484276285,-9.638465952499999,0.4622070278,-1.8292,1.3853,-0.78349,-0.000160000000000049,4.999999999988347e-05,-9.00000000000345e-05,-0.0009954058242469532,-0.0006904033767938245,-0.0008119862092750285
150000000000.0,-1,-0.03056732805,0.1417845457,-0.0657437816,0.009326,-0.023005,-0.000602,-1.750683158,-9.638073686499999,0.46123616944999996,-1.8284,1.3851,-0.78457,-7.00000000000145e-05,4.999999999988347e-05,-2.999999999997449e-05,-0.0003592578426367954,-0.0003655064816963094,-0.00010500316443962099
150000000000.0,-1,-0.015582766849999999,0.16827230734999998,-0.0752954587,0.006694,-0.017005,-0.005535,-1.7519580225,-9.637975619999999,0.4597161387,-1.8274,1.385,-0.78571,-8.999999999992347e-05,0.00010000000000021103,-4.999999999999449e-05,0.00026539699049243914,8.184346359763062e-05,-3.9509831623041336e-05
150000000000.0,-1,0.02085874455,0.16785062139999998,-0.0663125673,0.004072,-0.012309,0.002786,-1.7521541554999998,-9.637975619999999,0.4582059146,-1.8266,1.3851,-0.78667,-6.0000000000060005e-05,9.999999999976694e-05,2.0000000000020002e-05,-0.0004137430632198402,0.0002914025719826796,0.00023438030665889897
150000000000.0,-1,0.02085874455,0.16785062139999998,-0.0663125673,0.004072,-0.012309,0.002786,-1.7521541554999998,-9.637975619999999,0.4582059146,-1.8266,1.3851,-0.78667,-2.999999999997449e-05,0.00010000000000021103,-1.0000000000065512e-05,0.0002627530909633524,-0.00024341506814051783,0.001042084322814718
150000000000.0,-1,0.0147295883,0.15494507000000002,-0.0577611685,0.000442,-0.01361,0.000349,-1.7527425545,-9.6378775535,0.4566956905,-1.8257,1.385,-0.78771,-5.999999999994898e-05,0.00010000000000021103,-9.99999999995449e-06,-0.00038315680339584546,6.386996670904033e-05,4.6634812558288274e-06
150000000000.0,-1,-0.009022117999999999,0.1454718461,-0.019073934249999997,0.00523,-0.009822,-0.002046,-1.7537232194999999,-9.637779487,0.45705853655,-1.8258,1.3849,-0.78774,-0.00024000000000001798,0.00010000000000021103,-0.00012000000000000899,-0.00043080983458532174,0.0001882943133686421,-0.0015403095188792904
150000000000.0,-1,-0.01717144415,0.1344295582,-0.01766177665,0.002712,-0.007454,-0.005723,-1.754409685,-9.637583353999998,0.45714679639999994,-1.8257,1.3849,-0.78786,-9.00000000000345e-05,9.999999999976694e-05,-4.999999999999449e-05,1.5778617748374302e-05,8.072394502356417e-05,-1.9190902162513623e-05
150000000000.0,-1,-0.03182257925,0.1440989151,-0.014337322299999998,0.001495,-0.007464,-0.009348,-1.7554884165,-9.637387221,0.4572644762,-1.8256,1.3847,-0.78802,-4.0000000000040004e-05,4.999999999988347e-05,2.0000000000020002e-05,0.0002792815963803541,-0.00046168881551511554,0.0007223815475518869
150000000000.0,-1,-0.026585828149999997,0.14544242615,-0.0472288264,0.003627,0.002245,-0.005848,-1.7545077515,-9.637583353999998,0.45768616214999996,-1.826,1.3848,-0.78765,-6.999999999990347e-05,4.999999999988347e-05,-2.0000000000020002e-05,0.0006687284970685603,7.670753306654454e-05,0.0005175534342614085
150000000000.0,-1,-0.03521568015,0.16219218435000002,-0.04797413179999999,0.003665,0.004764,-0.003188,-1.7565671479999998,-9.637191088,0.4566368506,-1.8251,1.3847,-0.78844,9.99999999995449e-06,0.00010000000000021103,2.0000000000020002e-05,0.0007971358280822738,-7.913325878594613e-05,0.0009421493487671295
150000000000.0,-1,-0.033744682649999996,0.1599072349,-0.0434630728,0.002312,0.008306,0.00276,-1.7587246109999999,-9.636896888499999,0.45526391959999996,-1.8241,1.3845,-0.78938,-6.0000000000060005e-05,0.00019999999999997797,-2.0000000000020002e-05,-0.00010165970129150104,-5.7409982142431204e-05,0.0002679827095570797
150000000000.0,-1,-0.027478233299999995,0.16227063754999999,-0.0503277278,-0.001439,0.010611,0.002677,-1.7609801405,-9.636602689,0.453459496,-1.8228,1.3843,-0.79052,-3.999999999992898e-05,9.999999999976694e-05,-2.0000000000020002e-05,0.00023127785734011752,0.0001173104258509472,0.0006400612403312245
150000000000.0,-1,-0.012621158549999999,0.16717396255,-0.024751984600000002,-0.000353,0.015532,-0.004597,-1.7622550049999999,-9.636406555999999,0.45255728419999997,-1.8222,1.3842,-0.791,-7.999999999996898e-05,0.00010000000000021103,-2.999999999997449e-05,0.00059592267048858,0.0002442196889771431,0.00012486128494382243
150000000000.0,-1,-0.0202801522,0.15964245534999996,-0.029831829299999998,-0.004223,0.02145,-0.003529,-1.7618627389999997,-9.6365046225,0.4518119788,-1.8218,1.3842,-0.79114,-7.00000000000145e-05,9.999999999976694e-05,-7.00000000000145e-05,-0.0006853959254522479,-7.886665909850876e-05,6.242574210979512e-05
150000000000.0,-1,-0.0041776329,0.15125776959999998,-0.0355981395,-0.007968,0.023772,-0.006019,-1.7613724064999998,-9.636602689,0.4506940207,-1.8213,1.3843,-0.79143,-4.0000000000040004e-05,0.00010000000000021103,-4.0000000000040004e-05,0.0003247848822223176,-3.467201191886815e-05,0.0007984927964708177
150000000000.0,-1,0.008257199299999999,0.1436870358,-0.01568083335,-0.01186,0.030952,-0.012188,-1.760685941,-9.636896888499999,0.44903669685000003,-1.8205,1.3844,-0.7919,-4.0000000000040004e-05,0.00019999999999997797,-3.999999999992898e-05,-0.0005459949763719774,0.000112057861287429,3.995619103802639e-06
150000000000.0,-1,-0.02595820255,0.1305657381,-0.020878357849999998,-0.015629,0.033195,-0.003849,-1.7600975419999998,-9.636994955,0.4470459469,-1.8195,1.3845,-0.79254,-9.99999999995449e-06,9.999999999976694e-05,-3.0000000000085514e-05,0.0009104163379567431,9.611965648326226e-05,0.0003171769783012479
150000000000.0,-1,-0.05280881025,0.11647358205,0.01807365595,-0.009606,0.037056,-0.011041,-1.7621569384999998,-9.6367007555,0.44594760209999995,-1.8187,1.3844,-0.79303,-5.999999999994898e-05,0.00010000000000021103,-2.999999999997449e-05,-0.00028837680954962863,8.380001081986777e-05,0.0003918343056459328
150000000000.0,-1,-0.03372506935,0.12070024819999998,0.005099457999999999,-0.010944,0.040651,-0.012313,-1.7631376035,-9.636602689,0.44456486444999993,-1.8178,1.3843,-0.79348,-4.999999999999449e-05,9.999999999976694e-05,1.0000000000065512e-05,4.488306192196312e-05,0.00018054807877554424,0.00016312496620041195
150000000000.0,-1,-0.03372506935,0.12070024819999998,0.005099457999999999,-0.010944,0.040651,-0.012313,-1.7631376035,-9.636602689,0.44456486444999993,-1.8178,1.3843,-0.79348,-3.0000000000085514e-05,4.999999999988347e-05,-4.0000000000040004e-05,-0.0002555538485131681,-1.982045454007597e-05,0.0004775947800410574
150000000000.0,-1,-0.04521846314999999,0.12237718535,-0.0046287388,-0.00966,0.038211,-0.003839,-1.7650989335,-9.6363084895,0.44262314775,-1.8165,1.3842,-0.79437,-1.4999999999987246e-05,5.000000000032756e-05,-4.0000000000040004e-05,-0.00016673229354879915,0.0003225042532550848,0.00040378767534110516
150000000000.0,-1,-0.0294591766,0.12338727029999999,-0.0144746154,0.001404,0.037354,-0.006084,-1.7663737979999998,-9.6361123565,0.44154441625,-1.8158,1.3841,-0.79471,-1.4999999999987246e-05,9.999999999976694e-05,-2.999999999997449e-05,-0.0004269203373230557,-9.853569478734947e-05,0.00024311080901129323
150000000000.0,-1,-0.0187503148,0.13661644115,-0.015425860449999999,0.001124,0.045773,-0.001394,-1.767942862,-9.635916223499999,0.44054413794999997,-1.815,1.3839,-0.79497,-2.0000000000020002e-05,0.00010000000000021103,-5.999999999994898e-05,-0.0002008862873521533,-0.00012974504846918755,0.0003522753737799089
150000000000.0,-1,0.03168528615,0.1658892914,-0.0074432473499999995,0.001173,0.044601,-0.006189,-1.7676486624999999,-9.63601429,0.43973999264999997,-1.8146,1.384,-0.79487,-2.0000000000020002e-05,0.00010000000000021103,-7.00000000000145e-05,-0.0003422630908316293,0.00011522968874855266,0.00031676650438372533
150000000000.0,-1,0.01925045395,0.17723558544999998,-0.0043247326499999995,0.008515,0.044805,-0.003687,-1.767746729,-9.63601429,0.4397694126,-1.8146,1.384,-0.79439,-9.99999999995449e-06,9.999999999976694e-05,-4.0000000000040004e-05,-0.0005553594719691635,2.6757598423632345e-05,0.00040783822272261183
150000000000.0,-1,0.007394214099999999,0.1869932022,-0.039403119699999996,0.014599,0.046198,-0.003625,-1.7684331944999998,-9.635818157,0.43938695324999993,-1.8143,1.3839,-0.79417,9.99999999995449e-06,0.00010000000000021103,-5.999999999994898e-05,-4.184905642556913e-05,0.0001362647013471996,0.0005794166483101826
150000000000.0,-1,0.0431884866,0.17730423199999998,-0.0429923536,0.012232,0.0474,-0.004582,-1.7682370614999998,-9.635916223499999,0.43968115274999997,-1.8145,1.3839,-0.79346,3.0000000000085514e-05,9.999999999976694e-05,-2.0000000000020002e-05,-0.0005031314945600496,-5.2063349594844155e-05,0.0006305679817020238
150000000000.0,-1,0.020927391099999998,0.1816387713,-0.04502233014999999,0.015751,0.052342,-0.004604,-1.7681389949999997,-9.635916223499999,0.4402205185,-1.8148,1.3839,-0.7926,2.999999999997449e-05,4.999999999988347e-05,-4.999999999999449e-05,-0.00011577180664579245,-4.633499916661954e-05,0.0005560098567043426
150000000000.0,-1,-0.00041187929999999997,0.159652262,-0.047846645349999994,0.015944,0.046304,-0.004516,-1.7678447955,-9.635916223499999,0.44094621059999994,-1.8152,1.3839,-0.79165,7.00000000000145e-05,5.000000000032756e-05,2.0000000000020002e-05,0.0001971663626236797,-0.00027531182067397353,0.0006490954714157837
150000000000.0,-1,-0.020878357849999998,0.1207198615,-0.011287454149999999,0.01831,0.048776,-0.002113,-1.767746729,-9.635916223499999,0.4419464889,-1.8158,1.3839,-0.79058,4.999999999999449e-05,9.999999999976694e-05,-3.0000000000085514e-05,-0.000221659561000509,0.00020038022915835896,0.0004017866267240766
150000000000.0,-1,-0.041854782199999996,0.08483732915,-0.02791953255,0.013281,0.052198,0.00499,-1.768335128,-9.6357200905,0.4424172081,-1.816,1.3838,-0.78985,2.0000000000020002e-05,5.000000000032756e-05,-2.0000000000020002e-05,-0.0003283224175654187,5.531458087815189e-05,0.0005979180975510534
150000000000.0,-1,-0.043129646699999996,0.06028147754999999,-0.00246146915,0.012133,0.049746,0.005009,-1.7691196599999999,-9.635622024,0.44270160095,-1.816,1.3837,-0.78925,3.999999999992898e-05,4.999999999988347e-05,-9.99999999995449e-06,-3.9484700856018407e-05,-0.00013293304581596388,0.0006286194903357689
150000000000.0,-1,0.01766177665,0.09248651614999999,-0.0263014353,0.019445,0.051185,0.003883,-1.7698061254999997,-9.6355239575,0.44259372779999995,-1.8159,1.3837,-0.78881,1.0000000000065512e-05,9.999999999976694e-05,-9.99999999995449e-06,-0.00037156077436684143,0.00024463409962449667,0.0004460479982482113
150000000000.0,-1,0.0236536398,0.16754661524999998,-0.0008433719,0.021884,0.051223,0.008728,-1.771277123,-9.6351316915,0.44436873144999994,-1.8166,1.3835,-0.7875,3.999999999992898e-05,0.00010000000000021103,9.99999999995449e-06,0.00026918555583543835,0.0001785231635058615,0.0006217491086593085
150000000000.0,-1,0.0236536398,0.16754661524999998,-0.0008433719,0.021884,0.051223,0.008728,-1.771277123,-9.6351316915,0.44436873144999994,-1.8166,1.3835,-0.7875,-5.999999999994898e-05,4.999999999988347e-05,-2.0000000000020002e-05,0.0007282344882346692,0.00025680489587931454,0.00015997519876487232
150000000000.0,-1,0.06530248235,0.20724393444999997,0.0162201991,0.029255,0.051525,-0.002005,-1.770296458,-9.6351316915,0.44750685944999996,-1.8184,1.3835,-0.78515,-2.0000000000020002e-05,4.999999999988347e-05,-2.0000000000020002e-05,-0.0003313995445959339,-9.49215524359559e-05,0.0006277951028763606
150000000000.0,-1,0.0977526872,0.2260040559,0.00267721545,0.03438,0.044409,0.00057,-1.768335128,-9.6353278245,0.45072344065,-1.8204,1.3836,-0.78265,-2.0000000000020002e-05,0.00010000000000021103,1.0000000000065512e-05,0.0002759787937460789,0.0001199446623358913,0.00024123203457260267
150000000000.0,-1,0.05755522885,0.20389006015,-0.016288845649999998,0.034504,0.040812,-0.002987,-1.7674525294999999,-9.635425890999999,0.4533810428,-1.8219,1.3836,-0.78064,-2.999999999997449e-05,9.999999999976694e-05,-1.0000000000065512e-05,-0.00020384922265193062,0.000437873292785218,6.646409887234306e-05
150000000000.0,-1,0.024928504299999998,0.1619470181,-0.08264063955,0.029484,0.04427,-0.000698,-1.767746729,-9.6353278245,0.4531358765499999,-1.8217,1.3836,-0.78028,9.99999999995449e-06,4.999999999988347e-05,2.0000000000020002e-05,0.0003883639303976505,-0.00037335760186585354,0.0005820962629952131
150000000000.0,-1,-0.0032067745499999994,0.13188963585,-0.07629573699999999,0.020874,0.045218,-0.000827,-1.7688254605,-9.635229758,0.45188062535,-1.8209,1.3835,-0.78056,-3.999999999992898e-05,5.000000000032756e-05,-9.99999999995449e-06,0.00021439097724473832,0.0001367839717183461,0.00021951287476551506
150000000000.0,-1,-0.014327515649999999,0.14267695084999998,-0.06176228169999999,0.016099,0.041474,-0.004448,-1.7698061254999997,-9.6351316915,0.45082150714999997,-1.8202,1.3835,-0.78078,3.999999999992898e-05,4.999999999988347e-05,3.999999999992898e-05,4.367477865141467e-06,-0.00019249112555397296,0.0006709735223981994
150000000000.0,-1,-0.016671304999999997,0.13933288319999998,-0.047621092399999995,0.002312,0.050702,-0.001154,-1.7713751895,-9.634935558499999,0.44909553675,-1.8191,1.3834,-0.78136,-5.999999999994898e-05,4.999999999988347e-05,-1.999999999990898e-05,-0.00011832348164153572,0.0008377014811380423,-0.0002045579430984823
150000000000.0,-1,0.00893385815,0.1432947698,-0.0152199208,-0.004916,0.046866,-0.002401,-1.7721597215,-9.634837491999999,0.4476735725,-1.8182,1.3833,-0.78172,-2.0000000000020002e-05,5.000000000032756e-05,9.99999999995449e-06,0.0005986885018625099,-0.00023104313375466035,0.0004754557389430314
150000000000.0,-1,0.029223817,0.1083438692,0.0056976636499999995,-0.007326,0.049364,-0.00821,-1.771277123,-9.635033625,0.4463594814,-1.8177,1.3834,-0.78179,-7.999999999996898e-05,4.999999999988347e-05,-7.00000000000145e-05,-0.00048222111407270063,0.00030428646084734723,-0.00026005890387859054
150000000000.0,-1,0.024085132399999997,0.0855336013,0.04494387695,-0.012124,0.04554,-0.001002,-1.7709829234999999,-9.6351316915,0.44586914889999996,-1.8174,1.3835,-0.78154,-2.999999999997449e-05,4.999999999988347e-05,-5.000000000032756e-06,6.491099362015973e-05,-2.8839513564582475e-05,0.0003330636631884154
150000000000.0,-1,0.00326561445,0.0744717001,0.05900661305,-0.013337,0.045538,-0.005831,-1.7705906574999999,-9.635229758,0.44362342605,-1.8163,1.3836,-0.78221,-4.999999999999449e-05,4.999999999988347e-05,-4.999999999921734e-06,0.0006717719193520821,9.384958049407643e-05,9.7792530140417e-05
150000000000.0,-1,-0.00559959715,0.08526882174999999,0.06165440855,-0.010819,0.04317,-0.002154,-1.7713751895,-9.6351316915,0.44367245929999993,-1.8162,1.3835,-0.78185,-5.0000000000105516e-05,4.999999999988347e-05,-1.0000000000065512e-05,0.000199220708261727,-4.3854473384952186e-05,0.0001785600478494409
150000000000.0,-1,-0.0085906254,0.09060363935,0.0438357255,-0.013154,0.039464,-0.00093,-1.7725519874999998,-9.634935558499999,0.4432409667,-1.8158,1.3834,-0.78183,-2.999999999997449e-05,5.000000000032756e-05,-1.4999999999987246e-05,0.0006093437480791941,-0.00012995013609051753,0.00033536033169045965
150000000000.0,-1,0.024761791249999998,0.09046634625,0.03368584275,-0.013107,0.038283,-0.004522,-1.7719635884999998,-9.6351316915,0.44216223520000003,-1.8153,1.3835,-0.78193,-5.999999999994898e-05,4.999999999988347e-05,-1.4999999999987246e-05,-0.00011395686424298113,-0.0001847552561906607,-4.557057713627799e-06
150000000000.0,-1,0.04064856425,0.10849096894999999,0.00793357985,-0.009317,0.034771,-0.004422,-1.77108099,-9.6353278245,0.44082853079999995,-1.8147,1.3836,-0.78218,-2.0000000000020002e-05,4.999999999988347e-05,2.0000000000020002e-05,1.4431836858674885e-05,-8.028620435984735e-05,0.00028043203000316375
150000000000.0,-1,0.04064856425,0.10849096894999999,0.00793357985,-0.009317,0.034771,-0.004422,-1.77108099,-9.6353278245,0.44082853079999995,-1.8147,1.3836,-0.78218,-2.0000000000020002e-05,2.4999999999941735e-05,-9.99999999995449e-06,0.00029309494958229543,-0.0003137979738285779,0.0005333846775570361
150000000000.0,-1,0.04884692365,0.13644972809999997,0.02295736765,-0.015327,0.030954,-0.003246,-1.7708848569999998,-9.635425890999999,0.4389652673,-1.8138,1.3837,-0.78282,-2.0000000000020002e-05,2.5000000000385825e-05,9.99999999995449e-06,-8.481594466425157e-05,-0.00019237127218341143,-3.44271129761875e-05
150000000000.0,-1,0.028831550999999997,0.17601956084999998,-0.00589379665,-0.02025,0.032057,-0.009344,-1.770296458,-9.635622024,0.43640573164999996,-1.8125,1.3838,-0.78378,-1.999999999990898e-05,2.4999999999941735e-05,2.999999999997449e-05,0.0006258634101392602,-0.0005419814248686095,0.0006454562261488661
150000000000.0,-1,0.0223787753,0.15444493085,-0.01793636285,-0.022545,0.027152,-0.009305,-1.7695119259999998,-9.635916223499999,0.43348334995,-1.811,1.3839,-0.78496,-6.0000000000060005e-05,2.4999999999941735e-05,4.0000000000040004e-05,0.0001369345134056843,-0.0003731959473360913,-1.8089666820930717e-05
150000000000.0,-1,0.0206920315,0.13771478595,0.0158475464,-0.025027,0.028304,-0.011761,-1.7684331944999998,-9.636210423,0.43052174165,-1.8096,1.3841,-0.78613,-9.99999999995449e-06,9.999999999976694e-05,4.999999999999449e-05,0.00047565989865816505,-0.00035834133859147244,0.0004315714162195228
150000000000.0,-1,0.00834545915,0.12248505849999998,0.027135000549999996,-0.027324,0.02339,-0.01052,-1.7674525294999999,-9.636602689,0.42716786734999995,-1.8079,1.3843,-0.78755,-8.000000000008001e-05,3.333333333355171e-05,2.0000000000020002e-05,-9.341382463667891e-05,-4.187529787724742e-05,-0.00036401268349828264
150000000000.0,-1,-0.00442279915,0.13961727605,0.050935740099999995,-0.019964,0.023656,-0.01644,-1.7660795985,-9.636994955,0.42446123195,-1.8067,1.3845,-0.78858,-3.999999999992898e-05,3.333333333310762e-05,3.999999999992898e-05,1.0314648048126429e-05,-0.0007727271374151634,0.00034944597531572086
150000000000.0,-1,0.008012033049999999,0.1616332053,0.0679012446,-0.013751,0.02147,-0.022341,-1.764020202,-9.637387221,0.422470482,-1.8059,1.3848,-0.78916,-6.0000000000060005e-05,3.333333333355171e-05,2.0000000000020002e-05,0.00030000481655090283,-0.00015783160583282552,2.5905759865718636e-05
150000000000.0,-1,0.0365003513,0.20060483239999996,0.050916126799999996,-0.013668,0.019072,-0.024712,-1.761666606,-9.637975619999999,0.42059741184999994,-1.8052,1.385,-0.78965,-5.999999999994898e-05,3.333333333355171e-05,2.0000000000020002e-05,-0.00014982868181245834,5.727169548652711e-05,0.00011731801641134965
150000000000.0,-1,0.06039915735,0.22014948585,0.05427980775,-0.012402,0.01791,-0.025882,-1.759116877,-9.638465952499999,0.41887144145,-1.8046,1.3853,-0.79007,-3.500000000000725e-05,3.333333333310762e-05,7.999999999996898e-05,0.0006698684415575862,-0.0006847464270047787,0.00041762078089302435
150000000000.0,-1,0.01928968055,0.1901509435,0.030979207349999996,-0.012193,0.014323,-0.025559,-1.7565671479999998,-9.639054351499999,0.4173317973999999,-1.8041,1.3856,-0.79043,-3.500000000000725e-05,3.333333333355171e-05,3.0000000000085514e-05,7.141726791104475e-05,0.00014277243629767788,-9.661406070149425e-05
150000000000.0,-1,-0.052210604599999995,0.0761976705,0.022006122599999997,-0.012176,0.014376,-0.032779,-1.7570574804999999,-9.638956284999999,0.41718469765,-1.8039,1.3856,-0.79044,-2.0000000000020002e-05,2.4999999999941735e-05,6.999999999990347e-05,0.00023269914965795557,-0.0006054853336876498,0.0005578713464269303
150000000000.0,-1,-0.07597211755,0.0497589421,0.026870220999999996,-0.007316,0.015732,-0.032733,-1.7583323449999997,-9.6386620855,0.41770445009999996,-1.804,1.3855,-0.79015,-4.999999999999449e-05,2.4999999999941735e-05,3.0000000000085514e-05,0.00018781855129512692,-5.5092795639088976e-05,0.00014787694509665883
150000000000.0,-1,-0.07117666569999999,0.042521634399999994,0.0352058735,-0.007277,0.014524,-0.032715,-1.7592149434999997,-9.638465952499999,0.41864588849999995,-1.8044,1.3853,-0.78962,-9.00000000000345e-05,2.4999999999941735e-05,-2.0000000000020002e-05,-0.0006840440273683246,0.00011973709683554823,-0.0004872554061303713
150000000000.0,-1,-0.044659484099999994,0.07212791075,0.035107807,-0.007323,0.015705,-0.029122,-1.759116877,-9.638465952499999,0.41963636015,-1.805,1.3853,-0.78891,-2.999999999997449e-05,2.4999999999941735e-05,2.999999999997449e-05,3.501704532204997e-05,3.0978630494393755e-05,0.0001511948906931515
150000000000.0,-1,-0.040805470649999995,0.09453610599999998,0.047405346099999995,-0.007279,0.014515,-0.031511,-1.7589207439999999,-9.638367886,0.4214113638,-1.806,1.3853,-0.78779,-2.999999999997449e-05,-3.333333333310762e-05,5.999999999994898e-05,0.00036682906428375794,-0.0001798727363577779,0.0002648109846454805
150000000000.0,-1,-0.040805470649999995,0.09453610599999998,0.047405346099999995,-0.007279,0.014515,-0.031511,-1.7589207439999999,-9.638367886,0.4214113638,-1.806,1.3853,-0.78779,-7.00000000000145e-05,-3.333333333355171e-05,6.0000000000060005e-05,1.1188182097443544e-05,0.0001017117123582878,-0.00013984835020752762
150000000000.0,-1,-0.00832584585,0.10483308849999999,0.0426393142,-0.004879,0.015762,-0.026684,-1.7558806824999997,-9.638956284999999,0.42063663845,-1.8059,1.3856,-0.78767,-0.00010999999999994348,-3.333333333310762e-05,-2.0000000000020002e-05,0.00015124540971034328,8.570575201471975e-05,-0.00015371171365896608
150000000000.0,-1,-0.017573516799999998,0.11535562394999999,-0.00361865385,-5.8e-05,0.018325,-0.026655,-1.7532328869999998,-9.639544683999999,0.42036205224999995,-1.8061,1.3859,-0.78727,-7.00000000000145e-05,-2.0000000000131024e-05,2.0000000000020002e-05,8.062554598731175e-05,8.234709041010646e-05,8.354711645641721e-05
150000000000.0,-1,-0.0370887503,0.1279375559,0.004236472799999999,-0.006117,0.015681,-0.020684,-1.7509773574999998,-9.63993695,0.41953829364999995,-1.806,1.3862,-0.78724,-9.00000000000345e-05,-2.0000000000131024e-05,2.0000000000020002e-05,0.00023302744651521046,0.0003043973993142046,-5.567311242127282e-05
150000000000.0,-1,0.007158854499999999,0.1371950335,0.009532063799999999,-0.002293,0.010943,-0.018159,-1.7501928254999999,-9.6400350165,0.41977365325,-1.8062,1.3862,-0.78688,-7.999999999996898e-05,-1.9999999999686935e-05,2.0000000000020002e-05,0.0001891604907737765,0.00011763286954913355,6.668213397231781e-05
150000000000.0,-1,-0.01919161405,0.1413530531,0.006541035549999999,0.00127,0.014695,-0.02057,-1.750290892,-9.6400350165,0.42007765939999997,-1.8063,1.3862,-0.78657,-7.00000000000145e-05,-2.0000000000131024e-05,1.999999999990898e-05,0.00010051447110859257,4.578247303843597e-05,0.00018076493351859568
150000000000.0,-1,0.0026674088,0.14021548169999998,0.0206135783,0.001411,0.00982,-0.014484,-1.7495063599999998,-9.640133083,0.4215682702,-1.8072,1.3862,-0.78556,-9.999999999998899e-05,-2.0000000000131024e-05,5.000000000032756e-06,-4.8640769542140916e-05,0.00015869474348861878,-8.124448970359133e-05
150000000000.0,-1,0.00430511935,0.1276237431,0.0065508421999999995,0.002914,0.00143,-0.017955,-1.7486237614999998,-9.640231149499998,0.42246067535,-1.8078,1.3863,-0.78492,-7.00000000000145e-05,-2.4999999999941735e-05,5.000000000032756e-06,-0.00017539879569361538,0.00013306170506610648,0.00023365159353283538
150000000000.0,-1,0.014298095700000001,0.12269099815,0.00493274495,-0.003265,0.002391,-0.00963,-1.7477411629999997,-9.6404272825,0.42287255464999995,-1.8082,1.3864,-0.78456,-9.999999999998899e-05,-2.5000000000385825e-05,-2.0000000000020002e-05,-0.00022689566427813723,0.0004030409723148054,-7.769107440558365e-05
150000000000.0,-1,-0.0025105023999999997,0.1600641413,-0.0028831550999999997,-0.001974,-2.3e-05,-0.004766,-1.7487218279999999,-9.640231149499998,0.42291178124999995,-1.8081,1.3863,-0.78464,-4.999999999999449e-05,-2.4999999999941735e-05,-9.99999999995449e-06,0.0003426834664499445,0.00019048897216022986,0.00021463352728190443
150000000000.0,-1,0.03427424175,0.17040035039999998,-0.0419920753,-0.00573,0.002264,-0.002442,-1.7484276285,-9.640329216,0.4207248983,-1.8069,1.3864,-0.78577,-6.0000000000060005e-05,-2.4999999999941735e-05,-4.0000000000040004e-05,-0.0004976382409802582,-0.0001876815511330232,0.00016959712313857622
150000000000.0,-1,0.03584330575,0.1328016543,-0.02974356945,-0.008188,0.004675,0.003772,-1.748133429,-9.640525349,0.41894989465,-1.806,1.3864,-0.78664,-3.999999999992898e-05,-4.999999999988347e-05,-9.00000000000345e-05,-0.0001343215116298424,0.000615532699337118,0.0001565149691864498
150000000000.0,-1,0.03773598919999999,0.11166832354999999,0.02609549565,-0.008177,0.00471,-0.001041,-1.7474469634999998,-9.640623415499999,0.41922448085,-1.8062,1.3865,-0.78637,9.99999999995449e-06,-4.999999999988347e-05,-9.999999999998899e-05,-0.0007620624524213859,-0.0002470690714015955,0.0002690328435135392
150000000000.0,-1,0.0403053315,0.11886640465,0.045159623249999996,-0.003364,0.007247,0.002597,-1.7470546974999999,-9.640623415499999,0.420509152,-1.807,1.3865,-0.78557,2.0000000000020002e-05,-1.4285714285744433e-05,-5.999999999994898e-05,-0.0006310768761845775,-0.0001333701426025069,0.0003852279908034273
150000000000.0,-1,0.0282235387,0.1226811915,0.029145363799999997,-0.010793,0.009423,0.004872,-1.7474469634999998,-9.640525349,0.42081315815,-1.8071,1.3865,-0.78538,1.0000000000065512e-05,-1.4285714285744433e-05,-0.00012000000000000899,-0.0004903705385994606,0.00020247803396955533,0.0004210391520382828
150000000000.0,-1,0.0282235387,0.1226811915,0.029145363799999997,-0.010793,0.009423,0.004872,-1.7474469634999998,-9.640525349,0.42081315815,-1.8071,1.3865,-0.78538,9.99999999995449e-06,-1.4285714285744433e-05,-0.0001100000000000545,-0.0003897391400853323,2.4117540700085982e-05,0.0007852411402722304
150000000000.0,-1,0.01011065615,0.14677613055,-0.00199074995,-0.004789,0.013222,0.006103,-1.7484276285,-9.640329216,0.41993055965,-1.8065,1.3864,-0.78587,-1.0000000000065512e-05,-1.4285714285744433e-05,-0.00013999999999991797,-0.0006419373421464591,0.0004781815812240353,0.00035549244098831423
150000000000.0,-1,-0.011022674599999999,0.1511597031,0.0128074849,0.002446,0.017077,0.004943,-1.7504870249999998,-9.63993695,0.42054837859999994,-1.8066,1.3862,-0.78565,-2.999999999997449e-05,-1.4285714285744433e-05,-0.000140000000000029,-0.00017312525197610285,0.0001027133354150056,0.0005037209682487997
150000000000.0,-1,-0.0052563644,0.1406665876,-0.00787473995,0.007189,0.022056,0.004936,-1.7522522219999999,-9.6396427505,0.4207248983,-1.8064,1.386,-0.78555,-4.999999999999449e-05,-1.4285714285744433e-05,-0.00017000000000000348,-0.00029269611120086303,0.00040931183834458373,0.0005092697794968348
150000000000.0,-1,-0.00856120545,0.16236870404999998,-0.025154057249999997,0.020654,0.022445,0.007519,-1.7545077515,-9.6392504845,0.42153885025,-1.8066,1.3857,-0.78515,4.999999999999449e-05,-1.4285714285744433e-05,-4.999999999999449e-05,0.0007642871156183784,-0.00036390873074565455,0.0017732893059891897
150000000000.0,-1,0.0166516917,0.1907001159,-0.01509243435,0.036459,0.026559,0.00647,-1.7560768155,-9.6388582185,0.4240591593,-1.8077,1.3855,-0.78369,2.999999999997449e-05,-4.999999999988347e-05,-0.00014999999999998348,0.00017219870710505347,0.0006214723657798071,0.001249249853519263
150000000000.0,-1,0.0512299396,0.24202812199999998,-0.05243615755,0.047262,0.034182,0.000493,-1.7561748819999998,-9.6386620855,0.42683444125,-1.8092,1.3854,-0.78182,2.999999999997449e-05,-4.999999999988347e-05,-9.999999999998899e-05,-0.000632395842233402,0.0003754353493086171,0.001456854462294599
150000000000.0,-1,0.08275831935,0.29605295685,-0.09562464415,0.046966,0.043888,-0.005664,-1.7559787489999998,-9.638564018999999,0.4309630409,-1.8115,1.3854,-0.77909,9.00000000000345e-05,-0.00010000000000021103,-8.000000000008001e-05,-0.000501377601432873,0.00033057999027841234,0.0014316316994531508
150000000000.0,-1,0.05790826824999999,0.3505485109,-0.1503947844,0.039444,0.049766,-0.01427,-1.754998084,-9.638564018999999,0.43455227479999997,-1.8135,1.3854,-0.77646,4.999999999999449e-05,-9.999999999976694e-05,-9.999999999998899e-05,0.00020296179235956835,0.0006431391343848514,0.0009903854191375405
150000000000.0,-1,-0.00210842975,0.32619859895,-0.19588783375,0.032747,0.067715,-0.01702,-1.7556845494999997,-9.638564018999999,0.43052174165,-1.8113,1.3854,-0.77794,5.000000000032756e-06,-0.00019999999999997797,-0.00012999999999996348,0.00025915482092608855,0.0015057696133393694,0.0009739765044405324
150000000000.0,-1,-0.06745994535,0.2838829042,-0.1736757715,0.01383,0.084042,-0.013896,-1.7584304114999998,-9.638367886,0.42551054349999995,-1.8082,1.3853,-0.78006,5.000000000032756e-06,-0.000300000000000189,-0.000180000000000069,-0.0003436387322319767,0.001267798065154535,0.0012085534370034345
150000000000.0,-1,-0.0620564812,0.29534687805,-0.09793901354999998,0.009729,0.097208,-0.012933,-1.76127434,-9.637975619999999,0.4217545965499999,-1.8058,1.3851,-0.7814,9.99999999995449e-06,-0.0002999999999997449,-0.00010999999999994348,-0.0003240501369929927,0.0015700866187917661,0.0008889802063440921
150000000000.0,-1,-0.06175247504999999,0.2953566847,-0.096301303,0.003188,0.10899,0.001249,-1.7615685395,-9.637975619999999,0.420116886,-1.8049,1.3851,-0.78116,1.4999999999987246e-05,-0.000300000000000189,-0.0001100000000000545,6.38425707357726e-05,0.001531216848990491,0.000775390197277126
150000000000.0,-1,-0.053259916149999996,0.24543102954999998,0.0020299765499999997,0.011451,0.12012,0.015895,-1.7632356699999998,-9.637779487,0.4190577678,-1.8041,1.3849,-0.78068,1.4999999999987246e-05,-0.00039999999999995595,-9.999999999998899e-05,0.0014342510767768601,0.0012933452777266208,0.0014681867506141089
150000000000.0,-1,-0.052622483899999996,0.21156866709999997,0.07785499435,0.025002,0.11679,0.031766,-1.7666679975,-9.637093021499998,0.41908718775,-1.8037,1.3846,-0.77983,-4.999999999999449e-05,-0.000500000000000167,-9.999999999998899e-05,0.0006482625185395552,0.000953060011568807,0.0011327294420497847
150000000000.0,-1,-0.02682118775,0.15340542595,0.11084456495,0.03215,0.12169,0.052246,-1.7719635884999998,-9.6361123565,0.4199207529999999,-1.8035,1.384,-0.77875,-0.00010999999999994348,-0.00039999999999995595,-0.00017999999999995797,-0.00028993278082034557,0.0013218210696392951,0.000720210615309691
150000000000.0,-1,-0.02682118775,0.15340542595,0.11084456495,0.03215,0.12169,0.052246,-1.7719635884999998,-9.6361123565,0.4199207529999999,-1.8035,1.384,-0.77875,0.00027999999999994696,-9.999999999976694e-05,2.999999999997449e-05,0.0036272404447561524,0.003918834888436029,0.00431898871247971
150000000000.0,-1,0.054211161199999996,0.1114231573,0.033528936349999997,0.037041,0.12048,0.072782,-1.7794166425,-9.634641359,0.42137213719999994,-1.8033,1.3832,-0.77759,4.0000000000040004e-05,-0.00039999999999995595,-4.999999999999449e-05,-0.0009883034542768065,0.0016785902425950905,0.002051062218510591
150000000000.0,-1,0.1160518961,0.06900939604999999,-0.005540757249999999,0.035653,0.12391,0.094371,-1.789125226,-9.632778095499999,0.4225881618,-1.8027,1.3822,-0.77685,-0.0003500000000000725,-0.000700000000000145,-9.99999999995449e-06,-0.0014824508867430364,-0.00166878350270383,-0.0011588208011954482
150000000000.0,-1,0.1923868597,0.024928504299999998,-0.0935750543,0.035624,0.12381,0.10761,-1.80050094,-9.6306206325,0.42397089945,-1.8021,1.381,-0.77619,-0.00012999999999996348,-0.000500000000000167,9.99999999995449e-06,0.000442157258349285,0.001881321176919526,0.00025702158498330796
150000000000.0,-1,0.2669762396,0.035029353799999996,-0.11410037274999998,0.029276,0.12956,0.12188,-1.8134457179999999,-9.628168969999999,0.42490253119999993,-1.8009,1.3797,-0.77593,-2.999999999997449e-05,-0.0004999999999997229,7.00000000000145e-05,0.0011176165034296748,0.000797996467484019,0.0014796493331081795
150000000000.0,-1,0.3413890998,0.10799082979999998,-0.0622526142,0.023163,0.12807,0.13505,-1.810503723,-9.6288554355,0.42183304974999997,-1.7997,1.3801,-0.77582,-7.999999999996898e-05,-0.00039999999999995595,-0.00017000000000000348,0.0018365182395911894,0.0053364296308786585,0.001636823162808998
150000000000.0,-1,0.35331398619999993,0.1275845165,-0.0040795664,0.018224,0.12912,0.13617,-1.8082481934999999,-9.629247701499999,0.4215682702,-1.7998,1.3803,-0.77437,-9.00000000000345e-05,-0.000600000000000378,2.999999999997449e-05,-0.0006114497888902726,-0.00039158682015028035,0.0013786523657333127
150000000000.0,-1,0.31542109059999995,0.06808757095,0.03603943875,0.00229,0.12859,0.14318,-1.8086404595,-9.629149635,0.42185266304999997,-1.7999,1.3803,-0.77296,-0.00029999999999996696,-0.0006999999999997009,-0.00019000000000002348,-0.001911910483677115,-0.001727553895042977,-0.0006357088851469683
150000000000.0,-1,0.25803257479999997,0.02201592925,0.0551918262,-0.009749,0.12222,0.13709,-1.811876654,-9.628561236,0.4214113638,-1.7993,1.38,-0.77237,4.999999999999449e-05,-0.000300000000000189,-3.999999999992898e-05,0.0036781604563931314,0.005293841750459771,0.002728590900750616
150000000000.0,-1,0.25803257479999997,0.02201592925,0.0551918262,-0.009749,0.12222,0.13709,-1.811876654,-9.628561236,0.4214113638,-1.7993,1.38,-0.77237,-0.000140000000000029,-0.0006999999999997009,-0.0001100000000000545,-0.0005670767212422323,0.002122419645628426,4.957481850120793e-05
150000000000.0,-1,0.19438741629999998,-0.042609894249999995,0.06826409065,-0.023326,0.12546,0.13325,-1.8176625774999997,-9.627580571,0.42000901285,-1.7979,1.3794,-0.77257,-0.00017999999999995797,-0.000800000000000356,-8.999999999992347e-05,2.5738651066697926e-05,0.0006556996515370006,-0.0005865743497144305
150000000000.0,-1,0.18217813705,-0.07966922459999999,0.08642600645,-0.047582,0.11749,0.13183,-1.8461018624999999,-9.622677246,0.4075251474,-1.7881,1.3768,-0.78,-0.00021999999999999797,-0.0006999999999997009,-0.000160000000000049,0.0009670726380432981,0.0015202125792501686,0.00024130953664736055
150000000000.0,-1,0.15692601329999997,-0.06440027055,0.13485124415,-0.053589,0.11368,0.1318,-1.8602234384999998,-9.62032365,0.39979750719999996,-1.7825,1.3755,-0.78441,-0.0001300000000000745,-0.0005999999999999339,-2.999999999997449e-05,0.0019887032492091894,0.004004886121683926,0.0011880857800068423
150000000000.0,-1,0.17920672209999997,-0.027605719749999997,0.18404140054999998,-0.044978,0.11273,0.13193,-1.8741488814999998,-9.6178719875,0.39266807265,-1.7773,1.3743,-0.78845,-0.00017999999999995797,-0.0009000000000001229,-4.999999999999449e-05,-0.00028516734119987674,-0.0020948423523090565,0.0006722352139862942
150000000000.0,-1,0.1990357684,0.027850886,0.1881700002,-0.037182,0.10097,0.12883,-1.887976258,-9.615420325,0.38643104325,-1.7727,1.373,-0.79205,-0.00012999999999996348,-0.0007999999999999119,-8.000000000008001e-05,-0.0007038898847326891,0.0008494350326262445,-0.00013532680758432392
150000000000.0,-1,0.24199870205,0.10849096894999999,0.15424879784999998,-0.020705,0.084591,0.12206,-1.8902317874999999,-9.614831925999999,0.3905792562,-1.7746,1.3727,-0.7894,-0.0001100000000000545,-0.0009000000000001229,-0.00010999999999994348,-0.0006682740607748539,0.0012995441819241282,9.881285151824848e-05
150000000000.0,-1,0.24199870205,0.10849096894999999,0.15424879784999998,-0.020705,0.084591,0.12206,-1.8902317874999999,-9.614831925999999,0.3905792562,-1.7746,1.3727,-0.7894,-0.00024000000000001798,-0.0009000000000001229,-0.00021000000000004349,-0.0003582366039509566,0.0009578555458824578,-0.00035650130951880854
150000000000.0,-1,0.25904265975,0.12093560779999998,0.13466491779999998,-0.015451,0.073895,0.11867,-1.8916047185,-9.61443966,0.39445288295,-1.7764,1.3725,-0.78689,-0.00026999999999999247,-0.0009999999999998899,-0.00022999999999995246,-0.00022167180819754329,0.0011032957825423129,-0.0007088516714215398
150000000000.0,-1,0.24490147044999996,0.12881034775,0.08719092514999999,-0.011457,0.064379,0.11404,-1.8937621814999999,-9.613851260999999,0.39644363289999995,-1.7772,1.3722,-0.78549,-0.00010999999999994348,-0.0009000000000001229,-0.00012000000000000899,-0.001686846921594487,0.001190955821675388,-3.45750645642795e-05
150000000000.0,-1,0.2495204026,0.16733086894999996,0.041854782199999996,-0.018672,0.060587,0.10678,-1.8958215779999998,-9.613458994999998,0.39583562059999994,-1.7766,1.372,-0.78543,-0.0001300000000000745,-0.0009999999999998899,-0.00024000000000001798,0.00019006982266311923,-0.00014168585062313,0.0007922393652570747
150000000000.0,-1,0.24545064284999998,0.14952199254999998,-0.006148769549999999,-0.020928,0.054474,0.10684,-1.8980771074999998,-9.6131647955,0.392658266,-1.7748,1.3718,-0.78673,-0.00018999999999991246,-0.0011999999999998678,-0.00022999999999995246,-0.0005310346415163814,5.9686484917609306e-05,1.8868902316171443e-05
150000000000.0,-1,0.2125689454,0.12498575424999998,-0.025467870049999997,-0.030696,0.052935,0.11154,-1.9020978339999999,-9.6125763965,0.3874411282,-1.7717,1.3715,-0.78926,-9.00000000000345e-05,-0.0009000000000001229,-9.999999999998899e-05,-0.0017339096613255833,0.0019354523818020386,-0.0005984333923660934
150000000000.0,-1,0.23049550159999999,0.14444214785,0.0112384209,-0.030418,0.044507,0.10805,-1.9134735479999998,-9.610517,0.38335175515,-1.7685,1.3705,-0.79203,-7.999999999996898e-05,-0.001100000000000101,-0.00040000000000006697,-0.0004733195959085723,0.0025920351840549305,0.0008805628278396593
150000000000.0,-1,0.26192581485,0.16387892815,0.09999841004999999,-0.022899,0.039951,0.101,-1.9148464789999997,-9.610222800499999,0.38452855315,-1.769,1.3703,-0.79126,-2.0000000000020002e-05,-0.0011999999999998678,-0.00010999999999994348,-0.000255414281099986,-0.0013309853549889894,0.000682054061082793
150000000000.0,-1,0.2809997491,0.16919413245,0.12316171735,-0.008067,0.036842,0.091613,-1.914454213,-9.610124734,0.38814720699999994,-1.7708,1.3703,-0.7891,-9.999999999998899e-05,-0.0011999999999998678,-0.00024000000000001798,0.00040389452570988027,-0.00042321445590465245,9.335172702318317e-05
150000000000.0,-1,0.30184868699999995,0.19597609359999998,0.09668376235,0.002094,0.026321,0.084678,-1.9129832154999997,-9.610320866999999,0.39172663425,-1.7728,1.3703,-0.78693,-3.500000000000725e-05,-0.001200000000000312,-0.00029000000000001247,-0.00035890217417700043,0.000702882138733596,0.0003909689352634693
150000000000.0,-1,0.28779575755,0.22778886619999997,0.0770606557,0.021816,0.023334,0.078969,-1.9122967499999999,-9.610222800499999,0.39668879915,-1.7753,1.3703,-0.78416,-3.500000000000725e-05,-0.001100000000000101,-0.00034000000000000696,-0.00023872052957751855,0.0010166651759093703,0.0003086586001990188
150000000000.0,-1,0.27654753,0.2918655173,0.034391921549999996,0.038145,0.011817,0.068523,-1.9197498039999998,-9.60855567,0.39985634709999995,-1.7761,1.3695,-0.78318,-0.000140000000000029,-0.0012999999999996348,-0.00017000000000000348,-0.0010162733650131983,-0.00030035419171126065,0.00033743870190372505
150000000000.0,-1,0.29586663049999995,0.2333198168,-0.032577691299999996,0.055494,0.00634,0.062819,-1.9263202594999997,-9.6070846725,0.4048773519,-1.778,1.3687,-0.78124,-0.00017000000000000348,-0.0015000000000000568,-0.00048000000000003595,-0.00020329008885200395,-0.00027268497048771323,-0.00028372833035072986
150000000000.0,-1,0.26537775565,0.2160797261,-0.07006851425,0.069013,0.005575,0.058199,-1.9324984490000001,-9.6055156085,0.4115458739,-1.7806,1.3679,-0.77847,-9.999999999998899e-05,-0.001200000000000312,-7.999999999996898e-05,0.000490276395139988,-0.0012747748386794377,0.00012748273564988644
150000000000.0,-1,0.25080507375,0.19806491005,-0.13018327875,0.080138,0.003581,0.046346,-1.9377940399999998,-9.6041426775,0.4194304205,-1.784,1.3672,-0.77502,-0.00019999999999997797,-0.0013999999999998458,-5.999999999994898e-05,-0.0011806735784241074,0.00013457996460819466,-0.0010839620457974153
150000000000.0,-1,0.25080507375,0.19806491005,-0.13018327875,0.080138,0.003581,0.046346,-1.9377940399999998,-9.6041426775,0.4194304205,-1.784,1.3672,-0.77502,-0.000280000000000058,-0.0011999999999998678,-3.0000000000085514e-05,-0.0006053465824458204,-0.0008357286093885197,0.0006835513860032894
150000000000.0,-1,0.28146066165,0.1872481751,-0.1524345676,0.088813,0.002715,0.03948,-1.9420108995,-9.602867813,0.4283740853,-1.7879,1.3666,-0.77097,-0.00041000000000002146,-0.0015000000000000568,-9.999999999998899e-05,-0.0002949795468558669,-0.0003319675142439138,-0.0008302212527930841
150000000000.0,-1,0.24951059595,0.1617704984,-0.14459905425,0.087511,0.005094,0.039427,-1.9363230424999998,-9.6039465445,0.43115917389999997,-1.7899,1.3671,-0.76881,-0.00021999999999999797,-0.0013000000000000789,0.00034000000000000696,0.0015961372378017202,-0.00012669386642838454,0.0010082729095279852
150000000000.0,-1,0.19575054064999997,0.13873467755,-0.15774977189999997,0.076397,0.008463,0.028401,-1.932302316,-9.60463301,0.43248307165,-1.791,1.3675,-0.7675,-0.00044999999999995044,-0.0015000000000000568,0.00019000000000002348,0.0014476725169472182,-0.0014116230466525437,0.0008548985086398453
150000000000.0,-1,0.25037358115,0.29081620575,-0.162594257,0.064184,0.008198,0.013802,-1.9342636459999998,-9.6039465445,0.4392790801,-1.7941,1.3671,-0.76422,-0.00039999999999995595,-0.0013999999999998458,0.00017000000000000348,0.0030539441486088226,0.0013703302030187992,0.0005852989093699801
150000000000.0,-1,0.24060615775,0.29229700989999996,-0.15724963275,0.048138,0.012636,0.001492,-1.934655912,-9.603652344999999,0.44440795805,-1.7966,1.367,-0.76156,-0.00043000000000004146,-0.0017000000000000348,0.00022999999999995246,0.0020793964405687593,-0.0015016974980359699,0.000611933882776361
150000000000.0,-1,0.23142713334999998,0.32870910135,-0.12381876289999999,0.033483,0.012324,-0.016748,-1.9335771805,-9.603652344999999,0.44808545180000003,-1.7985,1.367,-0.75945,-0.00041999999999997595,-0.0015999999999998238,0.000280000000000058,0.0029348319725663874,0.0009500585557267183,0.0012333611644586018
150000000000.0,-1,0.23219205205,0.39158934115,-0.09042711965,0.007855,0.010497,-0.038724,-1.9301448529999998,-9.6043388105,0.44939954289999995,-1.7996,1.3673,-0.7583,-0.0006200000000000649,-0.0018000000000002458,0.00017999999999995797,-0.0005074587726807689,-0.0008818935253780413,0.00017417848965251004
150000000000.0,-1,0.22561178989999997,0.36915172595,-0.02538941685,-0.021667,0.014509,-0.048803,-1.9251434615,-9.605417542,0.4478108656,-1.7993,1.3679,-0.75838,-0.0005699999999999594,-0.0017999999999998018,0.000180000000000069,0.0014593013386423603,0.0003097165874350605,-0.0006521269070034474
150000000000.0,-1,0.22561178989999997,0.36915172595,-0.02538941685,-0.021667,0.014509,-0.048803,-1.9251434615,-9.605417542,0.4478108656,-1.7993,1.3679,-0.75838,-0.00046999999999997044,-0.0019000000000000128,0.00010999999999994348,0.0024758107108735494,0.0008020199275817763,0.0008864488298314654
150000000000.0,-1,-0.06983315464999999,-0.25221723134999996,0.05184775855,-0.060995,0.019522,-0.071061,-1.9161213435,-9.6072808055,0.44644774125000003,-1.7997,1.3688,-0.75795,-0.000520000000000076,-0.002000000000000224,0.00029000000000001247,0.0011313903425820282,0.0013916500398141185,-9.490568330994265e-06
150000000000.0,-1,-0.27232086385,-0.5447299875499999,0.14510900005,-0.1419,0.05684,-0.054632,-1.903863031,-9.610909266,0.42036205224999995,-1.7881,1.3706,-0.76878,-0.00047999999999992493,-0.0017999999999998018,0.00021999999999999797,0.002070968411779228,-2.0405626588893e-05,0.0019194509938713633
150000000000.0,-1,-0.31857883189999997,-0.7300756725499999,0.2430872402,-0.16061,0.065841,-0.040574,-1.8998423045,-9.612380263499999,0.40304350834999997,-1.7798,1.3714,-0.77652,-0.00046000000000001595,-0.002200000000000202,-5.999999999994898e-05,0.002687014588163006,0.0006737621808936556,0.0013237126071818928
150000000000.0,-1,-0.3226878182499999,-0.8952294651999999,0.31373434679999995,-0.18424,0.074615,-0.015751,-1.8976848414999998,-9.613655128,0.3831262022,-1.77,1.3721,-0.78574,-0.00048000000000003595,-0.0020999999999999908,3.999999999992898e-05,0.0012402105367490535,0.00112281782807222,-0.00013096920466937334
150000000000.0,-1,-0.17574497465,-0.79989902055,0.4221566692,-0.19791,0.078889,0.004458,-1.8985674399999999,-9.613655128,0.37826210379999997,-1.7675,1.3721,-0.78785,-0.0004999999999999449,-0.0022999999999999687,-0.000140000000000029,-9.719244408956662e-05,0.0014039808936556764,0.0005024070649513046
150000000000.0,-1,0.0432865531,-0.6060803899499999,0.43850435474999994,-0.19434,0.081328,0.016503,-1.900332637,-9.6141454605,0.35652076074999994,-1.7563,1.3723,-0.79839,-0.000500000000000056,-0.0022999999999999687,-0.00026999999999999247,0.00242618123507099,0.0010999582809263497,0.0011882910110629918
150000000000.0,-1,0.0432865531,-0.6060803899499999,0.43850435474999994,-0.19434,0.081328,0.016503,-1.900332637,-9.6141454605,0.35652076074999994,-1.7563,1.3723,-0.79839,-0.00046999999999997044,-0.0021999999999997577,-0.00035999999999991594,-0.002796623787014285,0.0011982441690481238,0.00037978738496557973
150000000000.0,-1,0.17550961504999998,-0.2437737057,0.36109065965,-0.18955,0.083786,0.03097,-1.903274632,-9.614341593499999,0.33531878345,-1.7452,1.3724,-0.80877,-0.00039000000000000146,-0.0024000000000001798,-0.00041000000000002146,0.002321665901476644,0.0013147357627592005,0.0006561331845029716
150000000000.0,-1,0.3254042603,-0.08945626129999999,0.25824832109999996,-0.18729,0.088577,0.046574,-1.908177957,-9.6141454605,0.3141069995,-1.734,1.3723,-0.81928,-0.00036999999999998145,-0.0024000000000001798,-0.00038000000000004697,0.004319744183057583,0.0001373703015494776,0.0023643402267530256
150000000000.0,-1,0.35748181245,0.0403249448,0.22632767534999998,-0.16656,0.090273,0.066079,-1.9147484125,-9.613360928499999,0.29470944579999997,-1.7235,1.3719,-0.82897,-0.00045000000000006146,-0.0023999999999997357,-0.0005999999999999339,-0.002388605667790644,0.001996645978837863,-4.486294738881291e-05
150000000000.0,-1,0.36628818415,0.0173969971,0.24130242989999998,-0.15076,0.093021,0.086706,-1.9235743974999997,-9.6121841305,0.27690056939999996,-1.7138,1.3713,-0.8379,-0.00040999999999991044,-0.0024999999999999467,-0.00042000000000008697,-0.0007250561498262087,0.0010201993650003072,0.0014805488769682462
150000000000.0,-1,0.36197325815,-0.00914960445,0.24494069705,-0.13728,0.092123,0.10014,-1.9335771805,-9.6106150665,0.26053327055,-1.7047,1.3705,-0.84612,-0.0004900000000001015,-0.0026000000000001577,-0.0007299999999998974,-0.00020367848902536068,0.0004776806662791788,1.047093961314971e-06
150000000000.0,-1,0.45450880754999995,0.25385494189999996,0.102185293,-0.10796,0.094123,0.11374,-1.9453451604999998,-9.60855567,0.24662744085,-1.6969,1.3695,-0.85308,-0.00039000000000000146,-0.0026999999999999247,-0.0005500000000000504,-0.0005959978042162639,0.001692647432262273,0.0010884009496354707
150000000000.0,-1,0.5210861544,0.48441909005,0.07558965819999999,-0.085894,0.093529,0.12126,-1.9578976725,-9.6063001405,0.2353596,-1.6904,1.3683,-0.85867,-0.00045999999999990493,-0.0026000000000001577,-0.0007500000000000284,-0.0003507530652473445,0.0021731640165787436,0.0019104858476988174
150000000000.0,-1,0.53378576615,0.4820360741,0.08426854345,-0.060102,0.091891,0.12163,-1.9706463174999997,-9.6039465445,0.22667090809999998,-1.6853,1.3671,-0.86287,-0.00046000000000001595,-0.0028999999999999027,-0.0008599999999999719,0.0005624471201786108,0.0014050606488085204,0.0009098420859596779
150000000000.0,-1,0.58328973535,0.72791820955,0.03082230095,-0.034223,0.090368,0.11026,-1.9547595445,-9.6072808055,0.22341510029999997,-1.6846,1.3688,-0.86274,-0.00040000000000006697,-0.0028999999999999027,-0.0008099999999999774,-0.0011242144571397272,0.0019067391395499733,0.0019130062952583682
150000000000.0,-1,0.6378735492500001,0.9291604741999999,-0.029723956149999998,-0.009763,0.092343,0.10695,-1.966233325,-9.605025276,0.21991412624999998,-1.6822,1.3677,-0.86421,-0.00032999999999994145,-0.0028999999999999027,-0.0008900000000000574,4.565123904631818e-05,0.002714686529295074,0.0001897832363666474
150000000000.0,-1,0.6548782803500001,1.0378377694999998,-0.0721573307,0.002449,0.093939,0.10468,-1.9772167729999999,-9.6027697465,0.217903763,-1.6806,1.3665,-0.86485,-0.00036999999999998145,-0.0032000000000000917,-0.0011499999999999844,-0.0015232937979108296,0.0017588438200011325,0.002400580195603075
150000000000.0,-1,0.6195449204,1.0613737295,-0.08518056189999999,0.01339,0.096678,0.106,-1.9881021544999997,-9.600514216999999,0.21701135784999998,-1.6795,1.3654,-0.86487,-0.0003700000000000925,-0.0034000000000000696,-0.0012199999999999989,-0.0016345497873035963,0.0021617344705775476,0.0018030845043901511
150000000000.0,-1,0.4017392239,0.78852330655,-0.0115914603,0.025413,0.10299,0.1193,-2.0004585335,-9.597964488,0.21689367805,-1.6788,1.3641,-0.8645,-0.00031999999999998696,-0.0032999999999998586,-0.0012299999999999534,-0.0027537721340498145,0.0036451251039251176,0.0016121005880394002
150000000000.0,-1,0.3590802964,0.6329604176,0.011846433200000001,0.033788,0.10794,0.1386,-2.0143839765,-9.595022492999998,0.21799202284999997,-1.6786,1.3627,-0.86354,-0.00018999999999991246,-0.0034000000000000696,-0.0012400000000000189,-0.0018125412566230015,0.003980939112560478,0.0010159844554016306
150000000000.0,-1,0.3598256018,0.47307279599999996,0.060732583449999995,0.051928,0.11442,0.15439,-2.0300746165,-9.591688232,0.2204338787,-1.679,1.361,-0.86193,-0.0002300000000000635,-0.0035000000000002807,-0.0013900000000000023,-0.0010125294309153432,0.0032455462559215498,0.00205844117596099
150000000000.0,-1,0.3598256018,0.47307279599999996,0.060732583449999995,0.051928,0.11442,0.15439,-2.0300746165,-9.591688232,0.2204338787,-1.679,1.361,-0.86193,-0.00027999999999994696,-0.0038999999999997925,-0.0016899999999999693,-0.0019593058404088204,0.003754306774449656,0.002315033597497962
150000000000.0,-1,0.42468678489999995,0.4512039665,0.0752562321,0.078633,0.12113,0.1739,-2.027622954,-9.5919824315,0.23105448064999998,-1.6843,1.3612,-0.85537,-0.00021000000000004349,-0.0038000000000000256,-0.0015000000000000568,-0.00201987683406335,0.004406689355795468,0.003060747271913744
150000000000.0,-1,0.53317775385,0.5059643000999999,0.09232960974999999,0.09927,0.12517,0.203,-2.0479227195,-9.5874713725,0.23791913565,-1.6865,1.359,-0.85178,-0.00012999999999996348,-0.004100000000000215,-0.0017599999999999838,-0.0029615578416799515,0.004441515189072209,0.0017486961595158945
150000000000.0,-1,0.6624980474,0.5937240109499999,0.059447912299999996,0.12604,0.12943,0.22856,-2.0708702805,-9.582273848,0.24731390634999997,-1.6897,1.3565,-0.8471,-0.0001300000000000745,-0.0040000000000000036,-0.0016100000000000003,-0.0013648205318022022,0.005110341272184238,0.0017786984992316235
150000000000.0,-1,0.73760717975,0.6453364099,-0.0195544601,0.154,0.13495,0.25052,-2.0963675704999996,-9.5764879245,0.2594251191,-1.6939,1.3537,-0.84128,-0.00013999999999991797,-0.0043999999999999595,-0.0017399999999999638,-0.0014629286890668336,0.005935225105973885,0.002129126883676724
150000000000.0,-1,0.8010463986,0.71008971985,-0.06881326304999999,0.17814,0.14387,0.28802,-2.1251991215,-9.569721336,0.27396838105,-1.699,1.3505,-0.83453,-0.000160000000000049,-0.0044999999999997264,-0.0018600000000000838,-0.003124519241711532,0.004416142125117428,0.0032064001363734107
150000000000.0,-1,0.8752631257999999,0.71093309175,-0.18363932789999998,0.19969,0.15761,0.31699,-2.1573649335,-9.561974082499999,0.2903356799,-1.7046,1.347,-0.82715,-0.00019999999999997797,-0.0047000000000001485,-0.0018499999999999073,-0.002273823738460523,0.004955846836055988,0.00300486194845484
150000000000.0,-1,0.8863446403,0.68441591015,-0.2219244895,0.21898,0.16523,0.34722,-2.192570807,-9.553442297,0.3082622361,-1.7105,1.3431,-0.81929,-0.000140000000000029,-0.0045999999999999375,-0.0016100000000000003,-0.0015022518047909106,0.005532717876335358,0.0017754038765056546
150000000000.0,-1,0.9990034354999999,0.7011754749999999,-0.2420673486,0.23557,0.17994,0.38934,-2.2316993404999996,-9.5437337135,0.32765978979999993,-1.7166,1.3387,-0.8111,-0.00019000000000002348,-0.0049000000000001265,-0.0015300000000000313,-0.0022448734376536716,0.006198429465711364,0.0021462647221131004
150000000000.0,-1,1.044800491,0.7152578244,-0.26257305375,0.24747,0.18851,0.42307,-2.2748486005,-9.532848332,0.34816549495,-1.7227,1.3339,-0.8028,-0.00027999999999994696,-0.004999999999999893,-0.0014100000000000223,-0.0007538075805204603,0.005256713847963557,0.00320364431244502
150000000000.0,-1,1.127372484,0.7089521484499999,-0.32423726895,0.25933,0.19828,0.45918,-2.3212340549999997,-9.5207861525,0.3695734118999999,-1.7287,1.3288,-0.79445,-0.000280000000000058,-0.005199999999999871,-0.0013199999999999878,0.0005461880277672915,0.005638618795791972,0.002847598472565993
150000000000.0,-1,1.2090618784999998,0.71034469275,-0.3246393416,0.26015,0.209,0.48551,-2.3709537705,-9.507743308,0.39078519585,-1.7341,1.3232,-0.78655,-0.00039000000000000146,-0.0054000000000002935,-0.0012199999999999989,-0.0004894006698317188,0.006095219204993008,0.002196517027478029
150000000000.0,-1,1.2651559165000001,0.7207691616999999,-0.30638916595,0.26465,0.21986,0.50708,-2.4227328824999996,-9.493719798499999,0.41203620639999994,-1.7393,1.3175,-0.77889,-0.00039000000000000146,-0.005599999999999827,-0.001040000000000041,-0.0006880546320087166,0.006874231397585584,0.0022839229426343532
150000000000.0,-1,1.3185040924999998,0.6710886728000001,-0.2855108081,0.26417,0.23297,0.53095,-2.47715979,-9.478715624,0.4329047576,-1.7438,1.3115,-0.77163,-0.00046999999999997044,-0.005700000000000038,-0.0009699999999999154,0.00176699604999353,0.00422043705467412,0.0039422927849361855
150000000000.0,-1,1.3418439195,0.5664124906999999,-0.2887470026,0.25423,0.23621,0.5428,-2.5327634955,-9.4631230505,0.45260631744999996,-1.7476,1.3053,-0.76508,-0.00042999999999993044,-0.005799999999999805,-0.0006400000000000849,-0.0011471154632478608,0.005661506589573095,0.0028765112285857874
150000000000.0,-1,1.3418439195,0.5664124906999999,-0.2887470026,0.25423,0.23621,0.5428,-2.5327634955,-9.4631230505,0.45260631744999996,-1.7476,1.3053,-0.76508,-0.0007800000000000029,-0.006200000000000205,-0.0006899999999999684,0.003700762736275509,0.004514942779918041,0.002850974230352188
150000000000.0,-1,1.368027675,0.2748411729,-0.26345565225,0.23431,0.24521,0.55083,-2.589543999,-9.4468440115,0.4704053871999999,-1.7505,1.2991,-0.75943,-0.0005800000000000249,-0.006199999999999761,-0.00034000000000000696,0.0003580705596120115,0.004822526123644533,0.001966476199131373
150000000000.0,-1,1.3502776385,0.0838272442,-0.21378497,0.20825,0.2553,0.55154,-2.6465206355,-9.4303688395,0.48492903584999997,-1.752,1.2929,-0.75503,-0.0007000000000000339,-0.006300000000000416,-0.00010999999999994348,0.0016640346974885478,0.004382205184437771,0.003773924204660384
150000000000.0,-1,1.3092858414999997,-0.15540598255,-0.17428378379999998,0.17981,0.2629,0.55104,-2.703301139,-9.413599468,0.4964518496,-1.7524,1.2867,-0.75171,-0.0008599999999999719,-0.006699999999999928,-4.999999999999449e-05,0.00446686667215479,0.005068905928494294,0.0013028249747959464
150000000000.0,-1,1.300950189,-0.4707780399,-0.14993387184999998,0.13419,0.27118,0.55151,-2.7600816424999994,-9.39673203,0.50307133835,-1.7511,1.2807,-0.75011,-0.0009099999999999664,-0.006699999999999928,0.00036999999999998145,0.004708663445093686,0.0032275309592901813,0.003650043966379135
150000000000.0,-1,1.1058959204999999,-0.9844895934999999,0.0322246519,0.084813,0.28307,0.53985,-2.7961701144999997,-9.3860427815,0.5045325292,-1.7493,1.2768,-0.74894,-0.0010700000000000154,-0.007200000000000095,0.00032999999999994145,0.001998657298020179,0.004622325218754941,0.000623017794002978
150000000000.0,-1,1.0300905159999998,-1.2531918034999998,0.15271896045,0.037914,0.2938,0.53065,-2.8510873544999997,-9.369665675999999,0.50060006255,-1.7446,1.2712,-0.75061,-0.0009500000000000064,-0.006999999999999673,0.0006500000000000394,0.0022391882053951484,0.0027019766386799926,0.004113355092932203
150000000000.0,-1,1.0044951594999998,-1.5180694199999998,0.2423027082,-0.003969,0.30107,0.52035,-2.9050239294999995,-9.35358277,0.49211731029999994,-1.7386,1.2656,-0.75355,-0.0011900000000000244,-0.007500000000000284,0.0007199999999999429,0.005981095471103481,0.004403550417159341,0.0007359807058493484
150000000000.0,-1,0.9936097779999998,-1.6603639114999997,0.35010721164999997,-0.059068,0.30075,0.50036,-2.9570972409999996,-9.3379901965,0.47814283404999997,-1.7311,1.2604,-0.75805,-0.0011700000000000044,-0.00749999999999984,0.0007200000000000539,-0.0003728063958443606,0.0024411279450835544,0.0013605167014598685
150000000000.0,-1,1.013026945,-1.772257788,0.4381415087,-0.10298,0.29597,0.47578,-3.0067188899999997,-9.3230840885,0.45952981234999996,-1.7225,1.2554,-0.76379,-0.0011200000000000099,-0.007700000000000262,0.0009599999999999609,0.006511997477199216,0.00019262727265489943,0.0034906696339569443
150000000000.0,-1,1.0635311925,-1.7765727139999998,0.51929153745,-0.14571,0.29242,0.45239,-3.0536927434999996,-9.308864446,0.43659205799999995,-1.7128,1.2508,-0.77066,-0.0011999999999999789,-0.007799999999999585,0.0010200000000000209,0.0004319470687281779,0.0026020126234862495,-0.0006579118812068963
150000000000.0,-1,1.116781302,-1.7698061254999997,0.5619406583,-0.19439,0.28392,0.42057,-3.097528469,-9.295625468499999,0.4092118912,-1.7021,1.2465,-0.77868,-0.001040000000000041,-0.007800000000000029,0.0012100000000000444,0.00281329338741787,0.0016698192089128483,0.0012729961990884942
150000000000.0,-1,1.1256072869999998,-1.7653931330000001,0.59317483855,-0.23815,0.27432,0.39486,-3.1387163989999998,-9.283171023,0.3773795053,-1.6905,1.2426,-0.78789,-0.0010799999999999699,-0.008300000000000196,0.0008000000000000229,0.0014280572646137024,-0.0008921824039527237,0.0025530613952149395
150000000000.0,-1,1.09246081,-1.90052877,0.6130234981499999,-0.27944,0.26484,0.36315,-3.176373935,-9.2716972425,0.341663686,-1.678,1.239,-0.7981,-0.0011600000000000499,-0.008399999999999963,0.0007899999999999574,-0.00045024115807468235,0.00017497719566628156,-0.0013915767146888136
150000000000.0,-1,1.0545090744999999,-2.1332405745,0.66264514715,-0.30231,0.25475,0.32449,-3.2102068774999997,-9.26140026,0.30326084459999997,-1.665,1.2358,-0.80892,-0.0008999999999999009,-0.008199999999999985,0.0010299999999999754,0.0006352334205221855,-0.000728856766912811,0.0016881432060114054
150000000000.0,-1,0.9673083427,-2.336336296,0.77420559755,-0.30036,0.23582,0.27665,-3.2394306944999998,-9.252378142,0.2650345229,-1.6524,1.233,-0.81948,-0.0010200000000000209,-0.008599999999999941,0.0007099999999999884,-0.0019747429082173085,-0.00035634553979546624,-0.0010488195804523315
150000000000.0,-1,0.9673083427,-2.336336296,0.77420559755,-0.30036,0.23582,0.27665,-3.2394306944999998,-9.252378142,0.2650345229,-1.6524,1.233,-0.81948,-0.0007000000000000339,-0.008599999999999941,0.0007800000000000029,-0.0016351397951801516,-0.0015375723613351155,0.0006521160177288543
150000000000.0,-1,0.9600318083999999,-2.4569580909999997,0.8754788721,-0.27365,0.2092,0.22566,-3.2635550534999997,-9.2448270215,0.22959328979999996,-1.641,1.2307,-0.82911,-0.0009500000000000064,-0.008799999999999919,0.0006899999999999684,-0.003549986145513717,-0.0013961419192309865,-0.001190856376717342
150000000000.0,-1,1.11403544,-2.141183961,0.9778406847999999,-0.2359,0.18293,0.17119,-3.2822857549999997,-9.2389430315,0.19860427579999998,-1.6312,1.2289,-0.83738,-0.0006699999999999484,-0.00890000000000013,0.0007200000000000539,-0.0009751962861694885,-0.001538223692738816,-0.001028754142234245
150000000000.0,-1,1.136198469,-1.848945791,0.846902294,-0.1858,0.15339,0.12055,-3.295622799,-9.234628105499999,0.17333253875,-1.6233,1.2276,-0.84393,-0.0008600000000000829,-0.008999999999999897,0.0006699999999999484,-0.006093147691594192,-0.003489647820345221,-0.0015150425498788866
150000000000.0,-1,1.1251169545,-1.5616109459999998,0.6412568435,-0.1295,0.12163,0.068818,-3.3038603849999997,-9.232078376499999,0.1545135774,-1.6175,1.2268,-0.84863,-0.0007899999999999574,-0.00890000000000013,0.0008600000000000829,-0.0012573505701047871,-0.0037916084922413607,-0.000352119965782105
150000000000.0,-1,1.0845174235,-1.3253687474999998,0.44848752445,-0.062151,0.088944,0.023265,-3.307390779,-9.230999644999999,0.14332418975,-1.6141,1.2265,-0.85118,-0.0010099999999999554,-0.009100000000000108,0.0007899999999999574,-0.0069923253637351745,-0.005316553298569726,-0.0018654114134342148
150000000000.0,-1,1.0723571775,-1.0560781385,0.32714003734999997,0.017476,0.055406,-0.019704,-3.3066062469999995,-9.2312938445,0.14093136715,-1.6134,1.2266,-0.85121,-0.0008299999999999974,-0.009199999999999875,0.0009099999999999664,-0.00067246789521902,-0.004319372715312797,-0.00022930006767940547
150000000000.0,-1,1.1345313385,-0.7201023094999999,0.25437469435,0.096071,0.015792,-0.062602,-3.3014087224999997,-9.233059041499999,0.14740375614999998,-1.6154,1.2271,-0.84876,-0.0011500000000000954,-0.009300000000000086,0.0009200000000000319,-0.002652954303634436,-0.006124921280346474,-0.004187486235203375
150000000000.0,-1,1.245640683,-0.40930015105,0.14944353935,0.16472,-0.019269,-0.1081,-3.291896272,-9.236197169499999,0.16239812399999998,-1.6201,1.228,-0.84391,-0.0010499999999999954,-0.009300000000000086,0.001060000000000061,-0.0016208524756891052,-0.007720906352370438,0.0005308604720712928
150000000000.0,-1,1.3806782535,-0.09379080059999999,0.05053366744999999,0.23623,-0.066255,-0.16423,-3.276990164,-9.241002428,0.1860517638,-1.6275,1.2295,-0.83667,-0.0012899999999999023,-0.009399999999999853,0.0009699999999999154,-0.004751062771248371,-0.0057904283478489305,-0.002168422226515254
150000000000.0,-1,1.4640347785,0.1881307736,-0.1256427998,0.2843,-0.10784,-0.23037,-3.2556116669999997,-9.2479651495,0.21661909185,-1.6372,1.2316,-0.82747,-0.0011400000000000299,-0.009500000000000064,0.001060000000000061,-0.0013222623801432132,-0.007704709970957291,-0.001874481666993999
150000000000.0,-1,1.3650856799999997,0.44304483370000003,-0.23490849409999998,0.30498,-0.13567,-0.30551,-3.1007646635,-9.3007249265,0.23012284889999998,-1.6449,1.2482,-0.82042,-0.0012600000000000389,-0.009700000000000042,0.0011200000000000099,-0.00027644179742658537,-0.007826490473125558,-0.0014462265843131483
150000000000.0,-1,1.3050689819999999,0.54551451955,-0.32141295374999995,0.3083,-0.15676,-0.38457,-3.0640877925,-9.3119045075,0.26589750809999996,-1.6574,1.2518,-0.80897,-0.0011799999999999589,-0.009300000000000086,0.0013299999999999423,-0.004686043441268772,-0.008522319108826393,-0.0037575985686468805
150000000000.0,-1,1.1275686169999999,0.5315792698999999,-0.33814309865,0.2906,-0.17249,-0.45678,-3.0200559339999997,-9.325143485,0.3008876353,-1.6701,1.2561,-0.79747,-0.0013100000000000334,-0.009999999999999787,0.0009600000000000719,-0.0006155984640878742,-0.00871781637220126,-0.0009913921649413737
150000000000.0,-1,0.8829711527,0.37279979975,-0.2813331752,0.25571,-0.18753,-0.52922,-2.9681787555,-9.3407360585,0.33325938694999996,-1.6826,1.2613,-0.78641,-0.0011799999999999589,-0.009600000000000275,0.0013099999999999223,-0.0006394723243499101,-0.008065956029559063,-0.001981905895007241
150000000000.0,-1,0.6244678587,0.10343073755,-0.13224267525,0.22192,-0.19895,-0.59569,-2.9095349885,-9.358093829,0.36238513744999995,-1.6947,1.2672,-0.77592,-0.0013900000000000023,-0.009999999999999787,0.0009100000000000774,-0.006281883732022431,-0.00876171194156683,-0.0029852018338865083
150000000000.0,-1,0.6244678587,0.10343073755,-0.13224267525,0.22192,-0.19895,-0.59569,-2.9095349885,-9.358093829,0.36238513744999995,-1.6947,1.2672,-0.77592,-0.0009200000000000319,-0.00990000000000002,0.0010000000000000009,-0.0016459298846491777,-0.007537441279810819,-0.0007293379043513681
150000000000.0,-1,0.41095747489999995,-0.10854000219999999,0.04439470455,0.18809,-0.20916,-0.66338,-2.8440265664999997,-9.37711873,0.38851005304999997,-1.7066,1.2737,-0.76582,-0.0012799999999999478,-0.010199999999999987,0.0008699999999999264,-0.0036207953249078884,-0.008030213418129373,-0.004502954799507908
150000000000.0,-1,0.235555733,-0.24521528324999997,0.2193747605,0.17259,-0.21894,-0.71278,-2.7728302874999997,-9.397418495499998,0.41254615219999996,-1.7185,1.2809,-0.75576,-0.0009300000000000974,-0.010000000000000009,0.0007000000000000339,0.0005766210742674804,-0.006874550750329833,-0.00012818334205433324
150000000000.0,-1,0.10581375349999998,-0.293611101,0.34931287299999997,0.15838,-0.23114,-0.75611,-2.6969268164999995,-9.418502793,0.4352387402999999,-1.7308,1.2885,-0.74548,-0.0009599999999999609,-0.010399999999999965,0.00041000000000002146,-0.005212684644396726,-0.009612825319994744,-0.0028301999790494303
150000000000.0,-1,0.043061000149999994,-0.2918066774,0.4624227741,0.15265,-0.24071,-0.79455,-2.6167084195,-9.439979356499999,0.4575488690499999,-1.7439,1.2965,-0.73449,-0.0011299999999999644,-0.010299999999999976,0.0004899999999999904,-0.0029957923757095717,-0.0069227367903375026,-0.004334064048534758
150000000000.0,-1,-0.00914960445,-0.2622102077,0.40975125695,0.15201,-0.2575,-0.81598,-2.533646094,-9.461553986499998,0.47984919115,-1.758,1.3047,-0.72271,-0.0008299999999999974,-0.010199999999999987,0.00037999999999993594,-0.0020122636683610473,-0.007658640393002791,-0.001617839459483239
150000000000.0,-1,-0.06779337145,-0.30909580135,0.25266833725,0.16835,-0.269,-0.82883,-2.448328239,-9.4827363505,0.50360089745,-1.7737,1.3131,-0.70942,-0.0011499999999999844,-0.010299999999999976,0.0001100000000000545,-0.005504846734812885,-0.008580408879845569,-0.004428967012227725
150000000000.0,-1,-0.08019878369999998,-0.18484554585,0.12748644999999997,0.17594,-0.27732,-0.81658,-2.3635007165,-9.502839983,0.5292747071499999,-1.7911,1.3212,-0.69446,-0.0007500000000000284,-0.010300000000000198,9.999999999998899e-05,-0.001096122220585638,-0.00809272098099778,-0.0021388955316861136
150000000000.0,-1,-0.05308339645,-0.1831097688,0.0108069283,0.19486,-0.29497,-0.80284,-2.2797519255,-9.5217668175,0.55557614245,-1.8098,1.3292,-0.67834,-0.0008700000000000374,-0.010399999999999965,2.0000000000020002e-05,-0.0036279792284583667,-0.007863303754140682,-0.002595246895866543
150000000000.0,-1,-0.053485469099999995,-0.06835235049999999,-0.0655280353,0.21492,-0.31019,-0.78792,-2.1973760655,-9.539418787499999,0.5841723338499999,-1.8306,1.3368,-0.66031,-0.0009399999999999409,-0.010299999999999976,-3.500000000000725e-05,-0.0031645889300770946,-0.00870097262524161,-0.0029057913100354327
150000000000.0,-1,0.07705084905,0.25686558345,-0.15601399484999998,0.22873,-0.32199,-0.76952,-2.116471203,-9.555795892999999,0.6146514020499999,-1.8534,1.3441,-0.64039,-0.0008400000000000629,-0.010299999999999976,-3.500000000000725e-05,-0.004012622161674528,-0.009850401516177998,-0.003994165173469177
150000000000.0,-1,-0.0025497289999999997,0.27200705105,-0.188483813,0.25018,-0.34199,-0.75571,-2.036841205,-9.570898134,0.6471212202,-1.8784,1.3511,-0.61845,-0.0009399999999999409,-0.010199999999999987,-2.0000000000020002e-05,-0.0020416975579116148,-0.006840295944248176,-0.003487054838638759
150000000000.0,-1,0.20557680394999997,0.5321284422999999,-0.30724234449999993,0.2666,-0.3572,-0.75648,-1.9569170075,-9.585215842999999,0.6816406281999999,-1.906,1.3579,-0.59411,-0.0010499999999999954,-0.010000000000000009,-0.00014999999999998348,-0.0004608397657384078,-0.008164886002544058,-0.0029280959226289927
150000000000.0,-1,0.2898649607,0.92771889665,-0.39285439899999997,0.27423,-0.3654,-0.76107,-1.8762082779999998,-9.59874902,0.7169739881499999,-1.9358,1.3645,-0.56757,-0.0008100000000000884,-0.00990000000000002,-4.999999999999449e-05,-0.00011311180878736948,-0.009389446435264848,-0.000911433879207113
150000000000.0,-1,0.3407026343,1.2463271485,-0.49293126224999995,0.27224,-0.37864,-0.77655,-1.7939304845,-9.611791864499999,0.7522583148499999,-1.9678,1.3711,-0.53896,-0.0010899999999999244,-0.010199999999999987,-0.00045000000000006146,-0.0017473168606343403,-0.01027126446294857,-0.004731165418347283
150000000000.0,-1,0.3407026343,1.2463271485,-0.49293126224999995,0.27224,-0.37864,-0.77655,-1.7939304845,-9.611791864499999,0.7522583148499999,-1.9678,1.3711,-0.53896,-0.0011100000000000554,-0.010000000000000009,-0.00025999999999992696,0.0015692397369162503,-0.009736743105229095,-0.00026026112992005856
150000000000.0,-1,0.25502193325,1.5011039155,-0.5888991391499999,0.25896,-0.38376,-0.7935,-1.7097894274999998,-9.6243443765,0.7864148768,-2.0019,1.3777,-0.50843,-0.0010399999999999299,-0.009800000000000031,-0.00029000000000001247,0.00238452174278847,-0.008796108796740754,-0.0023206337908086017
150000000000.0,-1,-0.12135729375,1.24544455,-0.51615340945,0.24333,-0.3913,-0.81887,-1.623000575,-9.6367007555,0.81886508165,-2.0381,1.3843,-0.47581,-0.0011100000000000554,-0.010099999999999998,-0.00029000000000001247,0.0012770235676999864,-0.006895650620996729,-0.004259984535387451
150000000000.0,-1,-0.39238367979999994,1.094814406,-0.4982758865,0.21651,-0.3944,-0.83724,-1.5335639269999999,-9.648762934999999,0.8485792311499999,-2.0762,1.3911,-0.44134,-0.0013299999999999423,-0.009700000000000042,-0.00021999999999999797,0.0025769375756625745,-0.008281757992929961,-0.0013822338422093683
150000000000.0,-1,-0.48335016519999996,1.106582386,-0.5237535632,0.17368,-0.39561,-0.84983,-1.4426562815,-9.660530914999999,0.8740471012,-2.1155,1.3979,-0.40569,-0.0011500000000000954,-0.009899999999999798,-0.0005199999999999649,0.0008981827820315758,-0.008931254028564428,-0.001876160916816083
150000000000.0,-1,-0.69661538275,0.9792528424,-0.4360821122,0.12075,-0.38742,-0.8663,-1.3508660375000001,-9.6720046955,0.8932191019499999,-2.155,1.4049,-0.36982,-0.0011299999999999644,-0.00990000000000002,-0.00046000000000001595,0.004961080172414256,-0.007570832581847542,-0.001990834909526562
150000000000.0,-1,-0.8958472841499999,0.9408303876999999,-0.39657111935,0.060411,-0.37833,-0.87205,-1.2571144635,-9.6833804095,0.9063894328999998,-2.1955,1.4121,-0.33296,-0.0013699999999999823,-0.00990000000000002,-0.00034000000000000696,0.0036217984647830548,-0.00539865368806991,-0.0015923737056096066
150000000000.0,-1,-1.0278349865,0.9436350896,-0.35326495295,-0.007398,-0.36587,-0.87435,-1.163264823,-9.694559990499998,0.91216554975,-2.2358,1.4195,-0.29614,-0.0011400000000000299,-0.009600000000000053,-0.00036999999999998145,0.002098092215777836,-0.006762785394421433,-0.0031821118032104856
150000000000.0,-1,-1.1177619669999999,0.90809579,-0.22620999555,-0.0766,-0.34865,-0.87071,-1.0694151824999998,-9.7055434385,0.91004731335,-2.2758,1.4271,-0.25947,-0.0012099999999999334,-0.009700000000000042,-0.0005399999999999849,0.006048119978689037,-0.004480479474448407,-0.003200288530925466
150000000000.0,-1,-1.1745424705,0.8739098081,-0.1332331469,-0.14963,-0.32804,-0.85153,-0.9794587820499999,-9.716036553999999,0.9002798899499999,-2.3141,1.4347,-0.2244,-0.0011900000000000244,-0.009700000000000042,-0.00041000000000002146,0.0021565889846992814,-0.0053335399606861955,-0.0002960609091131605
150000000000.0,-1,-1.2914377385,0.7969177989499999,-0.04570879565,-0.20546,-0.30809,-0.83572,-0.8889630158499999,-9.726235469999999,0.88337322535,-2.353,1.4427,-0.18849,-0.0011700000000000044,-0.009800000000000031,-0.0005700000000000705,0.005580079275267158,-0.004968722559195227,-0.0010210872272098381
150000000000.0,-1,-1.363908882,0.70738308445,0.033891782399999994,-0.25139,-0.29281,-0.80046,-0.8019584170499999,-9.7357479205,0.8613965226999999,-2.3919,1.4505,-0.15251,-0.0012300000000000644,-0.009599999999999831,-0.0006199999999999539,0.00447879082447411,-0.00388442136908429,-0.001961974399912414
150000000000.0,-1,-1.422160383,0.61110139475,0.08671039929999999,-0.30579,-0.28146,-0.75925,-0.71934719745,-9.744671971999999,0.83310433745,-2.4293,1.4583,-0.11787,-0.0012999999999999678,-0.009700000000000042,-0.0006899999999999684,0.003868314168049558,-0.0031020932564620463,-0.0039645189099593026
150000000000.0,-1,-1.427652107,0.5430824703499999,0.1206414083,-0.33843,-0.26105,-0.70944,-0.6417177560499999,-9.7528114915,0.8005266461499999,-2.4659,1.466,-0.084,-0.0011200000000000099,-0.009600000000000053,-0.0007700000000000484,0.0028107403539949782,-0.0014226074133329991,-0.0011433595424401588
150000000000.0,-1,-1.4278482399999999,0.53209902235,0.1293301002,-0.38085,-0.2422,-0.65253,-0.570158631,-9.7602645455,0.7634084758999999,-2.5001,1.4735,-0.052238,-0.0013199999999999878,-0.009500000000000064,-0.0007399999999999629,0.009294227384142095,-0.002000176351342864,-0.00037917950812627055
150000000000.0,-1,-1.381364719,0.4973148348,0.1236814698,-0.40728,-0.22531,-0.59177,-0.5049444085,-9.7669330675,0.7229658512999999,-2.5319,1.4808,-0.02274,-0.0009599999999999609,-0.009499999999999842,-0.0006500000000000394,0.002876782142129608,-0.0017079971325524301,-0.0022801876603635307
150000000000.0,-1,-1.381364719,0.4973148348,0.1236814698,-0.40728,-0.22531,-0.59177,-0.5049444085,-9.7669330675,0.7229658512999999,-2.5319,1.4808,-0.02274,-0.0013199999999999878,-0.009600000000000053,-0.0006800000000000139,0.008393401659919864,-0.0004560543001870254,-0.000111180272489797
150000000000.0,-1,-1.3059515805,0.52107634775,0.1159930562,-0.43008,-0.20712,-0.52857,-0.44663406759999996,-9.772915123999999,0.67963026495,-2.5602,1.4878,0.003361,-0.0012500000000000844,-0.009400000000000075,-0.0008899999999999464,-0.0005272763585169038,-0.0026813536581984376,-0.0011960807785573735
150000000000.0,-1,-1.260350658,0.4820360741,0.09619342985,-0.44308,-0.1886,-0.46885,-0.39482553564999995,-9.7781126485,0.6346275480999999,-2.5851,1.4945,0.026239,-0.0010199999999999099,-0.009299999999999864,-0.0006300000000000194,0.004104880131841071,0.0013958461156435842,-0.0032147797473500717
150000000000.0,-1,-1.2169071985,0.44058336454999997,0.12027856225,-0.45845,-0.17261,-0.40551,-0.36771995505,-9.7820353085,0.58944831155,-2.5838,1.4999,0.023236,-0.0012100000000000444,-0.009300000000000086,-0.0006800000000000139,0.006030447780031256,-0.0003462307919361862,0.0012181902844616843
150000000000.0,-1,-1.218574329,0.3990718151,0.14630541135,-0.45888,-0.16335,-0.3503,-0.3286600681,-9.7861541015,0.54218025855,-2.5966,1.5061,0.034295,-0.0010799999999999699,-0.009199999999999875,-0.0005800000000000249,0.0001383829858172536,-0.00046630279048631706,0.0006918091412204674
150000000000.0,-1,-1.2198491935,0.36613127775,0.15246398754999999,-0.46434,-0.15065,-0.2904,-0.29601373025,-9.7896844955,0.4944120664,-2.6021,1.512,0.038147,-0.0012699999999999934,-0.009000000000000119,-0.00034999999999996145,0.007660344849852452,0.0024564992887883275,-0.0050958900174862265
150000000000.0,-1,-1.2131806715,0.36456221375,0.13757749284999998,-0.4575,-0.13875,-0.23634,-0.26900621615,-9.792724557,0.44675174739999995,-2.5996,1.5176,0.034104,-0.0010200000000000209,-0.008899999999999908,-0.0004899999999999904,-0.0006528899768731833,0.00027592372255247355,0.0017154986982221843
150000000000.0,-1,-1.190723443,0.59446931635,0.08322903855,-0.45808,-0.12465,-0.1824,-0.24790230535,-9.7953723525,0.39919930155,-2.5859,1.5229,0.018987,-0.0013600000000000279,-0.009000000000000119,-0.00029999999999996696,0.008478403932121958,0.0024966482443167237,-0.002196706059594433
150000000000.0,-1,-1.143259257,0.7064906792999999,0.09251593609999999,-0.44873,-0.1138,-0.13912,-0.23174094615,-9.797627881999999,0.35236274114999994,-2.5598,1.5278,-0.008333,-0.0010000000000000009,-0.008899999999999908,-0.0002300000000000635,-0.0012786695684376959,0.002113465095862077,0.0013531366026322544
150000000000.0,-1,-1.1757192685,0.6826801330999999,0.12171033314999999,-0.43216,-0.099157,-0.08857,-0.22085556464999997,-9.799393079,0.30699717825,-2.518,1.5322,-0.051317,-0.0011900000000000244,-0.008700000000000152,-0.000140000000000029,0.0032323184691229745,0.0024366277458836016,-0.0014378227536546717
150000000000.0,-1,-1.2051392184999998,0.6145141089499999,0.19551518105,-0.42033,-0.089477,-0.040422,-0.2150794478,-9.800766009999998,0.2629751264,-2.456,1.5361,-0.11428,-0.0010999999999999899,-0.008599999999999941,-3.999999999992898e-05,0.004724167484571051,0.0030813007723098362,0.00046114411971132085
150000000000.0,-1,-1.252309205,0.4487326907,0.23081912104999996,-0.40351,-0.082028,0.003012,-0.21416742935,-9.8018447415,0.22048291194999997,-2.3707,1.5394,-0.20055,-0.0011799999999999589,-0.008799999999999919,0.00012000000000000899,0.0004920545212667715,0.0018009764674324913,0.0016710705208007326
150000000000.0,-1,-1.352140902,0.22142435034999997,0.30160352075,-0.38216,-0.063615,0.053571,-0.21817834919999998,-9.802531207,0.18007951395,-2.2608,1.5419,-0.31127,-0.0011600000000000499,-0.008299999999999974,0.00017000000000000348,0.0017489001492136946,0.004761173498043725,-0.0022939123670084882
150000000000.0,-1,-1.427455974,-0.008737725149999999,0.28545196819999996,-0.37038,-0.052753,0.10531,-0.22740640685,-9.8030215395,0.1408627206,-2.1254,1.5435,-0.44735,-0.0010999999999999899,-0.008399999999999963,0.00029000000000001247,0.00034160235509994585,0.001883748565989718,0.0005971601942942328
150000000000.0,-1,-1.4894340019999999,-0.2022523496,0.27601797089999996,-0.34984,-0.04394,0.14695,-0.2417535358,-9.803119606,0.10376416364999999,-1.9762,1.544,-0.59703,-0.0008899999999999464,-0.008400000000000185,0.00045999999999990493,0.0006706623738266249,0.004616219930404952,0.002750003557931535
150000000000.0,-1,-1.5006135829999998,-0.32331544384999994,0.28705045214999997,-0.33088,-0.026729,0.18667,-0.26019984445,-9.802923472999998,0.06864655,-1.8287,1.5434,-0.74493,-0.0010100000000000664,-0.008000000000000007,0.0003700000000000925,-0.0009665581301736559,0.0028144047476159617,-0.002474714874137973
150000000000.0,-1,-1.5006135829999998,-0.32331544384999994,0.28705045214999997,-0.33088,-0.026729,0.18667,-0.26019984445,-9.802923472999998,0.06864655,-1.8287,1.5434,-0.74493,-0.0011700000000000044,-0.008099999999999996,0.0005600000000000049,0.0016343444688227127,0.0036609088808419177,0.0014749049808058246
150000000000.0,-1,-1.2644694509999999,-0.4191558343,0.2852362219,-0.30435,-0.015281,0.21937,-0.4447315775,-9.796254951,0.07075497975,-1.7286,1.5249,-0.84536,-0.0006599999999999939,-0.007800000000000029,0.0006099999999999994,-0.0029596746801905383,0.0040330303862228245,0.002074776747496454
150000000000.0,-1,-1.2220066564999998,-0.5059446867999999,0.32550232679999996,-0.27563,0.003433,0.25919,-0.47083687979999994,-9.795274286,0.0411094768,-1.6579,1.5226,-0.91613,-0.0008599999999999719,-0.007699999999999818,0.0007800000000000029,-0.002364450147227304,0.003471384220074425,0.0003901411867139881
150000000000.0,-1,-1.3129143019999998,-0.6753643721999999,0.34862640749999996,-0.22923,0.007071,0.28503,-0.4999626303,-9.793901355,0.01589657965,-1.6026,1.5198,-0.97147,-0.0011400000000000299,-0.007600000000000051,0.0007499999999999174,-5.166294627545476e-05,0.0011336250392905978,0.0006573443331372442
150000000000.0,-1,-1.3816589184999999,-0.8341438423499999,0.35630501444999996,-0.17446,0.017006,0.31089,-0.5317754029,-9.7922342245,-0.0039128533499999995,-1.5634,1.5165,-1.0105,-0.0009500000000000064,-0.007600000000000051,0.0010300000000000864,-0.000688764271363107,0.0037897657526910766,0.0036787250479173306
