Time,placement_label,user_acc_x(m/s^2),user_acc_y(m/s^2),user_acc_z(m/s^2),rotation_rate_x(rad/s),rotation_rate_y(rad/s),rotation_rate_z(rad/s),gravity_x(m/s^2),gravity_y(m/s^2),gravity_z(m/s^2),attitude_roll(rad),attitude_pitch(rad),attitude_yaw(rad),target_delta_x,target_delta_y,target_delta_z,target_delta_roll,target_delta_pitch,target_delta_yaw
150000000000.0,-1,-0.0134154972,0.15844604405,0.00021574629999999997,0.007164,0.022747,-0.000263,-0.8522371115999999,-9.578547321,1.9222014664999998,-2.7243,1.3547,-0.070769,0.0,0.0,0.0,0.0,0.0,0.0
150000000000.0,-1,-0.0030106415499999996,0.15588650839999998,-0.004903325,0.009298,0.022738,-0.000262,-0.8530706768499999,-9.5782531215,1.9233782645,-2.7241,1.3546,-0.070658,-4.999999999988347e-05,-3.333333333355171e-05,-0.00012999999999996348,0.0003367069620865415,0.0009127601612417546,-2.7171748387733174e-05
150000000000.0,-1,-0.0032754210999999997,0.1326251346,-0.02352615335,0.008183,0.018558,-0.00021,-0.8532471965499999,-9.578056988499998,1.9243589294999999,-2.7242,1.3545,-0.070349,-5.0000000000105516e-05,-3.333333333310762e-05,-2.0000000000020002e-05,-0.0002228764005307582,-0.00012842724705608433,0.0005594848998002888
150000000000.0,-1,-0.00295180165,0.13246822819999998,-0.024212618849999996,0.009248,0.017493,-0.000212,-0.8535806226499999,-9.577860855499999,1.925045395,-2.7242,1.3544,-0.070176,-2.4999999999941735e-05,-3.333333333355171e-05,0.00014999999999998348,-0.00014945232805985142,-0.0008923709125683299,-7.213255895699433e-05
150000000000.0,-1,-0.023153500649999995,0.1302126987,-0.05084748025,0.011384,0.017492,-0.001275,-0.8546201275499999,-9.577762789,1.9253395945,-2.7238,1.3543,-0.070372,-2.500000000016378e-05,-3.333333333310762e-05,-0.00012000000000000899,-0.00012014569350693449,0.0009961121231043535,-0.0002016262290620574
150000000000.0,-1,-0.023153500649999995,0.1302126987,-0.05084748025,0.011384,0.017492,-0.001275,-0.8546201275499999,-9.577762789,1.9253395945,-2.7238,1.3543,-0.070372,-2.4999999999941735e-05,-3.333333333355171e-05,8.000000000008001e-05,-0.0004121340442406751,-0.0008212823270956626,0.0003536054753321416
150000000000.0,-1,-0.005687856999999999,0.14538358624999997,-0.07281437624999999,0.010307,0.014307,-0.000218,-0.8557773122499999,-9.577468589499999,1.9261241265,-2.7235,1.3542,-0.070564,-2.4999999999941735e-05,-3.333333333310762e-05,1.999999999990898e-05,-0.00023696340446033304,-4.3166683121098615e-05,4.837739800933605e-05
150000000000.0,-1,0.009943943099999998,0.14401065524999998,-0.0175539035,0.010289,0.007929,0.001895,-0.8564441644499999,-9.576978256999999,1.9280854564999999,-2.7236,1.354,-0.070256,-1.999999999990898e-05,2.4999999999941735e-05,-2.999999999997449e-05,0.00024201402273127393,0.00024230294987481749,-6.614136036109386e-05
150000000000.0,-1,0.009943943099999998,0.14401065524999998,-0.0175539035,0.010289,0.007929,0.001895,-0.8564441644499999,-9.576978256999999,1.9280854564999999,-2.7236,1.354,-0.070256,-2.0000000000131024e-05,2.4999999999941735e-05,-0.00014999999999998348,-0.001021311612876108,0.0007005511731925651,0.00015813122804564372
150000000000.0,-1,0.0383047749,0.14885514035,0.02303582085,0.007093,0.00901,0.000833,-0.8565226176499999,-9.576585991,1.9300467865,-2.7239,1.3538,-0.069844,-1.999999999990898e-05,2.4999999999941735e-05,9.99999999995449e-06,0.0010641217595681596,-6.478934249742885e-05,-5.479535701535809e-05
150000000000.0,-1,0.03419578855,0.15315045305,0.0016573238499999997,0.004968,0.007998,-0.004489,-0.8560028652,-9.5762917915,1.9320081164999998,-2.7245,1.3536,-0.069092,-2.0000000000131024e-05,2.4999999999941735e-05,-5.999999999994898e-05,0.001195000504786714,0.0001887283742005863,-0.0006455946936658741
150000000000.0,-1,0.03419578855,0.15315045305,0.0016573238499999997,0.004968,0.007998,-0.004489,-0.8560028652,-9.5762917915,1.9320081164999998,-2.7245,1.3536,-0.069092,-1.999999999990898e-05,-9.999999999976694e-05,0.00017999999999995797,-0.00150422716893428,-0.0013081388598725763,0.0008376085716901294
150000000000.0,-1,0.00197113665,0.09229038314999999,-0.0238497728,0.004975,0.009074,-0.006614,-0.85534581965,-9.576193725,1.9327926484999998,-2.725,1.3536,-0.068557,-2.4999999999941735e-05,4.999999999988347e-05,-5.999999999994898e-05,-0.0001506663446981804,0.00043462604487309875,4.997783307558734e-05
150000000000.0,-1,-0.01389602305,0.0639981979,0.0051386846,0.000694,0.005886,-0.003431,-0.85505162015,-9.575997592,1.9336752469999998,-2.7253,1.3535,-0.068077,-2.500000000016378e-05,4.999999999988347e-05,9.00000000000345e-05,0.0011442918067809948,-0.00038187310431658794,-0.00012065548819295557
150000000000.0,-1,-0.039295246549999996,0.08842656305,0.02960627635,-0.002522,0.002685,0.000816,-0.8558459587999999,-9.5757033925,1.934655912,-2.7251,1.3534,-0.068204,-2.4999999999941735e-05,-4.999999999988347e-05,1.999999999990898e-05,0.00027498577071738417,-0.00013575551048639056,0.00018806297110529613
150000000000.0,-1,-0.039030467,0.08850501625,0.030116222149999997,-0.006796,0.001626,0.00294,-0.8561009316999999,-9.575801459,1.9341655794999997,-2.7249,1.3534,-0.068404,-2.4999999999941735e-05,-4.999999999988347e-05,-1.999999999990898e-05,-0.0011991257814263356,0.0001463477960195192,0.0001686913187990413
150000000000.0,-1,-0.021378497,0.1257604796,-0.011434553899999998,-0.00787,-0.000499,0.003999,-0.8572875363499999,-9.575801459,1.9336752469999998,-2.7243,1.3534,-0.069018,-3.333333333332966e-05,9.999999999976694e-05,-0.000160000000000049,-0.000270485206799842,0.0007389772826476015,-0.0002642042589773297
150000000000.0,-1,0.014258869099999998,0.20547873744999998,-0.06794047119999999,-0.002562,0.000644,-0.002337,-0.85746405605,-9.575899525499999,1.9329887815,-2.7241,1.3535,-0.069216,-3.333333333332966e-05,-9.999999999976694e-05,7.999999999996898e-05,-0.0004236813204971934,-0.0008047195666058826,0.00018479975035123886
150000000000.0,-1,0.01372931,0.20541989754999998,-0.06846022365,0.008113,-0.000427,-0.006592,-0.85693449695,-9.575899525499999,1.9335771805,-2.7244,1.3534,-0.068879,-3.333333333332966e-05,2.4999999999941735e-05,1.0000000000065512e-05,-3.225940452522558e-05,-0.000156231660673134,-6.81213485029808e-05
150000000000.0,-1,0.0154160538,0.19135716144999998,-0.06187015485,0.019849,-0.003623,-0.010851,-0.8559244119999999,-9.5757033925,1.9347539784999999,-2.7251,1.3534,-0.068218,-9.090909090847532e-06,2.4999999999941735e-05,-2.5000000000052758e-05,-9.100431738029435e-05,-4.059614916873677e-05,6.780391391680851e-05
150000000000.0,-1,0.0154160538,0.19135716144999998,-0.06187015485,0.019849,-0.003623,-0.010851,-0.8559244119999999,-9.5757033925,1.9347539784999999,-2.7251,1.3534,-0.068218,-9.090909091069577e-06,2.4999999999941735e-05,-2.4999999999941735e-05,-9.100871390299581e-05,-4.059073640738653e-05,6.780883328216802e-05
150000000000.0,-1,-0.00844352565,0.1117565834,-0.0244577851,0.020906,-0.007869,-0.01086,-0.8548162605499999,-9.575409192999999,1.9367153085,-2.7259,1.3532,-0.067413,-9.090909090847532e-06,2.4999999999941735e-05,2.999999999997449e-05,0.0006839207008160209,1.1716216123502932e-05,-6.424615935207711e-05
150000000000.0,-1,-0.0644689171,0.09227076985,-0.015327793949999998,0.001708,-0.003566,-0.008727,-0.8544534144999999,-9.5751149935,1.9384805055,-2.7264,1.3531,-0.066957,-9.090909090847532e-06,1.1111111111183902e-05,1.0000000000065512e-05,-4.736015938666682e-05,-8.910853760646376e-06,8.236934897221104e-05
150000000000.0,-1,-0.0893385815,0.08415086364999999,-0.020721451449999997,-0.001499,-0.003578,-0.005536,-0.8565226176499999,-9.574918860499999,1.9384805055,-2.7255,1.353,-0.06785,-9.090909090847532e-06,1.1111111111183902e-05,9.99999999995449e-06,-4.736079848410846e-05,-8.906936452168779e-06,8.236960606788912e-05
150000000000.0,-1,-0.08954452115,0.08417047695,-0.020750871399999996,0.000629,-0.001505,-0.000212,-0.8563166779999999,-9.574918860499999,1.9384805055,-2.7256,1.353,-0.067772,-9.090909091069577e-06,1.1111111111183902e-05,-4.0000000000040004e-05,8.458504138397771e-05,0.00035931685007417613,-1.2045315089359576e-05
150000000000.0,-1,-0.0661164343,0.0708236263,-0.027350746849999996,0.003837,0.002716,0.000862,-0.8581995548,-9.5747227275,1.9384805055,-2.7248,1.3529,-0.06854,-9.090909090847532e-06,1.1111111111183902e-05,7.999999999996898e-05,-0.0003433694557009037,-0.0005525625235274223,0.00034204694130801627
150000000000.0,-1,0.0008825985,0.1378618857,-0.03454882795,0.001711,0.006959,0.001935,-0.8598078454,-9.574624661,1.9385785719999997,-2.7241,1.3528,-0.069151,-9.090909090847532e-06,1.1111111110739813e-05,-5.999999999994898e-05,0.0002935798896506192,0.0004177619243523889,-0.00011669484196241697
150000000000.0,-1,0.00130428445,0.1378422724,-0.034499794699999996,-0.000425,0.006959,0.002999,-0.86022953135,-9.574624661,1.9384805055,-2.7239,1.3528,-0.069276,-9.090909090847532e-06,1.1111111111183902e-05,5.000000000032756e-06,-0.0002637922062220799,0.00016037978548300025,-4.3822217997480095e-05
150000000000.0,-1,0.018112882549999997,0.15095376345,-0.052338091049999994,0.000639,0.004842,0.00193,-0.8604158577,-9.5747227275,1.9378921064999999,-2.7237,1.3529,-0.069414,-9.090909091069577e-06,1.1111111111183902e-05,4.999999999921734e-06,-0.000259142792517153,-9.515496511403043e-05,6.985421060168306e-05
150000000000.0,-1,0.0283608318,0.17307756585,-0.06918591575,0.004896,-0.001522,-0.00021,-0.8601903047499999,-9.574820793999999,1.937401774,-2.7237,1.3529,-0.069412,-9.090909090847532e-06,1.1111111111183902e-05,-6.999999999990347e-05,-0.00026108492105403336,-0.0003275792431236546,5.118434609485689e-07
150000000000.0,-1,0.055417379149999994,0.15997588145,-0.052220411249999994,0.007022,-0.007869,-0.003416,-0.85881737375,-9.574918860499999,1.9376959734999997,-2.7244,1.353,-0.068847,9.999999999998899e-05,1.1111111111183902e-05,-7.00000000000145e-05,0.00039071658068001724,0.0008776983035103658,-0.0003329233651867547
150000000000.0,-1,0.035558912899999996,0.12231834544999999,-0.0682935106,0.00488,-0.013147,-0.005556,-0.85752289595,-9.5751149935,1.9373037075,-2.7249,1.353,-0.068468,-9.999999999998899e-05,2.4999999999941735e-05,0.00014999999999998348,0.00038452616380713067,-0.0008566784810375427,-0.0001468670650783821
150000000000.0,-1,-0.0321854253,0.11768960664999999,-0.02403609915,-0.00046,-0.016299,-0.006628,-0.85695411025,-9.5751149935,1.937401774,-2.7252,1.3531,-0.068336,2.4999999999941735e-05,2.4999999999941735e-05,-2.0000000000020002e-05,-0.00029783845559183675,-1.3396400142529075e-06,0.00014581482674191903
150000000000.0,-1,-0.03301899055,0.11786612634999999,-0.023535959999999998,-0.007937,-0.018406,-0.004507,-0.85613035165,-9.57521306,1.9369114414999997,-2.7254,1.3531,-0.068252,2.4999999999941735e-05,2.4999999999941735e-05,1.0000000000065512e-05,0.00026756588148746374,0.00016335040339798823,5.053135670252118e-05
150000000000.0,-1,-0.0774921483,0.10590201334999999,-0.025330576949999996,-0.014349,-0.014064,-0.005492,-0.85744444275,-9.575409192999999,1.935636577,-2.7246,1.3532,-0.069215,2.500000000016378e-05,2.4999999999941735e-05,9.99999999995449e-06,0.0002675751867817766,0.00016333712274962942,5.0575265241548095e-05
150000000000.0,-1,-0.12149458685,0.1352140902,-0.0115522337,-0.015392,-0.004507,-0.006533,-0.8599843650999999,-9.575409192999999,1.9345578454999999,-2.7233,1.3532,-0.070553,2.4999999999941735e-05,-2.4999999999941735e-05,9.99999999995449e-06,-0.00014449833319174488,-0.0005233917719988934,0.0005077100809649515
150000000000.0,-1,-0.1471389766,0.14235333139999998,-0.02028995885,-0.012165,0.005041,-0.008637,-0.8630636532,-9.575409192999999,1.9333810474999997,-2.7217,1.3532,-0.072034,9.999999999998899e-05,-2.4999999999941735e-05,-9.00000000000345e-05,0.0003061905635641793,0.00045870663875291484,0.00013251862225427402
150000000000.0,-1,-0.1381756985,0.1497867721,-0.028605998049999998,-0.008943,0.01352,-0.009679,-0.8660448747999999,-9.575311126499999,1.932302316,-2.7202,1.3532,-0.073375,3.333333333332966e-05,-2.4999999999941735e-05,7.00000000000145e-05,0.00021218175434301045,-0.00019807852161379813,0.00015251876540878229
150000000000.0,-1,-0.12665288475,0.16686014975,-0.0358727257,-0.00039,0.019865,-0.011789,-0.8687417035499999,-9.57521306,1.9318119834999998,-2.719,1.3531,-0.074408,3.333333333332966e-05,-2.4999999999941735e-05,-3.999999999992898e-05,-0.0003592454719474336,0.0001838624837360303,0.00031378626682210253
150000000000.0,-1,-0.07005870759999999,0.16533031234999998,-0.06396877795,0.006014,0.021952,-0.010718,-0.8701146345499999,-9.5751149935,1.931321651,-2.7183,1.3531,-0.074843,3.333333333332966e-05,4.999999999988347e-05,-9.999999999998899e-05,-0.00019045721111132785,0.0004341675349557317,0.00019242334564539831
150000000000.0,-1,-0.0067469752,0.1709691361,-0.07406962745,0.015613,0.021906,-0.009652,-0.8701342478499999,-9.5751149935,1.931517784,-2.7183,1.3531,-0.074563,9.999999999998899e-05,4.999999999988347e-05,-3.0000000000085514e-05,0.0003884278240062766,9.390763347028042e-05,-4.0252381408034665e-05
150000000000.0,-1,-0.00138273765,0.147295883,-0.0635274787,0.020942,0.019764,-0.009655,-0.8699577281499999,-9.574918860499999,1.9324984490000001,-2.7186,1.353,-0.074066,4.999999999988347e-05,-9.999999999976694e-05,0.00012000000000000899,-4.374835051357273e-05,-0.0006745354943475945,0.00030324468267162175
150000000000.0,-1,-0.00196133,0.14695265024999998,-0.06547900205,0.022,0.01657,-0.008599,-0.8693791357999999,-9.5745265945,1.9344597789999998,-2.7192,1.3528,-0.073241,5.0000000000105516e-05,9.999999999976694e-05,-4.999999999999449e-05,0.001727298020022472,0.00019309338213679972,-0.00046268373497548865
150000000000.0,-1,-0.009963556399999999,0.1182093591,-0.03892259385,0.019861,0.014458,-0.008604,-0.86931048925,-9.574232395,1.936028843,-2.7196,1.3527,-0.072738,5.0000000000105516e-05,5.000000000032756e-05,-9.999999999998899e-05,-2.3939201138079014e-05,0.00094606814717757,2.8856651285380508e-05
150000000000.0,-1,-0.009963556399999999,0.1182093591,-0.03892259385,0.019861,0.014458,-0.008604,-0.86931048925,-9.574232395,1.936028843,-2.7196,1.3527,-0.072738,4.999999999988347e-05,4.999999999988347e-05,2.999999999997449e-05,0.00015068460041600673,-4.3199515251446385e-05,0.00017329761906292873
150000000000.0,-1,-0.01152281375,0.10623543945,-0.04339442625,0.013462,0.013439,-0.010735,-0.8690947429499999,-9.5741343285,1.9369114414999997,-2.7198,1.3526,-0.072313,3.333333333332966e-05,-0.00010000000000021103,4.999999999999449e-05,-0.0001617876206136959,-2.3541243213687224e-05,0.0003989860369832954
150000000000.0,-1,-0.06413549099999999,0.06593010795,-0.01630845895,-0.000405,0.01666,-0.008603,-0.86960468875,-9.573938195499998,1.9376959734999997,-2.7197,1.3525,-0.072047,3.333333333332966e-05,-9.090909090847532e-06,-2.999999999997449e-05,-6.9096813105185e-05,0.0006317614441606612,0.00014276125926704353
150000000000.0,-1,-0.0626252669,0.08755377119999999,-0.028713871199999998,-0.004665,0.019858,-0.008597,-0.87082071335,-9.573938195499998,1.9367153085,-2.719,1.3525,-0.072521,3.333333333332966e-05,-9.090909090847532e-06,-2.999999999997449e-05,-0.00014187411324795285,0.00026777284173196136,0.000284001694964342
150000000000.0,-1,-0.0284196717,0.12262235159999998,-0.04504194345,-0.007861,0.023045,-0.007526,-0.8714973722,-9.574232395,1.935440444,-2.7185,1.3526,-0.072832,9.999999999998899e-05,-9.090909090847532e-06,-4.0000000000040004e-05,0.0005539151750617588,0.0006992612682394928,0.0003263156473316542
150000000000.0,-1,-0.043237519849999996,0.11788573965,-0.04666984735,-0.006787,0.025169,-0.008584,-0.872399584,-9.574428527999999,1.934067513,-2.7178,1.3527,-0.07321,4.999999999988347e-05,-9.090909090847532e-06,-4.0000000000040004e-05,-0.0002736897975688102,0.0002970159626967117,0.00016667546127591137
150000000000.0,-1,-0.00208881645,0.10805947634999999,-0.06132098245,-0.005784,0.024173,-0.00958,-0.8722426775999998,-9.5747227275,1.9324003825,-2.7176,1.3529,-0.073203,5.0000000000105516e-05,-9.090909090847532e-06,-3.999999999992898e-05,-0.0002736404780041557,0.00029706019720121546,0.00016659427227994072
150000000000.0,-1,-0.0026576021499999996,0.10824580269999999,-0.06066393689999999,-0.004718,0.023116,-0.010646,-0.8716738919,-9.574918860499999,1.9317139169999997,-2.7177,1.353,-0.072844,9.999999999998899e-05,-9.090909091291621e-06,2.999999999997449e-05,0.0006753556807852501,0.00022899727240432988,5.739895826728514e-05
150000000000.0,-1,-0.014592295199999999,0.10843212905,-0.0400307453,-0.004725,0.022039,-0.008521,-0.8718602182499999,-9.5751149935,1.9307332519999998,-2.7174,1.3531,-0.072882,9.999999999998899e-05,-9.090909090847532e-06,3.0000000000085514e-05,0.0004140229206601731,0.00036720222522257373,-1.8302029607397685e-05
150000000000.0,-1,-0.00893385815,0.1249955609,-0.044404511199999996,-0.006858,0.0231,-0.007455,-0.8719778980499999,-9.575409192999999,1.9293603209999999,-2.7171,1.3532,-0.072939,9.999999999998899e-05,-9.090909090847532e-06,2.999999999997449e-05,0.0012803284068370058,-0.001270470056542461,0.0010092811325312923
150000000000.0,-1,-0.0333033834,0.1192880906,-0.07388330109999999,-0.004727,0.024136,-0.005325,-0.8729095297999999,-9.575605326,1.927595124,-2.7164,1.3533,-0.073427,4.999999999988347e-05,-9.090909090847532e-06,-6.499999999998174e-05,-0.00024023454074462158,0.0007506733264808219,0.00015501314770371977
150000000000.0,-1,-0.044845810449999995,0.10709842465,-0.04919015639999999,-0.001528,0.026221,-0.002128,-0.8743805273,-9.5757033925,1.9265163925,-2.7155,1.3533,-0.073999,5.0000000000105516e-05,-9.090909090847532e-06,-6.500000000009276e-05,-0.00024012087080427236,0.0007507086259612716,0.00015483452771603012
150000000000.0,-1,-0.06987238125,0.1059314333,-0.033872169099999995,0.001673,0.029366,0.001072,-0.8767341232999999,-9.575605326,1.9260260599999999,-2.7144,1.3533,-0.074807,9.999999999998899e-05,-9.090909090847532e-06,1.0000000000065512e-05,-0.00010253970006912638,-2.0702776919456767e-06,0.0006037353403338663
150000000000.0,-1,-0.069234949,0.10588240004999999,-0.0338525558,0.002752,0.033611,1.8e-05,-0.8773813622,-9.5755072595,1.9260260599999999,-2.7141,1.3533,-0.074755,9.999999999998899e-05,-5.000000000032756e-05,3.999999999992898e-05,0.0002182318665928662,-0.0001366961815953971,0.0001808855944229748
150000000000.0,-1,0.0095712904,0.15457241730000001,-0.02505599075,0.002754,0.034672,2.1e-05,-0.8782149274499998,-9.575409192999999,1.9260260599999999,-2.7138,1.3532,-0.074761,5.0000000000105516e-05,-4.999999999988347e-05,4.0000000000040004e-05,-0.0002357249571016684,-0.00047323442413960137,0.0005026052838950079
150000000000.0,-1,0.048562530799999996,0.17080242304999999,-0.028351025149999997,-0.00044,0.033656,-0.004238,-0.8778520813999999,-9.5755072595,1.9259279935,-2.7139,1.3533,-0.074302,4.999999999988347e-05,1.2499999999970868e-05,6.0000000000060005e-05,0.0003636979927108541,-0.000751952866509642,0.00033250769806425495
150000000000.0,-1,0.055946938249999995,0.15903444304999997,-0.0508376736,0.001693,0.03049,-0.007436,-0.8768616097499999,-9.5757033925,1.9253395945,-2.7142,1.3534,-0.073676,9.999999999998899e-05,1.2499999999970868e-05,-2.0000000000020002e-05,-0.00018528782560367496,0.00014938464858982314,0.0001983017548821131
150000000000.0,-1,0.08548456805,0.12691766429999998,-0.06966644159999999,0.00274,0.022002,-0.007455,-0.87497873295,-9.5760956585,1.924456996,-2.7149,1.3535,-0.072808,5.0000000000105516e-05,1.2499999999970868e-05,9.99999999995449e-06,4.8152325120787154e-05,0.00011862189430988934,9.18819405977267e-05
150000000000.0,-1,0.05828092095,0.1032836378,-0.022290515449999996,0.000583,0.012458,-0.006414,-0.8735077354499999,-9.576193725,1.9243589294999999,-2.7155,1.3536,-0.072045,5.0000000000105516e-05,1.2499999999970868e-05,2.0000000000020002e-05,0.00024597221518596335,-0.00040010710773175084,0.00015474192434616896
150000000000.0,-1,0.057849428349999996,0.10338170429999999,-0.021947282699999997,-0.003692,0.009293,-0.006422,-0.87307624285,-9.576389858,1.9239666635,-2.7156,1.3536,-0.071824,9.999999999998899e-05,1.2500000000414957e-05,2.999999999997449e-05,0.0005699449676668245,-0.0001177732749684246,-3.984679333601804e-06
150000000000.0,-1,0.040403398,0.0699214145,0.00059820565,-0.009047,0.00398,-0.002181,-0.8720857711999999,-9.576585991,1.923476331,-2.7159,1.3537,-0.071464,4.999999999988347e-05,1.2499999999970868e-05,2.0000000000020002e-05,-0.00011732083434656815,-6.814101109697823e-05,0.00015888278540776568
150000000000.0,-1,0.0141608026,0.091986377,-0.007423634049999999,-0.012314,0.001891,-0.002126,-0.8717327317999999,-9.576782124,1.9224956659999999,-2.7159,1.3538,-0.071484,5.0000000000105516e-05,1.2499999999970868e-05,4.999999999999449e-05,0.000727095138230549,-0.0001180936854183745,-1.2397555622545298e-05
150000000000.0,-1,0.04639526115,0.12324017055,0.03329357675,-0.014452,0.000831,-0.001065,-0.8707422601499999,-9.5768801905,1.922299533,-2.7163,1.3539,-0.071094,0.00023333333333330764,1.2499999999970868e-05,9.99999999995449e-06,0.00048132907277809167,5.594207251169436e-05,7.472556487053694e-05
150000000000.0,-1,0.06302733955,0.1369792872,0.0280077924,-0.01232,0.000814,-1e-06,-0.86956546215,-9.576978256999999,1.9222014664999998,-2.7168,1.354,-0.070622,0.00023333333333330764,0.0011999999999998678,2.0000000000020002e-05,0.0001403593718338758,8.180798896062491e-05,-0.00031675544488418694
150000000000.0,-1,0.08212088709999998,0.13689102734999997,0.009502643849999999,-0.011262,-0.00238,0.001055,-0.8680160114499998,-9.5772724565,1.9219072669999997,-2.7174,1.3541,-0.070065,0.00023333333333330764,0.0011999999999998678,0.0005700000000000705,0.035951775429102995,-0.0017154675521997564,-0.00010524890966756573
150000000000.0,-1,0.0818855275,0.13708716035,0.010375435699999998,-0.009138,-0.008735,-0.001086,-0.86778065185,-9.577468589499999,1.9210246684999999,-2.7173,1.3542,-0.070204,-0.0002666666666666373,5.000000000032756e-05,1.999999999990898e-05,0.00021090595455985905,0.00010035050241841148,-0.0003859305176616701
150000000000.0,-1,0.09229038314999999,0.14297115035,-0.0081983594,-0.004885,-0.015115,-0.0011,-0.8656133822,-9.577566655999998,1.9210246684999999,-2.7182,1.3543,-0.069423,-0.0002666666666666373,4.999999999988347e-05,1.0000000000065512e-05,0.00010408761817326528,-0.0003489732550525648,-0.0004604234005900487
150000000000.0,-1,0.0785512665,0.1250544008,-0.0242616521,-0.002773,-0.023615,-5.6e-05,-0.8637010854499999,-9.577860855499999,1.920926602,-2.719,1.3543,-0.068832,-0.0002666666666666373,-0.0024000000000001798,-0.00048000000000003595,-0.03785018011738783,0.0019261359699720426,-6.758290524100374e-06
150000000000.0,-1,0.057211996099999995,0.11649319535,-0.017200864099999998,-0.002785,-0.028918,-6.8e-05,-0.86211240815,-9.577958921999999,1.9210246684999999,-2.7198,1.3544,-0.068412,1.999999999990898e-05,0.00010000000000021103,-9.999999999998899e-05,-7.64988825681101e-05,0.0008125660834137349,-0.0005863396032994572
150000000000.0,-1,0.018210949049999998,0.10803005639999999,-0.007119627899999999,-0.00813,-0.031042,0.003117,-0.8615730424,-9.577958921999999,1.9210246684999999,-2.72,1.3544,-0.068504,2.0000000000131024e-05,9.999999999976694e-05,0.0001100000000000545,0.0004984950733657456,-0.0005323173672997505,-0.0003283445471229385
150000000000.0,-1,-0.01317033095,0.10878516845,-0.026193562150000002,-0.013471,-0.032097,0.005241,-0.8619162751499999,-9.578155055,1.9200440034999997,-2.7196,1.3545,-0.069167,1.999999999990898e-05,4.999999999988347e-05,-3.500000000000725e-05,-0.0005188551733625868,0.00012691577177381674,-0.0002168955472754419
150000000000.0,-1,-0.012993811249999999,0.10900091475,-0.0250657974,-0.014539,-0.029995,0.008436,-0.8620829882,-9.578351188,1.9188672055,-2.7194,1.3546,-0.06978,2.0000000000131024e-05,5.000000000032756e-05,-3.500000000000725e-05,0.0013081220023103413,0.0008111954332192806,-0.0007622126087882819
150000000000.0,-1,-0.04610106165,0.10986389994999998,0.01738719045,-0.017735,-0.026809,0.009507,-0.8636912788,-9.578351188,1.9182788065,-2.7185,1.3546,-0.070874,1.999999999990898e-05,9.999999999976694e-05,-7.00000000000145e-05,0.00019867117077532193,0.0005924206252863051,-0.00018938629370746085
150000000000.0,-1,-0.01030678915,0.11308048115,0.022447421849999996,-0.021994,-0.021506,0.011645,-0.8647700102999999,-9.578449254499999,1.9174942744999999,-2.7179,1.3546,-0.071756,-9.999999999998899e-05,0.00010000000000021103,0.00019000000000002348,0.0006384350674668582,-0.0010797956499111194,-7.189798919871038e-05
150000000000.0,-1,-0.00979684335,0.1134629405,0.024595078199999995,-0.025179,-0.017227,0.008463,-0.8652897627499999,-9.578743454,1.9153368115,-2.7173,1.3548,-0.072601,9.999999999998899e-05,9.999999999976694e-05,-3.0000000000085514e-05,0.00014116934971264428,-0.0001537955759867149,-0.00032202912493106695
150000000000.0,-1,-0.0214961768,0.1362339818,-0.03803999535,-0.025165,-0.015074,0.004213,-0.8658585484499999,-9.57913572,1.9134735479999998,-2.7167,1.355,-0.073379,-5.0000000000105516e-05,0.00010000000000021103,6.0000000000060005e-05,0.0014939310662687166,0.00029926524594459103,-0.0006670011952527588
150000000000.0,-1,0.0110422879,0.1336842528,-0.1075789505,-0.020897,-0.016136,0.002084,-0.865927195,-9.5798221855,1.9096489544999997,-2.7159,1.3553,-0.074307,-4.999999999988347e-05,4.999999999988347e-05,-6.0000000000060005e-05,-0.0003459332761219791,0.001005927608332735,-8.84083201864172e-05
150000000000.0,-1,0.0107677017,0.133958839,-0.10633350594999999,-0.01236,-0.017214,-4.3e-05,-0.8656526088,-9.580116385,1.9084721565,-2.7158,1.3554,-0.074608,-1.4285714285744433e-05,4.999999999988347e-05,-1.999999999990898e-05,0.00019789722313312552,-4.283667728488538e-05,-0.000336125476708915
150000000000.0,-1,-0.0012454445499999998,0.1264077185,-0.06451795034999999,-0.00391,-0.022535,1.2e-05,-0.8656035755499999,-9.580704784,1.905824361,-2.7153,1.3557,-0.075313,-1.4285714285744433e-05,0.00010000000000021103,5.999999999994898e-05,0.00047654804570762543,-0.0003661645583716844,-0.00044807670914703834
150000000000.0,-1,0.030851720899999997,0.09867451229999999,-0.013023231199999999,-0.006057,-0.025732,0.003195,-0.86477981695,-9.5808028505,1.9056282279999999,-2.7156,1.3557,-0.075244,-1.4285714285744433e-05,0.00019999999999997797,9.99999999995449e-06,0.0025187875713559293,0.000728123735842523,-0.0012678401788672744
150000000000.0,-1,0.0308321076,0.09884122534999999,-0.01222889255,-0.013539,-0.028907,0.006377,-0.86476020365,-9.580900917,1.904843696,-2.7154,1.3558,-0.075681,-1.4285714285522388e-05,9.999999999976694e-05,2.0000000000020002e-05,0.0007896024789877387,0.0002828727525858721,-0.0002905137785660372
150000000000.0,-1,-0.007021561399999999,0.09319259494999999,0.00430511935,-0.025278,-0.029929,0.007435,-0.8644660041499999,-9.581097049999999,1.904059164,-2.7154,1.3559,-0.076036,-1.4285714285744433e-05,0.00010000000000021103,3.0000000000085514e-05,0.0010524446120450115,-0.00021602881549465103,-0.0001395022574439686
150000000000.0,-1,0.004707192,0.094339973,-0.0521125381,-0.031666,-0.025645,0.005316,-0.8646719437999999,-9.5817835155,1.9004307034999999,-2.7146,1.3562,-0.077118,-1.4285714285744433e-05,3.333333333310762e-05,-5.0000000000105516e-05,4.20218880141654e-05,0.0005812991981992699,-0.00015272647737818446
150000000000.0,-1,0.00463854545,0.0948891454,-0.049347062799999994,-0.029507,-0.017146,0.002145,-0.8646032972499998,-9.5823719145,1.8976848414999998,-2.7141,1.3565,-0.077851,-1.4285714285744433e-05,3.333333333355171e-05,0.00012000000000000899,-0.0012118803708061066,-0.0006732541214953258,0.00046514212367565477
150000000000.0,-1,0.0165928518,0.16005433465,-0.06840138375,-0.01777,-0.01929,-0.001048,-0.8639854782999999,-9.582862247,1.8953312454999998,-2.7139,1.3568,-0.078251,-5.0000000000105516e-05,3.333333333310762e-05,-9.99999999995449e-06,0.0010632402866268542,0.00021400656728576273,-0.0005768531095795559
150000000000.0,-1,0.0430904201,0.13243880824999998,-0.047856451999999994,-0.009251,-0.02359,0.002135,-0.86295578005,-9.583254513,1.8939583144999999,-2.7141,1.3569,-0.078305,-5.0000000000105516e-05,0.00010000000000021103,7.999999999996898e-05,-0.00018201220810909469,-0.0003590894761846819,-0.0005298174696926061
150000000000.0,-1,0.058584927099999996,0.1036170639,-0.04468890405,-0.010341,-0.031033,0.005309,-0.8616907222,-9.583646779,1.89268345,-2.7144,1.3571,-0.078304,-9.999999999998899e-05,9.999999999976694e-05,-5.999999999994898e-05,2.9003322596476977e-05,0.0008569562032683109,-0.0006650880998577691
150000000000.0,-1,0.07711949559999999,0.12031778885,-0.036333638249999994,-0.016761,-0.037387,0.00742,-0.8601706914499999,-9.584039044999999,1.8914085855,-2.7148,1.3573,-0.078287,-4.999999999988347e-05,0.00010000000000021103,8.999999999992347e-05,0.0008267772046892663,-0.0005848363912599464,-0.0007306741317618659
150000000000.0,-1,0.0957521306,0.1079319899,-0.0441887649,-0.025329,-0.049042,0.010581,-0.85830742795,-9.584627443999999,1.8890549895,-2.7151,1.3576,-0.078432,-5.0000000000105516e-05,0.00010000000000021103,-4.999999999999449e-05,0.0005669961026439907,0.00044945454896683223,-0.00046716135831026406
150000000000.0,-1,0.09109397185,0.11666971504999998,-0.0408741172,-0.028551,-0.056468,0.01269,-0.8566402974499999,-9.5853139095,1.8865052605000001,-2.7153,1.3579,-0.078801,-9.999999999998899e-05,9.999999999976694e-05,8.000000000008001e-05,0.000283660645516548,-0.0007102715457867337,-0.0007262345211369592
150000000000.0,-1,0.06112484945,0.08911302854999999,-0.026428921749999997,-0.02857,-0.0639,0.013737,-0.8555517592999999,-9.5859023085,1.884053598,-2.7153,1.3582,-0.079481,0.000500000000000167,0.0022999999999999687,0.00046999999999997044,0.033840119763123955,-0.001381659933273438,-0.00047715488507416026
150000000000.0,-1,0.023761512949999997,0.12298519764999999,-0.03582369245,-0.027515,-0.069206,0.013725,-0.8552967864,-9.586392641,1.8816019355,-2.715,1.3584,-0.080566,-4.999999999988347e-05,0.00010000000000021103,-0.0001866666666666683,1.0398569857628104e-05,0.00018590839498977552,-0.0006221105581127873
150000000000.0,-1,0.0041580196,0.1337430927,-0.033862362449999996,-0.027513,-0.069198,0.012662,-0.85544388615,-9.586784907,1.879346406,-2.7144,1.3586,-0.081793,-5.0000000000105516e-05,9.999999999976694e-05,-0.0001866666666666683,1.0282911632408798e-05,0.00018591452693494936,-0.0006221097092087291
150000000000.0,-1,-0.0159456129,0.14453040769999997,-0.01713221755,-0.029651,-0.069206,0.014789,-0.8561401583,-9.5870791065,1.877385076,-2.7137,1.3588,-0.083196,-0.0008000000000001339,-0.0021999999999997577,-0.0001866666666666683,-0.03571151853634724,0.002573428383153553,-0.0007659011381004888
150000000000.0,-1,-0.0421489817,0.141608026,-0.00591340995,-0.028659,-0.06815,0.016982,-0.85762096245,-9.587373305999998,1.875619879,-2.7127,1.3589,-0.084915,0.0005999999999999339,0.0022999999999999687,0.0005600000000000049,0.03511941185455969,-0.0023480769337438367,-0.0005598829171273856
150000000000.0,-1,-0.057025669749999994,0.17592149434999999,-0.0264975683,-0.024387,-0.067099,0.015922,-0.85950383925,-9.587569439,1.8737566154999998,-2.7115,1.359,-0.086812,-0.0006999999999999229,-0.002000000000000224,-0.0004899999999999904,-0.03392944253836516,0.001997795863355023,-0.0013430080761058782
150000000000.0,-1,-0.06102678295,0.18534568499999998,-0.042590280949999997,-0.01797,-0.063911,0.011677,-0.86119058305,-9.5876675055,1.8721875515,-2.7105,1.3591,-0.088519,0.0006999999999999229,0.0028999999999999027,0.0009500000000000064,0.014043021929416533,-0.0054384499189772395,0.021880899680239985
150000000000.0,-1,-0.041315416449999996,0.1631434294,-0.07802170739999999,-0.010486,-0.059675,0.008498,-0.8621908613499999,-9.587863638499998,1.8705204209999997,-2.7097,1.3592,-0.089909,-0.00029999999999996696,0.00010000000000021103,0.00029999999999996696,-0.0021656679898576225,0.002471394038105812,0.0010652071748640246
150000000000.0,-1,-0.06796989114999999,0.15447435079999997,-0.0915352711,-0.005146,-0.058619,0.006375,-0.8635245657499999,-9.5880597715,1.8690494235,-2.7088,1.3593,-0.091355,-0.0005999999999999339,-0.0028999999999999027,-0.0011700000000000044,-0.011218743722208435,0.0021578191471867125,-0.024231424805607027
150000000000.0,-1,-0.06593010795,0.13224267525,-0.0976938473,-0.00514,-0.058595,0.003185,-0.86436793765,-9.588255904499999,1.867578426,-2.7081,1.3594,-0.092604,-9.999999999998899e-05,4.999999999988347e-05,4.999999999999449e-05,-0.0004976841715975677,-0.00039628339000352675,-0.0001465379942082734
150000000000.0,-1,-0.09429093975,0.0961443966,-0.07157873834999999,-0.006203,-0.05647,0.00319,-0.8657899018999999,-9.5884520375,1.8663035614999999,-2.7072,1.3594,-0.094044,-3.333333333332966e-05,4.999999999988347e-05,4.999999999999449e-05,0.00046343166266038516,-0.0005676355021877466,-0.00029950098206876774
150000000000.0,-1,-0.12679017785,0.10678461184999999,-0.0667440599,-0.007265,-0.053292,0.004262,-0.8680062047999999,-9.5884520375,1.86522483,-2.706,1.3594,-0.095772,-3.333333333332966e-05,5.000000000032756e-05,7.00000000000145e-05,0.0001781951237447288,-0.00044056048285989746,-0.00019758026176575072
150000000000.0,-1,-0.12866324799999998,0.11742482709999999,-0.05022966129999999,-0.010459,-0.05115,0.003203,-0.8701636678,-9.5884520375,1.8641460985,-2.7049,1.3594,-0.097447,-3.333333333332966e-05,4.999999999988347e-05,-0.00012000000000000899,-0.0004022446134899216,0.0010158097949843903,-0.0003595930014959059
150000000000.0,-1,-0.12928106695,0.11761115344999999,-0.04955300245,-0.010437,-0.042658,0.002158,-0.86954584885,-9.588648170499999,1.8634596329999997,-2.705,1.3595,-0.097762,0.00029999999999996696,0.0015000000000000568,0.0001100000000000545,0.0008005015808254523,-0.0008786257426720567,-0.00033954819577353135
150000000000.0,-1,-0.11421805254999999,0.12716283055,-0.03519606685,-0.009356,-0.0363,0.002174,-0.8717425384499999,-9.588648170499999,1.8625770344999997,-2.7038,1.3595,-0.099266,0.00029999999999996696,0.0015000000000000568,0.0011599999999999389,0.012605642237748071,-0.0016075163035964568,0.02274925451770926
150000000000.0,-1,-0.0615661487,0.15813223125,-0.03443114814999999,-0.009346,-0.029953,0.004317,-0.8735175421,-9.588550104,1.8617925024999997,-2.7029,1.3595,-0.10051,-5.0000000000105516e-05,9.999999999976694e-05,-8.999999999992347e-05,-0.00023484323282429997,0.002179104776261598,-0.00040094628766551565
150000000000.0,-1,-0.0393050532,0.13668508769999999,-0.0477583855,-0.008267,-0.024654,0.004329,-0.87452762705,-9.588648170499999,1.8608118375,-2.7022,1.3596,-0.10141,-4.999999999988347e-05,3.333333333355171e-05,0.00012999999999996348,0.0007707796058853411,-0.005345561330008408,0.00036196246582198555
150000000000.0,-1,-0.016985117799999998,0.12445619514999999,-0.0564470774,-0.008254,-0.020396,0.002212,-0.8750081528999999,-9.5888443035,1.859536973,-2.7018,1.3597,-0.10208,-4.999999999988347e-05,3.333333333310762e-05,2.0000000000020002e-05,0.0005560182724897444,-0.0004943671483019774,-0.0007518229947871546
150000000000.0,-1,-0.00422666615,0.12778064949999998,-0.09332988804999999,-0.008261,-0.021473,0.004337,-0.875341579,-9.589236569499999,1.8576737094999998,-2.7013,1.3598,-0.10282,-5.0000000000105516e-05,3.333333333355171e-05,2.999999999997449e-05,-0.0019923158952361852,0.004300025595541657,0.0007124919454413181
150000000000.0,-1,-0.0121798593,0.12163187995000001,-0.06024225095,-0.012603,-0.024621,0.004386,-0.8757632649499999,-9.589530769,1.856006579,-2.7007,1.36,-0.10359,-5.0000000000105516e-05,4.999999999988347e-05,9.999999999998899e-05,0.0005570472752973732,-0.0007178895283130871,-0.0005242369383871015
150000000000.0,-1,0.01405292945,0.1019107068,-0.04938628939999999,-0.015822,-0.029934,0.007564,-0.8758221048499999,-9.5898249685,1.8543394485,-2.7003,1.3601,-0.10427,-4.999999999988347e-05,4.999999999988347e-05,-2.0000000000020002e-05,0.00023155196011170887,0.0011993908030023537,-0.00031362200905693527
150000000000.0,-1,0.010787315,0.07992419749999999,-0.0315381864,-0.017965,-0.033115,0.00862,-0.8759888178999999,-9.590119168,1.852672318,-2.6999,1.3603,-0.10504,-4.999999999988347e-05,0.00010000000000021103,2.0000000000020002e-05,0.0002754863436957855,4.867527605600941e-05,-0.0003226669042675212
150000000000.0,-1,0.030714427799999996,0.09340834125,-0.0176911966,-0.020106,-0.035236,0.009678,-0.8758711381,-9.5904133675,1.851103254,-2.6996,1.3604,-0.10568,-5.0000000000105516e-05,4.999999999988347e-05,7.00000000000145e-05,-0.0004207677086336403,0.0003824407461183732,-0.00033823446456171524
150000000000.0,-1,0.030488874849999997,0.10372493705,-0.039216793349999994,-0.023313,-0.037352,0.010736,-0.8757926849,-9.590903699999998,1.8487496579999998,-2.6992,1.3606,-0.10652,-9.999999999998899e-05,4.999999999988347e-05,4.0000000000040004e-05,0.0003329689877515918,-0.0007609116833982021,-0.000530209140257476
150000000000.0,-1,0.037853669,0.1274472234,-0.030371195049999997,-0.020125,-0.042667,0.010725,-0.8755279053499999,-9.591295965999999,1.846984461,-2.6989,1.3608,-0.10722,-4.999999999988347e-05,4.999999999988347e-05,5.999999999994898e-05,0.00014262857330482603,8.240512833945779e-05,-0.0003646232615857059
150000000000.0,-1,0.0225356817,0.16027008094999998,-0.0453851762,-0.02013,-0.044788,0.01072,-0.8756259718499999,-9.5915901655,1.8451211975,-2.6985,1.361,-0.10813,-5.0000000000105516e-05,5.000000000032756e-05,4.999999999999449e-05,-0.00019783819093821542,-0.0003197944697412858,-0.00024592526175393203
150000000000.0,-1,-0.0305182948,0.1419022255,-0.0244381718,-0.016934,-0.049027,0.008584,-0.8764399237999999,-9.591786298499999,1.8437482665,-2.6978,1.3611,-0.10926,-5.0000000000105516e-05,4.999999999988347e-05,-2.0000000000020002e-05,0.0001338548081251112,-0.00012160998292665148,-0.00048769801936332513
150000000000.0,-1,-0.030685007849999998,0.1420983585,-0.0234967334,-0.01373,-0.049023,0.006458,-0.8762634041,-9.5919824315,1.8427676014999999,-2.6977,1.3612,-0.10988,-4.999999999988347e-05,4.999999999988347e-05,4.999999999999449e-05,-0.00012076685414008637,0.0002859163000736853,-0.00017670351807641538
150000000000.0,-1,-0.0374417897,0.14287308385,-0.02166288985,-0.011591,-0.047964,0.005397,-0.8759397846499999,-9.5921785645,1.8419830695,-2.6977,1.3613,-0.1104,-1.999999999990898e-05,3.333333333355171e-05,0.00014999999999998348,-0.000896950489297943,-0.0013635961048590328,0.00034967835091581634
150000000000.0,-1,-0.07479531955,0.15507255645,0.0012356379,-0.013709,-0.043689,0.002216,-0.87735194225,-9.592080498,1.8416888699999998,-2.697,1.3612,-0.11153,-2.0000000000131024e-05,3.333333333310762e-05,2.0000000000020002e-05,-0.0002533029411815324,5.610587301574377e-05,-0.00031834789003104547
150000000000.0,-1,-0.08183649424999999,0.160436794,0.0056094038,-0.013692,-0.036266,0.002233,-0.8792838523000001,-9.5919824315,1.8416888699999998,-2.6962,1.3612,-0.11276,-1.999999999990898e-05,3.333333333355171e-05,-9.99999999995449e-06,0.000184242757018227,8.681571887225736e-05,-0.0003141760734162169
150000000000.0,-1,-0.08677904584999999,0.16159397869999997,-0.01134629405,-0.012604,-0.029883,-0.000942,-0.88092156285,-9.591884364999999,1.8411004709999998,-2.6953,1.3611,-0.1139,-2.0000000000131024e-05,3.333333333310762e-05,9.99999999995449e-06,-0.0006630237610374401,-6.161935573878452e-05,2.9864192322204275e-05
150000000000.0,-1,-0.08740667145,0.16181953165,-0.010473502199999998,-0.010454,-0.023521,-0.001991,-0.8803037438999999,-9.5921785645,1.8402178725,-2.6954,1.3612,-0.11408,-1.999999999990898e-05,3.333333333355171e-05,4.0000000000040004e-05,9.349205543651706e-05,-0.00021767539273720438,-9.267049273331551e-05
150000000000.0,-1,-0.052014471599999994,0.13769517264999998,-0.00542307745,-0.007239,-0.018223,-0.00304,-0.88321631895,-9.591786298499999,1.8406101384999998,-2.6942,1.3611,-0.11546,1.666666666655381e-05,3.333333333310762e-05,-9.99999999995449e-06,-0.0003476953509125025,0.0002564817471479852,-0.0003036625192356368
150000000000.0,-1,-0.024232232149999998,0.1256427998,0.00021574629999999997,-0.001892,-0.013994,-0.004093,-0.88331438545,-9.591688232,1.8409043379999999,-2.6942,1.361,-0.11557,1.6666666666775853e-05,4.999999999988347e-05,9.99999999995449e-06,-0.00011681054508860811,0.0005005115978642394,-0.0002103347554407442
150000000000.0,-1,-0.0032558077999999997,0.14701149015,-0.0291061372,0.003437,-0.015084,-0.00303,-0.8830496058999999,-9.591688232,1.8411985375,-2.6944,1.361,-0.11553,1.6666666666775853e-05,5.000000000032756e-05,2.0000000000020002e-05,-6.242543374002096e-05,-9.206301224073954e-05,-8.664376087752501e-05
150000000000.0,-1,-0.0293218835,0.14077446075,-0.03029274185,0.002286,-0.017225,0.000222,-0.8836183916,-9.5915901655,1.8414927369999998,-2.6942,1.361,-0.11588,1.666666666655381e-05,3.333333333310762e-05,9.99999999995449e-06,-0.0003377312034835711,-8.20117047806157e-05,-0.00024525548639520167
150000000000.0,-1,-0.04535575625,0.1331546937,-0.038648007649999996,0.005477,-0.021479,0.000214,-0.8844911834499999,-9.591492099,1.8417869365,-2.6939,1.3609,-0.1164,1.666666666655381e-05,3.333333333355171e-05,4.999999999999449e-05,-8.811543435127689e-06,-0.0009307520370445133,1.2482838824379172e-05
150000000000.0,-1,-0.05065134725,0.13396864565,-0.014788428199999998,0.004412,-0.021467,-0.00085,-0.8853345553499999,-9.5911978995,1.8425714684999999,-2.6937,1.3608,-0.1168,1.6666666666775853e-05,3.333333333310762e-05,-2.999999999997449e-05,5.694211193030263e-05,0.0006594225013658583,-0.0002511218741658716
150000000000.0,-1,-0.051122066449999996,0.13396864565,-0.01501398115,-0.00091,-0.017196,-0.001905,-0.88486383615,-9.5911978995,1.842865668,-2.6939,1.3608,-0.11673,3.333333333332966e-05,0.00010000000000021103,2.0000000000020002e-05,0.0003194501048342513,-0.00038275237637908077,-0.00011838207531011946
150000000000.0,-1,-0.0854159215,0.136900834,-0.0441691516,-0.001968,-0.015054,-0.004027,-0.8864819334,-9.5911978995,1.8423753354999999,-2.6931,1.3608,-0.11767,3.333333333332966e-05,4.999999999988347e-05,2.0000000000020002e-05,-0.0003246761324502412,-0.00037945692188579017,0.0002000465453675382
150000000000.0,-1,-0.0861808402,0.13708716035,-0.043580752599999995,-0.008358,-0.011831,-0.006149,-0.8857072080499999,-9.591295965999999,1.8417869365,-2.6933,1.3609,-0.11758,3.333333333332966e-05,4.999999999988347e-05,-0.0001300000000000745,0.0015392315527533729,0.0011669571845809301,-0.0007420627154126613
150000000000.0,-1,-0.07963980464999999,0.16839979379999997,-0.036323831599999995,-0.007275,-0.005465,-0.007197,-0.8870212991499999,-9.591394032499998,1.8410024045,-2.6926,1.3609,-0.11838,5.0000000000105516e-05,-2.0000000000131024e-05,-3.999999999992898e-05,-0.0002733901721871934,2.9312868522923807e-05,7.564572666263203e-05
150000000000.0,-1,-0.04510078334999999,0.1803835201,-0.059653851949999996,-0.004056,-0.001204,-0.011441,-0.88743317845,-9.591492099,1.839923673,-2.6922,1.361,-0.11879,4.999999999988347e-05,-1.9999999999686935e-05,3.999999999992898e-05,0.00012111660866964691,-0.0011501633339572326,0.00029798790830204425
150000000000.0,-1,-0.02570322965,0.17455837,-0.0635274787,0.00022,0.001969,-0.012496,-0.8872370454499999,-9.591688232,1.839139141,-2.6921,1.361,-0.11883,4.999999999988347e-05,-2.0000000000131024e-05,-9.99999999995449e-06,5.7338698270514854e-05,2.1058644708249474e-05,0.00010207595659750268
150000000000.0,-1,-0.027007514099999998,0.17463682319999999,-0.0637628383,0.003437,0.006222,-0.015677,-0.885932761,-9.591786298499999,1.839335274,-2.6927,1.3611,-0.11814,5.0000000000105516e-05,-1.9999999999686935e-05,-4.0000000000040004e-05,-8.414997024575044e-05,-3.0461422625194245e-05,-3.672687091027527e-05
150000000000.0,-1,-0.02574245625,0.11133489745,-0.07137279869999999,0.008773,0.007261,-0.015672,-0.8854032019,-9.591884364999999,1.8388449414999999,-2.6929,1.3611,-0.11791,-9.999999999998899e-05,-2.0000000000131024e-05,7.00000000000145e-05,-0.0016026247436413676,-0.00038692277302465605,0.0005565978506836267
150000000000.0,-1,-0.03686319735,0.09372215404999999,-0.0635078654,0.010902,0.006184,-0.01461,-0.88505996915,-9.5919824315,1.8388449414999999,-2.693,1.3612,-0.11767,9.999999999998899e-05,8.333333333165882e-06,-2.0000000000020002e-05,0.0002499116807437307,-0.000327959606546413,-0.00011644551626233124
150000000000.0,-1,0.007198081099999999,0.10312673139999999,-0.07648206335,0.01195,0.001906,-0.010365,-0.8840793041499999,-9.592080498,1.8386488085,-2.6934,1.3612,-0.11723,5.0000000000105516e-05,8.333333333609971e-06,2.0000000000020002e-05,-1.047172589863088e-05,0.00034526557507996714,-5.544770247833952e-06
150000000000.0,-1,0.007198081099999999,0.10312673139999999,-0.07648206335,0.01195,0.001906,-0.010365,-0.8840793041499999,-9.592080498,1.8386488085,-2.6934,1.3612,-0.11723,4.999999999988347e-05,8.333333333165882e-06,-2.999999999997449e-05,-0.0003527021085600879,-0.0008060042862121364,-2.1268110126371198e-05
150000000000.0,-1,0.005766310199999999,0.11798380615,-0.07132376544999999,0.011934,-0.00236,-0.007184,-0.8833928386499998,-9.5921785645,1.8386488085,-2.6937,1.3613,-0.1169,2.4999999999941735e-05,8.333333333165882e-06,9.99999999995449e-06,-1.00376810596714e-06,3.6177790635916196e-05,0.0001229927487376159
150000000000.0,-1,0.0121798593,0.13898965045,-0.0223983886,0.012927,-0.007685,-0.005012,-0.8820199076499999,-9.591884364999999,1.8406101384999998,-2.6947,1.3611,-0.11599,2.4999999999941735e-05,8.333333333609971e-06,-3.500000000000725e-05,0.00018517232814652118,-0.00028007715741340533,-0.000183030606622836
150000000000.0,-1,-0.016073099349999998,0.14587391875,-0.042394147949999995,0.008655,-0.008736,-0.003951,-0.882206234,-9.591786298499999,1.841296604,-2.6948,1.3611,-0.11599,2.500000000016378e-05,8.333333333165882e-06,-3.500000000000725e-05,-0.00040175650432594523,0.0007688181636440472,-0.00012609301658450534
150000000000.0,-1,-0.00761976705,0.15952477555,-0.02960627635,0.005456,-0.008715,-0.005015,-0.8819806810499999,-9.591688232,1.8419830695,-2.695,1.361,-0.11583,2.4999999999941735e-05,8.333333333165882e-06,4.0000000000040004e-05,0.00013664010155167716,-0.0007047142847367294,8.227435475660627e-05
150000000000.0,-1,-0.00844352565,0.15954438884999997,-0.02993970245,0.002265,-0.006565,-0.007139,-0.8811471157999999,-9.591688232,1.8423753354999999,-2.6955,1.361,-0.11546,5.0000000000105516e-05,8.333333333609971e-06,-4.999999999999449e-05,0.00014002745566354946,3.8555407318341395e-05,4.064399392511575e-05
150000000000.0,-1,-0.019005287699999998,0.11726792069999999,-0.042600087599999996,0.002278,-0.004413,-0.011388,-0.88076465645,-9.591688232,1.8421792025,-2.6956,1.361,-0.11536,4.999999999988347e-05,8.333333333165882e-06,2.0000000000020002e-05,-3.502681405764818e-05,-0.0004768878934988674,-0.00019352433897035226
150000000000.0,-1,0.02478140455,0.09062325264999999,-0.04066817755,0.005478,-0.004425,-0.011388,-0.8792053991,-9.591884364999999,1.8421792025,-2.6963,1.3611,-0.1147,3.333333333332966e-05,8.333333333165882e-06,-1.0000000000065512e-05,-0.00020641903865059597,0.0002926901139557181,-0.000144219692550962
150000000000.0,-1,0.03282285755,0.06522402914999999,-0.0135135637,0.006538,-0.006559,-0.010329,-0.8773813622,-9.591884364999999,1.842865668,-2.6972,1.3611,-0.1138,3.333333333332966e-05,8.333333333609971e-06,2.0000000000020002e-05,-7.394848165609424e-05,-9.236537506218667e-05,0.00011235083654703715
150000000000.0,-1,0.03660822445,0.0883383032,0.012317152399999998,0.0044,-0.007619,-0.009268,-0.8756259718499999,-9.591786298499999,1.844042466,-2.6983,1.3611,-0.11284,3.333333333332966e-05,8.333333333165882e-06,-0.00010999999999994348,0.0014766272141790715,0.0007193627827164484,-0.0007520799360585251
150000000000.0,-1,0.02842947835,0.09472243234999998,-0.01754409685,0.001194,-0.010779,-0.01034,-0.8740274879,-9.591884364999999,1.8443366654999998,-2.699,1.3611,-0.11218,-9.999999999998899e-05,-9.999999999976694e-05,0.00013999999999991797,-0.0012799974664643443,-0.0007472892717952373,0.0003239225306721494
150000000000.0,-1,0.0275370732,0.1170521744,-0.06110523615,-0.004147,-0.012887,-0.009283,-0.8725466837499999,-9.592276630999999,1.8432579339999997,-2.6995,1.3613,-0.11185,4.999999999988347e-05,9.999999999976694e-05,-9.99999999995449e-06,-7.093600293828217e-05,-0.00026469672965978575,-5.35014498961317e-05
150000000000.0,-1,0.026732927899999998,0.13245842154999998,-0.03884414065,-0.007359,-0.016072,-0.007163,-0.8711345261499999,-9.5925708305,1.8423753354999999,-2.6999,1.3615,-0.11156,5.0000000000105516e-05,3.333333333355171e-05,-7.999999999996898e-05,0.0011957385753080807,0.0010233199290528017,-0.001017709891427021
150000000000.0,-1,0.0189268345,0.1476096958,-0.03698087715,-0.004177,-0.020358,-0.002918,-0.8702127010499999,-9.592766963499999,1.8418850029999998,-2.7002,1.3615,-0.11145,-1.666666666655381e-05,3.333333333310762e-05,-1.4999999999987246e-05,4.361686075693427e-05,0.00016791255759418533,-9.087265546892098e-05
150000000000.0,-1,0.018416888699999998,0.14761950245,-0.03713778355,0.001142,-0.024645,0.000265,-0.86970275525,-9.592766963499999,1.842081136,-2.7005,1.3616,-0.11142,-1.6666666666775853e-05,3.333333333355171e-05,-1.4999999999987246e-05,4.360172721740163e-05,0.0001679165892105594,-9.086559537330174e-05
150000000000.0,-1,0.0082964259,0.11533601065,-0.01601425945,0.002193,-0.025758,0.006645,-0.86976159515,-9.592668897,1.842669535,-2.7006,1.3615,-0.11159,-1.6666666666775853e-05,3.333333333310762e-05,2.999999999997449e-05,0.0005444682976407655,3.883577693830631e-05,-0.00046979829113702465
150000000000.0,-1,0.0087671451,0.11525755744999999,-0.016190779149999997,-0.002083,-0.025773,0.010899,-0.8702323143499999,-9.5925708305,1.842865668,-2.7004,1.3615,-0.11203,-1.666666666655381e-05,3.333333333355171e-05,9.99999999995449e-06,-0.0010060317574065447,0.0002255659744594407,0.0002761281570453633
150000000000.0,-1,-0.0283216052,0.10185186689999999,-0.02079990465,-0.006354,-0.024719,0.014091,-0.8718994448499999,-9.592472764,1.8424734019999998,-2.6996,1.3614,-0.1131,-1.666666666655381e-05,3.333333333310762e-05,-9.99999999995449e-06,0.00048423497226957046,0.0009272170039671401,-0.0005441322862775877
150000000000.0,-1,0.014788428199999998,0.0819443674,-0.0399915187,-0.009606,-0.024715,0.016273,-0.8728016566499999,-9.5925708305,1.841296604,-2.699,1.3615,-0.11401,-1.6666666666775853e-05,3.333333333355171e-05,0.00017999999999995797,0.0002695782594226426,-0.0017317330703938705,6.584101852791235e-05
150000000000.0,-1,0.0089436648,0.08758319114999999,-0.05928119925,-0.013887,-0.027904,0.019455,-0.8741549743499999,-9.592865029999999,1.839335274,-2.6979,1.3616,-0.1153,2.4999999999941735e-05,3.333333333310762e-05,-3.999999999992898e-05,9.970351750432371e-05,0.0012099200551212164,-0.0003625947694994025
150000000000.0,-1,-0.0109638347,0.08135596839999999,-0.036941650549999996,-0.019231,-0.030019,0.021577,-0.8760868843999999,-9.593061163,1.8373739439999999,-2.6967,1.3617,-0.1169,2.4999999999941735e-05,3.333333333355171e-05,3.999999999992898e-05,0.0007985672347921025,0.00028623634848234936,-0.0006442394467214285
150000000000.0,-1,-0.0296553096,0.07677626284999998,-0.0538777351,-0.027782,-0.035304,0.02369,-0.8786464200499999,-9.593453429,1.834235816,-2.6949,1.3619,-0.11906,2.500000000016378e-05,4.999999999988347e-05,7.999999999996898e-05,0.0001981593003033133,-2.682344406146342e-06,-0.00010813158440958759
150000000000.0,-1,-0.028027405699999997,0.07716852884999999,-0.0510338066,-0.035257,-0.038455,0.023681,-0.8802743239499999,-9.593845694999999,1.8313918875,-2.6935,1.3621,-0.1208,2.4999999999941735e-05,4.999999999988347e-05,3.0000000000085514e-05,0.001087866003420146,0.0005746103252268764,-0.0009989073492420175
150000000000.0,-1,-0.0612131093,0.10826541599999999,-0.04390437205,-0.03633,-0.042677,0.021545,-0.88329477215,-9.594237961,1.8277634269999998,-2.6914,1.3623,-0.12336,1.666666666655381e-05,2.4999999999941735e-05,-1.0000000000065512e-05,-0.00019918705005395054,0.0004414419274199055,-0.00026830196236371506
150000000000.0,-1,-0.04947454925,0.1573771192,-0.03217561865,-0.032054,-0.042662,0.017291,-0.8857660479499999,-9.594532160499998,1.8248214319999998,-2.6897,1.3624,-0.12553,1.6666666666775853e-05,2.4999999999941735e-05,-1.0000000000065512e-05,0.0003179051521577936,5.6995800998604906e-05,-0.00023972602404098708
150000000000.0,-1,-0.015072821049999999,0.18284498924999998,-0.0326561445,-0.026709,-0.04159,0.013041,-0.8870899456999999,-9.594924426499999,1.822467836,-2.6886,1.3626,-0.12706,1.6666666666775853e-05,2.5000000000385825e-05,-9.99999999995449e-06,0.0003178905862417647,5.7071780082740275e-05,-0.0002397072178772497
150000000000.0,-1,-0.01473939495,0.18321764195,-0.03050848815,-0.023504,-0.041587,0.010914,-0.88743317845,-9.595316692499999,1.8203103729999999,-2.688,1.3628,-0.12812,1.666666666655381e-05,2.4999999999941735e-05,2.0000000000020002e-05,-6.202283170297918e-05,0.0005722048134826352,-0.0005631411720670165
150000000000.0,-1,-0.019309293849999996,0.18336474169999997,-0.04255105435,-0.021354,-0.03733,0.007734,-0.88839423015,-9.595610892,1.818349043,-2.6871,1.3629,-0.12938,1.666666666655381e-05,4.999999999988347e-05,-7.500000000004725e-05,0.0008960219485394383,0.0006245891330161069,-0.0005339201449046094
150000000000.0,-1,-0.0193975537,0.1836197146,-0.041217349949999996,-0.016008,-0.034154,0.005615,-0.8883059702999999,-9.595807025,1.8169761119999999,-2.6869,1.3631,-0.12999,1.6666666666775853e-05,4.999999999988347e-05,-7.499999999993623e-05,0.0008956961768213922,0.0006250653800845551,-0.0005333648920404777
150000000000.0,-1,-0.00722750105,0.1760293675,-0.04118793,-0.012798,-0.029925,0.005625,-0.88880610945,-9.596003157999998,1.8157012475,-2.6864,1.3632,-0.13079,-1.2499999999970868e-05,0.00010000000000021103,1.0000000000065512e-05,7.816026343876459e-05,0.00040858401913812514,-0.00012140766295809513
150000000000.0,-1,-0.0408545039,0.13927404329999998,0.0366180311,-0.010657,-0.025699,0.0067,-0.8901888470999999,-9.595807025,1.8162896465,-2.6859,1.363,-0.13154,-1.2499999999970868e-05,4.999999999988347e-05,-1.0000000000065512e-05,0.00040717620714447733,0.0002454769672581847,-0.0003525742958712108
150000000000.0,-1,-0.040481851199999995,0.13939172309999998,0.0374417897,-0.011718,-0.021469,0.008836,-0.89057130645,-9.595905091499999,1.8155051144999999,-2.6856,1.3631,-0.13212,-1.2499999999970868e-05,5.000000000032756e-05,-2.0000000000020002e-05,-0.0001033553588398739,0.000645270324412861,7.48985573872929e-06
150000000000.0,-1,-0.01615155255,0.122190859,0.064920023,-0.012774,-0.015118,0.010978,-0.89184617095,-9.595610892,1.8164857795,-2.6852,1.363,-0.13267,-1.2499999999970868e-05,4.999999999988347e-05,3.0000000000085514e-05,0.00045162684196076164,0.0001477376986214196,-8.219675257103987e-05
150000000000.0,-1,0.01615155255,0.09914523149999999,0.05804556135,-0.018093,-0.007682,0.012057,-0.8931700687,-9.595414758999999,1.8165838459999997,-2.6846,1.3629,-0.13335,-1.2500000000192912e-05,4.999999999988347e-05,2.999999999997449e-05,0.0003992055166628372,0.0003387553937994614,-0.0002531200134074929
150000000000.0,-1,0.0173577705,0.09939039775,0.0599382448,-0.020224,-0.004508,0.014191,-0.8943860933,-9.5957089585,1.8147205825,-2.6837,1.363,-0.13438,-1.2499999999970868e-05,5.000000000032756e-05,2.999999999997449e-05,-0.0008196934949449286,-0.0004997781092916931,0.0004521395780754389
150000000000.0,-1,0.04788587195,0.11651280864999998,-0.006982334799999999,-0.019197,-0.006633,0.016362,-0.8949842989499999,-9.595905091499999,1.8132495849999999,-2.6831,1.3631,-0.13506,-1.2499999999970868e-05,4.999999999988347e-05,9.99999999995449e-06,-2.209879558456862e-05,0.00045366844833716335,-0.00031806304099291083
150000000000.0,-1,0.0892012884,0.13232112845,-0.0634294122,-0.016004,-0.011932,0.014223,-0.89439589995,-9.5962973575,1.8114843879999998,-2.683,1.3633,-0.13532,-1.2499999999970868e-05,9.999999999976694e-05,-9.99999999995449e-06,5.62188012054321e-06,0.00022911094549993294,-0.00015743279945290567
150000000000.0,-1,0.09027021325,0.13237996835,-0.0625468137,-0.008546,-0.017256,0.013149,-0.89547463145,-9.596395423999999,1.8106017894999997,-2.6823,1.3633,-0.13617,-5.0000000000105516e-05,0.00010000000000021103,2.999999999997449e-05,0.0007291790080428129,3.926922551111822e-05,-0.0004446447478718696
150000000000.0,-1,0.12517208059999999,0.1292124204,-0.061183689349999994,-0.005351,-0.022548,0.009946,-0.89341523495,-9.59678769,1.8094249915,-2.6829,1.3635,-0.13577,-4.999999999988347e-05,9.999999999976694e-05,-4.999999999999449e-05,0.0005189967407521756,0.0006924493794837616,-0.0007138437639437889
150000000000.0,-1,0.13218383535,0.11496335795,-0.0701763874,-0.007502,-0.032068,0.007796,-0.89039478675,-9.597179956,1.8086404595,-2.6841,1.3638,-0.13493,-9.999999999998899e-05,5.000000000032756e-05,2.999999999997449e-05,0.00012075311775827657,-0.0002355546724790436,-0.0004816667077687242
150000000000.0,-1,0.1322917085,0.11510065104999999,-0.069431082,-0.011787,-0.039474,0.007778,-0.8905124665499999,-9.597376088999999,1.8079539939999998,-2.6839,1.3638,-0.13554,-9.999999999998899e-05,4.999999999988347e-05,-5.999999999994898e-05,0.00017850280855302714,0.00013160572995185582,-0.0009084971094779348
150000000000.0,-1,0.1268588244,0.11102108464999999,-0.07112763244999999,-0.01607,-0.048977,0.004564,-0.88731549865,-9.598062554499998,1.8056984644999998,-2.6849,1.3642,-0.1351,-9.999999999998899e-05,9.999999999976694e-05,-5.000000000032756e-06,-0.0003683930606279695,0.001102741003137897,-0.0004485074769697839
150000000000.0,-1,0.03796154215,0.1488845603,-0.055309505999999994,-0.012893,-0.05749,0.006672,-0.8849128693999999,-9.5986509535,1.8036390679999998,-2.6855,1.3645,-0.13505,-9.999999999998899e-05,0.00010000000000021103,-4.999999999921734e-06,9.320692346315163e-05,-0.00033701193778346017,-0.0009223618024480906
150000000000.0,-1,0.0376771493,0.14901204675,-0.0547603336,-0.009704,-0.0607,0.008793,-0.8846186698999999,-9.59874902,1.8031487355,-2.6855,1.3645,-0.13566,-9.999999999998899e-05,9.999999999976694e-05,3.999999999992898e-05,-0.000349965449639944,-0.00021634173884033103,-0.00019318609286411714
150000000000.0,-1,0.01069905515,0.16511456605,-0.0424235679,-0.006501,-0.059652,0.008796,-0.88443234355,-9.5988470865,1.8027564694999998,-2.6855,1.3646,-0.13627,-5.0000000000105516e-05,3.333333333355171e-05,-7.999999999996898e-05,0.00011328464978510588,0.0004898719505619376,-0.0007163209606195764
150000000000.0,-1,-0.032165811999999995,0.16587948474999997,-0.031165533699999998,-0.003289,-0.056468,0.006677,-0.88496190265,-9.59874902,1.8031487355,-2.6853,1.3645,-0.13699,-4.999999999988347e-05,3.333333333310762e-05,9.99999999995449e-06,1.4952144235858e-05,-0.000587771169933804,-0.0006465129724935181
150000000000.0,-1,-0.0326169179,0.16589909805,-0.0312832135,-0.003263,-0.046908,0.004571,-0.8845107967499999,-9.59874902,1.8032468019999999,-2.6856,1.3645,-0.13726,-9.999999999998899e-05,3.333333333355171e-05,-4.999999999999449e-05,-0.00039635237835922155,0.0009579526928127358,0.0001713734493393737
150000000000.0,-1,-0.036529771249999995,0.16899799944999996,-0.0473661195,-3.7e-05,-0.039465,0.000335,-0.88523648885,-9.59874902,1.8032468019999999,-2.6852,1.3645,-0.138,-9.999999999998899e-05,9.999999999976694e-05,-9.99999999995449e-06,-0.00044220552611795583,0.0004230350796929905,-0.00026162401564944204
150000000000.0,-1,-0.0601736044,0.09517353825,-0.045610729149999994,0.004237,-0.036301,0.000343,-0.8865799998999999,-9.5986509535,1.802854536,-2.6845,1.3645,-0.13903,-4.999999999988347e-05,-9.999999999976694e-05,-1.0000000000065512e-05,0.0007348357977678965,-0.002225226414285686,-0.000887533765949744
150000000000.0,-1,-0.06071297015,0.09506566509999999,-0.046454101049999995,0.006383,-0.031007,0.000356,-0.88604063415,-9.598552886999999,1.8036390679999998,-2.685,1.3644,-0.13892,-5.0000000000105516e-05,-0.00010000000000021103,-9.99999999995449e-06,0.0002224520816556108,-0.000951232669490043,-0.0008664116688343881
150000000000.0,-1,-0.04000132535,0.07354006834999999,-0.040364171399999996,0.006388,-0.027833,0.001427,-0.88670748635,-9.598454820499999,1.804031334,-2.6848,1.3644,-0.13942,-5.0000000000105516e-05,0.00010000000000021103,-0.00021999999999999797,0.0005270339702145854,0.0009252564223618531,-0.0011676375705191866
150000000000.0,-1,-0.04000132535,0.07354006834999999,-0.040364171399999996,0.006388,-0.027833,0.001427,-0.88670748635,-9.598454820499999,1.804031334,-2.6848,1.3644,-0.13942,-4.999999999988347e-05,4.999999999988347e-05,0.00014999999999998348,-0.0002597090787634926,-0.0007659315573946834,0.00019315996203683738
150000000000.0,-1,-0.04615990155,0.07971825785,-0.0654691954,0.002108,-0.027735,0.000404,-0.8875802782,-9.598454820499999,1.8033448685,-2.6842,1.3644,-0.1402,-9.999999999998899e-05,4.999999999988347e-05,4.999999999999449e-05,-0.00017505679157325815,0.0009587794287810869,-4.466435984396e-05
150000000000.0,-1,-0.0383832281,0.1075789505,-0.07728620865000001,-0.007505,-0.028789,0.004654,-0.8898161943999999,-9.59874902,1.80050094,-2.6826,1.3645,-0.14236,-9.999999999998899e-05,2.4999999999941735e-05,-1.999999999990898e-05,1.7366842481880695e-05,0.0001652546243380293,-0.00030046205312705965
150000000000.0,-1,-0.0290080707,0.1340372922,-0.08248373315,-0.009642,-0.029841,0.004652,-0.8908164727,-9.599043219499999,1.79853961,-2.6817,1.3647,-0.14353,-0.00010000000000021103,2.4999999999941735e-05,-2.0000000000020002e-05,1.7317125867721828e-05,0.0001652587517089188,-0.0003004582825232305
150000000000.0,-1,-0.029135557149999998,0.13418439195,-0.0817678477,-0.009637,-0.028773,0.00359,-0.8906889862499999,-9.5992393525,1.7978531444999999,-2.6816,1.3647,-0.14393,-4.999999999988347e-05,2.5000000000385825e-05,-9.99999999995449e-06,0.00022382868957127044,-0.00028347490868885217,-0.00016487589252012214
150000000000.0,-1,-0.028282378599999998,0.19989875359999998,-0.06830331725,-0.008559,-0.025579,0.001471,-0.89153235815,-9.599337419,1.7964802134999998,-2.6809,1.3648,-0.14487,-5.0000000000105516e-05,2.4999999999941735e-05,-1.0000000000065512e-05,0.00022387497569309467,-0.00028343911970574176,-0.0001649390140321394
150000000000.0,-1,-0.0637628383,0.16780158815000001,-0.0634294122,-0.00535,-0.023455,-0.00065,-0.8924149566499999,-9.599435485499999,1.795597615,-2.6804,1.3649,-0.14568,-9.999999999998899e-05,-0.00010000000000021103,-1.0000000000065512e-05,-4.945461185323907e-05,0.00024356209593734413,-0.00024731823644286166
150000000000.0,-1,-0.06436104395,0.16790946129999998,-0.063154826,-0.004271,-0.020262,-0.00277,-0.8918167509999999,-9.599533551999999,1.7954014819999997,-2.6806,1.3649,-0.14568,-4.999999999988347e-05,-2.4999999999941735e-05,-2.999999999997449e-05,3.1439167709201854e-06,-0.000670821707389857,-0.00039234023004075524
150000000000.0,-1,-0.059330232499999996,0.14014683514999998,-0.0572904493,-0.003191,-0.014956,-0.003821,-0.8929641290499999,-9.5996316185,1.794420817,-2.6798,1.365,-0.14654,-5.0000000000105516e-05,-2.4999999999941735e-05,6.0000000000060005e-05,-0.0005706255766555479,-5.572447211465992e-05,0.00040114435857541153
150000000000.0,-1,-0.09691912194999999,0.10637273255,-0.10931472755,0.001081,-0.013904,-0.004881,-0.8945724196499999,-9.5998277515,1.7925575535,-2.6787,1.3651,-0.14777,-9.999999999998899e-05,-2.4999999999941735e-05,-2.0000000000020002e-05,0.0007422179094547232,0.0003065810024982518,-0.0002988900097813385
150000000000.0,-1,-0.09765462069999999,0.10636292589999999,-0.1097560268,0.004276,-0.016038,-0.004885,-0.8938369209,-9.5998277515,1.7930478859999999,-2.6791,1.3651,-0.14749,-9.999999999998899e-05,-2.4999999999941735e-05,9.99999999995449e-06,1.4609312283919706e-05,-0.0010334249179586585,-0.0006267695505015602
150000000000.0,-1,-0.09521276485,0.08299367895,-0.07193177775,0.004267,-0.01607,-0.000629,-0.8958374775,-9.5998277515,1.7921652874999998,-2.6781,1.365,-0.1487,-5.0000000000105516e-05,-2.4999999999941735e-05,-9.99999999995449e-06,-0.00013364321993591943,0.00021787896284219954,-2.658467365357353e-06
150000000000.0,-1,-0.04780741875,0.12610371235,-0.03656899785,0.002138,-0.014993,-0.00169,-0.8972986683499999,-9.5996316185,1.792067221,-2.6774,1.365,-0.14949,-4.999999999988347e-05,-2.4999999999941735e-05,-1.0000000000065512e-05,-0.00013364397834414454,0.0002178779421668775,-2.6875947782833975e-06
150000000000.0,-1,-0.0480721983,0.12606448574999998,-0.036951457199999996,0.003205,-0.013944,-0.000624,-0.89704369545,-9.5996316185,1.792459487,-2.6776,1.365,-0.14943,-4.999999999988347e-05,-2.5000000000385825e-05,-9.99999999995449e-06,1.0666294913974639e-07,0.000738135617947,0.00025055228618864334
150000000000.0,-1,-0.03080268765,0.15050265754999997,-0.0389520138,0.002136,-0.012896,0.001506,-0.8979949405,-9.599533551999999,1.7925575535,-2.6772,1.3649,-0.14996,-5.0000000000105516e-05,-2.4999999999941735e-05,9.99999999995449e-06,-3.994088245851124e-05,-0.0011728647324151797,-0.000589100441730217
150000000000.0,-1,0.0345586346,0.14469712075,-0.05053366744999999,0.004268,-0.012816,0.00154,-0.8979655205499999,-9.599435485499999,1.7932440189999999,-2.6773,1.3648,-0.14994,-0.00039999999999995595,-0.0013499999999999623,-0.0005649999999999267,0.00013929996672690237,0.00025177635443807134,-5.225851535595183e-05
150000000000.0,-1,0.0345390213,0.14455982765,-0.051259359549999994,0.006402,-0.012825,0.00154,-0.8979459072499999,-9.5992393525,1.7939304845,-2.6775,1.3648,-0.14989,-0.00039999999999995595,-0.0013499999999999623,-0.0005650000000000377,-0.0093155465625121,0.001650040900260219,-0.023970032153611154
150000000000.0,-1,0.0028341218499999994,0.14512861335,-0.06966644159999999,0.011735,-0.014951,-0.00059,-0.8979655205499999,-9.5992393525,1.7941266175,-2.6775,1.3648,-0.14999,-9.999999999998899e-05,-9.999999999976694e-05,9.99999999995449e-06,-0.0007679316742164044,0.00015128262934793746,-0.00011163407174796802
150000000000.0,-1,-0.03178335265,0.1265253983,-0.0773352419,0.013866,-0.017073,-0.001658,-0.8983675931999999,-9.599141286,1.7941266175,-2.6774,1.3647,-0.15031,-4.999999999988347e-05,-5.000000000032756e-05,-1.999999999990898e-05,-2.2875668417077222e-05,-0.00022670191233187253,0.00012953965076167862
150000000000.0,-1,-0.032283491799999994,0.126309652,-0.07878662609999999,0.013861,-0.019193,-0.001663,-0.8978674540499999,-9.598945152999999,1.795597615,-2.6779,1.3646,-0.14994,-5.0000000000105516e-05,-4.999999999988347e-05,5.999999999994898e-05,0.0001233086841452291,0.00013450364210365606,-8.371877549873119e-05
150000000000.0,-1,-0.04298254694999999,0.08226798685,-0.04598338184999999,0.010656,-0.018144,0.00153,-0.89882850575,-9.59874902,1.7961860139999999,-2.6776,1.3645,-0.15041,-3.333333333332966e-05,-3.333333333310762e-05,5.999999999994898e-05,0.0010277756559311513,-0.0009129063951849314,0.00012350251675563584
150000000000.0,-1,-0.06707748599999999,0.10072410215,0.0046581587499999995,0.004258,-0.016006,0.002598,-0.9004858296,-9.598356754,1.7974608785,-2.6772,1.3643,-0.151,-3.333333333332966e-05,-3.333333333355171e-05,-0.00011999999999989797,-0.00017676659296972375,0.0006630745562807849,-2.770870701729322e-05
150000000000.0,-1,-0.06696961285,0.1006750689,0.00442279915,-0.001071,-0.012811,0.003667,-0.9005838960999999,-9.598356754,1.7976570115,-2.6772,1.3643,-0.15114,-3.333333333332966e-05,-3.333333333310762e-05,0.00013999999999991797,-0.0005465469711789517,-0.0006234622176624072,0.0006404299423050652
150000000000.0,-1,-0.033009183899999996,0.10213625975,0.01670072495,-0.007462,-0.007491,0.004742,-0.90192740715,-9.598160621,1.797951211,-2.6766,1.3642,-0.15176,-4.999999999988347e-05,-3.333333333355171e-05,-7.999999999996898e-05,-0.00024492223748273645,0.0007417988681697185,-0.00011078103655792759
150000000000.0,-1,-0.009894909849999998,0.12132787379999999,-0.0117287534,-0.006388,-0.005366,0.003683,-0.9027413590999999,-9.598160621,1.7973628119999998,-2.6761,1.3642,-0.15231,-5.0000000000105516e-05,-3.333333333310762e-05,-2.0000000000020002e-05,-0.00010327051563630008,0.0004436916663588253,-9.620541699728591e-06
150000000000.0,-1,-0.009639936949999999,0.1213671004,-0.011365907350000001,-0.004257,-0.005383,0.004747,-0.9029963319999998,-9.5982586875,1.7969705459999998,-2.6759,1.3643,-0.15256,-0.00010000000000021103,-3.333333333355171e-05,2.999999999997449e-05,-0.00027603946582432926,0.00030848992805476705,-0.00024006605207338438
150000000000.0,-1,-0.0110619012,0.13714600024999998,0.00128467115,-0.004264,-0.008564,0.00474,-0.9041240967499999,-9.597964488,1.7976570115,-2.6756,1.3641,-0.15299,-5.0000000000105516e-05,-5.000000000032756e-05,-9.99999999995449e-06,-0.0002677580534240498,-2.5615837264902908e-05,1.9627574243674673e-05
150000000000.0,-1,-0.010444082249999998,0.13716561354999998,0.00169655045,-0.005349,-0.012834,0.008985,-0.90473210905,-9.597964488,1.7972647454999997,-2.6752,1.3641,-0.15347,-4.999999999988347e-05,-4.999999999988347e-05,-1.0000000000065512e-05,-0.0002677574125606874,-2.5610487490501654e-05,1.963435022167559e-05
150000000000.0,-1,-0.0021378497,0.16747796869999998,-0.012375992300000001,-0.007487,-0.015999,0.007914,-0.90571277405,-9.597964488,1.7970686125,-2.6748,1.3641,-0.1541,-4.999999999988347e-05,-9.999999999976694e-05,-9.99999999995449e-06,-0.0010581336940496122,0.0001997051522726334,-3.894403359483434e-05
150000000000.0,-1,-0.0094928372,0.15391537175,-0.061497502149999994,-0.009624,-0.018103,0.006845,-0.9067424722999999,-9.598160621,1.7954995484999998,-2.6739,1.3642,-0.15511,-5.0000000000105516e-05,-4.999999999988347e-05,9.999999999998899e-05,-0.000702218230431928,-0.0007035651244673424,0.0002158928678013261
150000000000.0,-1,-0.00981645665,0.1722832272,-0.09529121804999999,-0.00429,-0.017072,0.007913,-0.9079094636499999,-9.598454820499999,1.7935382185,-2.673,1.3643,-0.15624,-5.0000000000105516e-05,-5.000000000032756e-05,-0.00014999999999998348,-0.0001649254611280071,0.0006978333090443822,-0.0003039800193258557
150000000000.0,-1,-0.00610954295,0.18067771959999998,-0.07416769395,0.00532,-0.017078,0.003661,-0.9086253490999999,-9.598454820499999,1.7930478859999999,-2.6726,1.3644,-0.15682,-4.999999999988347e-05,-9.999999999976694e-05,0.000140000000000029,-0.0001533873705787947,-0.001021305034361264,6.330904559215256e-05
150000000000.0,-1,-0.0006668522,0.1438439422,-0.0449929102,0.010655,-0.019103,0.003692,-0.9089783884999999,-9.5982586875,1.7938324179999998,-2.6726,1.3643,-0.157,-9.999999999998899e-05,-3.333333333355171e-05,-9.999999999998899e-05,-0.0005183345848873699,0.0014566548747205754,-0.00029938854797961767
150000000000.0,-1,-0.031077273849999996,0.12477981459999998,-0.00392266,0.007455,-0.01909,0.003691,-0.9099982801,-9.5978664215,1.795205349,-2.6724,1.3641,-0.15731,-9.999999999998899e-05,-3.333333333310762e-05,0.00010999999999994348,-0.0003641365834323729,-0.0009909381012898066,0.0001746789618199962
150000000000.0,-1,-0.030910560799999997,0.12475039464999998,-0.00397169325,-0.003211,-0.016935,0.004757,-0.9101551864999999,-9.5978664215,1.7953034155,-2.6724,1.3641,-0.15754,-4.999999999988347e-05,-3.333333333355171e-05,-7.00000000000145e-05,2.405782590586547e-05,0.0007561755845133522,-0.0001283630293609228
150000000000.0,-1,-0.03912853349999999,0.08179726764999999,-0.0071392412,-0.011746,-0.016901,0.004756,-0.9113712111,-9.5978664215,1.7947150164999999,-2.6717,1.3641,-0.15836,-5.0000000000105516e-05,-4.999999999988347e-05,0.0001500000000000945,4.9928871746152126e-05,-0.0008845681198097477,0.00011697333830751333
150000000000.0,-1,-0.02597781585,0.10170476715,-0.0250069575,-0.014958,-0.019033,0.007941,-0.9125480090999999,-9.597964488,1.7932440189999999,-2.6709,1.3642,-0.1594,-5.0000000000105516e-05,-4.999999999988347e-05,-0.0001100000000000545,-0.0004100855874238363,0.0008849347932609053,-0.00021253397084297632
150000000000.0,-1,-0.018691474899999998,0.1171894675,-0.013876409749999999,-0.011762,-0.020114,0.009004,-0.9137051938,-9.598062554499998,1.7923614204999998,-2.6701,1.3642,-0.16033,-4.999999999988347e-05,-4.999999999988347e-05,2.999999999997449e-05,-4.6581266748280115e-05,-0.00011039227223164083,-0.0001951176296723922
150000000000.0,-1,-0.037510436249999994,0.1455699126,-0.0131605243,-0.010697,-0.021179,0.009002,-0.9153821309499999,-9.598062554499998,1.7917730215,-2.6693,1.3642,-0.16141,-4.999999999988347e-05,-5.000000000032756e-05,0.0001300000000000745,0.0002983702418606349,-0.0008090378112148855,0.00013021489503151074
150000000000.0,-1,-0.04123696325,0.13179156935,-0.016622271749999997,-0.013902,-0.022234,0.010063,-0.9171963611999999,-9.597964488,1.790890423,-2.6683,1.3642,-0.16264,-5.0000000000105516e-05,-3.333333333310762e-05,3.3333333333551707e-06,7.250690785065572e-05,0.0003020012465355659,-6.843856073990295e-05
150000000000.0,-1,-0.040491657849999994,0.1319386691,-0.015425860449999999,-0.013899,-0.020121,0.011131,-0.91793185995,-9.598160621,1.7897136249999999,-2.6677,1.3642,-0.16347,-1.666666666655381e-05,-3.333333333355171e-05,3.3333333332441484e-06,-0.0002414686103504593,-2.709360327202148e-07,0.00012907033054077033
150000000000.0,-1,-0.0746482198,0.12796697585,-0.0035794272499999995,-0.014955,-0.01692,0.009011,-0.92059926875,-9.598062554499998,1.78873296,-2.6663,1.3642,-0.16503,-1.6666666666775853e-05,-3.333333333310762e-05,3.3333333333551707e-06,-0.0007015473974905095,0.0001875224422958066,-0.00019123986433911
150000000000.0,-1,-0.0824543132,0.1570044665,-0.00036284604999999996,-0.013871,-0.011605,0.006897,-0.9234137772999998,-9.597964488,1.7880464944999999,-2.6649,1.3641,-0.16655,-1.6666666666775853e-05,-0.00010000000000021103,-4.0000000000040004e-05,-0.00029215415619221474,0.00024532200886184796,-7.890240375818536e-05
150000000000.0,-1,-0.07010774084999999,0.16373182839999997,-0.011356100699999998,-0.007468,-0.011623,0.005836,-0.9257281466999999,-9.597768355,1.7877522949999998,-2.6638,1.364,-0.16776,-1.666666666655381e-05,-4.999999999988347e-05,-2.999999999997449e-05,0.00022346674159101632,-9.949389475938375e-05,-0.00018821101393129425
150000000000.0,-1,-0.0351666469,0.17690215934999998,-0.01687724465,-0.003207,-0.013769,0.006896,-0.9272972106999999,-9.5976702885,1.7876542284999999,-2.6631,1.364,-0.16859,-1.666666666655381e-05,-4.999999999988347e-05,-0.000140000000000029,5.8856163232867686e-05,0.0008850584251796079,-0.0003154941846768011
150000000000.0,-1,0.01220927925,0.16118209939999997,-0.00967916355,0.001058,-0.013794,0.007961,-0.92783657645,-9.5974741555,1.7882426275,-2.663,1.3639,-0.16884,-1.6666666666775853e-05,-0.00010000000000021103,4.0000000000040004e-05,-0.0012572385846345568,-9.641482338640373e-05,0.00012855650132426177
150000000000.0,-1,0.012601545249999999,0.16102519299999998,-0.01032640245,0.006394,-0.01486,0.005832,-0.9282386491,-9.5972780225,1.788929093,-2.663,1.3638,-0.16902,-1.6666666666775853e-05,-3.333333333310762e-05,-9.99999999995449e-06,-0.00012267141278932137,3.177406120213888e-06,-0.0003298872851660306
150000000000.0,-1,0.048905763549999995,0.1400781886,-0.02154521005,0.007459,-0.015925,0.00583,-0.9277287033,-9.597179956,1.7899097579999999,-2.6634,1.3637,-0.16871,-1.666666666655381e-05,-3.333333333355171e-05,9.99999999995449e-06,-7.161966567803546e-06,2.160846941090533e-05,-0.00016734817333308172
150000000000.0,-1,0.0177108099,0.1439812353,0.00314793465,0.00641,-0.016834,0.00479,-0.9278071564999999,-9.596885756499999,1.791478822,-2.6637,1.3636,-0.16857,-1.666666666655381e-05,-3.333333333310762e-05,0.00012999999999996348,-5.100522888401571e-05,-0.0009742746958838477,0.00013266179317650284
150000000000.0,-1,-0.0161025193,0.14230429814999998,0.0052857843499999994,0.005341,-0.019995,0.002656,-0.92840536215,-9.596591557,1.7929498194999998,-2.6638,1.3634,-0.1687,-1.6666666666775853e-05,8.333333333165882e-06,-0.00013999999999991797,0.0003236599186611233,0.0010107617524388601,-0.0005271901944059465
150000000000.0,-1,-0.020397831999999998,0.15532752935,0.0055897905,0.001074,-0.018925,0.003721,-0.92920950745,-9.5962973575,1.7941266175,-2.6637,1.3633,-0.16897,-1.6666666666775853e-05,8.333333333609971e-06,9.99999999995449e-06,-6.905168030746367e-05,-0.000330004579520482,1.8989736516150657e-05
150000000000.0,-1,-0.00387362675,0.13372347939999998,-0.015582766849999999,-0.002121,-0.019941,-0.000537,-0.9292683473499999,-9.596199291,1.7943227505,-2.6637,1.3633,-0.16914,-1.666666666655381e-05,8.333333333165882e-06,7.999999999996898e-05,0.00011190529422666629,-0.0008641276597953773,-0.00021635851512424864
150000000000.0,-1,-0.0043345393,0.13377251265,-0.0155729602,-0.002118,-0.019933,-0.0016,-0.9288074347999999,-9.5962973575,1.7943227505,-2.6639,1.3633,-0.16914,9.999999999998899e-05,8.333333333165882e-06,-0.00010999999999994348,-0.00031246325651168583,0.0006037012118085272,-9.014558707276521e-05
150000000000.0,-1,0.030586941349999997,0.12069044155,0.028066632299999998,-0.00425,-0.020969,-0.003731,-0.92766005675,-9.596199291,1.7953034155,-2.6647,1.3632,-0.16864,-9.999999999998899e-05,8.333333333609971e-06,0.00012999999999996348,0.0006638766812165908,-0.0009103998563255722,-0.00017922666875058724
150000000000.0,-1,0.02001537265,0.12930068025,0.00210842975,-0.00852,-0.022013,-0.003734,-0.9266695850999999,-9.5962973575,1.7953034155,-2.6651,1.3633,-0.16841,-1.999999999990898e-05,8.333333333165882e-06,-2.999999999997449e-05,0.00031380905762135036,-5.764729133073132e-05,-0.0004259968122113378
150000000000.0,-1,0.03560794615,0.1101090662,0.018485535249999997,-0.01066,-0.024133,-0.002676,-0.9253456873499999,-9.596395423999999,1.7954014819999997,-2.6657,1.3633,-0.16806,-2.0000000000131024e-05,8.333333333165882e-06,-0.0001100000000000545,0.00010995831409688073,0.0010962886086742785,-0.0005398701396397421
150000000000.0,-1,0.01601425945,0.09935117114999999,0.0030106415499999996,-0.013869,-0.026257,-0.000554,-0.9246101886,-9.596591557,1.7949111494999999,-2.6659,1.3634,-0.16813,-1.999999999990898e-05,8.333333333609971e-06,0.00012000000000000899,4.591578613433178e-05,-0.0010068432083292223,-0.00027623651282793205
150000000000.0,-1,0.0156710267,0.10416623629999999,-0.0026576021499999996,-0.012809,-0.028391,0.000505,-0.9239727563499999,-9.5966896235,1.794224684,-2.6661,1.3635,-0.16827,-2.0000000000131024e-05,8.333333333165882e-06,-8.999999999992347e-05,-6.015539153270133e-05,0.0009135791393157788,-0.00033052796045218713
150000000000.0,-1,0.015406247149999998,0.10435256265,-0.0018240368999999999,-0.011761,-0.032669,0.00475,-0.9237079767999999,-9.596885756499999,1.7934401519999998,-2.666,1.3636,-0.16867,-1.999999999990898e-05,8.333333333165882e-06,0.00015999999999993797,-0.00022414738139464596,-0.0008272953681731643,-0.0003359794995967391
150000000000.0,-1,-0.029851442599999996,0.10115559475,0.006688135299999999,-0.009633,-0.033754,0.006876,-0.9245317353999999,-9.596885756499999,1.7933420855,-2.6656,1.3636,-0.16941,-3.333333333332966e-05,8.333333333609971e-06,-2.0000000000020002e-05,0.0001697076582163337,0.0006509265320848723,-0.0005538434841074746
150000000000.0,-1,-0.023428086849999998,0.10350919075,0.0012356379,-0.010704,-0.033765,0.009003,-0.92542414055,-9.59678769,1.7930478859999999,-2.6651,1.3636,-0.1702,-3.333333333332966e-05,8.333333333165882e-06,2.0000000000020002e-05,0.00016502327874423628,-7.662868195978945e-06,-0.0003936091033658329
150000000000.0,-1,-0.03413694865,0.1243679353,0.006472388999999999,-0.010704,-0.033765,0.009003,-0.9266891983999999,-9.5966896235,1.7929498194999998,-2.6645,1.3635,-0.17114,-3.333333333332966e-05,3.333333333355171e-05,2.0000000000020002e-05,0.0004295778498315528,-0.00016742409273806658,-0.0004250210706944202
150000000000.0,-1,-0.03182257925,0.14310844344999998,0.00730595425,-0.013911,-0.033776,0.012194,-0.9282582624,-9.596591557,1.79265562,-2.6638,1.3635,-0.17224,2.4999999999941735e-05,3.333333333310762e-05,-7.999999999996898e-05,-0.0004354907501231686,0.0006988232528797322,-0.0003967287846768919
150000000000.0,-1,-0.027929339199999997,0.16791926794999998,-0.0207116448,-0.011752,-0.033642,0.013275,-0.9299057796,-9.596591557,1.7919691544999998,-2.6629,1.3634,-0.17347,2.500000000016378e-05,3.333333333355171e-05,2.4999999999941735e-05,0.000728622439315707,-0.00015841228535062868,-0.00039775558766486085
150000000000.0,-1,-0.0273801668,0.16798791449999997,-0.02009382585,-0.007476,-0.031522,0.011154,-0.9304549520000001,-9.5966896235,1.7913807554999999,-2.6625,1.3635,-0.17419,2.4999999999941735e-05,-0.00010000000000021103,2.5000000000052758e-05,-0.00041955672868110305,0.0002256043199664326,-8.221024718624292e-05
150000000000.0,-1,-0.0452086565,0.1834039683,-0.06836215714999999,-0.003195,-0.028334,0.007971,-0.932220149,-9.5966896235,1.7904000905,-2.6615,1.3635,-0.17547,2.4999999999941735e-05,4.999999999810711e-06,-2.999999999997449e-05,0.000143067396889629,-0.0003414561668004801,-0.00019908076027741473
150000000000.0,-1,-0.0452086565,0.1834039683,-0.06836215714999999,-0.003195,-0.028334,0.007971,-0.932220149,-9.5966896235,1.7904000905,-2.6615,1.3635,-0.17547,9.999999999998899e-05,5.000000000254801e-06,-3.0000000000085514e-05,0.00013421316032879993,-5.868641284711984e-06,0.0001680346989432202
150000000000.0,-1,-0.0772567887,0.1726558799,-0.0601736044,0.001088,-0.025137,0.003726,-0.9342893521499999,-9.5964934905,1.7900078245,-2.6605,1.3634,-0.17672,3.333333333332966e-05,4.999999999810711e-06,-2.4999999999941735e-05,-2.155865841335647e-05,9.00705046225081e-05,2.553718833953056e-05
150000000000.0,-1,-0.1061864062,0.1477077623,-0.00393246665,0.002208,-0.008118,-0.003681,-0.9361820355999999,-9.5961012245,1.7911846224999999,-2.66,1.3632,-0.17752,3.333333333332966e-05,5.000000000254801e-06,-2.5000000000052758e-05,-2.1556439811609707e-05,9.007121215587333e-05,2.553534334603924e-05
150000000000.0,-1,-0.0765310966,0.1297027529,-0.01644575205,0.002231,-0.001723,-0.00792,-0.9374176734999999,-9.595905091499999,1.7915768884999999,-2.6595,1.3631,-0.17799,3.333333333332966e-05,4.999999999810711e-06,2.0000000000020002e-05,-2.9756675510084207e-05,0.0001497005129527107,2.4149582837473815e-05
150000000000.0,-1,-0.07636438355,0.13155620974999999,-0.0385989744,0.002245,0.003588,-0.008971,-0.93862389145,-9.595807025,1.791478822,-2.659,1.3631,-0.17849,4.999999999988347e-05,5.000000000254801e-06,-9.99999999995449e-06,-0.00018792437948089713,-0.0003350561306172395,0.00039892671849095507
150000000000.0,-1,-0.0335191297,0.12673133795,-0.027478233299999995,0.003324,0.007833,-0.010025,-0.9388298311,-9.595807025,1.7915768884999999,-2.6589,1.3631,-0.17847,5.0000000000105516e-05,4.999999999810711e-06,-0.0001100000000000545,2.2679581740181476e-05,0.0005797376100704632,0.00011851295314668775
150000000000.0,-1,-0.020593965,0.13593978229999998,-0.0174950636,0.005467,0.009962,-0.012146,-0.9385846648499999,-9.5957089585,1.792067221,-2.6591,1.363,-0.17813,0.00019999999999997797,5.000000000254801e-06,-4.999999999999449e-05,0.0008677039507847262,-0.000246775195998028,0.000149729310846336
150000000000.0,-1,-0.0215354034,0.13594958895,-0.017906942899999997,0.005474,0.013143,-0.012139,-0.93764322645,-9.5957089585,1.792459487,-2.6596,1.363,-0.17749,5.0000000000105516e-05,4.999999999810711e-06,2.0000000000020002e-05,0.00044870824995424385,0.00021456900579108762,0.00024224459521882125
150000000000.0,-1,0.0171027976,0.1106582386,-0.00726672765,0.00441,0.01526,-0.011071,-0.9366331414999999,-9.5957089585,1.7930478859999999,-2.6602,1.363,-0.17675,4.999999999988347e-05,5.000000000254801e-06,4.999999999999449e-05,-0.00014621859736796416,-0.0002490415528588752,0.00030553054633930543
150000000000.0,-1,0.0052563644,0.1072062978,-0.0100812362,0.001212,0.018438,-0.008937,-0.93615261565,-9.5957089585,1.7933420855,-2.6605,1.363,-0.17629,4.999999999988347e-05,4.999999999810711e-06,4.999999999999449e-05,0.00018727718343325428,-0.00086858489164654,0.0004373648327877788
150000000000.0,-1,0.0389912404,0.11134470409999998,-0.0192994872,0.00013,0.016282,-0.003624,-0.93532885705,-9.595807025,1.7932440189999999,-2.6608,1.3631,-0.17577,5.0000000000105516e-05,4.999999999810711e-06,-0.00017000000000000348,-0.0005764326145953902,0.0010892397971806744,0.0001118301543634459
150000000000.0,-1,0.0606835502,0.11102108464999999,-0.0481506515,-0.002001,0.018403,-0.002557,-0.93426973885,-9.5961012245,1.7923614204999998,-2.6611,1.3632,-0.17535,3.333333333332966e-05,5.000000000254801e-06,1.0000000000065512e-05,0.00020837587519695333,-0.0001259293350637236,0.00024180467036005737
150000000000.0,-1,0.0422470482,0.10570588035,-0.009639936949999999,-0.000925,0.021588,-0.003613,-0.9336323066,-9.596199291,1.792263354,-2.6613,1.3632,-0.17488,3.333333333332966e-05,4.999999999810711e-06,-1.0000000000065512e-05,-0.00043151267359986534,0.00022873746578966347,2.7615049095874866e-05
150000000000.0,-1,0.04582647545,0.11163890359999999,-0.017455837,0.000144,0.022644,-0.003611,-0.93287719455,-9.5962973575,1.7921652874999998,-2.6617,1.3633,-0.17436,3.333333333332966e-05,5.000000000254801e-06,1.0000000000065512e-05,-0.000827051197159534,5.4818215795782166e-05,0.0004779634478166983
150000000000.0,-1,0.0469150136,0.1271334106,-0.023349633649999996,0.000164,0.016464,-0.00255,-0.93217111575,-9.5962973575,1.792067221,-2.6619,1.3633,-0.17389,2.4999999999941735e-05,4.999999999810711e-06,-4.0000000000040004e-05,0.00028891323789292933,7.70922116128947e-05,-4.4494623457680404e-05
150000000000.0,-1,0.040246491599999996,0.12165149324999999,-0.0235751866,0.001221,0.014323,-0.000427,-0.9317886564,-9.596395423999999,1.7919691544999998,-2.6621,1.3634,-0.17359,2.4999999999941735e-05,5.000000000254801e-06,9.99999999995449e-06,6.663905931958425e-05,-6.550268854588204e-05,6.793935886850733e-05
150000000000.0,-1,0.04031513815,0.1216220733,-0.0236536398,0.002292,0.014334,-0.002554,-0.9318573029499999,-9.596395423999999,1.792067221,-2.6621,1.3633,-0.17345,2.500000000016378e-05,4.999999999810711e-06,1.0000000000065512e-05,-0.0009052998145731017,0.00020593057487539035,0.0004043098780570631
150000000000.0,-1,0.011581653649999999,0.11486529144999999,-0.026173948849999996,0.003348,0.01008,-0.0015,-0.9318573029499999,-9.596395423999999,1.7921652874999998,-2.6621,1.3633,-0.17331,2.4999999999941735e-05,5.000000000254801e-06,2.999999999997449e-05,9.37559435227886e-05,-6.023737179328137e-05,1.7247206611337162e-05
150000000000.0,-1,0.017455837,0.11217826934999998,-0.024751984600000002,0.001204,0.005847,-0.00151,-0.9317396231499999,-9.596395423999999,1.792263354,-2.6622,1.3633,-0.17317,7.692307692375167e-06,4.999999999810711e-06,-4.0000000000040004e-05,0.0007354611403078692,1.808344889431268e-05,-0.0003503091930534552
150000000000.0,-1,0.0172400907,0.112188076,-0.024771597899999998,0.000139,0.004807,-0.00364,-0.9315238768499999,-9.596395423999999,1.792263354,-2.6623,1.3633,-0.17302,7.692307692153122e-06,1.6666666666775853e-05,3.0000000000085514e-05,-0.0003915545245112284,9.455045232265036e-05,0.0003594183789612515
150000000000.0,-1,0.020338992099999998,0.11430631239999998,-0.047209213099999994,-0.000928,0.004811,-0.00364,-0.9313375504999999,-9.596395423999999,1.792263354,-2.6624,1.3633,-0.17288,7.692307692375167e-06,1.6666666666331764e-05,3.4999999999896225e-05,-0.00011171689228017812,4.7566246340391416e-05,-0.00018805208801175866
150000000000.0,-1,0.016896857949999997,0.10345035084999998,-0.0518771785,-0.000933,0.001637,-0.004711,-0.9307295382,-9.596591557,1.7913807554999999,-2.6624,1.3635,-0.17278,7.692307692375167e-06,1.6666666666775853e-05,3.500000000000725e-05,-0.00039267346209648224,-0.0007444254604229705,0.0002586443520797843
150000000000.0,-1,0.0165928518,0.10352880404999999,-0.0516418189,-0.003078,-0.001551,-0.002592,-0.93042553205,-9.5966896235,1.7911846224999999,-2.6625,1.3635,-0.17271,7.692307692153122e-06,1.6666666666775853e-05,9.00000000000345e-05,-0.0005452416688513928,-0.0002344924690136363,0.000440745876032711
150000000000.0,-1,0.0098458766,0.13595939559999998,-0.058614347049999994,-0.002014,-0.003669,-0.00366,-0.9302686256499999,-9.59678769,1.79069429,-2.6625,1.3635,-0.17278,7.692307692375167e-06,1.6666666666331764e-05,-0.00014999999999998348,0.0007778760132826079,0.0009895036891409692,-0.0007785890478215762
150000000000.0,-1,0.025330576949999996,0.1232892038,-0.024565658249999997,0.001182,-0.00475,-0.002598,-0.92958216015,-9.596885756499999,1.79069429,-2.6628,1.3636,-0.1725,7.692307692375167e-06,1.6666666666775853e-05,7.999999999996898e-05,0.00042392077726383093,-0.0008868509447015338,0.00010347842151148257
150000000000.0,-1,0.0329699573,0.13555732295,-0.009267284249999999,0.002253,-0.004738,-0.004725,-0.92854265525,-9.596885756499999,1.7912826889999998,-2.6634,1.3636,-0.17196,7.692307692375167e-06,3.333333333355171e-05,-9.99999999995449e-06,0.0003229094967927004,-8.648847928127701e-05,-0.0001608571588342933
150000000000.0,-1,0.019946726099999996,0.157494799,-0.0069627215,0.001191,-0.003666,-0.005787,-0.92779734985,-9.59678769,1.7919691544999998,-2.6638,1.3635,-0.17151,7.692307692153122e-06,3.333333333310762e-05,2.0000000000020002e-05,-0.0016256525996816151,0.0002802407079489644,0.0007000145534856728
150000000000.0,-1,0.01211121275,0.15830875095,-0.02882174435,0.000129,-0.002593,-0.006848,-0.92715011095,-9.596885756499999,1.7919691544999998,-2.6641,1.3636,-0.17125,7.692307692375167e-06,3.333333333310762e-05,6.999999999990347e-05,-0.0004445577112717203,-0.0004421488624302139,0.0004664501486777439
150000000000.0,-1,0.0086690786,0.13201712229999998,-0.05302455655,0.000138,-0.000456,-0.008971,-0.9263949988999999,-9.5970818895,1.7913807554999999,-2.6643,1.3637,-0.17106,7.692307692375167e-06,3.333333333355171e-05,-5.999999999994898e-05,-0.00010517854399605397,0.0007494822336850948,-0.00012245719707859593
150000000000.0,-1,-0.01632807225,0.1153654306,-0.047101339949999994,0.001202,0.000584,-0.00684,-0.9262380925,-9.597179956,1.7907923565,-2.6643,1.3637,-0.17109,7.692307692153122e-06,3.333333333355171e-05,4.0000000000040004e-05,0.00029131336183008116,-0.0003680513303934152,-0.00012920806976390864
150000000000.0,-1,-0.021368690349999997,0.10825560934999999,-0.0189268345,0.004435,-0.002411,-0.005777,-0.9262871257499999,-9.5970818895,1.7912826889999998,-2.6643,1.3637,-0.17102,7.692307692375167e-06,3.333333333310762e-05,-0.00014999999999998348,0.0023958273187374424,0.0008042989861283267,-0.0012119284671823216
150000000000.0,-1,-0.0216923098,0.1082261894,-0.0192602606,0.002299,-0.001358,-0.003648,-0.9259635063,-9.5970818895,1.7915768884999999,-2.6646,1.3637,-0.17081,-4.999999999988347e-05,5.000000000032756e-05,-2.0000000000020002e-05,0.00020693214239564384,0.00014226619839363686,-0.00011298077014121333
150000000000.0,-1,-0.008629852,0.09699757515,0.003726527,-0.000904,-0.003458,-0.004717,-0.92556143365,-9.5970818895,1.7917730215,-2.6648,1.3637,-0.17061,-5.0000000000105516e-05,4.999999999988347e-05,8.999999999992347e-05,-0.0001235636502330273,-0.0001596615698402637,0.00046374174164087734
150000000000.0,-1,0.030312355149999998,0.1020676132,-0.03819690175,-0.008374,-0.003436,-0.003655,-0.9246984484499999,-9.5972780225,1.79069429,-2.6649,1.3638,-0.1705,9.999999999998899e-05,4.999999999988347e-05,-9.999999999998899e-05,0.000839983055327842,6.014469520243537e-05,-0.00046154431271538954
150000000000.0,-1,0.0649004097,0.12798658915,-0.04663062075,-0.013702,-0.001286,-0.004716,-0.9230705445499999,-9.597768355,1.7890271595,-2.6653,1.364,-0.17021,-4.999999999988347e-05,4.999999999988347e-05,7.00000000000145e-05,0.0013802260183259918,-0.00018727533394002904,-0.00022480132997326763
150000000000.0,-1,0.0547407203,0.15248360084999998,-0.0741971139,-0.012638,-0.004456,-0.00685,-0.9215897404,-9.598356754,1.7867716299999998,-2.6654,1.3643,-0.1701,-5.0000000000105516e-05,0.00010000000000021103,9.00000000000345e-05,0.0009174739080777261,-0.0008024612091654948,-0.00035700040168284985
150000000000.0,-1,0.0874949313,0.12196530605,-0.06900939604999999,-0.012655,-0.010827,-0.005802,-0.9191871111499998,-9.598945152999999,1.7847122335,-2.666,1.3646,-0.1696,-5.0000000000105516e-05,4.999999999988347e-05,-9.00000000000345e-05,0.00013356595331326382,0.0007703124113227489,-0.00018044325945654194
150000000000.0,-1,0.0867888525,0.12223989225,-0.0679012446,-0.013746,-0.019322,-0.003694,-0.9184712257,-9.5992393525,1.7836335019999998,-2.6661,1.3648,-0.16971,-4.999999999988347e-05,4.999999999988347e-05,4.0000000000040004e-05,0.00043274597255016367,-7.264176262511413e-05,-0.00034481273712705374
150000000000.0,-1,0.09436939294999999,0.0754523651,-0.03358777625,-0.020156,-0.022486,-0.00264,-0.9158822701,-9.599925817999999,1.7814760389999997,-2.6667,1.3651,-0.16929,-4.999999999988347e-05,0.00010000000000021103,9.999999999998899e-05,-0.0006462428893596606,-0.0010959425165431025,0.00027303459468042135
150000000000.0,-1,0.0857297343,0.06810718425,-7.845319999999999e-05,-0.024429,-0.026695,-0.004778,-0.9132246679499999,-9.600514216999999,1.7797108419999998,-2.6675,1.3654,-0.16879,-5.0000000000105516e-05,9.999999999976694e-05,2.999999999997449e-05,0.0018738082064129191,-2.8772435154866827e-05,-0.0009651530994303492
150000000000.0,-1,0.0701763874,0.0590948729,-0.010630408599999999,-0.028693,-0.028767,-0.009039,-0.9105474525,-9.6012006825,1.7772591795,-2.6681,1.3657,-0.16846,-5.0000000000105516e-05,4.999999999988347e-05,-4.0000000000040004e-05,-0.001335933104367637,0.0004850216307450417,0.0002366685508654598
150000000000.0,-1,0.0656849417,0.08825004335,-0.0150434011,-0.028696,-0.032985,-0.01224,-0.9076937173499999,-9.601887148,1.774807517,-2.6688,1.3661,-0.16809,-4.999999999988347e-05,5.000000000032756e-05,0.00012000000000000899,0.001747794567147798,-0.0010187511668267035,-0.0004970080189012904
150000000000.0,-1,0.0379713488,0.095516771,-0.053161849649999995,-0.026561,-0.037196,-0.017568,-0.9048203689,-9.6027697465,1.7717674554999998,-2.6694,1.3665,-0.16786,-9.999999999998899e-05,3.333333333355171e-05,4.999999999999449e-05,0.00039142793963975464,-0.0007906459111390873,-0.00016076881276738675
150000000000.0,-1,-0.0107677017,0.1330566272,-0.06047761054999999,-0.027631,-0.038252,-0.01757,-0.9029178788,-9.603456212,1.768727394,-2.6696,1.3669,-0.16807,-5.0000000000105516e-05,3.333333333310762e-05,3.0000000000085514e-05,-0.001053761382827867,-0.00030830086617394947,0.00030082334455983073
150000000000.0,-1,-0.0494059027,0.14920817974999998,-0.10466637545,-0.031892,-0.036106,-0.01863,-0.9018391472999999,-9.6043388105,1.764412468,-2.6691,1.3673,-0.16892,-4.999999999988347e-05,3.333333333355171e-05,5.999999999994898e-05,0.0019474543073121353,-0.000696294576283174,-0.00048512694229341236
150000000000.0,-1,-0.05953617215,0.16913529254999998,-0.10815754285,-0.036116,-0.03167,-0.01543,-0.9012899749,-9.605319475499998,1.7597052759999998,-2.6682,1.3678,-0.17007,-4.999999999988347e-05,4.999999999988347e-05,1.0000000000065512e-05,-0.0009424460355804687,-0.0002967055898521753,0.00021988950598794688
150000000000.0,-1,-0.050465020900000004,0.17752978495,-0.10903033469999998,-0.033973,-0.028489,-0.016486,-0.9006329293499999,-9.606202073999999,1.7550961504999998,-2.6675,1.3683,-0.17113,-5.0000000000105516e-05,4.999999999988347e-05,1.4999999999987246e-05,0.0015789110587265398,-0.00021682909620945878,-0.0005689974079139404
150000000000.0,-1,-0.0471895998,0.1915631011,-0.10448985574999999,-0.031828,-0.023195,-0.016473,-0.9000151103999999,-9.6070846725,1.750683158,-2.6667,1.3687,-0.1721,-3.333333333332966e-05,-9.999999999976694e-05,1.4999999999987246e-05,-0.0011840638598084041,-0.0006846756790468422,0.0005250154587912448
150000000000.0,-1,-0.05043560095,0.17790243765,-0.09032905315,-0.026496,-0.022172,-0.014341,-0.8996130377499999,-9.607771138,1.7469566309999998,-2.6661,1.3691,-0.17298,-3.333333333332966e-05,9.999999999976694e-05,-4.999999999999449e-05,0.002465407712236578,-0.0001570008332532069,-0.0009350016915345982
150000000000.0,-1,-0.01675956485,0.1652028259,-0.08985833395,-0.0169,-0.023279,-0.013277,-0.89857353285,-9.608359537,1.7441127025,-2.6659,1.3694,-0.1734,-3.333333333332966e-05,-9.999999999976694e-05,3.999999999992898e-05,-0.0011182576052746196,-0.0002312778604940391,0.00043100936834949977
150000000000.0,-1,0.0091986377,0.11337468064999999,-0.07505029245,-0.010489,-0.020115,-0.014332,-0.89684756245,-9.608947936,1.7420533059999999,-2.6661,1.3696,-0.1733,-9.999999999998899e-05,1.4285714285744433e-05,-4.999999999999449e-05,0.0009373693033141173,0.00040017078978693554,-0.0004264149956525465
150000000000.0,-1,0.042099948449999994,0.08887766894999999,-0.08283677254999999,-0.01155,-0.019034,-0.016458,-0.8942880267999999,-9.609536335,1.7397977765000001,-2.6668,1.37,-0.17284,-9.999999999998899e-05,1.4285714285744433e-05,9.00000000000345e-05,0.0007290128970853793,-0.0010101292054627287,9.305689174388121e-05
150000000000.0,-1,0.0649984762,0.06232126075,-0.08571992765,-0.016867,-0.015792,-0.021771,-0.89084589265,-9.6104189335,1.736953848,-2.6677,1.3704,-0.17208,-9.999999999998899e-05,1.4285714285744433e-05,2.999999999997449e-05,-0.0004537051848534368,-0.00032185789487870764,0.00014629543392663535
150000000000.0,-1,0.0734125819,0.02890019755,-0.09332008139999999,-0.030703,-0.006144,-0.028135,-0.8866976796999999,-9.6115957315,1.7327369885000001,-2.6686,1.371,-0.17126,-9.999999999998899e-05,1.4285714285300344e-05,4.0000000000040004e-05,0.00032520017711124005,-0.00036959245774559335,7.460265279890521e-05
150000000000.0,-1,0.07893372585,0.0240066792,-0.0820620472,-0.050933,0.003553,-0.037692,-0.8817355148,-9.613066729,1.7267549319999997,-2.6695,1.3718,-0.17037,-9.999999999998899e-05,1.4285714285744433e-05,-7.00000000000145e-05,-0.0009743535944675141,0.0006126494201215138,-0.00011309974322903926
150000000000.0,-1,0.12779045614999998,0.054524974,-0.07102956595,-0.072282,-0.000612,-0.036644,-0.8756750051,-9.615028059,1.7190076785,-2.6704,1.3728,-0.1694,-0.00019999999999997797,1.4285714285744433e-05,9.999999999998899e-05,0.0012418315427951132,-0.0005271952861909401,-0.0002686707220562745
150000000000.0,-1,0.18027564694999998,0.10148902085,-0.06941146869999999,-0.086179,-0.006967,-0.030282,-0.86905551635,-9.6172835885,1.7098874939999997,-2.6714,1.3739,-0.16856,-0.00019999999999997797,1.4285714285744433e-05,2.999999999997449e-05,-0.00019565167162816088,0.0003379256918469853,-0.000275291478165407
150000000000.0,-1,0.23026994864999997,0.13200731565,-0.09915503815,-0.087281,-0.015503,-0.022857,-0.8620437616,-9.619637184499998,1.6999827775,-2.6723,1.3752,-0.16781,-0.000300000000000189,4.999999999988347e-05,4.999999999999449e-05,0.0007786440202814937,-9.603341121433573e-05,-0.00038208020157570743
150000000000.0,-1,0.25672829035,0.14479518724999998,-0.1326643612,-0.074516,-0.02726,-0.017564,-0.8548260671999999,-9.621892714,1.6905683934999998,-2.6734,1.3764,-0.16697,-0.00029999999999996696,5.000000000032756e-05,-1.999999999990898e-05,0.0010600329601058167,0.0005347069435177598,-0.0013100661456051377
150000000000.0,-1,0.28212751384999996,0.0789435325,-0.1592992226,-0.064944,-0.036866,-0.014394,-0.8473141733,-9.624148243499999,1.6815462755,-2.6748,1.3776,-0.16595,-0.00029999999999996696,-0.00010000000000021103,1.999999999990898e-05,-0.00027373941721742234,4.575488372848824e-05,-0.0005163042330225132
150000000000.0,-1,0.2911986651,0.0337152627,-0.15177752204999997,-0.066052,-0.052785,-0.012305,-0.8394688532999999,-9.626403773,1.672818357,-2.6765,1.3788,-0.16485,-0.0004999999999999449,-9.999999999976694e-05,9.00000000000345e-05,-0.0013388491427046567,0.0004323573433020478,-0.0009203903719385842
150000000000.0,-1,0.28907062205,0.03507838705,-0.14499132025,-0.079964,-0.069714,-0.010219,-0.83734081025,-9.627776703999999,1.6660517685,-2.6759,1.3795,-0.16614,0.0004999999999999449,0.0033999999999996255,0.0009099999999999664,0.0163257383608717,0.004856782295913575,0.023473650088349007
150000000000.0,-1,0.2950232586,0.0007747253499999999,-0.08890708889999999,-0.10022,-0.084254,-0.009203,-0.8292307106999999,-9.6302283665,1.6556567195,-2.6773,1.3808,-0.16564,-0.00029999999999996696,0.00010000000000021103,0.0001300000000000745,0.0016552616760845407,-0.0006898492002995749,-0.0009572277689486874
150000000000.0,-1,0.29534687805,-0.0063645158499999995,-0.09723293475,-0.12693,-0.096897,-0.006049,-0.82102254465,-9.6331703615,1.6428100079999999,-2.6781,1.3824,-0.16579,-0.0004999999999999449,9.999999999976694e-05,0.00012000000000000899,0.001998558291213426,-0.0013447262790675651,-0.0016501454834605411
150000000000.0,-1,0.2931011552,-0.00385401345,-0.08360169124999998,-0.15789,-0.10739,-0.005017,-0.8187768217999999,-9.635622024,1.6291787645,-2.6759,1.3838,-0.16914,-0.000600000000000156,4.999999999988347e-05,0.00027999999999994696,0.0008360706752690295,-0.0019819504349325445,-0.001178621448013395
150000000000.0,-1,0.29670019575,-0.00534462425,-0.08524920844999999,-0.18353,-0.11793,0.000269,-0.8110001483499999,-9.6392504845,1.6117229274999998,-2.6754,1.3858,-0.17091,-0.0004999999999999449,5.000000000032756e-05,0.00014999999999998348,0.0021229627921475203,-0.0008193177124187212,-0.0023140451484278124
150000000000.0,-1,0.28375541774999996,0.00387362675,-0.08953471449999999,-0.19427,-0.13916,0.008725,-0.8035961276,-9.643075077999999,1.5923057604999997,-2.6742,1.3879,-0.17355,-0.00039999999999995595,9.999999999976694e-05,6.0000000000060005e-05,0.0015509417829653316,-0.0025747731495400217,-0.000978427121580694
150000000000.0,-1,0.28293165915,0.006717555249999999,-0.07267708315,-0.18474,-0.16261,0.019312,-0.8027723689999999,-9.6459190065,1.5754383224999997,-2.6703,1.3895,-0.17909,-0.0017000000000000348,-0.0033999999999996255,-0.0008700000000000374,-0.018747068731271632,-9.919833708815773e-05,-0.02568873110060821
150000000000.0,-1,0.3062616795,0.10935395414999999,-0.12594680595,-0.15492,-0.17869,0.026724,-0.7904846365499999,-9.649939733,1.556903754,-2.6718,1.3918,-0.17957,-0.0006999999999999229,9.999999999976694e-05,0.00019000000000002348,0.0010295642352233791,-0.0009467124700448526,-0.0021176915610277014
150000000000.0,-1,0.30743847750000003,0.20160511069999998,-0.16593832464999997,-0.11121,-0.19159,0.026704,-0.7841887672499999,-9.6525875285,1.5437628429999999,-2.6716,1.3933,-0.18175,-0.000700000000000145,-2.4999999999941735e-05,-7.999999999996898e-05,0.001991378680449518,0.00016614965348082933,-0.0034391725530400485
150000000000.0,-1,0.3225211052,0.3021624998,-0.24265574759999997,-0.063227,-0.2066,0.022426,-0.7772750789999999,-9.654646925,1.5341523259999998,-2.6726,1.3945,-0.18281,-0.0007999999999999119,-2.4999999999941735e-05,-0.00021999999999999797,-0.001379524114124564,0.002325294620101337,-0.002504393674468197
150000000000.0,-1,0.3205009353,0.30267244559999995,-0.2404982846,-0.035491,-0.21829,0.010706,-0.7752451024499999,-9.6551372575,1.531994863,-2.6731,1.3948,-0.18452,-0.0005999999999999339,-2.4999999999941735e-05,-1.0000000000065512e-05,0.0031222829548975817,-0.0018657690367880342,-0.0027469021433303986
150000000000.0,-1,0.31931433065,0.35115652319999996,-0.28460859629999996,-0.030153,-0.2267,-0.001012,-0.7719696813499999,-9.65562759,1.5308180649999998,-2.6745,1.3951,-0.18539,-0.0008000000000001339,-2.4999999999941735e-05,-9.999999999998899e-05,-0.0003903958722215606,-0.0017993902795783168,-0.002507123298975955
150000000000.0,-1,0.24602923519999997,0.3862839435,-0.26469129015,-0.040834,-0.23827,-0.008489,-0.7627318170499999,-9.657392787,1.5243456759999998,-2.6777,1.3961,-0.18465,-9.999999999998899e-05,0.0024999999999999467,4.0000000000040004e-05,-2.4765120328673618e-05,-0.0011123322084185538,-0.02906489323222239
150000000000.0,-1,0.06767569165,0.32732636369999996,-0.2239054328,-0.047252,-0.24566,-0.009572,-0.7551120499999999,-9.659059917499999,1.517677154,-2.6799,1.3971,-0.18484,-0.0008999999999999009,-0.00019999999999997797,3.999999999992898e-05,-0.0007835421965411982,-0.0006308479216776686,-0.003878331752635411
150000000000.0,-1,-0.03564717275,0.2141380094,-0.28393193745,-0.035538,-0.24894,-0.003194,-0.75204256855,-9.6604328485,1.5100279669999999,-2.6795,1.3979,-0.18769,-0.0009000000000001229,-0.00019999999999997797,0.0001300000000000745,-0.0012163862810059545,-0.0013980430505453612,-0.0008257965176570181
150000000000.0,-1,-0.039177566750000004,0.214373369,-0.28418691035,-0.009953,-0.25122,0.004254,-0.74851217455,-9.660727048,1.5103221665,-2.6815,1.3981,-0.18826,-0.0009999999999998899,-0.00039999999999995595,-0.000140000000000029,-0.00018120879946392776,0.0007372053295713332,-0.003177295039098915
150000000000.0,-1,-0.08679865914999998,0.0346567011,-0.35352973249999997,0.02633,-0.25441,0.01595,-0.7504244713,-9.662198045499998,1.4997309845,-2.6777,1.3989,-0.19453,-0.001000000000000112,-0.00020000000000042206,2.0000000000020002e-05,-0.005176128831259286,0.00044661006977664286,-0.0035238062251066182
150000000000.0,-1,-0.07975748444999999,0.024869664399999998,-0.42476523809999994,0.075396,-0.25149,0.024478,-0.7487867607500001,-9.661119314,1.5076743709999998,-2.6806,1.3983,-0.19407,-0.0014999999999998348,-0.0030999999999998806,-0.00034000000000000696,0.0008121786519823537,0.0012930986968677782,0.02674776600155182
150000000000.0,-1,-0.0806498896,0.02299659425,-0.43716084369999997,0.11913,-0.24853,0.030878,-0.7478943556,-9.659157983999998,1.5201288165,-2.6844,1.3972,-0.19282,-0.0009000000000001229,-0.0002999999999997449,-0.0005100000000000104,0.0010672522759787029,0.0016973491237206595,-0.0044579881609356775
150000000000.0,-1,-0.0769233626,0.17299911264999998,-0.47063094014999995,0.15537,-0.26141,0.031922,-0.74698233715,-9.6567063215,1.5362117225,-2.689,1.3957,-0.19073,-0.0007999999999999119,-0.000500000000000167,-0.00029000000000001247,-0.0008214308656493419,-0.0004072805420374248,-0.002815307863230476
150000000000.0,-1,0.018897414549999998,0.43903391385,-0.277724328,0.17241,-0.27634,0.03402,-0.7459918655,-9.653862392999999,1.5545501579999998,-2.6942,1.394,-0.18824,-0.0009000000000001229,-0.00039999999999995595,-0.00021000000000004349,0.000706105550309255,-0.0012611453689315155,-0.0023882664538326104
150000000000.0,-1,0.0174362237,0.4361213387999999,-0.29638638294999997,0.17028,-0.27629,0.028702,-0.744520868,-9.650920398,1.5732808594999999,-2.6996,1.3924,-0.18558,-0.0009999999999998899,-0.000700000000000145,-0.00032999999999994145,-0.005190606414433141,-0.000493956114043792,-0.0014666907564881981
150000000000.0,-1,-0.033352416649999994,0.44082853079999995,-0.30317258475,0.16072,-0.26768,0.017018,-0.7437167227,-9.648959068,1.5860295045000001,-2.7031,1.3912,-0.18466,-0.001100000000000101,-0.0006999999999997009,-0.000140000000000029,-0.0032003021137940735,-0.00010134485861024167,-0.0021922126555535826
150000000000.0,-1,-0.2549925133,0.26074901685,-0.2689964095,0.15754,-0.2634,0.012773,-0.74084337425,-9.6463112725,1.6031911419999998,-2.7087,1.3897,-0.18165,-0.0009999999999998899,-0.000800000000000356,-0.00022999999999995246,-0.005198437646690923,-0.0003272535323954884,-0.0009667575909593218
150000000000.0,-1,-0.27715554229999995,0.13657721455,-0.21359864364999998,0.15861,-0.25919,0.017037,-0.73813673885,-9.643663477,1.6203527795,-2.7141,1.3882,-0.17878,-0.0009000000000001229,-0.00039999999999995595,-0.00026999999999999247,0.002189819247412128,0.0003961897352502408,-0.0030523790621583835
150000000000.0,-1,-0.30508488149999996,0.03955021945,-0.18670880935,0.15754,-0.24866,0.027697,-0.73639115515,-9.640917615,1.6374163505,-2.719,1.3867,-0.17643,-0.0008999999999999009,-0.0005999999999999339,-0.0001500000000000945,-0.001055290934574682,7.981347331265098e-06,-0.001688967325689017
150000000000.0,-1,-0.28442226995,0.011081514499999999,-0.20292900844999998,0.15759,-0.22327,0.035203,-0.7429910305999999,-9.6382698195,1.6496746629999999,-2.7184,1.3852,-0.17918,-0.0008999999999999009,-0.0004999999999997229,-0.00021999999999999797,0.001451723101022262,0.00022554993751655594,-0.0031849702810582414
150000000000.0,-1,-0.2840594239,0.00814932615,-0.2197670265,0.15977,-0.19467,0.039523,-0.7433538766499999,-9.635425890999999,1.6664440344999998,-2.722,1.3836,-0.17756,-0.001000000000000112,-0.0009000000000001229,-0.00026999999999999247,-0.0030108079069235405,-0.00047673351933674724,-0.0006814624662556668
150000000000.0,-1,-0.2718991779,0.0181226892,-0.28365735124999997,0.163,-0.17778,0.048071,-0.7447366142999999,-9.6323858295,1.683409539,-2.7251,1.382,-0.1763,-0.001100000000000101,-0.0009000000000001229,-0.00019999999999997797,-0.002692657629709938,0.0016535932314185597,-0.0016899748393304215
150000000000.0,-1,-0.2001341132,-0.00477583855,-0.35378470539999995,0.16087,-0.16725,0.058732,-0.7472176967499999,-9.629149635,1.700276977,-2.7275,1.3803,-0.17553,-0.0011999999999998678,-0.001100000000000101,4.0000000000040004e-05,-0.008260487127957239,8.136587024987207e-05,0.000725598463407362
150000000000.0,-1,-0.19647623275,-0.007904159899999999,-0.36981857814999997,0.15019,-0.15987,0.069382,-0.7508755772,-9.626109573499999,1.7162618164999999,-2.7292,1.3786,-0.17549,-0.0009000000000001229,-0.0006999999999997009,-0.00021000000000004349,0.0013975799711680725,-0.0009052327640117763,-0.0010886125180702422
150000000000.0,-1,-0.14271617744999998,-0.042727574049999995,-0.3756339216,0.13313,-0.15242,0.075777,-0.7554062495,-9.623069512,1.7307756585,-2.7301,1.377,-0.17617,-0.0009999999999998899,-0.000700000000000145,-0.0005299999999999194,0.003825141724072001,0.0037789438139184117,-0.004009467771231012
150000000000.0,-1,-0.15484700349999997,-0.050376761049999996,-0.4812123155,0.11718,-0.14053,0.080048,-0.7648206335,-9.6223830465,1.7308737249999997,-2.7255,1.3766,-0.18208,-0.001000000000000112,-0.001100000000000101,-6.0000000000060005e-05,-0.002192448529616531,-0.0013074372705801363,-0.0006164239507575608
150000000000.0,-1,-0.1495906391,-0.052936296699999996,-0.4930587487,0.1108,-0.13201,0.079001,-0.77008680455,-9.6198333175,1.7427397715,-2.7255,1.3753,-0.18346,-0.0011999999999998678,-0.001100000000000101,2.999999999997449e-05,-0.0017365888943601249,0.0006961395092328626,-0.0013527623007867362
150000000000.0,-1,-0.18444347319999999,-0.030586941349999997,-0.54682861065,0.10655,-0.12037,0.08541,-0.7813252254499999,-9.619441051499999,1.7398958429999998,-2.7195,1.3751,-0.1906,-0.0012000000000000899,-0.0012999999999996348,-0.00014999999999998348,-0.005737729839067285,0.0014444549910455073,0.0007042896342079885
150000000000.0,-1,-0.17356789834999997,0.006433162399999999,-0.5456027793999999,0.10442,-0.11191,0.089685,-0.79279900595,-9.618950718999999,1.7368557814999999,-2.7134,1.3749,-0.1978,-0.0010999999999998789,-0.001100000000000101,-0.00019000000000002348,-0.0004712459147566683,-2.0025488455255314e-05,-0.0011208387317727109
150000000000.0,-1,-0.16646788375,0.0038834333999999996,-0.55639990105,0.10335,-0.10664,0.093951,-0.79989902055,-9.616499056499999,1.7476430965,-2.7124,1.3735,-0.19995,-0.001000000000000112,-0.001100000000000101,-0.00044999999999995044,0.002677058130511778,0.002118310056745676,-0.002572195514713105
150000000000.0,-1,-0.142196425,0.08536688824999998,-0.5014336277999999,0.11188,-0.10142,0.10035,-0.8120396532499999,-9.615616457999998,1.746564365,-2.7064,1.3731,-0.20689,-0.0010999999999998789,-0.0015000000000000568,-0.00038000000000004697,-0.0061180195863965725,0.000290775532766574,0.00118497878614221
150000000000.0,-1,-0.0604874172,0.20346837419999997,-0.43891623404999996,0.12682,-0.096198,0.10356,-0.8225229621,-9.614341593499999,1.7488198944999997,-2.702,1.3724,-0.21227,-0.0013000000000000789,-0.0013999999999998458,6.0000000000060005e-05,-0.0013110371439395418,-8.632724778689926e-05,-2.5016984263714903e-05
150000000000.0,-1,-0.0520536982,0.20020275975,-0.4528318704,0.1418,-0.079282,0.10253,-0.8309566811,-9.611105399,1.7627453374999997,-2.7011,1.3707,-0.21402,-0.0012000000000000899,-0.0013000000000000789,-0.00031000000000003247,-0.0005020207759334205,0.0013048473570662633,-0.0010418796608306913
150000000000.0,-1,-0.0058643767,0.23507520714999997,-0.47206271105,0.15786,-0.057036,0.09727,-0.8404887449,-9.6094382685,1.7671583299999998,-2.6976,1.3699,-0.21805,-0.0011999999999998678,-0.0015000000000000568,-0.0006000000000000449,-0.0024477669793530055,0.002813795340816938,-0.0011685118501398861
150000000000.0,-1,0.08013013714999999,0.22689646105,-0.39962098749999997,0.16536,-0.045368,0.093043,-0.8473239799499999,-9.607575005,1.7742191179999998,-2.696,1.3689,-0.22012,-0.0014000000000000679,-0.0015000000000000568,-0.00018999999999991246,-0.0026878936609435744,-0.0007696644133616815,4.1979332839670036e-05
150000000000.0,-1,0.08819120344999999,0.22302283429999997,-0.4166453319,0.17603,-0.044334,0.090921,-0.8553850462499999,-9.603652344999999,1.7911846224999999,-2.6961,1.367,-0.22054,-0.0015000000000000568,-0.0015000000000000568,-9.00000000000345e-05,-0.002125883899148473,0.0020710247867967713,0.0005171603820368631
150000000000.0,-1,0.17248916685,0.18805232039999997,-0.3439584421,0.17818,-0.040077,0.087738,-0.85932731955,-9.601494881999999,1.8010893389999998,-2.6964,1.3659,-0.2206,-0.0012999999999998568,-0.0014999999999996128,-0.000260000000000038,-0.0007450949755005709,-0.0007182619373069521,-0.001207771249811529
150000000000.0,-1,0.3098705267,0.0173381572,-0.23844869475,0.17287,-0.030472,0.082435,-0.8527568640500001,-9.601004549499999,1.8064829965,-2.7006,1.3657,-0.21688,-0.0014000000000000679,-0.0018000000000002458,-0.0004899999999999904,-0.003784427484074593,0.0002785189244725039,0.000497203975431848
150000000000.0,-1,0.31721570755,0.0135135637,-0.2552278729,0.17072,-0.036834,0.083484,-0.8601020449,-9.597179956,1.823252368,-2.7008,1.3637,-0.21697,-0.0016000000000000458,-0.0011999999999998678,-0.00029999999999996696,0.0028946488014838234,0.0030614175361809437,-0.002162318578394551
150000000000.0,-1,0.44811487175,-0.021407916949999998,-0.324207849,0.17495,-0.048556,0.088774,-0.8584251077499999,-9.595316692499999,1.8337454834999998,-2.7038,1.3628,-0.21453,-0.0016000000000000458,-0.0017000000000000348,-0.000280000000000058,-0.001206746750496368,0.0007259574515072753,-0.0026179250560618428
150000000000.0,-1,0.49178388419999997,0.03464689445,-0.36463086029999997,0.19092,-0.057176,0.098332,-0.86662346715,-9.591099833,1.8520839189999998,-2.7039,1.3607,-0.21494,-0.0018999999999997907,-0.002000000000000224,-0.00047999999999992493,-0.009581011153867225,0.0016080239537277219,0.0010230426974904283
150000000000.0,-1,0.50079619555,0.0298710559,-0.3850483056,0.2122,-0.072187,0.10894,-0.8756357784999999,-9.5862945745,1.8724817509999998,-2.7042,1.3584,-0.21538,-0.0018000000000000238,-0.0012999999999996348,3.999999999992898e-05,0.003060166252098373,-0.0001991165169763498,-0.0033238461436080335
150000000000.0,-1,0.50214951325,0.16827230734999998,-0.3874411282,0.22598,-0.12092,0.12372,-0.8850697757999999,-9.581097049999999,1.8947428464999998,-2.7046,1.3559,-0.21603,-0.0019000000000000128,-0.0019000000000000128,-0.00035999999999991594,-0.004681607494844364,0.0012345200385497357,-0.0011379889686606859
150000000000.0,-1,0.4489288237,0.11567924339999998,-0.1425102378,0.23012,-0.1635,0.14171,-0.89529811175,-9.5755072595,1.9180826735,-2.7049,1.3532,-0.21731,-0.0018000000000000238,-0.0016000000000002679,-0.0006900000000000794,-0.003110579589612472,0.0014374844888793703,-0.0021534280859718535
150000000000.0,-1,0.43089439435,0.0289492308,-0.14862958739999999,0.22792,-0.18581,0.1491,-0.89476855265,-9.5713884665,1.9388727714999998,-2.7092,1.3513,-0.21492,-0.0020000000000000018,-0.0017999999999998018,-5.999999999994898e-05,-0.0028852943452539748,-0.0012973892389263053,-0.0016960268915395815
150000000000.0,-1,0.4235099869,-0.01154242705,-0.2522074247,0.214,-0.20382,0.15331,-0.90549702775,-9.5657006095,1.961526133,-2.7091,1.3487,-0.21709,-0.0021999999999999797,-0.0016000000000002679,-0.00045000000000006146,-0.0013993201624307172,0.004573704345350649,-0.003353978953202663
150000000000.0,-1,0.3505485109,0.23777203589999998,-0.08438622324999999,0.19796,-0.21862,0.1554,-0.9160195632,-9.560306952,1.982708497,-2.7088,1.3462,-0.21964,-0.0020000000000000018,-0.0017999999999998018,-0.0006299999999999084,-0.004587086409592489,0.0008726384476347437,-0.0015019723080458292
150000000000.0,-1,0.2792737787,0.44174054925,0.0122779258,0.22361,-0.20697,0.1448,-0.9260027328999999,-9.554619095,2.005263792,-2.709,1.3436,-0.22161,-0.0020999999999999908,-0.0018000000000002458,-9.999999999998899e-05,-0.002580555571246146,-0.0010827023153598958,-0.0020245329500991893
150000000000.0,-1,0.288511643,0.43553293979999996,-0.012856518150000001,0.24818,-0.19747,0.13738,-0.9352504038499999,-9.5484409055,2.0304668825,-2.7099,1.3408,-0.22265,-0.0020000000000000018,-0.0015999999999998238,-0.0007000000000000339,-0.0022440116916118136,0.002240784069835522,-0.004029558875665362
150000000000.0,-1,0.04366901245,0.48073178965,-0.07479531955,0.25344,-0.22722,0.14157,-0.94433136175,-9.5417723835,2.057631303,-2.7113,1.3378,-0.22349,-0.0020000000000000018,-0.0019000000000000128,-0.0007000000000000339,-0.004753747636412786,0.0009868483824970742,-0.0022478285001228393
150000000000.0,-1,0.0529166834,0.47391616789999996,-0.10192051344999999,0.26079,-0.26872,0.15743,-0.95358883935,-9.534907728499999,2.0847957235,-2.7126,1.3348,-0.22484,-0.0020999999999999908,-0.0015999999999998238,-0.00034999999999996145,-0.001404355010097058,0.000898226196124563,-0.004217994662850888
150000000000.0,-1,-0.1382345384,0.55228110805,0.1158557631,0.28098,-0.29117,0.17015,-0.9635425890999999,-9.527552741,2.113725341,-2.7139,1.3316,-0.22646,-0.0019000000000000128,-0.0019000000000000128,-0.0007099999999999884,-0.005817577565544463,-0.0003004040087086768,-0.0015287660568503725
150000000000.0,-1,-0.5221844992,0.44071085099999996,0.3088702484,0.30228,-0.304,0.17225,-0.97359440535,-9.519511288,2.1450085545,-2.7155,1.3282,-0.22788,-0.0018000000000000238,-0.0017000000000000348,-0.000520000000000076,-0.0037150241332926104,0.0009984155700182296,-0.004004764295784113
150000000000.0,-1,-0.5131231546,0.43251249159999994,0.27689076274999996,0.30227,-0.31772,0.16371,-0.9826263299999999,-9.5113717685,2.1769782335,-2.7176,1.3248,-0.22897,-0.0016000000000000458,-0.0017000000000000348,-0.0005399999999999849,0.0002625401735516508,-0.0010798334164396906,-0.004557458502518763
150000000000.0,-1,-0.8431365404,0.36755324199999995,0.31703918784999996,0.27026,-0.33866,0.14451,-0.9895890515,-9.5037225815,2.207084649,-2.7201,1.3216,-0.22983,-0.0017000000000000348,-0.0016000000000002679,-0.00039000000000000146,-0.0019246025332222416,0.0020517499119629967,-0.005053466717937383
150000000000.0,-1,-1.304480583,0.1918573006,0.30056401585,0.20936,-0.39026,0.12842,-0.9938059109999999,-9.497348258999999,2.2321896729999997,-2.7227,1.319,-0.23099,-0.0006999999999999229,0.0009000000000001229,0.00048000000000003595,-0.005352490829670931,-0.006818978071630344,-0.03333782105177585
150000000000.0,-1,-1.3024211865,0.18686571574999997,0.28033289689999996,0.15812,-0.41541,0.11559,-0.9958653074999999,-9.492346867499998,2.252391372,-2.7253,1.3169,-0.23258,-0.001000000000000112,-0.0015999999999998238,-0.00039999999999995595,-0.0017679084169355264,-0.002498256030488921,-0.006393143897328812
150000000000.0,-1,-1.365477946,0.13241919494999999,0.19411283009999997,0.1358,-0.39397,0.096485,-0.9964537065,-9.4882280745,2.2696510759999997,-2.7279,1.3153,-0.23404,-0.0015999999999998238,-0.0020999999999999908,-0.00021000000000004349,-0.0052715281229707145,0.00047135793796315717,-0.0010773968103245934
150000000000.0,-1,-1.389602305,0.1656539318,-0.033568162949999994,0.13814,-0.35646,0.07211,-0.9954730414999999,-9.4843054145,2.2862243145,-2.7309,1.3137,-0.23471,-0.001000000000000112,-0.002200000000000202,-0.0005500000000000504,-0.0005080620586603857,-0.00033126404241423657,-0.002887402639995429
150000000000.0,-1,-1.3920539674999999,0.1614370723,-0.05204389155,0.16591,-0.35539,0.056165,-0.993021379,-9.480088555,2.3046608164999998,-2.7348,1.312,-0.23439,-0.0009999999999998899,-0.0020999999999999908,-0.0006199999999999539,-0.003372464313767587,0.0017399540372708966,-0.004624009366755111
150000000000.0,-1,-1.3637127489999998,0.34678275729999997,-0.1270745707,0.19252,-0.38729,0.052908,-0.9891967855,-9.475283296499999,2.3261373799999996,-2.7395,1.3101,-0.2334,-0.0012000000000000899,-0.0023999999999997357,-0.00017000000000000348,-0.001853954515076417,-0.0016762874390725546,6.048423779692058e-05
150000000000.0,-1,-1.091284012,0.19009210359999998,0.20762639379999998,0.21916,-0.39172,0.063542,-0.9857644579999999,-9.469693506,2.3501636725,-2.7444,1.3079,-0.23236,-0.0006999999999999229,-0.0018000000000002458,-0.0005300000000000304,-0.0023795971745261824,0.0006753101927934324,-0.009962707096646817
150000000000.0,-1,-1.0931472755,0.1836589412,0.18106017894999998,0.24903,-0.3771,0.078475,-0.983803128,-9.4633191835,2.3766416274999997,-2.7491,1.3054,-0.23145,-0.001100000000000101,-0.0022999999999999687,-0.00034999999999996145,-0.006043345032936243,0.0010437280680704042,-0.00020333130774163877
150000000000.0,-1,-0.9342991587999999,0.14846287435,0.20632210934999998,0.27784,-0.36777,0.091267,-0.9833127955,-9.4558661295,2.4060615775,-2.7536,1.3025,-0.23062,-0.0007999999999999119,-0.0024000000000001798,-0.0007599999999999829,-0.0013955272518026973,0.0008714650169459048,-0.003494096569942151
150000000000.0,-1,-0.58797731405,0.2650933628,0.2409101639,0.29594,-0.37638,0.098698,-0.9834108619999998,-9.447922743,2.437344791,-2.7581,1.2995,-0.22986,-0.0008000000000001339,-0.0018999999999995687,-9.999999999998899e-05,-0.0034961623455220803,-0.0008332467299132507,-0.0075129950598320505
