Time,placement_label,user_acc_x(m/s^2),user_acc_y(m/s^2),user_acc_z(m/s^2),rotation_rate_x(rad/s),rotation_rate_y(rad/s),rotation_rate_z(rad/s),gravity_x(m/s^2),gravity_y(m/s^2),gravity_z(m/s^2),attitude_roll(rad),attitude_pitch(rad),attitude_yaw(rad),target_delta_x,target_delta_y,target_delta_z,target_delta_roll,target_delta_pitch,target_delta_yaw
150000000000.0,-1,0.01828940225,0.13481201755,-0.04735631285,-0.010068,-0.023817,0.001652,-0.31890245134999995,-9.6280709035,1.835216481,-2.9695,1.3797,-1.279,0.0,0.0,0.0,0.0,0.0,0.0
150000000000.0,-1,-0.0035500073,0.15689659334999997,-0.0410310236,-0.013815,-0.020278,0.003211,-0.3193633639,-9.628561236,1.833059018,-2.9691,1.3799,-1.2796,0.0009999999999998899,0.0028999999999999027,0.0005899999999999794,-0.001222537422380654,-0.003086442366008857,-0.03331021041998827
150000000000.0,-1,-0.02405571245,0.13681257414999998,-0.02266316815,-0.011333,-0.02143,0.005668,-0.32160908674999994,-9.6286593025,1.832078353,-2.9678,1.38,-1.2811,-0.0010999999999998789,-0.0028999999999999027,-0.0005600000000000049,0.0009128233823834098,0.002498779496399317,0.03318134342617629
150000000000.0,-1,-0.05119071299999999,0.14208855185,-0.00969877685,-0.002717,-0.022361,0.003391,-0.3256003933,-9.628365103,1.8327648184999998,-2.9658,1.3798,-1.2833,0.0006999999999999229,9.999999999976694e-05,-0.00010999999999994348,-0.0006498132696777237,1.9600838737421356e-05,-7.507213058044471e-05
150000000000.0,-1,-0.05119071299999999,0.14208855185,-0.00969877685,-0.002717,-0.022361,0.003391,-0.3256003933,-9.628365103,1.8327648184999998,-2.9658,1.3798,-1.2833,0.0006999999999999229,0.002300000000000413,0.0012599999999999278,0.04510311584816096,-0.0057821490046934265,-0.0005233959605432936
150000000000.0,-1,-0.041442902899999995,0.13194847575,-0.015288567349999999,0.002286,-0.025871,0.00832,-0.32906214075,-9.6280709035,1.8335493504999998,-2.964,1.3797,-1.2853,-9.999999999998899e-05,9.999999999976694e-05,4.0000000000040004e-05,-0.0002796373464879487,0.00023856315877823775,2.9425281686368265e-05
150000000000.0,-1,-0.04096237705,0.116699135,-0.027125193899999997,0.005875,-0.023371,0.011943,-0.3295426666,-9.627972837,1.8341377495,-2.9638,1.3796,-1.2858,-9.999999999998899e-05,-0.0011499999999999844,-0.0001100000000000545,-0.0006962929091498538,0.000457684130460434,-0.00013567839802597348
150000000000.0,-1,-0.037853669,0.1222496989,-0.0187699281,0.004622,-0.022165,0.007096,-0.3299545459,-9.6278747705,1.8348242149999998,-2.9637,1.3795,-1.2862,-0.0015999999999998238,-0.0011499999999999844,-0.0010200000000000209,-0.04588543211252416,0.0052665094347070784,0.0004125700537467303
150000000000.0,-1,-0.0034127142,0.10885381499999999,-0.0472484397,0.003321,-0.019786,0.007045,-0.3304252651,-9.627776703999999,1.8351184145,-2.9634,1.3795,-1.2866,0.0014999999999998348,0.0024999999999999467,0.0012000000000000899,0.04744031791053871,-0.005801980452008193,-0.0008836037031816346
150000000000.0,-1,-0.01326839745,0.14432446805,-0.042913900399999996,-0.000491,-0.015014,-0.000292,-0.3301506789,-9.627776703999999,1.8351184145,-2.9636,1.3795,-1.2866,-9.999999999998899e-05,0.00010000000000021103,-1.0000000000065512e-05,-5.97059548765877e-05,-0.00013363469670513162,-0.00032964768797993926
150000000000.0,-1,-0.0252227038,0.14274559739999998,-0.025301156999999998,-0.006779,-0.010403,0.00437,-0.33031739195,-9.6278747705,1.8347261485,-2.9635,1.3795,-1.2869,-5.0000000000105516e-05,9.999999999976694e-05,7.00000000000145e-05,0.0005009085234908284,-0.00026706973790013855,-7.179068527563004e-05
150000000000.0,-1,-0.00995374975,0.12122980729999999,0.0034617474499999998,-0.008999,-0.017732,0.005647,-0.3303271986,-9.627972837,1.8337454834999998,-2.9634,1.3796,-1.2872,-4.999999999988347e-05,4.999999999988347e-05,-7.00000000000145e-05,-0.0004005552689059222,0.00023268409414312075,-0.0004613545976686062
150000000000.0,-1,-0.0182207557,0.12250467179999999,0.0072961475999999996,-0.013792,-0.021539,0.010449,-0.33088617765,-9.628267036499999,1.832470619,-2.963,1.3798,-1.2878,-9.999999999998899e-05,5.000000000032756e-05,-7.999999999996898e-05,-0.001036730418975118,0.0005309251579459495,-0.0005063886426155406
150000000000.0,-1,-0.006943108199999999,0.13430207175,0.00565843705,-0.023387,-0.027847,0.006799,-0.33094501755,-9.6286593025,1.8302150894999998,-2.9627,1.38,-1.2883,-0.0016000000000000458,-0.002200000000000202,-0.0011799999999999589,-0.04214385733375847,0.007033896826047936,-0.001578976054973591
150000000000.0,-1,-0.0003530394,0.1320759622,0.013876409749999999,-0.024509,-0.031551,0.012852,-0.33139612344999997,-9.629149635,1.8277634269999998,-2.9622,1.3802,-1.2892,0.0015000000000000568,0.0022999999999999687,0.0011799999999999589,0.042505222580537794,-0.0069188882103272675,0.0007220939577057273
150000000000.0,-1,0.046885593649999995,0.09599729685,0.0122779258,-0.015784,-0.036131,0.014236,-0.3277578563,-9.6286593025,1.8308034884999997,-2.9644,1.38,-1.2874,-0.0015000000000000568,-0.0020999999999999908,-0.0012499999999999734,-0.04152237760763766,0.006224126605145042,-0.001879273995328834
150000000000.0,-1,0.01460210185,0.0887305692,0.0233594403,-0.008053,-0.047996,0.01571,-0.32749307675,-9.628267036499999,1.832862885,-2.9648,1.3798,-1.2876,-9.999999999998899e-05,0.00010000000000021103,-0.00012000000000000899,-4.8877584588158385e-05,0.0011293091086570506,-0.00046406860622782986
150000000000.0,-1,0.01473939495,0.08865211599999999,0.02299659425,0.004357,-0.052421,0.011128,-0.32763036985,-9.628168969999999,1.833255151,-2.9647,1.3797,-1.2882,-9.999999999998899e-05,4.999999999988347e-05,4.999999999999449e-05,-0.0007060245982835056,0.0001879371207471614,-0.00029277892400436656
150000000000.0,-1,0.04268834745,0.1245640683,-0.005687856999999999,0.003167,-0.05244,0.013952,-0.32804224915,-9.6280709035,1.8339416165,-2.9646,1.3797,-1.2889,-4.999999999988347e-05,4.999999999988347e-05,4.999999999999449e-05,0.00010962491612342973,-0.0006209655430260419,-0.0003560331462493238
150000000000.0,-1,0.0457774422,0.15510197639999998,-0.02211399575,-0.002027,-0.042882,0.007732,-0.32799321589999997,-9.6280709035,1.8339416165,-2.9646,1.3797,-1.2894,-5.0000000000105516e-05,3.333333333355171e-05,9.00000000000345e-05,-0.0002386323732517237,-0.0004399227405151862,0.00016765217776404384
150000000000.0,-1,0.0457774422,0.15510197639999998,-0.02211399575,-0.002027,-0.042882,0.007732,-0.32799321589999997,-9.6280709035,1.8339416165,-2.9646,1.3797,-1.2894,-9.999999999998899e-05,3.333333333310762e-05,-6.0000000000060005e-05,-0.00046749927557665494,0.000813638197142641,-0.00019914887526795155
150000000000.0,-1,-0.0029419949999999998,0.16350627545,-0.069627215,-0.004653,-0.036864,0.000392,-0.32835606194999994,-9.6286593025,1.8306073555,-2.9641,1.38,-1.2903,-3.333333333332966e-05,3.333333333355171e-05,1.0000000000065512e-05,0.00012096748096857013,-0.00047597237829166694,-9.33136282781355e-05
150000000000.0,-1,-0.034401728199999995,0.15006135829999998,-0.04237453465,-0.012105,-0.033428,-0.004569,-0.32996435255,-9.6290515685,1.8286460254999999,-2.9631,1.3802,-1.2917,-3.333333333332966e-05,9.999999999976694e-05,-2.999999999997449e-05,4.220451791070445e-05,0.00023257665689313534,-0.00028502740200320176
150000000000.0,-1,-0.03782424905,0.13234074175,0.004501252349999999,-0.012391,-0.025026,0.002527,-0.33222968869999997,-9.628757368999999,1.829332491,-2.9619,1.3801,-1.2931,-3.333333333332966e-05,-2.4999999999941735e-05,-3.0000000000085514e-05,-0.0007506799733181246,0.0008887605100418305,0.00011739763221685351
150000000000.0,-1,-0.059899018199999994,0.1489826268,0.02109410415,-0.000218,-0.022223,0.000245,-0.33200413575,-9.6288554355,1.8291363579999997,-2.962,1.3801,-1.2932,-3.333333333332966e-05,-2.4999999999941735e-05,4.999999999999449e-05,0.0006738469754163923,-0.0008145694701484629,9.830437252800195e-05
150000000000.0,-1,-0.09109397185,0.15754383225,0.024497011699999998,0.00601,-0.025697,0.005191,-0.3319354892,-9.628757368999999,1.8298228235,-2.9621,1.38,-1.2934,-3.333333333332966e-05,-2.4999999999941735e-05,2.999999999997449e-05,-0.0001090890440129666,-0.0003858739879871731,0.00023681628200078464
150000000000.0,-1,-0.11550272369999999,0.14293192375,-0.00467777205,0.0047,-0.023344,0.008749,-0.33236698179999996,-9.628561236,1.8303131559999999,-2.962,1.38,-1.2938,-3.333333333332966e-05,-2.4999999999941735e-05,-1.999999999990898e-05,-0.003461841874958349,-0.00017150863167092467,0.0012802821681914267
150000000000.0,-1,-0.08316039199999999,0.11653242194999999,-0.0318323859,-0.000391,-0.017454,0.008598,-0.33282789434999993,-9.628561236,1.8305092889999999,-2.9617,1.3799,-1.2943,-4.999999999988347e-05,2.4999999999941735e-05,6.999999999990347e-05,-0.00035950410180696224,-0.0003236284217136287,0.0003206891221347874
150000000000.0,-1,-0.07440305355,0.14748220935,-0.053818895199999994,-0.010383,-0.01172,0.009585,-0.33350455319999994,-9.6286593025,1.829724757,-2.9613,1.38,-1.2948,-5.0000000000105516e-05,2.4999999999941735e-05,4.0000000000040004e-05,0.0005092495586380696,-0.00015930075133652188,4.348859690983531e-05
150000000000.0,-1,-0.09531083135,0.1360378488,-0.042099948449999994,-0.0044,-0.00666,0.003579,-0.34134006654999993,-9.628757368999999,1.8278614935,-2.957,1.38,-1.2992,-1.2499999999970868e-05,2.4999999999941735e-05,9.99999999995449e-06,0.0002688592904607212,0.00015580284990557303,0.0001481196842036958
150000000000.0,-1,-0.10478405525,0.11153103044999998,-0.021368690349999997,0.000305,-0.000473,0.003555,-0.34921480650000003,-9.6284631695,1.8277634269999998,-2.9528,1.3799,-1.3033,-1.2499999999970868e-05,2.4999999999941735e-05,4.500000000007276e-05,-0.0004261964298586385,0.000649874008889606,0.0002681501375820794
150000000000.0,-1,-0.10478405525,0.11153103044999998,-0.021368690349999997,0.000305,-0.000473,0.003555,-0.34921480650000003,-9.6284631695,1.8277634269999998,-2.9528,1.3799,-1.3033,-1.2499999999970868e-05,4.999999999988347e-05,4.499999999996174e-05,0.0004943801958261496,-0.00016347260102289596,4.085984816493138e-05
150000000000.0,-1,-0.11104069794999999,0.11023655264999999,-0.0023732093,-0.006008,0.00539,0.002185,-0.35687380015,-9.6280709035,1.8284498925,-2.9488,1.3797,-1.3072,-1.2500000000192912e-05,5.000000000032756e-05,-9.99999999995449e-06,0.0004883792577285995,-0.0004907959258473316,0.0003048521773307833
150000000000.0,-1,-0.09079977234999999,0.1128941548,-0.019858466249999998,-0.006232,0.012663,-0.00153,-0.35736413265,-9.628365103,1.8268808285,-2.9484,1.3798,-1.3074,-1.2499999999970868e-05,2.4999999999941735e-05,5.999999999994898e-05,1.085816107604387e-05,0.00031008831592416186,0.00015081678734851778
150000000000.0,-1,-0.07912985885,0.1430005703,-0.02083913125,-0.011282,0.017355,-0.002868,-0.35752103905,-9.628561236,1.8259001634999998,-2.9482,1.3799,-1.3074,-1.2499999999970868e-05,2.4999999999941735e-05,-0.00015999999999993797,-0.0007824455100722272,0.00037494353518496837,0.00017429718600903144
150000000000.0,-1,-0.07912985885,0.1430005703,-0.02083913125,-0.011282,0.017355,-0.002868,-0.35752103905,-9.628561236,1.8259001634999998,-2.9482,1.3799,-1.3074,-1.2499999999970868e-05,2.4999999999941735e-05,0.00012000000000000899,0.00029717013811647597,-0.0007274172408591184,0.0001760178313134908
150000000000.0,-1,-0.0601343778,0.1434909028,-0.03146953985,-0.01737,0.017192,-0.002546,-0.3576485255,-9.6288554355,1.8241349665,-2.948,1.3801,-1.3075,-1.2499999999970868e-05,2.4999999999941735e-05,-1.0000000000065512e-05,3.722538419381749e-05,0.0002621545379470902,-0.00011084111273795827
150000000000.0,-1,-0.052730357049999996,0.13345869985,-0.022898527749999998,-0.016236,0.019601,0.003451,-0.35832518435,-9.629149635,1.822467836,-2.9474,1.3803,-1.3078,9.999999999998899e-05,5.000000000032756e-05,-9.00000000000345e-05,0.0004604547144819726,-2.303234786049657e-05,-0.00023299680022015323
150000000000.0,-1,-0.057663101999999994,0.10677480519999999,-0.01077750835,-0.012472,0.01734,-0.002482,-0.3584820907499999,-9.6294438345,1.821094905,-2.9472,1.3804,-1.3078,-9.999999999998899e-05,4.999999999988347e-05,0.0001500000000000945,-0.0007709669706239541,-0.00019885053813339937,0.00041575868710896913
150000000000.0,-1,-0.0322442652,0.1099913864,-0.0393442798,-0.009904,0.0138,-0.0036,-0.35846247745,-9.6296399675,1.819918107,-2.9471,1.3805,-1.3078,0.000220000000000109,0.0006200000000000649,-4.0000000000040004e-05,-0.00040414278705580564,0.0005029067770006002,0.00035331303013697024
150000000000.0,-1,-0.043737659,0.11778767315000001,-0.0045895122,-0.007257,0.007853,-0.005887,-0.3580407915,-9.6298361005,1.819133575,-2.9473,1.3806,-1.3075,0.00021999999999988695,0.0006200000000000649,-2.0000000000020002e-05,0.0007296811598676012,-0.0009287122997871933,-9.069494067315276e-06
150000000000.0,-1,-0.00679600845,0.12520150055,-0.0096497436,0.000257,0.003279,-0.010535,-0.35802117819999996,-9.629541901,1.8203103729999999,-2.9474,1.3805,-1.3074,0.000220000000000109,0.0006199999999996209,-2.999999999997449e-05,-0.0007193352272674147,0.0006505091604247504,0.00028223526148885014
150000000000.0,-1,0.0087279185,0.14709974999999997,-0.015455280399999998,0.005026,0.007007,-0.004507,-0.35708954644999996,-9.629345768,1.8217813704999999,-2.948,1.3803,-1.3066,0.00021999999999988695,0.0006200000000000649,-0.000140000000000029,-0.00044221168336289196,6.785590817881548e-05,-0.00010918058049380619
150000000000.0,-1,0.02982202265,0.1468840037,-0.029890669199999997,0.002695,0.003318,-0.00569,-0.35468691719999995,-9.6294438345,1.8217813704999999,-2.9493,1.3804,-1.3053,0.000220000000000109,0.0006200000000000649,0.0008500000000000174,0.0008648520510277091,-0.0038895606169429,-0.034333459673703715
150000000000.0,-1,0.028449091649999998,0.1640260279,-0.034823414149999996,0.002508,0.009375,-0.008185,-0.35242158104999993,-9.629541901,1.8217813704999999,-2.9505,1.3804,-1.3041,-2.4999999999941735e-05,0.00010000000000021103,0.00012000000000000899,0.0002949079726999315,-0.0010903088367433256,-0.001142182235932765
150000000000.0,-1,0.017092990949999998,0.16737990219999999,-0.03821651505,0.004965,0.009475,-0.011763,-0.3507838705,-9.629541901,1.8217813704999999,-2.9514,1.3805,-1.3031,-2.500000000016378e-05,9.999999999976694e-05,4.0000000000040004e-05,-0.0002483778993127572,-0.0004508158005545049,0.00013993823491276203
150000000000.0,-1,0.005099457999999999,0.15009077824999997,-0.0395992527,0.00365,0.01181,-0.005798,-0.35031315129999996,-9.6296399675,1.8214871709999998,-2.9516,1.3805,-1.3027,-2.500000000016378e-05,3.333333333355171e-05,-1.0000000000065512e-05,0.00046293217929349595,-0.0001331650170399712,-9.273410469656795e-05
150000000000.0,-1,-0.028252958649999996,0.1368027675,-0.016504591949999998,0.007519,0.005891,-0.006865,-0.3516762756499999,-9.629345768,1.822663969,-2.951,1.3804,-1.3032,-2.4999999999941735e-05,3.333333333310762e-05,9.00000000000345e-05,-0.0003052760145747513,-0.00011937383930926693,-0.00037077383291350685
150000000000.0,-1,-0.02893942415,0.13675373425,-0.0169262779,0.002549,0.008176,-0.009371,-0.35098981015,-9.629345768,1.823056235,-2.9514,1.3803,-1.3027,-4.999999999988347e-05,3.333333333355171e-05,2.0000000000020002e-05,0.0004908763765985036,-0.00018049817135357138,-0.00035464134514340273
150000000000.0,-1,-0.038736267500000005,0.12071005485,-0.02409493905,0.002461,0.010556,-0.004593,-0.35047005769999995,-9.629247701499999,1.8233504345,-2.9517,1.3803,-1.3023,-5.0000000000105516e-05,-0.00010000000000021103,-2.0000000000020002e-05,-0.0003134472027235269,-4.772745035763748e-05,0.0003842202235140313
150000000000.0,-1,-0.04862137069999999,0.12167110654999999,-0.02197670265,-0.004695,0.004287,-0.003398,-0.35016605155,-9.629345768,1.823056235,-2.9518,1.3804,-1.3021,-0.0011999999999998678,-0.0030000000000001137,-0.0008799999999999919,0.0001881340870046877,0.0036256968504040366,0.03502219205659296
150000000000.0,-1,-0.04862137069999999,0.12167110654999999,-0.02197670265,-0.004695,0.004287,-0.003398,-0.35016605155,-9.629345768,1.823056235,-2.9518,1.3804,-1.3021,-2.4999999999941735e-05,3.333333333355171e-05,-9.00000000000345e-05,-0.0005500697408031829,0.00038457118748369545,-3.136283134574924e-05
150000000000.0,-1,-0.00304986815,0.11423766584999999,-0.030734041099999998,-0.004607,0.001907,-0.008176,-0.34995030525,-9.629541901,1.8220755699999998,-2.9518,1.3805,-1.3021,-2.500000000016378e-05,3.333333333310762e-05,0.00014999999999998348,0.0006209039045674825,-0.0014953094474403628,0.0003162491059374162
150000000000.0,-1,0.013984282899999999,0.1042446895,-0.0205743517,0.000449,-0.002762,-0.005464,-0.34887157375,-9.629541901,1.8220755699999998,-2.9524,1.3805,-1.3015,-2.4999999999941735e-05,3.333333333355171e-05,-0.00012000000000000899,0.0003849983258366052,0.0008742327897670599,-0.00029223658811705633
150000000000.0,-1,0.020495898499999998,0.1100894529,-0.0255169033,0.003359,-0.01719,-0.004018,-0.34715541,-9.629541901,1.8223697694999998,-2.9534,1.3805,-1.3007,-2.4999999999941735e-05,-0.00010000000000021103,0.00014999999999998348,0.0008626943653369246,-0.0008186973890107474,2.0672524451814667e-05
150000000000.0,-1,0.0168085981,0.11047191225,-0.025791489499999997,0.00233,-0.023257,-0.005149,-0.3455667327,-9.6296399675,1.8221736364999999,-2.9542,1.3805,-1.3001,-1.999999999990898e-05,-2.4999999999941735e-05,-0.00016999999999989246,-0.0008533597587234709,0.0011920664774054401,0.00018305835518006575
150000000000.0,-1,0.037657536,0.1083634825,-0.04160961595,-0.000199,-0.020924,-0.004013,-0.34471355415,-9.6296399675,1.822467836,-2.9547,1.3805,-1.2999,-2.0000000000131024e-05,-2.4999999999941735e-05,-1.0000000000065512e-05,-2.026330036120072e-05,-8.965213327782884e-05,0.0003359731493262075
150000000000.0,-1,0.04700327345,0.12603506579999998,-0.08547476139999999,0.000962,-0.018428,-0.010048,-0.34343868964999996,-9.6296399675,1.8225659024999998,-2.9553,1.3805,-1.2994,-1.999999999990898e-05,-2.4999999999941735e-05,1.0000000000065512e-05,-0.00020943735922207551,7.352329217158449e-05,0.00024220397944985095
150000000000.0,-1,0.028566771449999997,0.136508568,-0.12129845384999999,0.001988,-0.01237,-0.007714,-0.34235995815,-9.6296399675,1.8228601019999997,-2.9559,1.3805,-1.2989,-2.0000000000131024e-05,-2.4999999999941735e-05,9.99999999995449e-06,-0.0006943727307611169,-0.00011431363259628569,0.0004871177518568359
150000000000.0,-1,-0.0051779112,0.15703388645,-0.0930651085,-0.000808,-0.001574,-0.007905,-0.3421344052,-9.630326432999999,1.8196239074999998,-2.9557,1.3809,-1.2992,-1.999999999990898e-05,0.0010333333333334416,9.999999999998899e-05,0.0006727753103130674,-0.0004045576620894664,-3.8999036091613704e-05
150000000000.0,-1,-0.0410310236,0.15291509344999998,-0.08213069375,0.004977,0.009516,-0.012796,-0.34353675614999996,-9.6306206325,1.817368378,-2.9548,1.3811,-1.3,0.0005999999999999339,0.0010333333333329975,-4.0000000000040004e-05,-0.0006503372735395807,0.00090670380644986,2.727018782033852e-05
150000000000.0,-1,-0.10609814635,0.1658892914,-0.0450321368,0.002283,0.016645,-0.006917,-0.3431150702,-9.6306206325,1.8176625774999997,-2.955,1.381,-1.2996,0.0005999999999999339,0.0010333333333334416,0.0009100000000000774,-0.0001525955438157478,-0.005276353270385004,-0.035861870163592435
150000000000.0,-1,-0.1064217658,0.16582064485,-0.045473436049999996,0.005692,0.025228,-0.009398,-0.34279145075,-9.630522566,1.8180548435,-2.9552,1.381,-1.2991,9.999999999998899e-05,0.00019999999999997797,0.00021999999999999797,0.0006005125225869712,-0.001720649420596132,-0.002262924019449386
150000000000.0,-1,-0.12163187995000001,0.1550431365,-0.046542360899999996,0.011778,0.026629,-0.010539,-0.34209517859999994,-9.630424499499998,1.8190355084999998,-2.9557,1.3809,-1.2984,-9.999999999998899e-05,-9.999999999976694e-05,-0.00017000000000000348,-0.0005269935897975753,0.0006239811829347186,0.0016741315255686118
150000000000.0,-1,-0.12991849919999998,0.09350640774999999,-0.00987529655,0.013194,0.020619,-0.009231,-0.35759949224999993,-9.6296399675,1.8202123064999998,-2.9476,1.3805,-1.3061,5.0000000000105516e-05,9.999999999976694e-05,0.00013999999999991797,0.00043026213312691297,-8.837827614183169e-07,-0.000752313874503141
150000000000.0,-1,-0.1096775736,0.08815197685,-0.011463973849999998,0.016942,0.018306,-0.007944,-0.36228707094999996,-9.6290515685,1.822271703,-2.9453,1.3802,-1.3081,4.999999999988347e-05,0.00010000000000021103,0.000160000000000049,0.0008470327645029307,-0.0012631133105716064,-0.0015908225603049608
150000000000.0,-1,-0.1102855859,0.08799507044999999,-0.012434832199999999,0.008718,0.007178,-0.007898,-0.361669252,-9.6288554355,1.823252368,-2.9458,1.3801,-1.3075,-0.0012999999999998568,-0.0032000000000000917,-0.0012199999999999989,-0.0002852475495356277,0.0068605869257547525,0.0380659004084869
150000000000.0,-1,-0.1102855859,0.08799507044999999,-0.012434832199999999,0.008718,0.007178,-0.007898,-0.361669252,-9.6288554355,1.823252368,-2.9458,1.3801,-1.3075,-9.999999999998899e-05,3.333333333310762e-05,0.000160000000000049,9.009917196589612e-05,-0.0008466376249811614,-0.00021335538025457623
150000000000.0,-1,-0.06414529765,0.11711101429999998,-0.0384028414,0.004013,0.000991,-0.007874,-0.3608258801,-9.6288554355,1.8237427004999998,-2.9463,1.3801,-1.307,-9.999999999998899e-05,3.333333333355171e-05,1.999999999990898e-05,-0.00017829689518822356,-0.00014794337172996386,-0.0003042460622779686
150000000000.0,-1,-0.011611073599999999,0.1126391819,-0.05831034089999999,-0.011721,-0.005556,-0.004384,-0.36009038135,-9.628953502,1.8229581684999998,-2.9466,1.3802,-1.3067,-3.333333333332966e-05,3.333333333310762e-05,-9.999999999998899e-05,-0.000990031409956238,0.0008631964027281391,-0.0004351957329662426
150000000000.0,-1,0.020466478549999997,0.11178600334999998,-0.05278919694999999,-0.02859,-0.014513,-0.001922,-0.3595510156,-9.6294438345,1.8204084394999998,-2.9466,1.3804,-1.3068,-3.333333333332966e-05,0.00020000000000042206,-2.999999999997449e-05,0.003692017056077246,-8.959514793938084e-05,-0.0018499066320920576
150000000000.0,-1,0.0599970847,0.12412276905,-0.0263210486,-0.045582,-0.019871,-0.000872,-0.35897242324999995,-9.630326432999999,1.8162896465,-2.9465,1.3809,-1.3072,-3.333333333332966e-05,-0.00010000000000021103,0.00014999999999998348,-0.00329044093698716,-0.0007993013270395366,0.0006938165877699021
150000000000.0,-1,0.0661164343,0.10907936794999999,0.0040011132,-0.037992,-0.02686,-0.005483,-0.35791330505,-9.631110965,1.8121708535,-2.9466,1.3813,-1.3073,-4.999999999988347e-05,0.00019999999999997797,-0.00043999999999999595,0.0017166871808396156,0.0028755227837988784,-0.0020391300605293594
150000000000.0,-1,0.0687250032,0.08390569739999999,0.0430315802,-0.027926,-0.035018,-0.005232,-0.3569228334,-9.631699364,1.809326925,-2.9468,1.3816,-1.3074,-5.0000000000105516e-05,3.333333333355171e-05,0.000160000000000049,-0.0028392174169020734,-0.001192596577858085,0.000605284343393464
150000000000.0,-1,0.04474774395,0.06514557594999999,0.06535151559999999,-0.009368,-0.04051,-0.003702,-0.3558441019,-9.631895497,1.8082481934999999,-2.9473,1.3817,-1.3074,-0.00010000000000021103,3.333333333310762e-05,0.00029000000000001247,0.000612105076308822,-0.0006175535845729385,-0.0005757731631312879
150000000000.0,-1,0.041844975549999996,0.085906254,0.06316463265,0.006667,-0.043652,-0.003441,-0.35473595044999995,-9.631895497,1.8086404595,-2.9479,1.3817,-1.3072,-9.999999999998899e-05,3.333333333355171e-05,-3.0000000000085514e-05,-0.0003492683718970824,0.0005214057222009405,-0.0004968872961264026
150000000000.0,-1,0.0441495383,0.21143137399999998,-0.00701175475,0.007965,-0.046048,-0.000985,-0.34970513899999994,-9.630718698999999,1.8160935134999998,-2.9514,1.3811,-1.3043,-1.4285714285744433e-05,9.999999999976694e-05,-0.00032999999999994145,-0.0003388429273147864,0.0018168001378782161,-0.0007568974911444926
150000000000.0,-1,0.0433846196,0.21128427425000001,-0.007904159899999999,0.006846,-0.049743,0.003864,-0.34895002694999994,-9.630522566,1.8170741785,-2.9519,1.381,-1.3043,-1.4285714285744433e-05,2.4999999999941735e-05,9.00000000000345e-05,0.00031425546634844537,-0.0007246576960993067,-0.0001448203167426776
150000000000.0,-1,0.0547603336,0.18786599404999998,-0.055093759699999995,0.003234,-0.052322,0.01107,-0.34565499255,-9.630718698999999,1.8164857795,-2.9536,1.3811,-1.3032,-1.4285714285744433e-05,2.5000000000385825e-05,7.999999999996898e-05,0.0005878234009508709,-0.0007641631380927993,-0.000217177617973352
150000000000.0,-1,0.0637824516,0.1622216043,-0.056486304,-0.001741,-0.050055,0.010971,-0.342252085,-9.631110965,1.8150147819999998,-2.9552,1.3813,-1.3021,-1.4285714285522388e-05,2.4999999999941735e-05,-0.000180000000000069,-0.0005228854653331894,0.0005097281197830039,-9.264380961049312e-06
150000000000.0,-1,0.02091758445,0.16195682474999998,-0.0281450855,-0.001927,-0.04399,0.007273,-0.34248744459999997,-9.6312090315,1.814818649,-2.9551,1.3813,-1.3028,-1.4285714285744433e-05,2.4999999999941735e-05,-7.999999999996898e-05,-0.0005240097579757297,0.0013242982728589592,-0.00021492510928622366
150000000000.0,-1,0.0362649917,0.1474331761,-0.037490822949999995,-0.000821,-0.040338,0.00844,-0.34242860469999997,-9.6312090315,1.8149167155,-2.9551,1.3813,-1.3032,-1.4285714285744433e-05,-0.00010000000000021103,4.0000000000040004e-05,-7.977503767286898e-05,-0.001205123587090462,0.0003186586471408681
150000000000.0,-1,0.0362649917,0.1474331761,-0.037490822949999995,-0.000821,-0.040338,0.00844,-0.34242860469999997,-9.6312090315,1.8149167155,-2.9551,1.3813,-1.3032,-1.4285714285744433e-05,0.00010000000000021103,9.00000000000345e-05,0.0013250781159224179,-0.0007694676927909594,-0.0002553674162855124
150000000000.0,-1,0.010061622899999999,0.11421805254999999,0.00556037055,-0.003408,-0.035529,0.001118,-0.34195788549999995,-9.6312090315,1.8149167155,-2.9554,1.3813,-1.3033,-3.333333333332966e-05,-0.00010000000000021103,-0.000140000000000029,-0.0009040335802867894,0.0008498818245974427,-0.0001756694050576435
150000000000.0,-1,-0.018044235999999998,0.09659550249999999,-0.008433719,-0.001191,-0.028208,0.001045,-0.34153619955,-9.6312090315,1.814818649,-2.9556,1.3814,-1.3034,-3.333333333332966e-05,-3.333333333310762e-05,9.99999999995449e-06,0.001020456699229566,-0.0006115661423335972,-0.00024160366481362772
150000000000.0,-1,-0.05488782005,0.1041270097,-0.02693886755,-0.000177,-0.020854,-0.00867,-0.34045746804999993,-9.6312090315,1.814818649,-2.9562,1.3814,-1.3031,-3.333333333332966e-05,-3.333333333355171e-05,-0.00012000000000000899,-0.000617745012201798,0.000765580338105476,1.1122860884338337e-05
150000000000.0,-1,-0.07604076409999999,0.1058529801,-0.027586106449999998,0.000868,-0.014735,-0.014758,-0.3386040112,-9.631307097999999,1.8147205825,-2.9571,1.3814,-1.3023,-9.999999999998899e-05,-3.333333333310762e-05,7.00000000000145e-05,0.0011930603608054646,-0.00013959544759845066,-0.00021284629602691396
150000000000.0,-1,-0.09946885094999999,0.1520619149,-0.0163182656,-0.005475,-0.007629,-0.014804,-0.33686823415,-9.631405164499999,1.8143283165,-2.958,1.3815,-1.3015,-5.0000000000105516e-05,-5.000000000032756e-05,-0.00010999999999994348,-0.0006466653787162713,0.00023781277627943354,8.378384484242218e-05
150000000000.0,-1,-0.09470281905,0.15997588145,-0.057545422199999995,-0.003142,-0.003932,-0.014825,-0.33521091029999994,-9.6316012975,1.814034117,-2.9589,1.3816,-1.3006,-4.999999999988347e-05,-4.999999999988347e-05,9.99999999995449e-06,0.0001056929233129722,-0.00036307545768976546,0.00020603424847820406
150000000000.0,-1,-0.0731772223,0.1442950481,-0.08089505585,-0.004382,-0.004021,-0.007621,-0.3479007154,-9.632483896,1.8066791295,-2.9514,1.3821,-1.308,-0.00019999999999997797,-9.999999999976694e-05,0.00012999999999996348,-0.00046174792191200353,-0.00021004708618654888,0.00041276581426119563
150000000000.0,-1,-0.03882452735,0.10416623629999999,-0.09599729685,-0.007994,-0.0066,-0.000415,-0.35067599735,-9.633562627499998,1.800697073,-2.9493,1.3826,-1.3102,-9.999999999998899e-05,-0.00020000000000042206,-0.00014999999999998348,-0.0021386145252666466,5.087715601592713e-05,0.0005751695122011569
150000000000.0,-1,-0.0389520138,0.1042643028,-0.09545793109999999,-0.003058,-0.007659,-0.000333,-0.35055831755,-9.633660694,1.8001086739999999,-2.9493,1.3827,-1.3102,-9.999999999998899e-05,-4.999999999988347e-05,4.0000000000040004e-05,0.0009175269334027458,-0.001196000173892653,-0.000250771672335226
150000000000.0,-1,0.014621715149999999,0.10453888899999998,-0.1235441767,-0.007804,-0.012647,0.000876,-0.35055831755,-9.6337587605,1.799520275,-2.9492,1.3827,-1.3104,-9.999999999998899e-05,-4.999999999988347e-05,-4.0000000000040004e-05,-6.083288006064613e-05,-0.00016952639568379446,-7.604311415887466e-05
150000000000.0,-1,0.0284000584,0.1255447333,-0.1519442351,-0.008092,-0.002915,-0.00889,-0.3496659124,-9.633954893499999,1.79853961,-2.9496,1.3829,-1.3101,-9.999999999998899e-05,-4.999999999988347e-05,4.0000000000040004e-05,0.0002705509458844624,0.0001519040957886908,-0.00020330266765133942
150000000000.0,-1,0.07219655729999999,0.10413681635,-0.1509047302,-0.007088,0.004404,-0.013793,-0.3434877229,-9.63601429,1.7885368269999997,-2.9519,1.384,-1.3078,-0.00019999999999997797,-5.000000000032756e-05,5.999999999994898e-05,0.0009329272618419093,-0.0005621321871238649,-0.00010334998533334527
150000000000.0,-1,0.05239693095,0.0883579165,-0.1209748344,0.001405,0.007079,-0.013717,-0.33910415034999997,-9.637485287499999,1.781672172,-2.9535,1.3848,-1.3061,-9.999999999998899e-05,-9.999999999976694e-05,-9.999999999998899e-05,-0.00038239374210546906,-0.0005760996439707622,-9.626239965321304e-05
150000000000.0,-1,0.00709020795,0.1128353149,-0.12702553744999998,0.008915,0.002496,-0.017161,-0.33733895334999997,-9.638564018999999,1.7758862485,-2.9539,1.3854,-1.3056,-0.00019999999999997797,-5.000000000032756e-05,-9.999999999998899e-05,0.0011915974336429436,-5.830892583347236e-05,-0.0007281206994993461
150000000000.0,-1,-0.00118660465,0.14404007519999998,-0.11174677675,0.013732,0.005051,-0.015929,-0.33610331544999994,-9.6392504845,1.772453921,-2.9542,1.3858,-1.3052,-0.00029999999999996696,-4.999999999988347e-05,-9.99999999995449e-06,-0.0007800368128398905,-0.00045013098827362263,-0.00045930035671526426
150000000000.0,-1,-0.00118660465,0.14404007519999998,-0.11174677675,0.013732,0.005051,-0.015929,-0.33610331544999994,-9.6392504845,1.772453921,-2.9542,1.3858,-1.3052,-0.000300000000000189,-9.999999999976694e-05,7.999999999996898e-05,-0.00021807012103880474,-0.0005798270462973321,-0.0008615771152595819
150000000000.0,-1,-0.004314926,0.1610644196,-0.07489338605,0.021195,0.00165,-0.01578,-0.33475980439999997,-9.638956284999999,1.7745133174999999,-2.9551,1.3856,-1.3043,-0.00039999999999995595,-4.999999999988347e-05,-0.00017999999999995797,0.00013091688392607992,0.0010670495193487728,-0.0015716030801429248
150000000000.0,-1,0.012434832199999999,0.1784025768,-0.055701772,0.01026,-0.001072,-0.019499,-0.33280828105,-9.638760152,1.7757881819999999,-2.9563,1.3855,-1.303,-0.0004999999999999449,-5.000000000032756e-05,0.00019999999999997797,-6.516433468206628e-05,-0.001418811098010675,-0.000100183369218243
150000000000.0,-1,0.027674366299999996,0.1628884565,-0.02670350795,0.009421,-0.013187,-0.019339,-0.33069004465,-9.6386620855,1.7766707805,-2.9576,1.3855,-1.3019,-0.0004999999999999449,-0.00019999999999997797,-9.00000000000345e-05,-0.002906515691154965,0.0011694948450706733,-0.0010310060968956591
150000000000.0,-1,0.08515114195,0.11902331105,-0.0325973046,0.013605,-0.02875,-0.022672,-0.32801282919999997,-9.638564018999999,1.778141778,-2.9592,1.3854,-1.3005,-0.00039999999999995595,-9.999999999976694e-05,0.00024999999999997247,-0.001156159709892357,-0.0028368025295952837,-0.00016150853780061425
150000000000.0,-1,0.1484334544,0.08392531069999999,-0.021045070899999997,0.020192,-0.043058,-0.022383,-0.315577997,-9.638564018999999,1.7800050415,-2.9661,1.3854,-1.294,-0.000400000000000178,-0.00010000000000021103,-0.00013999999999991797,0.002062483994806019,7.191751949320313e-05,-0.0025950536811083502
150000000000.0,-1,0.16172146514999997,0.07365774815,-0.05167123885,0.012446,-0.068655,-0.022,-0.30253515249999996,-9.639054351499999,1.779514709,-2.9732,1.3857,-1.2877,-0.00039999999999995595,-0.00019999999999997797,-4.0000000000040004e-05,-0.0006393381355938033,-0.0013997144479520607,-0.0007499690902053047
150000000000.0,-1,0.20828343935,0.0927905223,-0.0783159069,0.008464,-0.097824,-0.01683,-0.29896553189999997,-9.638956284999999,1.781083773,-2.9753,1.3856,-1.2866,-0.00029999999999996696,-9.999999999976694e-05,-0.00036000000000002697,-0.0002056468392057642,0.0009402230327464345,-0.0016526206648559416
150000000000.0,-1,0.25906227304999996,0.10774566355,-0.12746683669999997,0.003026,-0.11978,-0.01178,-0.29542533125,-9.6388582185,1.781672172,-2.9773,1.3856,-1.2858,-0.0005999999999999339,-0.00019999999999997797,-0.00013999999999991797,-0.0009373895353006478,0.0011607074550852303,-0.0019293844895553747
150000000000.0,-1,0.27908745235,0.09717409484999999,-0.17381306459999998,-0.000157,-0.13563,-0.006787,-0.2919635838,-9.638956284999999,1.7819663715,-2.9792,1.3856,-1.2853,-0.000500000000000167,-0.00010000000000021103,7.999999999996898e-05,0.002466261410750681,-8.071181859992116e-05,-0.001732188631867082
150000000000.0,-1,0.29807312675,0.07563869145,-0.25824832109999996,0.009704,-0.13779,-0.000608,-0.289100042,-9.6388582185,1.7832412359999998,-2.9809,1.3855,-1.2851,-0.0007999999999999119,-0.00019999999999997797,-4.0000000000040004e-05,-0.0011119940202919398,0.000541236113332344,-0.002760802867501244
150000000000.0,-1,0.27762626149999997,0.07117666569999999,-0.2586798137,0.027991,-0.13483,0.0008,-0.2864522465,-9.638367886,1.7858890314999998,-2.9825,1.3853,-1.2848,-0.00039999999999995595,-9.999999999976694e-05,-7.00000000000145e-05,0.0018561382149588912,-0.0001330931390406409,-0.0012000787814456793
150000000000.0,-1,0.24937330284999998,0.0750404858,-0.2344181616,0.042732,-0.13557,-0.0026,-0.28378483769999996,-9.6376814205,1.7904981569999998,-2.9844,1.3849,-1.2844,-0.0005999999999999339,-0.00020000000000042206,-0.00020999999999993246,-0.0006582012404041659,0.001459176320885991,-0.001891207132008077
150000000000.0,-1,0.09017214675,0.1400193487,-0.19408341015,0.046282,-0.13186,0.001003,-0.274978466,-9.639054351499999,1.784418034,-2.9887,1.3856,-1.2816,-0.000600000000000156,-0.0002999999999997449,7.00000000000145e-05,-0.0027039954769674246,-5.5983778251667005e-05,-0.00039891797403113216
150000000000.0,-1,0.02782146605,0.15668084705000002,-0.175931301,0.048797,-0.13424,0.005883,-0.2714284587,-9.6398388835,1.7805934405,-2.9903,1.3861,-1.2814,-0.0006999999999999229,-0.00039999999999995595,0.00015999999999993797,-0.001947102621338015,-0.0017716437053405532,-3.331894005187408e-05
150000000000.0,-1,0.01775984315,0.14484422049999998,-0.19582899385,0.048785,-0.13427,0.010695,-0.26870221,-9.640721481999998,1.7762785145,-2.9915,1.3866,-1.2817,-0.0006999999999999229,-0.00039999999999995595,7.999999999996898e-05,-0.0028808602338212808,-0.0011269694374049788,-0.00033507717726610764
150000000000.0,-1,0.01775984315,0.14484422049999998,-0.19582899385,0.048785,-0.13427,0.010695,-0.26870221,-9.640721481999998,1.7762785145,-2.9915,1.3866,-1.2817,-0.000400000000000178,-0.00039999999999995595,-0.00010999999999994348,0.0005950433702235358,-0.0012997130542107271,-0.0013301578747997311
150000000000.0,-1,0.02982202265,0.09713486825,-0.2073321943,0.035602,-0.14441,0.020286,-0.2664074539,-9.64189828,1.7700022585,-2.9922,1.3872,-1.2824,-0.0006999999999999229,-0.000300000000000189,-0.00021999999999999797,7.278289135648208e-05,0.0015932910513061227,-0.0029970989634877654
150000000000.0,-1,0.03329357675,0.11407095279999999,-0.2205319452,0.031009,-0.15423,0.021565,-0.26403424459999997,-9.643271211,1.7628434039999998,-2.9929,1.388,-1.2834,-0.0005999999999999339,-0.00019999999999997797,-0.00017000000000000348,-0.0006695345618059623,0.001376080483562525,-0.0021643827591617537
150000000000.0,-1,0.0717062248,0.15345445919999998,-0.18123669865,0.034713,-0.15535,0.02524,-0.26369101185,-9.642584745499999,1.7667660639999998,-2.9934,1.3876,-1.2845,-0.000600000000000156,-0.000500000000000167,-0.00014999999999998348,-0.0007717622806457936,-0.0007442801148163092,-0.0011987948745657562
150000000000.0,-1,0.046767913849999995,0.13016366545,-0.14250043115,0.044628,-0.15867,0.024218,-0.26344584559999995,-9.641702147,1.771473256,-2.994,1.3871,-1.2857,0.000400000000000178,0.0026000000000001577,0.0009399999999999409,0.0007380419446376685,-0.004415714648004387,-0.036248083000011366
150000000000.0,-1,0.037706569249999995,0.11673836159999999,-0.14492267369999998,0.054154,-0.14992,0.024222,-0.2627593801,-9.640721481999998,1.7770630465,-2.9948,1.3866,-1.2865,-0.000500000000000167,-0.000300000000000189,-0.00019000000000002348,0.00025704016479854985,-0.0014974769820339517,-0.0028949092322263503
150000000000.0,-1,-0.006766588499999999,0.07413827399999999,-0.14901204675,0.066512,-0.15318,0.025638,-0.2625828604,-9.639446617499999,1.7841238345,-2.9955,1.3859,-1.2875,-0.0007999999999999119,-0.00039999999999995595,-0.00011999999999989797,-0.0012739347694723513,0.0016161326183066205,-0.0024752605515661052
150000000000.0,-1,-0.029272850249999996,0.056986443149999996,-0.17093971614999998,0.07268,-0.15418,0.03066,-0.26281822,-9.637975619999999,1.7917730215,-2.996,1.3851,-1.2886,-0.0005999999999999339,-0.0002999999999997449,0.00010999999999994348,-0.0040937062544781355,-0.0017590495208952284,-0.003675179711660981
150000000000.0,-1,-0.0494059027,0.10462714884999999,-0.1509635701,0.081615,-0.16473,0.02371,-0.26243576064999996,-9.636406555999999,1.8004028735,-2.9968,1.3842,-1.2895,-0.000400000000000178,-0.0013000000000000789,0.0006500000000000394,0.0499316468923352,-0.004690952374879487,0.037655546115596294
150000000000.0,-1,-0.09458513925,0.1411569201,-0.16268251685,0.079158,-0.16484,0.027288,-0.2621513678,-9.6347394255,1.809130792,-2.9977,1.3833,-1.2904,-0.0005999999999999339,-0.000500000000000167,-0.00036999999999998145,-0.0015982838340242722,-0.0009879746846244153,-0.0012959320607404123
150000000000.0,-1,-0.08566108774999999,0.18410024045,-0.18966061099999998,0.094036,-0.16913,0.014315,-0.26060191709999997,-9.6329742285,1.818937442,-2.9993,1.3823,-1.2906,-0.0008999999999999009,-0.0005999999999999339,-0.00021999999999999797,-0.0023774821986495276,0.001393928409442191,-0.0027273449321980614
150000000000.0,-1,-0.06450814369999999,0.15673968694999998,-0.20991134325,0.10871,-0.16741,0.006066,-0.25811102799999996,-9.630914831999998,1.8302150894999998,-3.0015,1.3812,-1.2902,-0.0008000000000001339,-0.0004999999999997229,8.999999999992347e-05,-0.0016195390812385746,-0.001231048468358642,-0.0014138634706735154
150000000000.0,-1,-0.012474058799999998,0.20147762425,-0.19749612435,0.11097,-0.16127,0.0024,-0.2612099294,-9.6331703615,1.8179567769999998,-2.9989,1.3824,-1.2945,-0.0009999999999998899,-0.00040000000000040004,-4.999999999999449e-05,0.00045007432245691703,-0.0008592392788799863,-0.0018953704025617135
150000000000.0,-1,-0.0059624432,0.20844034574999998,-0.17425436384999998,0.10224,-0.15674,0.007031,-0.25949376565,-9.632778095499999,1.8201142399999997,-3.0,1.3822,-1.295,-0.0009000000000001229,-0.0005999999999999339,-0.00025999999999992696,-0.004715781221934279,0.0005848518498838828,-0.0023233112426002123
150000000000.0,-1,-0.008521978849999999,0.20649862905,-0.18487496579999999,0.095272,-0.16904,0.008314,-0.25693423,-9.630816765499999,1.830705422,-3.0022,1.3811,-1.2946,-0.0009999999999998899,-0.0005999999999999339,-0.00021000000000004349,-0.0012960073293484253,0.001287994606390841,-0.0029936946116784213
150000000000.0,-1,-0.008521978849999999,0.20649862905,-0.18487496579999999,0.095272,-0.16904,0.008314,-0.25693423,-9.630816765499999,1.830705422,-3.0022,1.3811,-1.2946,-0.0028000000000001357,-0.0028999999999999027,-0.0014699999999999713,-0.051025112059232436,0.0047694999948346695,-0.0004950442190816418
150000000000.0,-1,0.02103526425,0.16258445035,-0.13267416785,0.084586,-0.18029,0.014344,-0.25476696034999996,-9.629149635,1.8400217394999998,-3.004,1.3802,-1.2946,-0.0008999999999999009,-0.000500000000000167,-0.000140000000000029,-0.0017387097950480879,-6.767759664350059e-05,-0.0023722507896737355
150000000000.0,-1,0.0315577997,0.14580527219999997,-0.10298943829999999,0.087367,-0.19114,0.021754,-0.25316847639999995,-9.627286371499999,1.849730323,-3.0056,1.3793,-1.2951,-0.0013000000000000789,-0.0004999999999997229,-0.00017000000000000348,-0.0009754327607718327,0.0016362476427111972,-0.003815064581269567
150000000000.0,-1,0.0830230989,0.061144462749999996,-0.09927271794999999,0.096491,-0.20908,0.03416,-0.2464215012,-9.626599906,1.8543394485,-3.0095,1.3789,-1.2934,-0.0008999999999999009,-0.000500000000000167,-0.00034000000000000696,0.0015274471846751236,0.001135256649102745,-0.004283593297869981
150000000000.0,-1,0.1464132845,0.051122066449999996,-0.09868431895,0.10692,-0.22941,0.046618,-0.23680117754999996,-9.6257173075,1.8602234384999998,-3.015,1.3784,-1.2904,-0.0012000000000000899,-0.000300000000000189,-0.00036000000000002697,0.0009561348885733789,0.0034820151207455297,-0.004761850358036224
150000000000.0,-1,0.14697226354999998,0.06904862265,-0.14138247304999998,0.11965,-0.24477,0.051818,-0.2279261593,-9.6249327755,1.8653228964999997,-3.02,1.378,-1.2881,-0.0008999999999999009,-0.0006999999999997009,-0.00019000000000002348,0.0003341298083425759,-0.003101015329240786,-0.002398066378453745
150000000000.0,-1,0.1477077623,0.09819398644999999,-0.12541724685,0.12509,-0.26154,0.053331,-0.22821055215,-9.62228498,1.878561874,-3.0207,1.3766,-1.2902,-0.0004999999999999449,0.0020999999999999908,0.0013100000000000334,-0.004707087982227076,-0.004100692971249265,-0.03604856428349601
150000000000.0,-1,0.2223559821,0.09159411099999999,-0.19146503459999997,0.12934,-0.27957,0.056049,-0.228494945,-9.619637184499998,1.8923892505,-3.0214,1.3752,-1.2924,-0.0009000000000001229,-0.00039999999999995595,0.00021999999999999797,-0.001701088957209107,-0.004771482456115139,-0.005310486618052224
150000000000.0,-1,0.26296531975,0.10154786075,-0.21930611395,0.1299,-0.29774,0.064736,-0.22899508415,-9.616891322499999,1.9063146935,-3.022,1.3737,-1.295,-0.0009999999999998899,-0.0016000000000002679,0.0003500000000000725,0.046426483062456114,-0.0007182560320020404,0.03552267550647947
150000000000.0,-1,0.25353132245,0.07818842044999999,-0.2689571829,0.13371,-0.3012,0.063713,-0.2294363834,-9.6139493275,1.9206324025,-3.0227,1.3722,-1.2976,-0.0029000000000001247,-0.0028999999999999027,-0.0022300000000000653,-0.049919528901277044,0.009276911528745435,-0.003178162020636144
150000000000.0,-1,0.1981139433,0.08919148175,-0.28948250135,0.12988,-0.29646,0.061187,-0.21666812509999997,-9.614831925999999,1.917984607,-3.0291,1.3727,-1.2946,-0.0012999999999998568,-0.0009999999999998899,-7.999999999996898e-05,-0.005322756984450061,-0.0032881911627158367,0.0002483492645111163
150000000000.0,-1,0.11381597989999999,0.0774529217,-0.25235452444999995,0.12589,-0.28561,0.047744,-0.2091366179,-9.615028059,1.9176904074999999,-3.033,1.3728,-1.2939,0.0005999999999999339,0.0017999999999998018,0.0014899999999999913,0.05430821980606959,-0.007309452776854242,-0.00515832381393766
150000000000.0,-1,0.08783816404999999,0.0843764166,-0.17489179609999997,0.12545,-0.27103,0.036704,-0.2023111895,-9.614243527,1.922691799,-3.0368,1.3724,-1.2931,-0.0014000000000000679,-0.0009999999999998899,-0.00021999999999999797,-0.003490523778277632,-0.002507114364290741,-0.0013231816802647955
150000000000.0,-1,0.0854943747,0.08178746099999999,-0.1880719337,0.12152,-0.26263,0.02811,-0.19996740014999997,-9.6115957315,1.93583271,-3.0387,1.371,-1.294,-0.0015000000000000568,-0.0009000000000001229,-0.00021999999999999797,-0.005270389917222618,0.002480836531415065,-0.0020129030239406376
150000000000.0,-1,0.045728408949999994,0.15084589029999998,-0.17615685395,0.12487,-0.25161,0.021984,-0.19716269825,-9.608947936,1.9490716875,-3.0408,1.3697,-1.2946,-0.0014999999999998348,-0.0007999999999999119,-0.0005500000000000504,-0.0018652141240789177,0.0014127316643808285,-0.0033629413365821037
150000000000.0,-1,0.01870128155,0.14289269715,-0.18332551509999997,0.12983,-0.25392,0.028099,-0.1945247094,-9.6063001405,1.962702931,-3.0428,1.3683,-1.2953,-0.0032000000000000917,-0.0032000000000000917,-0.0016800000000000148,-0.05024174062275266,0.006675190067498615,-0.0011416744853272043
150000000000.0,-1,0.01870128155,0.14289269715,-0.18332551509999997,0.12983,-0.25392,0.028099,-0.1945247094,-9.6063001405,1.962702931,-3.0428,1.3683,-1.2953,-0.0015000000000000568,-0.0008999999999996788,-0.0007299999999998974,-0.0011278254275848276,0.0030403936612533045,-0.004218406386591322
150000000000.0,-1,0.0048837117,0.12504459415,-0.18751295464999998,0.14324,-0.25236,0.03668,-0.19267125255,-9.603260079,1.9776090389999998,-3.0445,1.3668,-1.2964,-0.0017999999999998018,-0.001000000000000334,8.999999999992347e-05,-0.004075542810170418,-1.0723902809983699e-05,-0.0014870271120797085
150000000000.0,-1,0.03592175895,0.11886640465,-0.20331146779999998,0.1565,-0.24598,0.04519,-0.19169058754999999,-9.599925817999999,1.993888078,-3.0457,1.3651,-1.2978,-0.0018000000000000238,-0.0011999999999998678,1.0000000000065512e-05,-0.004662380956330203,-0.0010918839986784334,-0.0014957459310425136
150000000000.0,-1,0.0224964551,0.09925310464999999,-0.22752408664999998,0.16515,-0.24945,0.059793,-0.19233782644999997,-9.5962973575,2.0110497155,-3.0462,1.3633,-1.2999,-0.0016000000000000458,-0.0009000000000001229,-0.0007000000000000339,-0.002555329709070797,0.0023807649229059535,-0.00333256625643763
150000000000.0,-1,0.01093441475,0.09895890514999998,-0.26404405124999997,0.18239,-0.25262,0.069695,-0.19394611704999998,-9.592276630999999,2.0300746165,-3.0463,1.3613,-1.3026,-0.0017000000000000348,-0.0011999999999998678,0.00017999999999995797,-0.00148197050374832,-0.002143786354292132,-0.0017103841688941301
150000000000.0,-1,0.032685564449999996,0.15446454415,-0.28614824034999997,0.19463,-0.25361,0.090328,-0.19698617855,-9.587863638499998,2.0502763155,-3.0458,1.3592,-1.3059,-0.0017000000000000348,-0.001100000000000101,-0.00036999999999998145,-0.0011872496715321645,0.0009172183968833014,-0.002789477733649015
150000000000.0,-1,0.0405014645,0.14580527219999997,-0.33398507904999997,0.2033,-0.25702,0.096508,-0.20120303805,-9.5833525795,2.0712625465,-3.0448,1.357,-1.3098,-0.00039999999999995595,0.002200000000000202,0.0014300000000000423,0.0033683151879790874,-0.006005036322517476,-0.042134133139045904
150000000000.0,-1,0.08994659379999999,0.109638347,-0.36136524584999996,0.20352,-0.26433,0.10504,-0.20592003669999998,-9.578547321,2.0926410435,-3.0435,1.3547,-1.3139,-0.0033000000000000806,-0.0045999999999999375,-0.0016100000000000003,-0.008870323744399222,0.005523559060513383,0.0389393705214891
150000000000.0,-1,0.1301930854,0.03319551025,-0.34116354685,0.20466,-0.2619,0.10862,-0.19962416739999997,-9.580214451499998,2.085678322,-3.0462,1.3555,-1.3143,-0.0015999999999998238,-0.001100000000000101,-0.0006000000000000449,0.0012811409035944354,0.003036614149747985,-0.0034064879559543293
150000000000.0,-1,0.11884679135,0.02099603765,-0.34692005039999996,0.20096,-0.26206,0.1158,-0.1959172537,-9.581489315999999,2.080186598,-3.0477,1.3561,-1.3158,-0.0019000000000000128,-0.0013999999999998458,-0.00012000000000000899,-0.004690998925736878,-0.0014721876855392502,-1.996189682529348e-05
150000000000.0,-1,0.03923640665,0.06067374354999999,-0.35585390855,0.20069,-0.25357,0.11558,-0.1993495812,-9.582273848,2.076263938,-3.0459,1.3565,-1.3205,-0.000400000000000178,0.0019000000000000128,0.0011900000000000244,-0.0003287416513026997,-0.005405603214935661,-0.04088982154834664
150000000000.0,-1,0.01415099595,0.08193456075,-0.2975533743,0.19778,-0.23913,0.11293,-0.20523357119999996,-9.581685449,2.078421401,-3.0432,1.3562,-1.3258,-0.0016999999999998128,-0.0015000000000000568,-0.0006199999999999539,0.0001341009385045222,0.0008068878308533645,-0.00036401115477646684
150000000000.0,-1,-0.03576485255,0.13496892394999999,-0.2696044218,0.19844,-0.22093,0.10546,-0.21398110299999998,-9.580214451499998,2.084109258,-3.0393,1.3555,-1.3322,-0.0019000000000000128,-0.001200000000000312,-0.0008249999999999647,-0.002146677395581831,-0.0004458739582495763,-0.0037038077536961644
150000000000.0,-1,-0.0714120253,0.14054890779999998,-0.240655191,0.19663,-0.20154,0.09193,-0.22442518524999996,-9.578155055,2.0924449105,-3.0347,1.3545,-1.339,-0.0039000000000000146,-0.004999999999999893,-0.0008250000000000757,-0.009053139097683571,0.009978529199926367,0.03943163251337323
150000000000.0,-1,-0.06706767934999999,0.16701705615,-0.25245259094999994,0.20537,-0.16869,0.098802,-0.23040724174999996,-9.5733497965,2.1136272744999998,-3.033,1.3523,-1.3427,-0.0016000000000000458,-0.0013999999999998458,-0.0009299999999999864,-0.0015420703757795806,0.0016968537609591827,-0.0020676659458516156
150000000000.0,-1,-0.09957672409999999,0.17642163349999998,-0.272232604,0.22279,-0.13918,0.10343,-0.24443075124999997,-9.570800067499999,2.123728124,-3.027,1.351,-1.3503,-0.0020999999999999908,-0.0017000000000000348,-0.0001100000000000545,-0.005147460812404248,-0.00044638818577258377,-0.0004742158540533836
150000000000.0,-1,-0.09957672409999999,0.17642163349999998,-0.272232604,0.22279,-0.13918,0.10343,-0.24443075124999997,-9.570800067499999,2.123728124,-3.027,1.351,-1.3503,-0.0019000000000000128,-0.0013000000000000789,-0.00029999999999996696,0.002912513508336545,0.0027268266011937214,-0.003589718079981985
150000000000.0,-1,-0.11639512884999999,0.17831431695,-0.26482858324999997,0.24052,-0.11806,0.098562,-0.25949376565,-9.5674658065,2.1369671015,-3.0208,1.3495,-1.3578,-0.0023999999999999577,-0.0019000000000000128,0.00017999999999995797,-0.009828666845066003,-0.0024934261001217095,0.002563798980957266
150000000000.0,-1,-0.1275845165,0.134351105,-0.26994765454999997,0.25897,-0.12124,0.11329,-0.2758414512,-9.563641212999999,2.1520693425,-3.0141,1.3477,-1.3657,-9.999999999998899e-05,0.0018000000000002458,0.0006400000000000849,0.005085262971854743,-0.004274216266761499,-0.042276296812505
150000000000.0,-1,-0.13302720725,0.10581375349999998,-0.25819928785,0.2596,-0.14319,0.14249,-0.29464079925,-9.559326287,2.168642581,-3.0066,1.3457,-1.3747,-0.0020999999999999908,-0.0017000000000000348,-0.000200000000000089,-0.0009708875404741413,-0.0003700848761696296,-0.0019786880193870537
150000000000.0,-1,-0.09095667874999999,0.07465802645,-0.30368253055,0.25511,-0.15666,0.14863,-0.31156707715,-9.55559976,2.1828622235,-2.9998,1.344,-1.3832,-0.0038000000000000256,-0.0050000000000003375,-0.0016699999999999493,-0.009583353815860729,0.007160584436584294,0.039205667044719394
150000000000.0,-1,-0.08466080945,0.087475318,-0.3213246939,0.24019,-0.14984,0.14593,-0.3281893489,-9.552069366,2.195708935,-2.9932,1.3424,-1.3914,-0.0020000000000000018,-0.0015999999999998238,-0.0007500000000000284,-0.0031583071304093213,0.0035895832300403274,-0.003106835819923326
150000000000.0,-1,-0.031194953649999996,0.08888747559999999,-0.36326773594999995,0.23358,-0.13427,0.1384,-0.33916299024999996,-9.545989243,2.22022556,-2.99,1.3397,-1.3963,-0.0021999999999999797,-0.0017000000000000348,7.00000000000145e-05,-0.0025809172213746567,-0.0010912247857195467,-0.0018332656672046532
150000000000.0,-1,0.041619422600000004,0.0995963374,-0.3482929814,0.23432,-0.11847,0.12856,-0.34957765254999995,-9.539909119999999,2.244546052,-2.9871,1.337,-1.4006,-0.0016000000000000458,-0.0015999999999998238,-0.0010000000000000009,-0.0014825520828827266,0.002126332691001709,-0.004025010806514295
150000000000.0,-1,0.0441103117,0.1737346114,-0.168282114,0.24523,-0.1145,0.12745,-0.3581976979,-9.534907728499999,2.2644535515,-2.9847,1.3348,-1.4044,-0.0020000000000000018,-0.0017000000000000348,-0.00017999999999995797,-0.0008497826986131329,0.000141126668952829,-0.002538318569479614
150000000000.0,-1,-0.00846313895,0.22259134169999997,-0.03966789925,0.25556,-0.13112,0.12903,-0.36936747224999994,-9.527945007,2.2917160385,-2.9818,1.3318,-1.4087,-0.0017000000000000348,-0.0018000000000002458,-0.0008700000000000374,-0.0046045191881711744,0.001954688637131552,-0.0023935341908760677
150000000000.0,-1,-0.048042778349999996,0.2074302608,-0.07199061765,0.24292,-0.15819,0.14127,-0.38246915665,-9.5213745515,2.3170171955,-2.978,1.329,-1.4142,-0.0018000000000000238,-0.0017999999999998018,-0.0005499999999999394,-0.003615334982117302,0.0023499997010170137,-0.00336097628440557
150000000000.0,-1,-0.06727361899999999,0.14949257259999998,-0.1287809278,0.21226,-0.19797,0.16548,-0.39406061695,-9.515196362,2.3402589559999996,-2.9748,1.3264,-1.4196,-0.0017000000000000348,-0.0018000000000002458,9.99999999995449e-06,-0.00036761543890651005,-0.0014682261044578482,-0.002136497636154644
150000000000.0,-1,-0.08503346214999999,0.1201314625,-0.14720762315,0.19255,-0.23367,0.17174,-0.40577956369999996,-9.5094104385,2.3614413199999995,-2.9714,1.324,-1.4256,-0.0016000000000000458,-0.0019000000000000128,-0.0008799999999999919,-0.005538256399133745,0.005015788890214923,-0.0024553815147410063
150000000000.0,-1,-0.0808852492,0.16444771384999998,-0.13108549055,0.18127,-0.26423,0.17081,-0.41665513854999997,-9.504114847499999,2.3810546199999996,-2.9684,1.3217,-1.4315,-0.0012999999999998568,-0.0019999999999997797,-4.0000000000040004e-05,0.0002331776058548396,-0.0007166269818288384,-0.0023329095949180534
150000000000.0,-1,-0.1117565834,0.27362514829999995,-0.09979247039999999,0.20372,-0.27558,0.16285,-0.4264912085,-9.498328923999999,2.4021389175,-2.9659,1.3194,-1.4371,-0.001100000000000101,-0.002200000000000202,-0.0009899999999999354,-0.004673491244318928,0.00010062052775228203,-8.34717078048719e-05
150000000000.0,-1,-0.1117565834,0.27362514829999995,-0.09979247039999999,0.20372,-0.27558,0.16285,-0.4264912085,-9.498328923999999,2.4021389175,-2.9659,1.3194,-1.4371,-0.0010999999999998789,-0.0023999999999997357,-0.00034000000000000696,-0.005466245595246333,-0.0029124254882959555,0.0010122062122395192
150000000000.0,-1,-0.23968433265,0.46125578274999995,0.00257914895,0.23555,-0.27463,0.16568,-0.4360821122,-9.4917584685,2.426361343,-2.9638,1.3167,-1.4423,-0.0013000000000000789,-0.0020999999999999908,-0.00043000000000004146,-0.003592110600966203,0.002736789331369671,-0.0018546181846152976
150000000000.0,-1,-0.35020527814999997,0.49477491244999994,0.16067215359999998,0.27202,-0.26505,0.16363,-0.44585934224999996,-9.4841092815,2.4542122289999995,-2.9619,1.3136,-1.4472,-0.0010999999999998789,-0.0022999999999999687,-0.00046000000000001595,-0.0032417915751858928,0.0008761458019432844,-0.0012960858427453203
150000000000.0,-1,-0.46812043774999995,0.46673770009999993,0.14197087205,0.29634,-0.21948,0.14887,-0.45529333955,-9.4756755625,2.4849070435,-2.9604,1.3102,-1.4513,-0.001000000000000112,-0.002200000000000202,-0.00036000000000002697,-0.0010637247082545542,-0.0011182040954598182,-0.0019839135482291326
150000000000.0,-1,-0.5919097807,0.46382512504999995,0.2029388151,0.31154,-0.15596,0.12171,-0.4639329982,-9.466751511,2.516974789,-2.9593,1.3068,-1.4543,-0.0009999999999998899,-0.0021999999999997577,-0.0004899999999999904,-0.0008402606466977325,-0.0008055557078554543,-0.002174208367220931
150000000000.0,-1,-0.68214076735,0.46879709659999996,0.25564955884999996,0.32505,-0.11535,0.078008,-0.46962085519999996,-9.45753326,2.5505135319999996,-2.9595,1.3032,-1.4555,-0.001100000000000101,-0.002200000000000202,-0.0005999999999999339,-0.003115418870396347,0.0041393831656661995,-0.0026564881998849543
150000000000.0,-1,-0.8115002875,0.30919386784999997,0.36045322739999996,0.32604,-0.10409,0.029737,-0.47059171355,-9.448315009,2.5842484079999997,-2.9615,1.2996,-1.4546,-0.0009999999999998899,-0.0024999999999999467,-0.0007099999999999884,-0.0028229018154033447,-0.0009090799637982983,-0.0020456699031119463
150000000000.0,-1,-1.074220441,0.13918578345,0.44178958249999994,0.29749,-0.13024,0.016487,-0.46898342294999995,-9.4397832235,2.615629688,-2.9642,1.2964,-1.4532,-0.0012000000000000899,-0.0024000000000001798,0.00020999999999993246,-0.001951859544368606,-0.00196253010776104,-0.0024752652619715043
150000000000.0,-1,-1.2427967545,0.0924178696,0.49828569315,0.28083,-0.14784,0.03937,-0.46827734415,-9.431643703999999,2.6449515715,-2.9664,1.2933,-1.4525,-0.0009000000000001229,-0.0022999999999999687,-0.0006999999999999229,-0.002702231785377318,0.0021008820133223693,-0.003278530172466265
150000000000.0,-1,-1.2094541444999998,0.0957913572,0.4239807061,0.27072,-0.14116,0.076437,-0.47115069260000003,-9.423504184499999,2.6733908565,-2.9671,1.2903,-1.4533,-0.0009999999999998899,-0.0023999999999997357,-0.000160000000000049,-0.00019133497611178996,-0.0011347556257681468,-0.003416242955029958
150000000000.0,-1,-1.050488348,0.21328483085,0.29230681654999996,0.2686,-0.15351,0.10426,-0.47654435009999996,-9.415266598499999,2.7012417424999997,-2.967,1.2873,-1.4551,-0.0006999999999999229,-0.0024000000000001798,-0.0006599999999999939,-0.0012205204571738015,0.0010132287029303022,-0.0026084649179591857
150000000000.0,-1,-0.85720908315,0.4676987518,0.231829206,0.26353,-0.18894,0.13476,-0.48429160359999995,-9.406930946,2.7287003624999997,-2.9659,1.2843,-1.4582,-0.0009000000000001229,-0.0024000000000001798,-0.0005600000000000049,-0.0028649521941466194,0.0017617503819866709,-0.002910956493950234
150000000000.0,-1,-0.57001153125,0.3388982107,0.1424121713,0.2477,-0.23187,0.15441,-0.49286261569999995,-9.39869336,2.7552763839999996,-2.9646,1.2813,-1.4621,-0.00029999999999996696,-0.0023999999999997357,-0.0011600000000000499,0.0009124966447073835,0.001719495141912164,-0.003695733531173584
150000000000.0,-1,-0.5611561263,0.33131767025000003,0.11825839234999999,0.21784,-0.25702,0.16398,-0.5017180206499999,-9.391142239499999,2.7794988095,-2.963,1.2787,-1.4665,-0.0006999999999999229,-0.0024999999999999467,-5.999999999994898e-05,-0.001507284014916177,-0.002219536680482692,-0.002319958679678269
150000000000.0,-1,-0.39007911705,0.2620729146,-0.0595263655,0.18878,-0.26749,0.15291,-0.5093966275999999,-9.384473717499999,2.800583107,-2.9617,1.2763,-1.4709,-0.000700000000000145,-0.0024999999999999467,-9.999999999998899e-05,-0.0012875012057058655,-0.001258345264148586,-0.0028808837654406005
150000000000.0,-1,-0.335191297,0.2715657518,-0.1767550596,0.15536,-0.25765,0.15593,-0.5171438811,-9.378687794,2.8184312099999995,-2.9601,1.2743,-1.4754,-0.0006999999999999229,-0.0024000000000001798,-0.00039000000000000146,-0.0007680740676860864,0.0025220138222317168,-0.004374790293927511
150000000000.0,-1,-0.335191297,0.2715657518,-0.1767550596,0.15536,-0.25765,0.15593,-0.5171438811,-9.378687794,2.8184312099999995,-2.9601,1.2743,-1.4754,-0.00019999999999997797,-0.0026000000000001577,-0.0005600000000000049,-0.0004286650996010444,3.0396942771737656e-05,-0.0031463140165821635
150000000000.0,-1,-0.32765978979999993,0.23736015659999998,-0.09588942369999999,0.11231,-0.25292,0.15649,-0.5251264941999999,-9.3740786685,2.83216052,-2.9583,1.2727,-1.4802,-0.00039999999999995595,-0.0023999999999997357,-0.00039000000000000146,0.001149621152730207,0.004071384655620847,-0.004555274613073923
150000000000.0,-1,-0.4404166515,0.26573079504999997,0.00114737805,0.072304,-0.26615,0.14771,-0.53207940905,-9.3707444075,2.8419671699999998,-2.9565,1.2715,-1.485,-0.00019999999999997797,-0.0028999999999999027,-0.00027999999999994696,-0.0014484191319701356,-0.001066816740302734,-0.001582105340948825
150000000000.0,-1,-0.53990511575,0.2039587067,0.1293497135,0.045997,-0.28758,0.15849,-0.5392872968,-9.368194678499998,2.8489298914999996,-2.9545,1.2706,-1.4902,9.999999999998899e-05,-0.0027000000000003688,-0.0008400000000000629,0.0004271857679207791,0.003436917689257468,-0.0036038364454022975
150000000000.0,-1,-0.5589202101,0.20814614625,0.34993069195,0.030561,-0.30516,0.185,-0.5479563754,-9.366135282,2.854127416,-2.9519,1.2699,-1.4963,9.999999999998899e-05,-0.0030999999999998806,-0.00022999999999995246,-0.0018608139010987124,-0.0014576678608564375,-0.0016176365557707406
150000000000.0,-1,-0.53188327605,0.12691766429999998,0.52523436735,0.02918,-0.30171,0.20298,-0.55867504385,-9.3640758855,2.858834608,-2.9486,1.2692,-1.5031,9.999999999998899e-05,-0.0030999999999998806,-0.0008700000000000374,-0.0008173014994650174,-0.0011335632111948435,-0.002526057021865924
150000000000.0,-1,-0.5275585434,0.1421375851,0.50730781115,0.039944,-0.29288,0.19698,-0.56958003865,-9.3617222895,2.8642282655,-2.9453,1.2684,-1.5099,-9.999999999998899e-05,-0.0034000000000000696,0.00043000000000004146,-0.00519850200462546,-0.007356277368703923,0.0011514625065611739
150000000000.0,-1,-0.535835356,0.139450563,0.4452022967,0.058835,-0.26923,0.18247,-0.5798672145,-9.358878360999999,2.87138712,-2.9423,1.2675,-1.5161,0.0004999999999999449,-0.0030999999999998806,-0.0010200000000000209,0.0005553474191430929,0.00240435387987481,-0.004861887738991211
150000000000.0,-1,-0.7529251670499999,0.4301392823,0.42781510624999997,0.09069,-0.22816,0.15224,-0.5885755197,-9.3554460335,2.8809976369999997,-2.9401,1.2663,-1.5212,0.0006999999999999229,-0.0034000000000000696,-0.0011999999999999789,-0.00047589701500161397,-0.001403852901706415,-0.0033645836173388233
150000000000.0,-1,-0.7529251670499999,0.4301392823,0.42781510624999997,0.09069,-0.22816,0.15224,-0.5885755197,-9.3554460335,2.8809976369999997,-2.9401,1.2663,-1.5212,0.00039999999999995595,-0.0034999999999998366,-0.000500000000000056,-0.0030845769816618684,-0.0036473929574385444,-0.0014271800110270405
150000000000.0,-1,-0.95982586875,0.4890380222,0.425804743,0.13872,-0.19377,0.11149,-0.5946164160999999,-9.350738841499998,2.89492308,-2.939,1.2647,-1.5245,0.000600000000000156,-0.0034000000000000696,-0.0008199999999999319,-0.0020926409812429547,0.0013847458931359746,-0.0040742631291705855
150000000000.0,-1,-1.1196252304999998,0.5218314598,0.39712029175,0.25306,-0.19815,0.026469,-0.5941751168499999,-9.337107598,2.9385626725000003,-2.9421,1.2601,-1.5256,0.0005999999999999339,-0.0036000000000000476,-0.00034000000000000696,-0.0007362520610874057,-0.003143263825302167,-0.002793357425951548
150000000000.0,-1,-1.0497038159999998,0.5720218945,0.23713460365,0.28205,-0.21863,-0.028185,-0.73266462815,-9.3013133255,3.019859801,-2.9036,1.2484,-1.5641,0.00039999999999995595,-0.0034000000000000696,0.00018999999999991246,-0.0006806282970761579,-0.0038375188923676085,-0.0029821210921263663
150000000000.0,-1,-1.1443379885,0.6079828800499999,0.20086961195,0.30368,-0.23933,-0.082945,-0.7180232997,-9.292095074499999,3.051633347,-2.9105,1.2454,-1.5594,0.0013000000000000789,-0.0036000000000000476,-0.0014899999999999913,0.0008065362300646584,-0.0011189982750803296,-0.004892457174548781
150000000000.0,-1,-1.185427852,0.5829857292,0.11893505119999999,0.28757,-0.26982,-0.11401,-0.6987826523999999,-9.283171023,3.0829165604999997,-2.9187,1.2426,-1.5537,0.00039999999999995595,-0.0038000000000000256,0.0006800000000000139,-0.001641602648820406,-0.007112346669034153,-0.0024607142205712584
150000000000.0,-1,-1.1712082094999998,0.5032870846499999,0.05076902705,0.23714,-0.30148,-0.12628,-0.6766784632999999,-9.2758160355,3.1099829145,-2.9274,1.2403,-1.5479,0.0005999999999999339,-0.0038000000000000256,-9.99999999995449e-06,-0.002800000996797447,-0.001631443218357953,-0.0037698740165992284
150000000000.0,-1,-1.1712082094999998,0.5032870846499999,0.05076902705,0.23714,-0.30148,-0.12628,-0.6766784632999999,-9.2758160355,3.1099829145,-2.9274,1.2403,-1.5479,0.0009000000000001229,-0.0038999999999997925,-0.0005700000000000705,-0.0005210426573314386,-0.00041253735848201245,-0.00629476193665246
150000000000.0,-1,-1.044408225,0.44658503435,0.039089306899999995,0.16076,-0.32797,-0.12693,-0.65336805625,-9.2707165775,3.130086547,-2.9358,1.2387,-1.5425,0.0008999999999999009,-0.004100000000000215,-0.00030999999999992145,-0.0015671779019703624,-0.0030676979195323195,-0.004733792387552338
150000000000.0,-1,-0.8420185822999999,0.4437901391,0.02393803265,0.090563,-0.35677,-0.11544,-0.6298222896,-9.267970715499999,3.1431293915,-2.9438,1.2378,-1.538,0.0012000000000000899,-0.0044999999999997264,-0.0006400000000000849,-0.001963525179130121,-0.0057572978213520365,-0.003033166984647284
150000000000.0,-1,-0.7111390313999999,0.28597172065,0.11974900314999999,0.047712,-0.3981,-0.096184,-0.6068747286,-9.2665977845,3.1514650439999996,-2.9514,1.2374,-1.5344,0.0009999999999998899,-0.004400000000000404,-0.00020999999999993246,-0.0009136201737292016,-4.67781610045126e-05,-0.004835388972705967
150000000000.0,-1,-0.6253896837999999,0.11238420899999998,0.11225672255,0.024867,-0.45215,-0.071666,-0.58458421315,-9.2662055185,3.1570548345,-2.9585,1.2372,-1.5318,0.0015000000000000568,-0.004899999999999682,-0.0006000000000000449,-0.0023624438977198903,-0.0060652750518779275,-0.0013984014612788975
150000000000.0,-1,-0.6308421811999999,-0.1193665438,0.1839923673,0.065736,-0.50416,-0.063162,-0.5614699391,-9.264832587499999,3.1650962874999995,-2.966,1.2368,-1.5294,0.0015000000000000568,-0.0047999999999999154,-0.00043999999999999595,-0.0022150009511656688,-0.002755215430576774,-0.0015482333073983945
150000000000.0,-1,-0.70887369525,-0.12894764085,0.2447151441,0.14758,-0.53439,-0.053211,-0.53806146555,-9.261007994,3.180492728,-2.974,1.2356,-1.5269,0.0018000000000000238,-0.0050000000000003375,-0.0005699999999999594,0.00110586009047009,-0.004025111013752136,-0.0011858364016728018
150000000000.0,-1,-0.8279264262499999,-0.08860308274999999,0.1681252076,0.23469,-0.53653,-0.060428,-0.51417246615,-9.254045272499999,3.2045190205,-2.9825,1.2335,-1.524,0.0019000000000000128,-0.004999999999999893,-0.0005500000000000504,0.0013898480968421723,0.0017125903041026458,-0.0017985201236001558
150000000000.0,-1,-0.85403172855,-0.09773307389999998,0.13783246575,0.28861,-0.49473,-0.098792,-0.48806716385,-9.244925087999999,3.2348215689999997,-2.9918,1.2307,-1.5199,0.0020000000000000018,-0.005399999999999849,3.0000000000085514e-05,-0.001621615929713105,-0.005786710727245126,0.0021196294736651744
150000000000.0,-1,-1.0378377694999998,-0.09712506159999999,-0.09015253344999999,0.27821,-0.43424,-0.14912,-0.45894141335,-9.2358049035,3.265026051,-3.0019,1.2279,-1.5143,0.0022999999999999687,-0.00550000000000006,-0.00048000000000003595,0.0009528170700470184,-0.003131107325821114,0.0013290388801907582
150000000000.0,-1,-1.1696391455,0.035460846399999996,-0.27039876045,0.24008,-0.34918,-0.20377,-0.4274326469,-9.227861517,3.2916020725,-3.0125,1.2255,-1.5073,0.0020999999999999908,-0.005600000000000049,2.0000000000020002e-05,0.0012247519420780506,-0.003525817024452982,0.0014249473341534369
150000000000.0,-1,-1.350571838,0.19900634844999998,-0.33884917745,0.19234,-0.27178,-0.2416,-0.39400177704999995,-9.2216833275,3.312882503,-3.0232,1.2237,-1.4991,0.0024999999999999467,-0.005800000000000027,-0.0005800000000000249,0.0027539064046862016,-0.0017811690003648462,-7.982368113390592e-05
150000000000.0,-1,-1.601229812,0.34958745919999995,-0.3937173842,0.14167,-0.18004,-0.26884,-0.3609435599,-9.217270334999998,3.328965409,-3.0336,1.2223,-1.4904,0.0024999999999999467,-0.005800000000000027,-0.00046999999999997044,0.0010842357332452313,-0.0007561024465976285,-0.0005558087125283606
150000000000.0,-1,-1.7628434039999998,0.3588645501,-0.3854797982,0.11648,-0.080275,-0.29706,-0.3286600681,-9.213936074,3.3414198545,-3.0435,1.2214,-1.481,0.0021999999999999797,-0.006099999999999994,0.00034999999999996145,-0.0006334457119685499,-0.003504486550513608,-0.00020821906656820488
150000000000.0,-1,-1.906608893,0.35739355259999994,-0.3256592332,0.086691,0.00965,-0.32039,-0.29730820804999997,-9.211582478,3.3509323049999997,-3.0531,1.2206,-1.4709,0.0024000000000001798,-0.006099999999999994,-0.00029000000000001247,0.0007357356796715564,0.001280946006946726,-0.002746053088925393
150000000000.0,-1,-1.906608893,0.35739355259999994,-0.3256592332,0.086691,0.00965,-0.32039,-0.29730820804999997,-9.211582478,3.3509323049999997,-3.0531,1.2206,-1.4709,0.0020999999999999908,-0.006199999999999983,0.00043000000000004146,0.002250583940398343,-0.0012696073032028021,-0.0032039710012190525
150000000000.0,-1,-2.1687406475,0.28875680924999997,0.19686849874999998,0.044688,0.057911,-0.31682,-0.2676823184,-9.210601813,3.3561298294999995,-3.062,1.2204,-1.4609,0.0022999999999999687,-0.00649999999999995,0.00012999999999996348,0.00024535014369586605,-0.0013293286398423643,-0.0027429940436425326
150000000000.0,-1,-2.1754091695,0.13645953475,0.32884639444999997,-0.005342,0.048962,-0.2921,-0.24015505185,-9.2110921455,3.3569143615,-3.0702,1.2205,-1.4516,0.0014000000000000679,-0.007400000000000073,0.00029999999999996696,-0.02378193142903262,0.0024433878175638135,0.005698455030579641
150000000000.0,-1,-2.1394187639999998,-0.061585761999999995,0.37767370479999995,-0.06142,-0.002656,-0.2428,-0.21557958694999999,-9.2134457415,3.3522071695,-3.0774,1.2212,-1.4437,0.0028999999999999027,-0.006799999999999917,-0.0006199999999999539,0.0018838155623315256,0.001563782042094397,-0.003749165182730163
150000000000.0,-1,-2.059004234,-0.23529095344999998,0.29219894339999997,-0.10412,-0.091545,-0.16512,-0.19480910225,-9.217172268499999,3.343086985,-3.0834,1.2223,-1.4381,0.0023999999999999577,-0.007100000000000106,4.0000000000040004e-05,-0.00044243835178581215,0.0040745608510248665,0.00014234011035796357
150000000000.0,-1,-1.6057408709999998,-0.47486741294999996,-0.1633003358,-0.12937,-0.18828,-0.099129,-0.177500365,-9.221781393999999,3.3313190049999997,-3.0884,1.2237,-1.4347,0.0025999999999999357,-0.006599999999999939,0.00046999999999997044,0.007471818435714095,0.003386836898786161,-0.001260101461225016
150000000000.0,-1,-1.402547083,-0.5136232937499999,-0.2834710249,-0.1462,-0.28123,-0.01984,-0.164359454,-9.226880852,3.317785828,-3.0921,1.2252,-1.4336,0.0028000000000001357,-0.006999999999999895,0.00029000000000001247,0.008164056822452803,0.0036728612998191412,-0.001430791812106147
150000000000.0,-1,-1.243875486,-0.5079452434,-0.38257702979999997,-0.17879,-0.34074,0.047936,-0.1556903754,-9.2328629085,3.3016048555,-3.0945,1.227,-1.4348,0.0029999999999998916,-0.007200000000000095,0.00013999999999991797,0.006138843724314169,0.005387278233240256,-0.0013890979266628634
150000000000.0,-1,-1.243875486,-0.5079452434,-0.38257702979999997,-0.17879,-0.34074,0.047936,-0.1556903754,-9.2328629085,3.3016048555,-3.0945,1.227,-1.4348,0.0027000000000001467,-0.007500000000000062,0.0009000000000000119,0.0021914133147988846,0.0036845898748574246,-0.00041593329791345113
150000000000.0,-1,-1.171502409,-0.51103433815,-0.44460409105,-0.22092,-0.36901,0.10311,-0.15203249494999999,-9.2401198295,3.2814031565,-3.0953,1.2292,-1.4381,0.0033999999999998476,-0.007800000000000029,0.0005500000000000504,0.006916302592555157,0.0004425978703255229,-0.003008972220122086
150000000000.0,-1,-1.214455536,-0.46949336875,-0.44603586195,-0.3963,-0.18694,0.26661,-0.16838998714999998,-9.261302193499999,3.220307727,-3.0894,1.2357,-1.4511,0.0032000000000000917,-0.007599999999999829,0.0010099999999999554,0.005564857074215945,0.0025332942413414106,-0.003945061940397565
150000000000.0,-1,-1.2726089704999999,-0.47226865069999996,-0.45076266724999997,-0.56005,0.13367,0.37658,-0.20507666479999997,-9.278267697999999,3.1689208809999996,-3.077,1.241,-1.4635,0.0033000000000000806,-0.007600000000000051,0.0007000000000000339,0.008221768252882455,0.005131329591153033,-0.0008442352394020247
150000000000.0,-1,-1.399408955,-0.4554992792,-0.46357015214999997,-0.65521,0.19471,0.39609,-0.25126598629999997,-9.29866553,3.1052757224999996,-3.0609,1.2475,-1.4783,0.0034999999999998366,-0.007200000000000095,0.0012900000000000134,0.01674105449237806,0.00481600763265444,-0.0015384170812318132
150000000000.0,-1,-1.5814203789999999,-0.2884724164,-0.36432685415,-0.66465,0.1048,0.4213,-0.2970826551,-9.319455628,3.0380021034999998,-3.0441,1.2543,-1.4945,0.0034000000000000696,-0.00749999999999984,0.0005999999999999339,0.003774828982273437,0.008769755497655574,0.0028846563117292945
150000000000.0,-1,-0.2505402942,-0.22203236265,0.3466062376,-0.60167,-0.059817,0.38116,-0.3361915753,-9.3379901965,2.9764163415,-3.0291,1.2604,-1.5104,0.0034000000000000696,-0.007400000000000073,0.0010000000000000009,0.007379846424399705,0.007148817219082337,0.001714240956872004
150000000000.0,-1,-1.3926423664999998,-0.89465087285,0.21030360924999997,-0.53253,-0.2228,0.3086,-0.36246359065,-9.3540731025,2.9224797665,-3.0182,1.2658,-1.524,0.0031999999999998696,-0.007000000000000117,0.0015200000000000768,0.00485598886168237,0.007459973256295438,0.004025722433755874
150000000000.0,-1,-1.3926423664999998,-0.89465087285,0.21030360924999997,-0.53253,-0.2228,0.3086,-0.36246359065,-9.3540731025,2.9224797665,-3.0182,1.2658,-1.524,0.0034000000000000696,-0.00649999999999995,0.0010999999999999899,0.012139919595905546,0.009976318573204246,0.0004931343346585848
150000000000.0,-1,-1.3638108155,-0.8801076109,0.26102360304999994,-0.51066,-0.066449,0.34278,-0.39128533499999996,-9.368586944499999,2.8717793859999996,-3.0062,1.2708,-1.5381,0.0031000000000001027,-0.006299999999999972,0.0015699999999999603,0.010785114420623021,0.006263033903142867,0.0014727445484385981
150000000000.0,-1,-1.6585006479999997,-0.8202380126499998,-0.17174386145,-0.53359,0.26119,0.42073,-0.43699413065000003,-9.382806587,2.818235077,-2.9878,1.2757,-1.5553,0.0031999999999998696,-0.005900000000000016,0.0009400000000000519,0.015556378384630198,0.011544522284062664,-0.0025993786275604336
150000000000.0,-1,-2.082736327,-0.60990498345,0.4779565076999999,-0.59132,0.45115,0.48705,-0.49669701585,-9.397516562,2.7585125784999995,-2.9634,1.2809,-1.576,0.0025999999999999357,-0.00529999999999986,0.0016399999999999748,0.016527152491781827,0.00928854004113222,-0.004538061587748388
150000000000.0,-1,-1.7329331215,-0.5762387539999999,0.51323102775,-0.7028,0.48234,0.55489,-0.5649414932,-9.413991734,2.6883950309999998,-2.9345,1.2869,-1.6009,0.0023000000000001908,-0.0052000000000000934,0.0016699999999999493,0.01627387027013305,0.005444769088891688,-0.007019472094527579
150000000000.0,-1,-0.24425423154999998,-0.54702474365,1.0356803065,-0.87397,0.46334,0.62624,-0.6393543534,-9.4335069675,2.6019984445,-2.9007,1.2941,-1.6309,0.0020000000000000018,-0.0046999999999999265,0.0015200000000000768,0.01839803719317823,0.00886650885219531,-0.011280594376755992
150000000000.0,-1,0.55018248495,-0.664302471,1.583773975,-1.1077,0.44465,0.72562,-0.7225735852999999,-9.456846794499999,2.493046563,-2.8595,1.3029,-1.6686,0.0016999999999998128,-0.0048000000000001375,0.0013900000000000023,0.01326005063811686,0.009086715616887453,-0.011552773662113491
150000000000.0,-1,0.7571910598,-0.66876449675,1.9324984490000001,-1.3767,0.37905,0.81195,-0.8128536051999999,-9.4843054145,2.3575186599999998,-2.8096,1.3137,-1.7159,0.0013000000000000789,-0.0045999999999999375,0.0019299999999999873,0.01292878733785141,0.0032228288405509176,-0.013926679296502265
150000000000.0,-1,0.9410069073999999,-0.6228987947,2.244938318,-1.6112,0.23249,0.87342,-0.9065855659,-9.514313763499999,2.1969837995,-2.7502,1.326,-1.7741,-0.0016000000000000458,-0.0043999999999999595,0.0036599999999999966,-0.005475403388456979,0.009708229875677876,-0.01154003640800072
150000000000.0,-1,1.4114711345,-0.39572774745,2.52423171,-1.753,-0.012775,0.93032,-1.0011608985,-9.54383178,2.0208563655,-2.6816,1.3387,-1.8441,0.001000000000000112,-0.0049000000000001265,0.0014399999999999968,0.006110712403229801,0.006729151739185424,-0.012718589495324562
150000000000.0,-1,2.140007163,-0.04219801495,2.5149153925,-1.7715,-0.31822,0.96687,-1.0942260069999998,-9.5696232695,1.842669535,-2.6057,1.3505,-1.9246,0.0011999999999998678,-0.004899999999999904,0.0014199999999999768,0.007914762826945365,0.006358972591832046,-0.008838892830646206
150000000000.0,-1,3.0352562415,0.059987278049999995,2.201592925,-1.6994,-0.58337,0.99445,-1.185427852,-9.589923035,1.6726222239999997,-2.525,1.3602,-2.0129,0.0013000000000000789,-0.0052000000000000934,0.0016599999999999948,0.006084902334544617,0.006427847917461538,-0.006026419179337772
150000000000.0,-1,3.935212512,-0.04393379199999999,1.672426091,-1.5418,-0.83362,0.99168,-1.2743741675,-9.6039465445,1.5200307499999999,-2.4439,1.3671,-2.1042,0.0018000000000000238,-0.005199999999999871,0.0016700000000000603,0.010294219560782913,0.003547284270026818,-0.00517998390772334
150000000000.0,-1,4.615597889,-0.3038884702,1.17091401,-1.329,-1.1243,0.96136,-1.357632626,-9.611889931,1.3926423664999998,-2.3689,1.3711,-2.1922,0.0012999999999998568,-0.00550000000000006,0.0017800000000000038,0.005961690192709979,0.004021444335167379,-3.173459852234828e-05
150000000000.0,-1,5.0550338754999995,-0.59825468325,0.78552247165,-1.1111,-1.2662,0.93742,-1.4359877595,-9.6145377265,1.2920261375,-2.3035,1.3725,-2.2726,0.0013000000000000789,-0.005700000000000038,0.0015999999999999348,0.0033048446552736976,0.004142062502980881,0.0030389493515148303
150000000000.0,-1,5.2070369505,-0.7600742149,0.65746723595,-0.89531,-1.1466,0.85202,-1.5103221665,-9.613360928499999,1.2131806715,-2.2475,1.3719,-2.3427,0.0019000000000000128,-0.005499999999999838,0.0019799999999999818,0.012620065542842118,0.001951922751317614,0.0028465794784389153
150000000000.0,-1,5.2070369505,-0.7600742149,0.65746723595,-0.89531,-1.1466,0.85202,-1.5103221665,-9.613360928499999,1.2131806715,-2.2475,1.3719,-2.3427,0.0018000000000000238,-0.005700000000000038,0.0016800000000000148,0.007592901825790088,0.0009267243693311666,0.003910032093407789
150000000000.0,-1,4.7467127995,-0.8368014444999999,0.41129090099999993,-0.73688,-0.80252,0.73499,-1.5777919185,-9.6104189335,1.1489471139999998,-2.2002,1.3704,-2.4007,0.0020999999999999908,-0.005700000000000038,0.0017200000000000548,0.013385167916112328,-0.0012546963272808132,0.005470710827740088
150000000000.0,-1,4.02857182,-0.6489158371499999,0.36999509784999995,-0.68743,-0.38155,0.56489,-1.6345724219999997,-9.6082614705,1.085988421,-2.1572,1.3693,-2.4499,0.0020999999999999908,-0.005600000000000049,0.0016699999999999493,0.013330052341950838,0.0016472651475185618,0.006449299117244234
150000000000.0,-1,3.0260379905,-0.13096781075,0.3111061646,-0.73642,-0.065287,0.4202,-1.6793888125,-9.608359537,1.0146940755,-2.1143,1.3694,-2.4952,0.0020000000000000018,-0.006000000000000005,0.0015700000000000713,0.011681644695606064,-0.003025833591307814,0.006724488394661776
150000000000.0,-1,1.7327369885000001,0.10741223744999999,0.8503248148499999,-0.84188,0.13799,0.28476,-1.7131236885,-9.6110073325,0.9291604741999999,-2.0678,1.3707,-2.5416,0.0020999999999999908,-0.005600000000000049,0.0015199999999999658,0.012911768850818905,0.0006419292044137492,0.005947444494572629
150000000000.0,-1,0.47386713465,-0.23635987829999996,1.021460664,-0.9356,0.28124,0.14192,-1.7337176534999998,-9.616400989999999,0.8307409347999999,-2.0176,1.3735,-2.5901,0.0019000000000000128,-0.005900000000000016,0.0012699999999999934,0.00825218213568446,-0.0007809395770788097,0.006505672152346875
150000000000.0,-1,-0.52133132065,-0.6540054885,1.135806203,-1.0168,0.41642,-0.00426,-1.740288109,-9.624050176999999,0.7213575606999999,-1.9637,1.3775,-2.6409,0.0018000000000000238,-0.005699999999999816,0.0013499999999999623,0.012691119957319419,0.0002293440851750539,0.005093129110259831
150000000000.0,-1,-0.87146795225,-0.23956665284999998,1.1376694665,-1.0705,0.57032,-0.11544,-1.7345021854999998,-9.633268428,0.6025107693499999,-1.9051,1.3825,-2.6948,0.0018000000000000238,-0.005900000000000016,0.001060000000000061,0.009102192228918504,-0.0009652845979477576,0.0058461874998503305
150000000000.0,-1,-0.5074156843,0.407172108,1.0190090015,-1.0915,0.69453,-0.16199,-1.7224400059999998,-9.6423886125,0.477976121,-1.8415,1.3875,-2.7523,0.0015000000000000568,-0.005800000000000027,0.0010499999999999954,0.005536386905826918,0.0026624667273442704,0.0038118295904028265
150000000000.0,-1,-0.31266542195,0.31344014729999997,1.0151844079999999,-1.0431,0.75297,-0.18382,-1.7071416320000001,-9.650331999,0.35532434944999997,-1.776,1.392,-2.8108,0.0012999999999998568,-0.005900000000000016,0.0008599999999999719,0.005238888660597629,0.0005940678880291816,0.004362884365116226
150000000000.0,-1,-0.15356233235,0.31529360414999996,0.9184516124,-0.9741,0.74028,-0.14542,-1.6931181224999998,-9.656412121999999,0.23944897304999999,-1.7113,1.3955,-2.8685,0.0014000000000000679,-0.005800000000000027,0.0006800000000000139,0.0050556968907937705,0.0024542679342161033,0.0021865258865534365
150000000000.0,-1,-0.0196917532,0.62014312605,0.82659272185,-0.89324,0.69746,-0.070332,-1.6849786029999998,-9.659942516,0.1321348021,-1.6491,1.3976,-2.924,0.0013000000000000789,-0.005800000000000027,0.0005499999999999394,0.003226962910012343,-0.00024158214711866854,0.002212949049223756
150000000000.0,-1,0.0146315218,0.8895612214999999,0.7469333038999999,-0.81107,0.65228,0.003601,-1.6842921375,-9.6608251145,0.0346174745,-1.5913,1.3982,-2.9753,0.0011999999999998678,-0.005700000000000038,0.0006000000000000449,0.004499040643918706,-0.0006862049150997418,0.003953446476805844
150000000000.0,-1,0.018377662099999997,0.8888159161,0.8358011661999999,-0.73308,0.58665,0.045282,-1.6880186645,-9.660138649,-0.05424058115,-1.5387,1.3977,-3.0223,0.001100000000000101,-0.005499999999999838,0.0005199999999999649,0.004626778853917601,-0.0009242686836727909,0.0038000558356965364
150000000000.0,-1,0.0954971577,0.9057716139499999,0.76033899445,-0.61509,0.4995,0.054118,-1.6930200559999997,-9.6584715185,-0.13035979844999998,-1.4939,1.3968,-3.062,0.0017000000000000348,-0.005400000000000071,0.0007200000000000539,0.021463825575220197,-0.007360855782676978,0.00021640196116168298
150000000000.0,-1,0.0954971577,0.9057716139499999,0.76033899445,-0.61509,0.4995,0.054118,-1.6930200559999997,-9.6584715185,-0.13035979844999998,-1.4939,1.3968,-3.062,0.00029999999999996696,-0.00550000000000006,-1.0000000000065512e-05,-0.00996814889016262,0.002784361211994879,0.006064341322158384
150000000000.0,-1,0.29220875004999997,1.0649041235,0.57956320835,-0.4753,0.42026,0.06434,-1.6986098465,-9.656510188499999,-0.19095508879999998,-1.4589,1.3956,-3.0929,0.0013999999999998458,-0.005199999999999871,0.000280000000000058,0.019407226866937632,-0.00792534557631841,-0.002338565623408062
150000000000.0,-1,0.50913184805,1.1418863259999998,0.4889007291,-0.37774,0.36048,0.048452,-1.703218972,-9.654646925,-0.23870366765,-1.4316,1.3945,-3.1166,0.0008000000000001339,-0.005400000000000071,0.00019000000000002348,0.0029167979237976205,-0.004257934501561422,0.0016977227003454054
150000000000.0,-1,0.5778274313,1.0370532375,0.3229525978,-0.37791,0.33052,0.011576,-1.7047880359999998,-9.6531759275,-0.28314740545,-1.4062,1.3937,-3.1387,0.00039999999999995595,-0.00550000000000006,9.99999999995449e-06,0.001611341932768573,-0.003680378894894476,0.0027239798878078147
150000000000.0,-1,0.9914523149999999,1.034601575,0.36231649089999995,-0.44298,0.34001,-0.068842,-1.6986098465,-9.652685595,-0.33298480075,-1.3772,1.3934,3.1187,0.0005999999999999339,-0.00550000000000006,-9.99999999995449e-06,0.0042299895145310185,-0.0036994372877272585,-0.0014866351494982055
150000000000.0,-1,1.08853815,1.1319816095,0.6587617137499999,-0.49217,0.35253,-0.16834,-1.6827230734999998,-9.653372060499999,-0.38910825869999993,-1.3436,1.3938,3.0883,0.00039999999999995595,-0.005699999999999816,-0.0002300000000000635,0.0005969877589997452,-0.0033667166038100493,-0.0015687458885400574
150000000000.0,-1,1.0613737295,1.1343352054999998,0.7132572678,-0.45245,0.34481,-0.27116,-1.655558653,-9.6557256565,-0.44360381274999994,-1.309,1.3951,3.057,0.000300000000000189,-0.005700000000000038,-0.00029999999999996696,0.0023503493932583996,-0.001347187979858111,0.0019031118744226028
150000000000.0,-1,1.2679017784999997,1.075201106,0.75992711515,-0.36882,0.30312,-0.33923,-1.620254713,-9.6594521835,-0.48983236085,-1.2772,1.3973,3.0282,0.00039999999999995595,-0.005800000000000027,-0.00038000000000004697,0.00044626016737647767,-0.0018670671724674293,0.0009430630440476762
150000000000.0,-1,1.5118912304999998,0.9348973644499999,0.57289468635,-0.26361,0.23521,-0.37054,-1.5811261795,-9.664159375499999,-0.5238222097499999,-1.2509,1.4001,3.0042,0.00039999999999995595,-0.006199999999999983,-0.0004899999999999904,-0.0004326336484434812,-0.00117374459981745,0.0010628742538520974
150000000000.0,-1,1.7681389949999997,0.78375727465,0.41767503014999996,-0.208,0.14642,-0.39501,-1.5401343824999998,-9.669356899999999,-0.5490547202,-1.2283,1.4033,2.9831,0.00029999999999996696,-0.006199999999999983,-0.00046999999999997044,-0.0013889128193123046,-1.9026350680739768e-05,0.0037363699686547847
150000000000.0,-1,1.889741455,0.9623657911,0.42906055079999994,-0.18974,0.037125,-0.41607,-1.497279322,-9.674848624,-0.5704724438,-1.2068,1.4067,2.962,0.0005999999999999339,-0.006299999999999972,-0.0007300000000000084,0.003709995363477825,-0.002075868611421283,0.0006397106604483227
150000000000.0,-1,1.6304536289999998,1.018322536,0.28677586595,-0.1028,-0.004308,-0.33973,-1.4592295199999998,-9.679948082,-0.5833583818999999,-1.1905,1.4099,2.9454,0.000500000000000167,-0.00670000000000015,-0.0008399999999999519,-0.002383579469606989,-0.0019471104444670484,0.003811145493398005
150000000000.0,-1,1.184839453,0.9724176073499999,-0.048042778349999996,-0.050135,0.062738,-0.19679,-1.4349090279999999,-9.68308621,-0.5904583965,-1.1804,1.4119,2.9356,0.0004999999999999449,-0.006699999999999928,-0.0009900000000000464,-7.585578775959334e-05,-0.000554261774539766,0.002189809867490844
150000000000.0,-1,0.7458643790499999,0.86087677025,-0.36189480495,-0.034608,0.14338,-0.083422,-1.422944915,-9.6845572075,-0.59578340745,-1.1743,1.4128,2.9308,0.00039999999999995595,-0.007100000000000106,-0.0010099999999999554,-0.0025337713981041787,-0.0035500334795868227,0.0041959297226124015
150000000000.0,-1,0.40596589005,0.8190710213,-0.8106373023,-0.035274,0.16254,-0.062046,-1.4156879939999998,-9.685243673,-0.6017948838999999,-1.1689,1.4133,2.927,0.00029999999999996696,-0.007099999999999884,-0.0011200000000000099,0.0005270200923122026,-0.0027839729566074833,0.003920990358840637
150000000000.0,-1,0.30526140119999995,0.83390848275,-0.8595626791500001,-0.02199,0.17302,-0.11736,-1.4040180804999998,-9.686616604,-0.60704144165,-1.1627,1.4142,2.9227,0.00019999999999997797,-0.00770000000000004,-0.0011400000000000299,-0.007155685782282983,-0.0030348366789356707,0.005219891813734279
150000000000.0,-1,0.30526140119999995,0.83390848275,-0.8595626791500001,-0.02199,0.17302,-0.11736,-1.4040180804999998,-9.686616604,-0.60704144165,-1.1627,1.4142,2.9227,0.00019999999999997797,-0.007600000000000051,-0.0013999999999999568,-0.0027167776621594975,-0.004325098552499851,0.003893275312294886
150000000000.0,-1,-1.0660809215,1.0230297279999998,-0.13932307654999998,0.027074,0.21483,-0.17744,-1.386071911,-9.6890682665,-0.6087183788,-1.157,1.4158,2.919,-9.999999999998899e-05,-0.007900000000000018,-0.0013900000000000023,-0.004843218147877915,-0.003395706298711998,0.004772422516954755
150000000000.0,-1,-1.423533314,1.0945202065,-0.17507812244999998,0.10957,0.28289,-0.217,-1.3626340174999998,-9.692696727,-0.6036385340999999,-1.1538,1.4182,2.9187,9.999999999998899e-05,-0.008000000000000007,-0.0014800000000000368,-0.005172099745682335,-0.001992937014631657,0.005536163287838569
150000000000.0,-1,-1.1807206599999998,1.5083608364999999,-0.47038577389999997,0.20741,0.33087,-0.25606,-1.3353715305,-9.697403919,-0.5894973447999999,-1.1551,1.4214,2.9234,-9.999999999998899e-05,-0.008199999999999985,-0.0013999999999999568,-0.004033745933845312,-0.0035973254687267087,0.006328832408565077
150000000000.0,-1,-1.0003763665,1.6160378534999997,-0.7153460842499999,0.30108,0.35571,-0.29004,-1.3039902505,-9.703091775999999,-0.5657064118999999,-1.1615,1.4253,2.9337,-9.999999999998899e-05,-0.008299999999999974,-0.0015900000000000913,-0.005145748305091402,-0.0026069886644479734,0.006600071092165649
150000000000.0,-1,-1.0003763665,1.6160378534999997,-0.7153460842499999,0.30108,0.35571,-0.29004,-1.3039902505,-9.703091775999999,-0.5657064118999999,-1.1615,1.4253,2.9337,-0.00029999999999996696,-0.008499999999999952,-0.0013900000000000023,-0.004928734860019324,-0.00203237795552913,0.006504903509064519
150000000000.0,-1,-0.9214916738999999,1.5295432004999998,-0.91404842655,0.3876,0.37297,-0.30837,-1.2700592414999998,-9.7094660985,-0.5327952945,-1.1736,1.4299,2.9499,-0.00029999999999996696,-0.008599999999999941,-0.0014499999999999513,-0.004345994857461788,-0.002211136364169919,0.007006845978674736
150000000000.0,-1,-0.8870997523499999,1.3973495585,-1.1257053535,0.5219,0.42781,-0.30733,-1.2018049575,-9.722607009499999,-0.444633511,-1.2165,1.4398,3.0019,-0.00029999999999996696,-0.008599999999999941,-0.0012799999999999478,-0.0029502884374823513,0.00029639092149147395,0.005636376676271926
150000000000.0,-1,-0.7851302056499999,1.347825976,-1.2979101274999998,0.54851,0.47692,-0.30165,-1.1682662145,-9.7288832655,-0.39407042359999994,-1.2455,1.4447,3.0362,-0.0005999999999999339,-0.008800000000000141,-0.0011700000000000044,-0.0035675693740819803,-0.00018903178904783324,0.005240961340468253
150000000000.0,-1,-0.6172697776,1.3518467024999998,-1.4222584495,0.54948,0.52284,-0.29507,-1.1351197375,-9.734669189,-0.3429973904,-1.2774,1.4496,3.0738,-0.000600000000000156,-0.008899999999999908,-0.0008600000000000829,-0.002881047488640043,-8.752326787631048e-05,0.006205441452681093
150000000000.0,-1,-0.47554407179999997,1.1689526799999999,-1.4477557395,0.52102,0.56775,-0.27323,-1.1040326569999999,-9.7398667135,-0.29472905909999997,-1.3099,1.454,3.1126,-0.0007999999999999119,-0.009100000000000108,-0.0007300000000000084,-0.0018346721338795557,0.0011097461046072343,0.004748612335275126
150000000000.0,-1,-0.52023297585,1.0194993339999998,-1.4227487819999998,0.4857,0.59536,-0.22717,-1.0774566355,-9.744083573,-0.2500107351,-1.3428,1.4578,-3.1312,-0.0007999999999999119,-0.009099999999999886,-0.0005699999999999594,0.0004251177864003086,0.001225043006383153,0.00435226915710718
150000000000.0,-1,-0.5086611288499999,0.8531883566499999,-1.4036258145,0.44743,0.59851,-0.15434,-1.057745269,-9.747221700999999,-0.20897971149999997,-1.3757,1.4606,-3.0916,-0.001000000000000112,-0.009300000000000086,-0.00041000000000002146,-0.0020333440269668657,0.0012141140653791904,0.0038969144812543988
150000000000.0,-1,-0.51754595375,0.62239865555,-1.4757046919999999,0.40482,0.58335,-0.075293,-1.046761821,-9.7490849645,-0.17243032695,-1.4075,1.4624,-3.0533,-0.0010999999999998789,-0.009500000000000064,-0.00027999999999994696,0.0005453071916958763,0.0007598821998588967,0.0036541726040990596
150000000000.0,-1,-0.46102042314999997,0.40517155139999994,-1.5729866599999998,0.34194,0.55069,-0.002289,-1.044015959,-9.7498694965,-0.1413138265,-1.4363,1.4632,-3.0184,-0.0013000000000000789,-0.009799999999999809,-9.999999999998899e-05,3.66966539391278e-05,0.00045996748251986297,0.004680096731314087
150000000000.0,-1,-0.4205287653,0.06553784195,-1.6347685549999997,0.25263,0.50284,0.056137,-1.0478405524999999,-9.74977143,-0.11839568545,-1.4583,1.4631,-2.9906,-0.0014000000000000679,-0.010000000000000009,-9.999999999998899e-05,-0.0005395320296948114,0.0019023066501755448,0.0034639376221008433
150000000000.0,-1,-0.4205287653,0.06553784195,-1.6347685549999997,0.25263,0.50284,0.056137,-1.0478405524999999,-9.74977143,-0.11839568545,-1.4583,1.4631,-2.9906,-0.0015000000000000568,-0.010300000000000198,-6.0000000000060005e-05,0.0005640719929018712,0.000547293928226722,0.0034347558181777593
150000000000.0,-1,-0.34187943229999995,-0.4197638466,-1.6060350705,0.17495,0.43867,0.078856,-1.0552936064999998,-9.749183031,-0.10341112425,-1.4731,1.4625,-2.9709,-0.0017999999999998018,-0.010499999999999954,2.999999999997449e-05,-0.0002799764607759325,0.00033921978793216567,0.0011276421445649554
150000000000.0,-1,-0.34623358489999995,-0.8569148836499999,-1.6364356854999997,0.12578,0.40316,0.10276,-1.06500219,-9.748202366,-0.0938300272,-1.4829,1.4616,-2.9566,-0.0017000000000000348,-0.010699999999999932,0.00021999999999999797,-0.0009895324410240658,-0.0006377727620805462,0.0011527417381254068
150000000000.0,-1,-0.16538915225,-1.7691196599999999,-1.6964523835,0.097079,0.4179,0.1166,-1.0764759705,-9.747025568,-0.08772048425,-1.4895,1.4604,-2.9455,-0.0020999999999999908,-0.01089999999999991,0.0003700000000000925,6.49899951912225e-05,-0.0007480457524897677,0.00031239565977214667
150000000000.0,-1,-0.10001802334999998,-1.9592706034999998,-1.750879291,0.061614,0.41565,0.11254,-1.088145884,-9.745750703499999,-0.0853570816,-1.4925,1.4593,-2.938,-0.0022999999999999687,-0.01110000000000011,0.0005699999999999594,-0.0019511845426904983,-0.0016124513266146945,0.00026328380738505075
150000000000.0,-1,-0.03539219984999999,-1.8898395215,-1.8531626504999998,0.034196,0.39322,0.08963,-1.0978544675,-9.744671971999999,-0.08586702739999999,-1.4927,1.4583,-2.9335,-0.0024000000000001798,-0.011099999999999888,0.0007199999999999429,-0.0009977348432081978,-0.0018774371039440574,0.0012246604076557865
150000000000.0,-1,-0.043580752599999995,-1.7627453374999997,-1.8739527485,0.007902,0.33712,0.047959,-1.1038365239999999,-9.74388744,-0.08868153595,-1.4906,1.4576,-2.9318,-0.0024999999999999467,-0.011400000000000077,0.0009200000000000319,-0.0033847494747785145,-0.0009788476916186006,0.00021850945313595105
150000000000.0,-1,-0.08503346214999999,-1.5534714264999998,-2.0326243455,0.011036,0.24332,-0.006018,-1.1043268565,-9.74388744,-0.09101551864999999,-1.4886,1.4576,-2.931,-0.0026999999999999247,-0.011200000000000099,0.0009099999999999664,-0.006015235738195734,-0.0037865550480713495,-0.0025999178017510616
150000000000.0,-1,-0.23996872549999998,-1.2276945135,-2.3991969225,0.061209,0.13391,-0.0435,-1.1005022629999999,-9.744279705999999,-0.08821081674999999,-1.4908,1.458,-2.927,-0.0029000000000001247,-0.01089999999999991,0.000980000000000092,-0.007770917649059905,-0.004025442381919708,-0.002633340921748051
150000000000.0,-1,-0.35154878919999993,-0.81107860155,-2.7708689575000003,0.14119,0.052137,-0.10142,-1.0915782115,-9.745456504,-0.07673703625,-1.5006,1.459,-2.9164,-0.0031999999999998696,-0.01110000000000011,0.0017599999999999838,-0.008238449520362678,-0.0003051249338679174,-0.005982911222281118
150000000000.0,-1,-0.3929720788,-0.4749360595,-3.0258418574999997,0.21487,0.052391,-0.16179,-1.076181771,-9.747221700999999,-0.056574563849999995,-1.5183,1.4607,-2.8981,-0.0031000000000001027,-0.010199999999999987,0.0012400000000000189,-0.010063966260677404,-0.005831646394877543,-0.00047403545499857813
150000000000.0,-1,-0.1848553525,-0.55404630505,-2.9388568719999997,0.27358,0.060611,-0.21646,-1.0549013404999998,-9.7496733635,-0.0304202283,-1.542,1.463,-2.8736,-0.0030999999999998806,-0.00969999999999982,0.0014099999999999113,-0.011550219906897086,-0.005346936967484561,3.30108147177377e-05
150000000000.0,-1,0.01230734575,-0.9368783077499999,-2.5149153925,0.38596,-0.000977,-0.25499,-1.0292079175,-9.752517292,0.0059918631499999995,-1.5766,1.4656,-2.8385,-0.0030000000000001137,-0.009400000000000075,0.0018700000000000383,-0.002870639843549183,0.000771344518983863,-0.004077725492418249
150000000000.0,-1,0.30408460319999997,-1.498652253,-1.9126890159999999,0.59269,-0.17704,-0.2822,-1.000670566,-9.755263154,0.063154826,-1.6338,1.4684,-2.7824,-0.0030999999999998806,-0.009200000000000097,0.0017300000000000093,-0.0007944823476759844,0.0010040793879297905,-0.0049955921297293315
150000000000.0,-1,0.479545185,-1.797166679,-1.4892378689999999,0.77926,-0.33551,-0.31835,-0.96796538825,-9.757714816499998,0.1436870358,-1.7182,1.4708,-2.7008,-0.0027000000000001467,-0.008899999999999908,0.0016800000000000148,0.0017936290125335486,0.0030370220987789853,-0.006089244583297848
150000000000.0,-1,0.479545185,-1.797166679,-1.4892378689999999,0.77926,-0.33551,-0.31835,-0.96796538825,-9.757714816499998,0.1436870358,-1.7182,1.4708,-2.7008,-0.0025999999999999357,-0.00869999999999993,0.0012699999999999934,-0.002566605166022473,0.0031552284458302715,-0.0049348532119704025
150000000000.0,-1,0.41519394769999995,-1.1556156359999998,-1.413138265,0.7898,-0.43691,-0.29392,-0.9353386637,-9.759185814,0.23069163459999997,-1.8126,1.4724,-2.6104,-0.0023999999999999577,-0.008700000000000152,0.0010499999999999954,-0.0028177334922148134,0.0037902003827152697,-0.0040836285170291475
150000000000.0,-1,0.7794325419999999,-0.81158854735,-0.8609846433999999,0.63224,-0.42434,-0.18553,-0.91126333795,-9.759381947,0.30642839255,-1.8952,1.4726,-2.5321,-0.0023999999999999577,-0.00869999999999993,0.0007699999999999374,-0.007685742547123731,0.003346203952649285,-0.002271183519300557
150000000000.0,-1,1.7081222969999998,-1.2288713115,0.19222014664999998,0.37269,-0.3706,-0.012929,-0.903780864,-9.758401282,0.35575584204999994,-1.9458,1.4716,-2.4853,-0.0019000000000000128,-0.00869999999999993,0.0005900000000000905,-0.00533572370637736,0.0013186232897206551,-0.0018734408986564866
150000000000.0,-1,2.6599557459999996,-2.2292476779999997,1.23759923,0.16341,-0.43264,0.1656,-0.9148623785,-9.756439952,0.38150810495,-1.9659,1.4695,-2.4695,-0.0020999999999999908,-0.008600000000000163,0.0005199999999999649,-0.011146210069476359,0.0015567657777637578,0.0003875494723302175
150000000000.0,-1,2.9002186709999997,-2.386742477,1.788929093,0.073285,-0.53657,0.28616,-0.93978107615,-9.753497957,0.39574736075,-1.9694,1.4666,-2.4715,-0.0020000000000000018,-0.008499999999999952,0.00029999999999996696,-0.010836798971944006,-7.29781259589668e-05,0.004703384172255021
150000000000.0,-1,2.8468704949999997,-2.63798885,2.2650419505,0.12791,-0.5632,0.35224,-0.9727020002,-9.749575297,0.41239905244999997,-1.9718,1.4629,-2.4751,-0.0018000000000000238,-0.008199999999999985,9.00000000000345e-05,-0.010854951221584752,-0.0019003369788326285,0.0026688071931171287
150000000000.0,-1,2.090581647,-1.9890828194999999,2.3499675395,0.28067,-0.47411,0.3747,-1.0090062185,-9.7445739055,0.44245643469999996,-1.984,1.4582,-2.4682,-0.0016000000000000458,-0.007800000000000029,-0.00019000000000002348,-0.012998102995599448,-0.001134799770287298,0.002238653008339142
150000000000.0,-1,0.9382218187999999,-0.691761091,2.5696364994999996,0.49832,-0.33905,0.3288,-1.0431333605,-9.738591849,0.49236247655,-2.0118,1.4529,-2.4443,-0.0017000000000000348,-0.007500000000000062,-0.00027999999999994696,-0.016383857219437026,-0.0003762968763985075,0.004708258286192368
150000000000.0,-1,0.0620564812,0.764134168,2.6434805740000002,0.73796,-0.19682,0.22054,-1.067748052,-9.731923327,0.5656867985999999,-2.058,1.4473,-2.4003,-0.0018000000000000238,-0.00749999999999984,-0.00021999999999999797,-0.008220423813924294,-0.0002968800936982152,-0.0027164166474960005
150000000000.0,-1,-0.1364301148,1.9292622544999998,2.123531991,0.93996,-0.025273,0.078869,-1.079123766,-9.7247644725,0.6593010794999999,-2.1193,1.4415,-2.3393,-0.0019000000000000128,-0.007100000000000106,-0.00031000000000003247,-0.010276528959676234,0.0005632087995000035,-0.0031233030364807846
150000000000.0,-1,-0.36012960795,2.7725360880000003,1.9798645684999998,1.0797,0.099644,-0.060574,-1.0768682365,-9.7171152855,0.7674292024,-2.19,1.4355,-2.2672,-0.0019000000000000128,-0.006899999999999906,-0.0004899999999999904,-0.011858130341833029,0.0021478089320352556,-0.005034466497918277
150000000000.0,-1,-0.5474464296,3.1348918055,2.215714501,1.1276,0.14413,-0.16042,-1.0635311925,-9.708779632999999,0.8821277808,-2.2632,1.4294,-2.1917,-0.0020000000000000018,-0.006800000000000139,-0.00036999999999998145,-0.011689052798123045,0.00339356990188322,-0.00671977774080279
150000000000.0,-1,-0.40102333845,2.933561281,2.2925986369999998,1.1284,0.081329,-0.16553,-1.0470560205,-9.699365249,0.9980227705,-2.3323,1.4228,-2.1208,-0.0018000000000000238,-0.00649999999999995,-0.00043999999999999595,-0.010710645645777728,0.005081675080907289,-0.0073712170602693305
150000000000.0,-1,0.0519948583,2.3891941395,2.3583031919999997,1.1202,-0.052508,-0.079536,-1.0358764395,-9.6878914685,1.1145257725,-2.3927,1.415,-2.0598,-0.0020999999999999908,-0.006599999999999939,-0.0003500000000000725,-0.01196834578707362,0.004331522529408494,-0.0072023179727587205
150000000000.0,-1,0.6184269623,2.0986230999999997,2.4378351234999998,1.1112,-0.20499,0.07409,-1.037151304,-9.6735737595,1.231519107,-2.4417,1.4059,-2.0121,-0.0016999999999998128,-0.006099999999999994,-0.0005299999999999194,-0.008037931494298878,0.004857138370429892,-0.010219592439501213
150000000000.0,-1,0.6184269623,2.0986230999999997,2.4378351234999998,1.1112,-0.20499,0.07409,-1.037151304,-9.6735737595,1.231519107,-2.4417,1.4059,-2.0121,-0.0016000000000000458,-0.005900000000000016,-0.00034000000000000696,-0.0024582981072009957,0.0028000931921752237,-0.007843379097709935
150000000000.0,-1,1.5594534829999998,1.96917532,2.123531991,1.1071,-0.35743,0.24222,-1.0532342099999998,-9.6561179225,1.3494931065,-2.4789,1.3953,-1.9778,-0.0014000000000000679,-0.005800000000000027,-0.00029000000000001247,-0.004551937514915894,0.002542920270720339,-0.006962709058157657
150000000000.0,-1,1.8529665174999999,1.8894472555,1.9532885469999999,1.0878,-0.53076,0.39359,-1.0827522264999998,-9.6355239575,1.4677613054999998,-2.506,1.3837,-1.9555,-0.0008999999999999009,-0.005600000000000049,-0.000300000000000078,-0.0034249863320814367,0.0028626963823252805,-0.005376937888527777
150000000000.0,-1,1.804227467,1.693608455,1.867774559,1.0434,-0.68659,0.52754,-1.123057558,-9.612478329999998,1.5841662409999997,-2.5249,1.3715,-1.9433,-0.0008000000000001339,-0.005499999999999838,-0.0005999999999999339,0.001911724575693885,-0.00033684549944079656,-0.005635659809940741
150000000000.0,-1,1.6115267945,1.0880478175,1.6497727294999998,0.89936,-0.78822,0.60524,-1.1702275444999999,-9.588746236999999,1.6901761275,-2.536,1.3596,-1.9404,-0.0007999999999999119,-0.005700000000000038,-0.0004899999999999904,-0.0025552977623075623,-0.00022965872940861054,-0.0021960574365693653
150000000000.0,-1,1.337430927,0.6606936238,1.2309307079999998,0.65288,-0.82352,0.60843,-1.217397531,-9.567760005999999,1.774022985,-2.5402,1.3496,-1.9451,-0.0008000000000001339,-0.005700000000000038,-0.0007000000000000339,-0.006603185034364634,-0.0007909576719564715,-0.0022634392060196795
150000000000.0,-1,1.108543716,0.3796938747,0.65834983445,0.38982,-0.79608,0.55758,-1.2602525915,-9.551480967,1.8309015549999998,-2.5387,1.3422,-1.9554,-0.0006999999999999229,-0.005700000000000038,-0.0009599999999999609,-0.0037960554614575592,-0.0020937221736003764,-0.0018235325307216499
150000000000.0,-1,0.6242913389999999,0.042207821599999994,0.45195907855,0.18511,-0.71084,0.44894,-1.2949681325,-9.540301386,1.864440298,-2.5345,1.3372,-1.9678,-0.0008999999999999009,-0.005800000000000027,-0.0008299999999999974,-0.005876397020606161,-0.0018953192232717964,-0.0020201657689322694
150000000000.0,-1,0.55924382955,0.04747399265,0.7294578536,0.087216,-0.59069,0.32097,-1.3185040924999998,-9.5333386645,1.883661332,-2.5309,1.3341,-1.9783,-0.0008000000000001339,-0.005800000000000027,-0.0009500000000000064,-0.007967620039138534,-0.0016466182175947086,-0.0025312987324217495
150000000000.0,-1,0.5992647682,0.19128851489999998,1.0994235315,0.12671,-0.47231,0.16342,-1.3291933409999999,-9.528239206499999,1.901705568,-2.5316,1.3319,-1.9831,-0.0010999999999998789,-0.005599999999999827,-0.0009299999999999864,-0.008887302568575395,-0.0007508669055280581,-0.003262602196604014
150000000000.0,-1,0.3986795491,0.53965014285,1.504536243,0.27221,-0.3725,0.009973,-1.3258590799999999,-9.522845549,1.9308313185,-2.5399,1.3296,-1.979,-0.001000000000000112,-0.00550000000000006,-0.0009900000000000464,-0.004854162367110559,-0.0011323913142196051,-0.005297123381999391
150000000000.0,-1,0.2910417587,0.8906203396999999,2.0036947279999997,0.44732,-0.28306,-0.089993,-1.3123259029999998,-9.515392495,1.976039975,-2.5554,1.3265,-1.9664,-0.0008999999999999009,-0.005400000000000071,-0.0009299999999999864,-0.006544288286374211,0.00021137529164150237,-0.006118437158237455
150000000000.0,-1,0.12849653495,1.2239679865,2.0611616969999997,0.63188,-0.22521,-0.12803,-1.2947719995,-9.504507113499999,2.0392928675,-2.5759,1.3219,-1.9478,-0.001000000000000112,-0.00529999999999986,-0.0011200000000000099,-0.006810143748813058,0.0010030414464032855,-0.005967687066278149
150000000000.0,-1,0.07851203989999998,1.555726956,1.7215574075,0.71775,-0.2675,-0.10462,-1.2777084284999998,-9.490483604,2.114117607,-2.598,1.3162,-1.9277,-0.0009999999999998899,-0.005400000000000071,-0.0010599999999999499,-0.005863466182377319,-7.151087057843952e-05,-0.0062117207106724415
150000000000.0,-1,0.11219788265,1.6972369155,1.125018888,0.69652,-0.37498,-0.040821,-1.263684919,-9.474989097,2.190413344,-2.6183,1.31,-1.9105,-0.0009000000000001229,-0.005400000000000071,-0.0010900000000000354,-0.006723233779001747,-0.00022089960855820046,-0.006431354172580228
150000000000.0,-1,0.20546893079999998,1.6122132599999999,0.5801221874,0.61207,-0.46284,0.054329,-1.256035732,-9.45949459,2.260628958,-2.6344,1.3039,-1.8987,-0.0008999999999999009,-0.00529999999999986,-0.0012400000000000189,-0.004503600719639733,-0.00010359476695542824,-0.005257984049966247
150000000000.0,-1,0.20546893079999998,1.6122132599999999,0.5801221874,0.61207,-0.46284,0.054329,-1.256035732,-9.45949459,2.260628958,-2.6344,1.3039,-1.8987,-0.001000000000000112,-0.005400000000000071,-0.0012999999999999678,-0.005927380085275269,-0.001068657106149118,-0.00561202811682282
150000000000.0,-1,0.25572801204999995,1.2730012365,0.2646814835,0.53582,-0.53834,0.1458,-1.256035732,-9.444196216,2.323587651,-2.646,1.2981,-1.8925,-0.0007999999999999119,-0.00550000000000006,-0.0013400000000000079,-0.007261625502327895,0.000505769152261859,-0.005069760181821259
150000000000.0,-1,0.39370757755,0.8178549967,0.12776103619999998,0.49582,-0.5943,0.19418,-1.259958392,-9.429093974999999,2.3824275509999997,-2.6551,1.2924,-1.8895,-0.0012000000000000899,-0.00550000000000006,-0.0012600000000000389,-0.00648248351889702,-0.0029833118051438845,-0.004159460562992656
150000000000.0,-1,0.48177129454999995,0.47800554095,-0.04492426365,0.47994,-0.63604,0.21621,-1.2654501159999998,-9.413795601,2.4393061209999995,-2.663,1.2868,-1.8882,-0.0005999999999999339,-0.005499999999999838,-0.0013199999999999878,-0.0033184115799211877,-0.0014323251761143574,-0.005803646381870919
150000000000.0,-1,0.48828291014999997,0.11317854764999999,-0.13018327875,0.48781,-0.65012,0.19005,-1.268392111,-9.3983991605,2.4965769569999994,-2.6715,1.2812,-1.8866,-0.0006999999999999229,-0.00550000000000006,-0.0011700000000000044,-0.004655916918434366,-0.0028527262870250425,-0.005777204165768879
150000000000.0,-1,0.3917364409,0.2936895542,0.10148902085,0.50823,-0.63342,0.13956,-1.2663327144999998,-9.3827085205,2.555809123,-2.6816,1.2757,-1.8832,-0.00029999999999996696,-0.005800000000000027,-0.0010799999999999699,-0.0005468398941821384,0.0010726810017946953,-0.003315377919688167
150000000000.0,-1,0.3260514992,0.48894976235,0.1147574183,0.51781,-0.58446,0.095681,-1.2605467909999999,-9.366919814,2.615629688,-2.6925,1.2702,-1.8785,-0.0008000000000001339,-0.005600000000000049,-0.0012100000000000444,-0.0029307248198824354,-0.007502870411722595,-0.0073335320250969005
150000000000.0,-1,0.26961422845,0.6350688473499999,0.02491869765,0.50543,-0.53985,0.059994,-1.2518188725000001,-9.351621439999999,2.6740773219999996,-2.7038,1.265,-1.8728,-0.00019999999999997797,-0.005800000000000027,-0.0011999999999999789,-0.0005712201947043472,-0.0027551653752497796,-0.006053898063718144
150000000000.0,-1,0.18147205824999998,0.7071869514499999,-0.1249759476,0.44187,-0.54276,0.027897,-1.2400508925,-9.33789213,2.7271312985,-2.7148,1.2603,-1.8672,-0.0005999999999999339,-0.006099999999999994,-0.0011299999999999644,-0.004057703609640084,-0.001941298120263557,-0.003539058833506026
150000000000.0,-1,0.09802727339999999,0.64681721405,-0.28126452865,0.35639,-0.5873,-0.021954,-1.222300856,-9.3268106155,2.7724380215,-2.7264,1.2567,-1.8616,-9.999999999998899e-05,-0.006099999999999994,-0.0013699999999999823,-0.0010702462959375492,-0.0022347308798509324,-0.004641311849070018
150000000000.0,-1,0.0807675694,0.6862105270999999,-0.2514228927,0.28105,-0.6424,-0.072723,-1.1974900314999999,-9.318671096,2.8104878235,-2.7388,1.254,-1.8555,-0.000500000000000167,-0.006399999999999961,-0.0011400000000000299,-0.0061600891344057995,-0.0015815810218802184,-0.00322576284149223
150000000000.0,-1,0.01511204765,0.6825624533,-0.12702553744999998,0.21562,-0.66349,-0.10579,-1.167775882,-9.3128851725,2.8418691034999997,-2.7517,1.2521,-1.8494,0.00020000000000020002,-0.00651999999999997,-0.0014899999999999913,-0.0006840961579910321,-0.003416403191632611,-0.0043016228753272046
150000000000.0,-1,0.0033931009,0.6653027493,0.00577611685,0.17427,-0.63444,-0.11638,-1.136590735,-9.308668312999998,2.8683470585,-2.7643,1.2507,-1.8434,-0.00020000000000020002,-0.00649999999999995,-0.0012100000000000444,-0.0005342351039743232,-0.003660150308452348,-0.004917844790560899
150000000000.0,-1,-0.2976710541,0.44362342605,-0.08940722805,0.15193,-0.58802,-0.11012,-1.1072688515,-9.305137919,2.8910984865,-2.7758,1.2496,-1.838,6.666666666665932e-05,-0.006480000000000041,-0.0008000000000000229,0.0028167555944245137,-0.0007700058276580712,-0.007565198061753264
150000000000.0,-1,-0.7306934915000001,0.2749588527,-0.1504928509,0.16644,-0.54411,-0.10453,-1.0796140984999998,-9.301411391999999,2.9135557149999998,-2.7867,1.2484,-1.8327,6.666666666688137e-05,-0.006869999999999932,-0.0015299999999999203,-0.0022996302519708856,-0.0024246384048873804,-0.00323575172938817
150000000000.0,-1,-0.7306934915000001,0.2749588527,-0.1504928509,0.16644,-0.54411,-0.10453,-1.0796140984999998,-9.301411391999999,2.9135557149999998,-2.7867,1.2484,-1.8327,6.666666666665932e-05,-0.007060000000000066,-0.0013800000000000479,-0.0008912401891816302,-0.0009425097112598646,-0.003222373500172182
150000000000.0,-1,-1.0021415635,0.04438489789999999,-0.0485233042,0.18633,-0.51451,-0.10227,-1.0531361435,-9.296900333,2.9373858745,-2.7973,1.247,-1.8274,0.00019999999999997797,-0.00714999999999999,-0.0013100000000000334,-0.003028284570959494,-0.0010374088139717408,-0.003393189786069506
150000000000.0,-1,-1.0956970044999998,-0.0264387284,-0.00043149259999999994,0.19531,-0.48885,-0.10252,-1.0274427204999999,-9.2918989415,2.9621966989999997,-2.8077,1.2454,-1.822,0.00039999999999995595,-0.00714999999999999,-0.0014299999999999313,-0.001957374903714726,-0.0005376621675332593,-0.003552499271044951
150000000000.0,-1,-1.2308326415,0.10741223744999999,-0.014219642499999997,0.19389,-0.48285,-0.10262,-1.0017492975,-9.2867994835,2.9871055899999996,-2.818,1.2437,-1.8167,0.0004999999999999449,-0.007179999999999964,-0.0013199999999999878,0.0009729321377158762,-0.0018590841901457988,-0.000656677067258471
150000000000.0,-1,-1.3100703734999999,0.2886489361,-0.1269372776,0.17897,-0.47737,-0.087257,-0.9774484187999999,-9.2818961585,3.010249284,-2.8276,1.2422,-1.8119,0.0008000000000001339,-0.007180000000000075,-0.0011700000000000044,0.0002481002306995439,0.0011452722210330002,-0.002488382495685393
150000000000.0,-1,-1.3731271329999999,0.39631614644999996,-0.25088352695,0.17457,-0.45586,-0.07198,-0.95519712995,-9.2769928335,3.0323142464999995,-2.8364,1.2406,-1.8078,0.0006999999999999229,-0.007510000000000017,-0.0009500000000000064,-9.760073923548163e-05,0.0008329555553412415,-0.0030190521649480218
150000000000.0,-1,-1.456483658,0.47428882059999994,-0.4377296294,0.18785,-0.41199,-0.063998,-0.9348287178999999,-9.271599175999999,3.0550656744999998,-2.8446,1.239,-1.8039,0.0009999999999998899,-0.007519999999999971,-0.0008099999999999774,0.0009766411933891384,3.802503912675448e-05,-0.004576117163811233
150000000000.0,-1,-1.4685458374999998,0.5328737477,-0.6212708908,0.18222,-0.35315,-0.033626,-0.9184319991,-9.266009385499999,3.0769345039999996,-2.8515,1.2372,-1.8008,0.0012000000000000899,-0.007689999999999975,-0.0007100000000000994,0.0014296268881803798,-0.0026514968261859284,-0.0031577095729407034
150000000000.0,-1,-1.5419976459999998,0.6411489703500001,-0.47355332184999993,0.13362,-0.29328,0.008187,-0.90800753015,-9.261204127,3.0945864739999998,-2.8562,1.2357,-1.7994,0.0009999999999998899,-0.00817000000000001,-0.0005299999999999194,-0.0005871909527519481,-0.00046265833309422355,-0.0006876554510117927
150000000000.0,-1,-1.6161359199999998,0.7336354865,-0.22970116294999998,0.08041,-0.20326,0.039885,-0.9034670511999999,-9.2577717995,3.106158321,-2.8585,1.2346,-1.7996,0.0013000000000000789,-0.00812999999999997,-0.0005399999999999849,0.0018193107677106912,-0.0032578475445865784,-0.005013107340568368
150000000000.0,-1,-1.7325408555,0.77204813455,0.0103165958,-0.027199,-0.099203,0.076669,-0.90688957205,-9.257085334,3.1070409194999997,-2.8576,1.2344,-1.8018,0.0014000000000000679,-0.008380000000000054,-2.0000000000020002e-05,0.003942220711217859,-0.0002321982242667886,-0.0032724673515192038
150000000000.0,-1,-1.7297949934999999,0.6581733147499998,0.25816986789999996,-0.097348,-0.20395,0.059156,-0.907703524,-9.2591447305,3.1005685305,-2.8568,1.2351,-1.8046,0.0012999999999998568,-0.008589999999999987,-2.0000000000020002e-05,0.00102791290509896,-0.0014001280374849046,-0.003861642956803024
150000000000.0,-1,-1.5853430389999998,0.4523611512,0.5919588139499999,-0.11673,-0.32136,-0.000807,-0.8990932853,-9.262871257499999,3.0921348115,-2.8586,1.2362,-1.806,0.0013000000000000789,-0.008639999999999981,-4.0000000000040004e-05,0.002590204103438909,-0.0015066824331655404,-0.00232797977818322
150000000000.0,-1,-1.4976715879999998,-0.00069627215,0.6742562207499999,-0.08546,-0.33828,-0.03624,-0.88511880905,-9.2662055185,3.0861527549999996,-2.8623,1.2373,-1.806,0.0014000000000000679,-0.008950000000000014,-0.00014999999999998348,0.0027498809377322075,-0.0024397960941309194,-0.0035846591419090856
150000000000.0,-1,-0.67672749655,-0.48619409369999994,1.1025616594999998,-0.089469,-0.32615,-0.059325,-0.8687318969,-9.269539779499999,3.0806610309999996,-2.8667,1.2383,-1.805,0.0015000000000000568,-0.009039999999999937,0.00012000000000000899,0.003970119062329358,-0.001554962510334601,-0.004673488812736437
150000000000.0,-1,-1.360378488,-0.5751011826,1.1135451075,-0.14786,-0.30127,-0.067682,-0.85228614485,-9.274541171,3.0704621149999998,-2.8708,1.2399,-1.8041,0.0012999999999998568,-0.009320000000000106,0.000280000000000058,0.0018949120925442209,0.0012425856921240985,-0.006856788841864692
150000000000.0,-1,-1.360378488,-0.5751011826,1.1135451075,-0.14786,-0.30127,-0.067682,-0.85228614485,-9.274541171,3.0704621149999998,-2.8708,1.2399,-1.8041,0.0015000000000000568,-0.009569999999999967,0.00029999999999996696,0.004911346808076367,0.0008782911836835439,-0.003565531054764648
150000000000.0,-1,-1.9741767114999997,-0.9317592364499999,0.6966644160000001,-0.23334,-0.27371,-0.058395,-0.83702699745,-9.2818961585,3.052221746,-2.8739,1.2422,-1.804,0.0012000000000000899,-0.009610000000000007,0.0007199999999999429,0.004581488743874651,0.0019303096792688823,-0.007972480621436517
150000000000.0,-1,-2.0434116605,-1.0128308119999998,0.5917921008999999,-0.31413,-0.27875,-0.034147,-0.8243568056499999,-9.2918989415,3.0252534584999995,-2.8756,1.2453,-1.8054,0.0020000000000000018,-0.009739999999999971,-7.999999999996898e-05,0.0026564865745706268,-0.0019665818639165167,-0.0017948357017800731
150000000000.0,-1,-2.313781001,-0.9796451084,0.55020209825,-0.36574,-0.35434,0.005928,-0.81323606455,-9.3032746555,2.9928915135,-2.8763,1.249,-1.8084,0.0015999999999998238,-0.010070000000000023,0.0006399999999999739,0.0037466205487621806,0.0032192253435767704,-0.0001443286061508786
150000000000.0,-1,-2.1910017429999997,-1.0462714885,0.3345244448,-0.39613,-0.44265,0.054891,-0.8037236140499999,-9.315336834999998,2.9577837065,-2.8763,1.2529,-1.8131,0.0018000000000000238,-0.010079999999999978,0.0007300000000000084,0.005443949392521796,0.0037916903974577476,-0.00019742226503716154
150000000000.0,-1,-1.4794312189999999,-1.088930416,-0.3086545021,-0.42222,-0.47537,0.12478,-0.7993596547999999,-9.327497080999999,2.9206165029999998,-2.8744,1.2569,-1.8204,0.0020000000000000018,-0.010229999999999961,0.0007599999999999829,0.007473110091073876,0.0044382296520157904,0.002403876129736915
150000000000.0,-1,-1.5326813285,-0.97628142745,-0.44132866995,-0.468,-0.46896,0.21551,-0.80425317315,-9.340049593,2.8787421074999995,-2.8692,1.2611,-1.8312,0.0020000000000000018,-0.010240000000000027,0.0009100000000000774,0.0042307730860002835,0.006758485526577651,0.0018788892293848392
150000000000.0,-1,-1.522580479,-0.9640525349,-0.39847360945,-0.47043,-0.47297,0.25885,-0.81433440935,-9.352209838999999,2.835887047,-2.862,1.2652,-1.8441,0.0022999999999999687,-0.010170000000000012,0.0009699999999999154,0.010030866347363387,0.005304266517143219,0.0035284526062095978
150000000000.0,-1,-1.5898540979999998,-0.9744868105,-0.5105145857,-0.47023,-0.36817,0.30911,-0.8318588928999999,-9.363781686,2.7923455209999997,-2.8521,1.2691,-1.859,0.0020000000000000018,-0.010190000000000032,0.001080000000000081,0.0060315815006173334,0.007715904781692373,0.005089024124357522
150000000000.0,-1,-1.7144966195,-1.053038077,-0.5562822212499999,-0.48782,-0.12715,0.33795,-0.8597391988499999,-9.3750593335,2.7459600664999995,-2.8382,1.273,-1.8757,0.0026000000000001577,-0.009789999999999965,0.0011799999999999589,0.01149532422952193,0.0064954126060641215,0.0064615288082743305
150000000000.0,-1,-2.1187267325,-1.0002783,-0.5010217485,-0.53538,0.17116,0.34152,-0.8969162089999999,-9.387121512999999,2.692317691,-2.82,1.2772,-1.8935,0.0024999999999999467,-0.009489999999999998,0.0013199999999999878,0.014982564768468709,0.008575190668011157,0.0043127868798622515
150000000000.0,-1,-1.5926980265,-0.76453624065,0.03880491404999999,-0.56903,0.34181,0.33865,-0.9394770699999999,-9.3997720915,2.6329874584999997,-2.7989,1.2817,-1.9122,0.0024999999999999467,-0.009140000000000037,0.0013199999999999878,0.014503161024390643,0.007927346719321715,0.004682105862299224
150000000000.0,-1,-1.5735750589999997,-0.44928186309999996,0.5771017392,-0.61902,0.44514,0.38224,-0.988118054,-9.412716869499999,2.5679693689999996,-2.7743,1.2864,-1.9331,0.0023999999999999577,-0.008599999999999941,0.0014200000000000879,0.016016397099296587,0.00976829179827976,0.0018094968891686491
150000000000.0,-1,-1.5735750589999997,-0.44928186309999996,0.5771017392,-0.61902,0.44514,0.38224,-0.988118054,-9.412716869499999,2.5679693689999996,-2.7743,1.2864,-1.9331,0.0022999999999999687,-0.008450000000000069,0.0012699999999999934,0.017434566658663053,0.007028240777151362,0.0020711765643302016
150000000000.0,-1,-1.5283664024999999,-0.20532183105,1.016165073,-0.73039,0.58751,0.45453,-1.0468598875,-9.4268384455,2.4917716984999996,-2.7438,1.2916,-1.9587,0.0020000000000000018,-0.007909999999999973,0.0016199999999999548,0.018306280078517867,0.007383710767449925,-0.0019053824598165292
150000000000.0,-1,-1.252505338,-0.05792788155,1.3769517265,-1.1389,0.81831,0.59013,-1.193469305,-9.4635153165,2.277692529,-2.6589,1.3055,-2.0303,0.0016000000000000458,-0.007419999999999982,0.0019599999999999618,0.018463241964891575,0.008530363177155387,-0.006605423244081976
150000000000.0,-1,-1.252505338,-0.05792788155,1.3769517265,-1.1389,0.81831,0.59013,-1.193469305,-9.4635153165,2.277692529,-2.6589,1.3055,-2.0303,0.001100000000000101,-0.007369999999999988,0.0019700000000000273,0.016281195559094686,0.007712965498835711,-0.006702883101154633
150000000000.0,-1,-1.62201991,0.01058137535,1.4217681169999998,-1.3969,0.82791,0.68759,-1.2800620245,-9.486070611499999,2.132161843,-2.6009,1.3144,-2.0811,0.0009999999999998899,-0.007299999999999973,0.0020700000000000163,0.014046320312482319,0.007716094211601243,-0.007463017602732158
150000000000.0,-1,0.33380855935,-0.27645927015,2.1768801669999998,-1.6563,0.73118,0.77449,-1.3733232659999999,-9.510096904,1.9600551354999998,-2.5304,1.3243,-2.1455,0.000600000000000156,-0.007380000000000053,0.0020200000000000218,0.008090730452102735,0.0062101968245649175,-0.005722907854243786
150000000000.0,-1,1.085007756,-0.31278310174999996,2.3590877239999997,-1.8764,0.51853,0.8407,-1.4689381035,-9.53402513,1.765197,-2.4475,1.3344,-2.2245,0.0005999999999999339,-0.007539999999999991,0.0018799999999999928,0.008131284455951793,0.005261491911569438,-0.0049974096130007695
150000000000.0,-1,1.1794457955,-0.2923754631,2.5622815119999998,-1.952,0.23431,0.87979,-1.5634742094999998,-9.554422962,1.5621012784999997,-2.3558,1.3435,-2.3154,0.00039999999999995595,-0.007809999999999984,0.0020799999999999708,0.0066351681312577515,0.00457372265941669,-0.002131338326624821
150000000000.0,-1,1.872285618,-0.27190898455,2.6791767799999997,-1.8615,-0.067654,0.89249,-1.654577988,-9.568740671,1.368419941,-2.2618,1.3501,-2.4116,0.00039999999999995595,-0.008079999999999976,0.0019099999999999673,0.006768575896372919,0.0034176445472335892,0.0016441535302211818
