Time,placement_label,user_acc_x(m/s^2),user_acc_y(m/s^2),user_acc_z(m/s^2),rotation_rate_x(rad/s),rotation_rate_y(rad/s),rotation_rate_z(rad/s),gravity_x(m/s^2),gravity_y(m/s^2),gravity_z(m/s^2),attitude_roll(rad),attitude_pitch(rad),attitude_yaw(rad),target_delta_x,target_delta_y,target_delta_z,target_delta_roll,target_delta_pitch,target_delta_yaw
150000000000.0,-1,-0.14475596065,0.08379782425,0.0544072942,-0.011711,0.003278,-0.006537,-0.33617196199999994,-9.742318376,1.0700035815,-2.8372,1.4562,-0.38903,0.0,0.0,0.0,0.0,0.0,0.0
150000000000.0,-1,-0.1601229812,0.09137836469999999,0.0433061664,-0.004363,0.0035,-0.006441,-0.33547568985000004,-9.7424164425,1.0692190495,-2.8376,1.4563,-0.38859,-4.999999999999449e-05,-9.999999999976694e-05,-2.999999999997449e-05,0.00021806001283408705,-0.0005011284622566947,-0.0003978251021714563
150000000000.0,-1,-0.13414516534999998,0.14293192375,0.0319304524,0.005434,0.003797,-0.006312,-0.3514311094,-9.741141577999999,1.0756914384999998,-2.8258,1.4551,-0.40022,2.999999999997449e-05,-0.00019999999999997797,7.00000000000145e-05,-0.0004536468881095601,-0.002540119181221101,0.0002761325995632724
150000000000.0,-1,-0.13414516534999998,0.14293192375,0.0319304524,0.005434,0.003797,-0.006312,-0.3514311094,-9.741141577999999,1.0756914384999998,-2.8258,1.4551,-0.40022,-0.00012999999999996348,0.00039999999999995595,9.99999999995449e-06,-0.000391550520735251,0.007613527880115045,-0.002681334777676403
150000000000.0,-1,-0.1184251054,0.17241071365,-0.007286340949999999,0.014137,0.000725,-0.008505,-0.3574131659,-9.740651245499999,1.077750835,-2.8214,1.4547,-0.40459,-9.00000000000345e-05,-0.00010000000000021103,-2.999999999997449e-05,0.0004638496817861437,-0.0003745563323407364,-0.00018387301641586973
150000000000.0,-1,-0.1351552503,0.2191982408,-0.02986124925,0.027562,0.002323,-0.00594,-0.36418956105,-9.740160912999999,1.0800063645,-2.8164,1.4543,-0.40954,-9.00000000000345e-05,-0.0001499999999996504,-7.00000000000145e-05,0.0009826704057154245,-0.000666459478843695,0.0022544891614129092
150000000000.0,-1,-0.1351552503,0.2191982408,-0.02986124925,0.027562,0.002323,-0.00594,-0.36418956105,-9.740160912999999,1.0800063645,-2.8164,1.4543,-0.40954,1.0000000000065512e-05,-0.0001500000000000945,-0.00012000000000000899,0.0011414531996791766,-0.0033287043762808555,0.0015555464540184527
150000000000.0,-1,-0.1073239776,0.22642574184999997,-0.0399522921,0.026492,-0.002545,-0.005885,-0.36942631215,-9.739768646999998,1.081869628,-2.8125,1.454,-0.41333,-4.999999999999449e-05,9.999999999976694e-05,9.999999999998899e-05,-0.0004859307408926483,0.0009592686513004711,-0.00020082874185445299
150000000000.0,-1,-0.10264620555,0.22517049064999997,-0.04796432515,0.03756,-0.003393,-0.009333,-0.3727507665,-9.738984115,1.0879497509999998,-2.8115,1.4533,-0.41439,-7.00000000000145e-05,3.333333333355171e-05,2.3333333333375172e-05,-0.000754025306713757,-0.000518337806209912,-3.669469007583359e-05
150000000000.0,-1,-0.1079712165,0.22107131095,-0.06763646505,0.03385,-0.002288,-0.010602,-0.37162300174999996,-9.738591849,1.0915782115,-2.8135,1.4529,-0.41244,-2.999999999997449e-05,3.333333333310762e-05,2.333333333326415e-05,8.683274454845957e-05,0.00022354754932707444,-0.00012070975576516929
150000000000.0,-1,-0.14107846689999998,0.16531069904999998,-0.061497502149999994,0.039854,0.001512,-0.009371,-0.3705344636,-9.738199583,1.0955008714999999,-2.8154,1.4526,-0.41044,-6.0000000000060005e-05,3.333333333355171e-05,2.3333333333375172e-05,-4.8861317248238834e-05,0.0009976074285344971,0.00010491851675653585
150000000000.0,-1,-0.1488061071,0.11282550824999998,-0.05302455655,0.038712,-0.000923,-0.011758,-0.36923998579999995,-9.737807317,1.0996196644999998,-2.8176,1.4522,-0.40825,-0.00010999999999994348,0.00019999999999997797,-2.0000000000020002e-05,0.0001817935376218216,0.002959871774992351,-0.0008530015661529777
150000000000.0,-1,-0.1728323996,0.11321777424999999,-0.0330876371,0.035011,0.000209,-0.016637,-0.3675140154,-9.737415051,1.103248125,-2.8201,1.4519,-0.40581,-9.00000000000345e-05,4.999999999988347e-05,4.0000000000040004e-05,0.00019479045077641644,0.00031805112257377033,-0.00018913853745261555
150000000000.0,-1,-0.17267549319999997,0.10435256265,0.00889463155,0.03375,0.001388,-0.017874,-0.36571939844999996,-9.737120851499999,1.106778519,-2.8225,1.4517,-0.40337,-9.00000000000345e-05,4.999999999988347e-05,2.0000000000020002e-05,-0.00028676467511257187,0.00020073771300399557,0.000309236033534388
150000000000.0,-1,-0.19370095079999997,0.12357359664999999,-0.014709975,0.040897,0.007623,-0.014256,-0.3642974342,-9.7367285855,1.1107011789999999,-2.8246,1.4513,-0.40111,-0.00017000000000000348,0.00010000000000021103,2.0000000000020002e-05,-0.0016944196343944284,-0.00020252058678016382,0.0006032136316211911
150000000000.0,-1,-0.1485119076,0.13584171579999998,-0.0302829352,0.030996,0.010986,-0.019248,-0.38060589315,-9.735845987,1.113054775,-2.8121,1.4506,-0.41343,-8.999999999992347e-05,0.000300000000000189,-9.00000000000345e-05,0.000439835628239571,0.0006783814479427441,0.0006600454581144888
150000000000.0,-1,-0.1541016981,0.11217826934999998,-0.02678196115,0.034695,0.009845,-0.013166,-0.38788242744999996,-9.735257588,1.11599677,-2.8071,1.45,-0.41829,0.0020299999999999763,0.0002999999999997449,0.0005699999999999594,-0.03552415540871845,0.0007792432452256026,0.013654015385759388
150000000000.0,-1,-0.15464106384999998,0.1117761967,-0.03039080835,0.035826,0.012245,-0.005966,-0.38734306169999994,-9.734865322,1.1196252304999998,-2.8085,1.4497,-0.41672,-6.0000000000060005e-05,0.0007999999999999119,4.999999999999449e-05,0.00016530229838274124,0.0005004815865790047,-0.0003333017338615907
150000000000.0,-1,-0.15464106384999998,0.1117761967,-0.03039080835,0.035826,0.012245,-0.005966,-0.38734306169999994,-9.734865322,1.1196252304999998,-2.8085,1.4497,-0.41672,-0.00042999999999993044,0.0007999999999999119,0.0003300000000000525,0.00043338995680564096,0.02085403966704713,-0.008768769356192196
150000000000.0,-1,-0.1501005849,0.08383705084999998,-0.02093719775,0.038234,0.013518,-0.004748,-0.3948745689,-9.73408079,1.1231556245,-2.8035,1.4491,-0.42151,2.999999999997449e-05,0.00010000000000021103,-1.0000000000065512e-05,-0.0011965481076190443,0.0002030323855792826,0.0011009258860494864
150000000000.0,-1,-0.11716985419999999,0.06396877795,-0.02635046855,0.036932,0.015897,-0.004798,-0.40043493944999997,-9.7335904575,1.125999553,-2.7999,1.4486,-0.4249,-0.00029000000000001247,9.999999999976694e-05,7.00000000000145e-05,5.18552614403589e-05,0.00029484569345195055,-0.001959885052406518
150000000000.0,-1,-0.10165573389999999,0.06455717695,-0.04233530804999999,0.036698,0.023322,0.004746,-0.40067029904999996,-9.733100125,1.129922213,-2.8008,1.4482,-0.42379,-0.000140000000000029,0.00010000000000021103,-4.999999999999449e-05,-0.0009691833163012475,3.423296796434272e-05,0.00021707674087156903
150000000000.0,-1,-0.06119349599999999,0.09286897549999999,-0.06139943565,0.033102,0.020795,0.004733,-0.40148425099999996,-9.732707859,1.133256474,-2.8011,1.4479,-0.42326,-0.00018999999999991246,9.999999999976694e-05,-2.0000000000020002e-05,-0.001113048338320155,-6.274101172398794e-05,-8.287225119363306e-05
150000000000.0,-1,-0.0762761237,0.1403135482,-0.09414383999999999,0.034133,0.026871,0.004661,-0.4063091227999999,-9.732511725999998,1.1327661414999999,-2.7972,1.4478,-0.42686,0.00013999999999991797,0.000300000000000189,0.00010000000000010001,-0.0008718682097601516,-0.0008029742091086867,0.0029713676426235125
150000000000.0,-1,-0.08923070835,0.15462145054999998,-0.06377264495,0.030374,0.029149,0.008188,-0.41220291945,-9.7322175265,1.13364874,-2.7929,1.4475,-0.43088,-0.00020999999999993246,0.00010000000000021103,-0.0001100000000000545,0.0008856462035344848,0.00043797482734508897,-0.00026711796369194296
150000000000.0,-1,-0.06096794305,0.162201991,-0.046660040699999995,0.027977,0.027912,0.002158,-0.41607654619999995,-9.731825260499999,1.1353158705,-2.7903,1.4472,-0.43311,4.999999999999449e-05,9.999999999976694e-05,0.00012000000000000899,0.0001346990444508478,0.0001528926864136082,0.0018328965300284938
150000000000.0,-1,-0.072961476,0.15909328295,-0.06600856114999999,0.029042,0.032762,0.004511,-0.42053857194999994,-9.731531061,1.1359042695,-2.787,1.447,-0.43602,-4.999999999999449e-05,0.00010000000000021103,-9.99999999995449e-06,0.0008298885652022747,0.0004902261808341635,6.222023307489444e-05
150000000000.0,-1,-0.06791105124999999,0.16531069904999998,-0.045149816599999996,0.030233,0.034024,0.002103,-0.42110735764999996,-9.731138795,1.1388462645,-2.7874,1.4467,-0.43525,-0.0002500000000000835,0.00010000000000021103,-8.000000000008001e-05,0.0009437182755771545,0.0006356919085914736,-0.0008273818975319536
150000000000.0,-1,-0.0782374537,0.17239110035,-0.06714613254999999,0.030073,0.038838,0.004439,-0.42184285639999997,-9.730746529,1.1419843925,-2.7877,1.4463,-0.43451,3.0000000000085514e-05,9.999999999976694e-05,4.0000000000040004e-05,-0.0005056666071769911,0.0005405955209851765,0.0008171830669962965
150000000000.0,-1,-0.0541130947,0.17560768154999998,-0.056378430849999994,0.0302,0.03525,-0.000321,-0.4226273884,-9.730452329499998,1.1448283209999999,-2.7879,1.446,-0.43391,1.999999999990898e-05,9.999999999976694e-05,-4.999999999999449e-05,-0.0012489064631413527,0.0015939454425308863,0.00044608886370589573
150000000000.0,-1,-0.0546230405,0.1508851169,-0.08018897705,0.025098,0.041105,0.00434,-0.4233138539,-9.7300600635,1.14737805,-2.7881,1.4458,-0.43329,3.0000000000085514e-05,0.00019999999999997797,9.99999999995449e-06,-0.0007879636804952739,0.00034741513738345553,0.0006350423551604312
150000000000.0,-1,-0.07422653385,0.15913250954999997,-0.0827877393,0.019047,0.038487,0.006701,-0.42436316544999997,-9.729765863999999,1.1494374465,-2.7879,1.4455,-0.43311,-1.0000000000065512e-05,0.00019999999999997797,-9.99999999995449e-06,0.00016824166977968957,0.0006202377159303385,0.0006270323816006673
150000000000.0,-1,-0.059889211549999995,0.1156596301,-0.06774433819999999,0.016395,0.044417,0.011394,-0.4292762971,-9.729765863999999,1.1482606485,-2.7838,1.4455,-0.4367,1.0000000000065512e-05,0.00019999999999997797,-2.0000000000020002e-05,-0.00044115375812392443,0.0002587357753125463,0.00036513842005181374
150000000000.0,-1,-0.08580818750000001,0.09562464415,-0.07095111275,0.016263,0.047988,0.018561,-0.4317867995,-9.729471664499998,1.149731646,-2.7823,1.4452,-0.43771,9.999999999998899e-05,0.00010000000000021103,-0.00012999999999996348,-0.0018225617129026261,-0.00025700717359722347,0.0016667133682515267
150000000000.0,-1,-0.08580818750000001,0.09562464415,-0.07095111275,0.016263,0.047988,0.018561,-0.4317867995,-9.729471664499998,1.149731646,-2.7823,1.4452,-0.43771,-0.0001100000000000545,0.00019999999999997797,-7.00000000000145e-05,-1.996068265697204e-05,0.0004887499183969801,-9.35921247857685e-05
150000000000.0,-1,-0.0678816313,0.08709285865,-0.07059807335,0.01732,0.052812,0.024522,-0.43490531419999995,-9.729177465,1.151104577,-2.7804,1.445,-0.43914,3.0000000000085514e-05,0.00019999999999997797,-2.0000000000020002e-05,-0.0007121233103957181,-0.00032630826543322833,0.0008650545144119892
150000000000.0,-1,-0.0424431812,0.07626631704999999,-0.05323049619999999,0.0186,0.050363,0.034199,-0.4387887476,-9.728785199,1.1525755745,-2.7778,1.4447,-0.44111,-8.000000000008001e-05,0.00019999999999997797,-0.00014999999999998348,0.0012547600001466819,0.001485892540343814,-0.0005704154925454397
150000000000.0,-1,-0.035588332849999994,0.08103234894999999,-0.034284048399999996,0.02836,0.051876,0.033106,-0.44279966744999993,-9.728294866499999,1.1550272369999999,-2.7755,1.4443,-0.4429,2.999999999997449e-05,0.00019999999999997797,-7.999999999996898e-05,-0.00039230044136129294,0.0008842241177171584,0.0004938253901056733
150000000000.0,-1,0.023967452599999998,0.11653242194999999,-0.03912853349999999,0.039439,0.051235,0.033338,-0.44609470185,-9.7279026005,1.1571847,-2.7737,1.444,-0.44419,-5.999999999994898e-05,9.999999999976694e-05,-0.00021000000000004349,-0.0009746382624387095,0.0006586386202001027,-6.679879393201027e-05
150000000000.0,-1,0.0340094622,0.14756066255,-0.0791200522,0.043223,0.047705,0.035845,-0.4491053434,-9.727608401,1.158165365,-2.7717,1.4438,-0.44568,-4.0000000000040004e-05,0.00010000000000021103,-2.999999999997449e-05,0.0001029829227467971,0.0003294520945873458,-0.00014004826973224027
150000000000.0,-1,0.040981990350000004,0.17205767425000001,-0.1042643028,0.048208,0.045473,0.031131,-0.45174333225,-9.727412268,1.1587537639999999,-2.7699,1.4436,-0.44698,-3.999999999992898e-05,0.00019999999999997797,-4.0000000000040004e-05,0.0004302599994661094,0.0004107233645891384,-0.0001959262853290511
150000000000.0,-1,0.040609337649999994,0.18449250644999998,-0.12582912615,0.050706,0.044375,0.026368,-0.45375369549999994,-9.727314201499999,1.1590479635,-2.7685,1.4435,-0.44791,-0.000140000000000029,9.999999999976694e-05,-0.00021000000000004349,-7.808205329773443e-05,0.0009677237118339566,-0.000865945421760772
150000000000.0,-1,0.0215942433,0.1940539902,-0.12728051035,0.046947,0.046653,0.029894,-0.45703892325,-9.7271180685,1.1591460299999998,-2.766,1.4434,-0.44984,4.999999999999449e-05,0.00010000000000021103,7.00000000000145e-05,-0.00015247365185455664,-5.490503713745376e-05,0.0008299847899158053
150000000000.0,-1,-0.00392266,0.19329887815,-0.1524149543,0.041982,0.048955,0.024982,-0.46100080984999997,-9.7271180685,1.1576750325,-2.7626,1.4434,-0.45272,-0.00014999999999998348,0.00010000000000021103,-0.00015999999999993797,0.0023596343842182677,0.0013755891146745025,-0.0011319740154289715
150000000000.0,-1,-0.00289296175,0.18508090545,-0.15082627699999998,0.037078,0.04879,0.027325,-0.46502153635,-9.727216134999999,1.1559098355,-2.7591,1.4434,-0.4557,9.99999999995449e-06,9.999999999976694e-05,-2.0000000000020002e-05,0.0005387912650069993,6.526411999741022e-05,0.000740660384928038
150000000000.0,-1,-0.007423634049999999,0.17227342054999997,-0.11625783574999998,0.032105,0.051066,0.026022,-0.4684244439,-9.726627736,1.1590479635,-2.7575,1.443,-0.45675,-0.0023300000000000542,-0.0006999999999997009,-0.0012299999999999534,0.020343239089269716,0.0033300412617132125,-0.01824612165641648
150000000000.0,-1,-0.023408473549999996,0.16913529254999998,-0.09188831049999999,0.027132,0.053342,0.02472,-0.47144489209999996,-9.7261374035,1.1616957589999999,-2.7561,1.4426,-0.45767,0.0027800000000001157,-0.000300000000000189,0.0009299999999999864,-0.020613938311794477,-0.02456010144421561,0.0306707144107341
150000000000.0,-1,-0.0143765489,0.1863067367,-0.04674830055,0.027315,0.047268,0.029621,-0.4749360595,-9.725745137499999,1.164245488,-2.7543,1.4422,-0.45896,4.999999999921734e-06,0.00010000000000021103,1.999999999990898e-05,0.0016692694174835765,0.00015339063522556984,0.00013642413907599682
150000000000.0,-1,0.017955976149999997,0.1834824215,-0.03443114814999999,0.0189,0.042187,0.028376,-0.4786821998,-9.725254805,1.1663048845,-2.7521,1.4419,-0.46065,5.000000000032756e-06,0.0002999999999997449,5.0000000000105516e-05,-0.00011515207609402722,0.003524917595096433,-0.0010326330486034596
150000000000.0,-1,0.02980240935,0.20004585335,-0.03139108665,0.016465,0.042157,0.022328,-0.4814084485,-9.7249606055,1.1680700814999998,-2.7507,1.4416,-0.46167,6.0000000000060005e-05,0.00019999999999997797,9.999999999998899e-05,0.0005146861264400115,0.001386894879182643,0.0002325496784922887
150000000000.0,-1,0.02980240935,0.20004585335,-0.03139108665,0.016465,0.042157,0.022328,-0.4814084485,-9.7249606055,1.1680700814999998,-2.7507,1.4416,-0.46167,-2.0000000000020002e-05,0.00010000000000021103,-3.0000000000085514e-05,1.632772435744556e-05,0.0005573653359298714,-0.0003172142628453667
150000000000.0,-1,0.058447634,0.14569739905,-0.03517645355,0.013958,0.043229,0.030701,-0.48506632894999996,-9.7245683395,1.1692468795,-2.7484,1.4413,-0.46353,-0.0001300000000000745,9.999999999976694e-05,2.0000000000020002e-05,0.0019834831917622253,0.001296420752559646,-0.0011785950229628028
150000000000.0,-1,0.028890390899999997,0.07387349445,-0.05591751829999999,0.001639,0.045284,0.029302,-0.48573318114999997,-9.725156738499999,1.1639512885,-2.7463,1.4418,-0.46518,-2.999999999997449e-05,0.00010000000000021103,-2.0000000000020002e-05,-0.00013355649331980857,0.0005325670016556039,-0.00014845947095976086
150000000000.0,-1,0.0049915848499999995,0.04353171935,-0.03138128,-0.000689,0.041604,0.026916,-0.4890772488,-9.725254805,1.1623822245,-2.7433,1.4418,-0.46767,-9.99999999995449e-06,9.999999999976694e-05,1.5000000000098268e-05,0.0005950898334390331,8.310507899778052e-05,0.00032960249369029526
150000000000.0,-1,0.009002504699999999,0.04339442625,-0.0308321076,-0.004414,0.042657,0.032867,-0.49307836199999994,-9.725058672,1.1617938255,-2.7402,1.4417,-0.47034,-1.0000000000065512e-05,0.00010000000000021103,1.4999999999987246e-05,0.00016108963532879272,-1.4470266142208033e-05,-8.35397381200309e-05
150000000000.0,-1,0.06280178659999999,0.06791105124999999,0.007511893899999999,-0.006673,0.039229,0.027138,-0.49360792109999996,-9.725058672,1.1617938255,-2.7398,1.4417,-0.47035,-1.999999999990898e-05,4.999999999988347e-05,-9.999999999998899e-05,-0.00013159293031606012,-0.0008547487392120967,2.438216589828457e-05
150000000000.0,-1,0.06792085789999999,0.11647358205,-0.01213082605,-0.008973,0.034307,0.029583,-0.49439245309999996,-9.725156738499999,1.160715094,-2.7389,1.4418,-0.47089,2.999999999997449e-05,4.999999999988347e-05,5.999999999994898e-05,-4.247046590855064e-06,-0.00016589208532624689,0.000348519475005693
150000000000.0,-1,0.0751581656,0.1425494644,-0.02566400305,-0.015092,0.034131,0.028299,-0.4950396919999999,-9.725352871499998,1.1588518305,-2.7379,1.4419,-0.47162,-2.999999999997449e-05,5.000000000032756e-05,-7.00000000000145e-05,0.0001393756442622518,0.00031310696981856623,-0.00025080961748646935
150000000000.0,-1,0.06259584694999999,0.13798937214999998,-0.02397725925,-0.020029,0.03519,0.028218,-0.49818762664999994,-9.725450938,1.1568905005,-2.735,1.442,-0.47422,5.999999999994898e-05,4.999999999988347e-05,4.0000000000040004e-05,0.0005035511270925497,3.2120094582088754e-05,-2.5687535523122307e-06
150000000000.0,-1,0.059899018199999994,0.12132787379999999,-0.0360296321,-0.031037,0.034901,0.022058,-0.50118846155,-9.725647071,1.1535562394999999,-2.7317,1.4422,-0.47709,-4.999999999999449e-05,4.999999999988347e-05,-2.999999999997449e-05,-0.00036848137289258176,-5.5577913038229454e-05,-0.0003829862733915057
150000000000.0,-1,0.06897016945,0.1123253691,-0.06387071144999999,-0.032101,0.030051,0.019706,-0.503669544,-9.7259412705,1.150123912,-2.7288,1.4424,-0.47969,7.999999999996898e-05,4.999999999988347e-05,-6.0000000000060005e-05,0.00015514909899305707,-0.00023892501171940417,0.0007464467477598102
150000000000.0,-1,0.054534780649999996,0.10499980155,-0.0102773692,-0.039459,0.029794,0.024422,-0.5041991030999999,-9.726431603,1.146005119,-2.7271,1.4428,-0.4811,1.0000000000065512e-05,4.999999999988347e-05,9.99999999995449e-06,0.0007664995066214431,0.00022881420926368357,-0.0002437992110913001
150000000000.0,-1,0.059428299,0.1179347729,0.01422944915,-0.051525,0.024672,0.013503,-0.5036989639499999,-9.7269219355,1.1418863259999998,-2.7261,1.4432,-0.48184,3.999999999992898e-05,5.000000000032756e-05,7.00000000000145e-05,0.00024798303627981966,0.00033947193447092516,-0.00018546652011131037
150000000000.0,-1,0.056378430849999994,0.1281336889,0.0409525704,-0.045402,0.024857,0.013583,-0.50528764125,-9.727412268,1.137179134,-2.7234,1.4436,-0.4843,6.0000000000060005e-05,0.00010000000000021103,-1.999999999990898e-05,0.003013903153477493,-0.003002097860185682,-0.0021688205415202333
150000000000.0,-1,0.0489547968,0.13237996835,0.038334194849999996,-0.047849,0.024791,0.012348,-0.50699399835,-9.7279026005,1.1319816095,-2.7205,1.444,-0.487,-0.002529999999999921,9.999999999976694e-05,-0.0010200000000000209,0.014320232208784311,0.02192634539091398,-0.023006691791721767
150000000000.0,-1,0.0489547968,0.13237996835,0.038334194849999996,-0.047849,0.024791,0.012348,-0.50699399835,-9.7279026005,1.1319816095,-2.7205,1.444,-0.487,9.999999999998899e-05,3.333333333310762e-05,3.999999999992898e-05,0.0006687579533872778,-0.0001424079333975925,0.00020370291730964496
150000000000.0,-1,0.059467525599999994,0.12837885515,0.03766734265,-0.041592,0.021415,0.004058,-0.50793543675,-9.728392933,1.127372484,-2.7183,1.4444,-0.48899,3.333333333332966e-05,3.333333333355171e-05,4.0000000000040004e-05,0.00020703897398721693,-5.93917663609389e-05,6.146998745348853e-06
150000000000.0,-1,0.05246557749999999,0.11805245269999999,0.0358531124,-0.040408,0.022651,0.00526,-0.5088670685,-9.728785199,1.123057558,-2.7162,1.4447,-0.4909,3.333333333332966e-05,3.333333333310762e-05,-2.0000000000020002e-05,-0.0001566674426785042,0.0006329356330485592,-0.0007886459482648878
150000000000.0,-1,0.04970010219999999,0.108461549,0.01177778665,-0.034077,0.01685,-0.001792,-0.5089357150499999,-9.729275531499999,1.119331031,-2.7149,1.4451,-0.49205,3.333333333332966e-05,-3.333333333310762e-05,9.999999999998899e-05,0.0004383806702916715,-0.00016318705160922597,0.0004923018426854497
150000000000.0,-1,0.026330855249999997,0.08783816404999999,-0.0027262486999999995,-0.036476,0.015604,-0.00662,-0.50726858455,-9.729765863999999,1.1158987034999999,-2.7149,1.4455,-0.4918,3.333333333332966e-05,-3.333333333355171e-05,4.0000000000040004e-05,0.0005586788911982055,-0.0003587624292191727,0.00019502424188200251
150000000000.0,-1,0.030851720899999997,0.0704509736,0.015553346899999999,-0.036478,0.015595,-0.005417,-0.5053562878,-9.73015813,1.1131528414999998,-2.7154,1.4458,-0.49115,3.333333333332966e-05,-3.333333333310762e-05,-7.999999999996898e-05,-2.2742045405976796e-05,0.0008420553189345537,-0.0012697321505665826
150000000000.0,-1,0.01840708205,0.06742071875,0.00406975975,-0.036414,0.013135,0.000634,-0.5045717557999999,-9.730550396,1.1098185805,-2.7149,1.4462,-0.49156,3.333333333332966e-05,-3.333333333355171e-05,2.999999999997449e-05,0.0008059926857635347,6.363385676810829e-05,0.0002634626376607496
150000000000.0,-1,0.0243793319,0.07493261265,-0.013807763199999998,-0.043595,0.010774,-0.007562,-0.5032184381,-9.7312368615,1.105013322,-2.7142,1.4467,-0.49209,9.999999999998899e-05,-3.333333333310762e-05,7.499999999938112e-06,0.0019208660344283146,0.0006084720984684822,0.0009817998561310048
150000000000.0,-1,0.0472484397,0.07561907814999999,-0.008237586,-0.047307,0.01187,-0.007628,-0.50050199605,-9.731923327,1.100109997,-2.7146,1.4472,-0.49159,5.0000000000105516e-05,-3.333333333355171e-05,7.500000000049134e-06,-0.0008731272894619835,-0.0005144413291668926,-0.00037688899250842844
150000000000.0,-1,0.06946050194999999,0.07589366435,0.018917027849999997,-0.0401,0.016968,-0.013619,-0.49638320305,-9.7324136595,1.0969718689999999,-2.7166,1.4477,-0.48944,4.999999999988347e-05,-9.999999999976694e-05,7.500000000049134e-06,0.0004039452461768178,-0.00010678382307816037,0.00037225000455576307
150000000000.0,-1,0.022447421849999996,0.06473369664999999,0.0669598062,-0.036313,0.013447,-0.012316,-0.49425515999999997,-9.732707859,1.095991204,-2.7179,1.4479,-0.488,0.0004949999999999122,-0.0003500000000000725,7.499999999938112e-06,0.00036338252720202746,-8.208920207564141e-05,0.00012132815344045866
150000000000.0,-1,0.020505705149999998,0.0540934814,0.06406684445,-0.027546,0.007676,-0.013319,-0.49291164895,-9.733100125,1.0927550095,-2.7179,1.4482,-0.48799,0.0004950000000000232,-0.0003500000000000725,0.0006700000000000594,0.010269408414924186,-0.021891005201853053,0.016802407993580015
150000000000.0,-1,0.00134351105,0.0811794487,0.0610954295,-0.016757,0.015255,-0.013281,-0.49155833125,-9.733394324499999,1.0906956129999998,-2.7182,1.4485,-0.48755,-0.0008899999999999464,0.0005999999999999339,-0.00048000000000003595,-0.00968252793304103,0.02318176606219291,-0.017684735814256003
150000000000.0,-1,0.0024026292499999997,0.10077313539999999,0.051337812749999996,-0.004208,0.005946,-0.010574,-0.4906659261,-9.7335904575,1.0898130145,-2.7185,1.4486,-0.48708,0.0027599999999999847,-0.00039999999999995595,0.0013100000000000334,-0.016922241951823125,-0.024332904091782126,0.028726235930820465
150000000000.0,-1,0.04192342875,0.1332527602,0.0303221618,0.008192,0.001485,-0.010344,-0.48948912809999995,-9.7335904575,1.0903033469999999,-2.7196,1.4486,-0.48597,4.999999999999449e-05,0.00010000000000021103,0.00013999999999991797,-0.00023137386321980813,0.0033827138689916936,-0.0011158709971941239
150000000000.0,-1,0.02782146605,0.1667718899,-0.003530394,0.004593,-0.00105,-0.009153,-0.48840058994999996,-9.7335904575,1.0907936795,-2.7206,1.4486,-0.48497,0.000140000000000029,-0.00039999999999995595,-3.999999999992898e-05,-0.00026786065508321855,-0.0045567499498126995,0.0019599620702448473
150000000000.0,-1,0.02782146605,0.1667718899,-0.003530394,0.004593,-0.00105,-0.009153,-0.48840058994999996,-9.7335904575,1.0907936795,-2.7206,1.4486,-0.48497,0.00020999999999993246,-5.000000000032756e-05,0.00010999999999994348,-0.001732708158753482,0.000771937460958938,0.0005352032863212841
150000000000.0,-1,0.06498866955,0.16741912879999998,-0.030155448749999997,0.002124,0.000145,-0.017625,-0.48681191264999996,-9.7335904575,1.0910878789999998,-2.7219,1.4487,-0.48366,0.00012000000000000899,-4.999999999988347e-05,6.0000000000060005e-05,-0.0015177540618820373,-0.0004486798723937202,-0.00010406708258670072
150000000000.0,-1,0.059575398749999994,0.1475508559,-0.08791661725,-0.011387,0.000937,-0.016617,-0.4821537539,-9.7343749895,1.086184554,-2.7238,1.4493,-0.48176,0.00017000000000000348,-9.999999999976694e-05,7.00000000000145e-05,-0.001016647730504694,0.0002662048872703604,0.0006748210137492716
150000000000.0,-1,0.044541804299999994,0.1426279176,-0.04974913545,-0.021343,0.005455,-0.014409,-0.4784860668,-9.734963388499999,1.082261894,-2.7253,1.4498,-0.48021,0.000160000000000049,-0.00010000000000021103,1.999999999990898e-05,-0.00020807666782296508,-2.3773087872269727e-05,0.0003614545599397445
150000000000.0,-1,0.0169262779,0.10826541599999999,0.01464132845,-0.034812,0.005047,-0.014585,-0.47616189075,-9.7353556545,1.0801044309999999,-2.7264,1.4501,-0.47909,0.00022999999999995246,-0.000700000000000145,-0.00018999999999991246,0.0002250440506958995,-0.006100530230094714,0.0034345580748220694
150000000000.0,-1,0.01058137535,0.07778634779999999,0.07430498705,-0.028648,0.004034,-0.01569,-0.47400442775,-9.735453720999999,1.0805947635,-2.7282,1.4502,-0.47722,6.0000000000060005e-05,0.000300000000000189,6.999999999990347e-05,0.0012295046902472961,9.027122733784587e-05,-0.00019301996954768086
150000000000.0,-1,0.022251288850000002,0.07838455344999999,0.13202692894999998,-0.02141,0.007896,-0.018054,-0.4711604992499999,-9.735061455,1.0845174235,-2.7318,1.4499,-0.47362,-0.000160000000000049,0.000300000000000189,0.0003700000000000925,0.0012733562918292307,0.008182411977802673,-0.0050112131857933395
150000000000.0,-1,0.020466478549999997,0.06081103665,0.1488061071,-0.006553,0.003536,-0.021402,-0.46817927764999995,-9.7345711225,1.0904994799999999,-2.7361,1.4495,-0.46928,0.00012999999999996348,-0.000500000000000167,-2.0000000000020002e-05,-0.0005369512821724598,-0.004360380107067741,0.0011567428383931766
150000000000.0,-1,0.0403053315,0.046542360899999996,0.12782968274999998,0.004885,-0.006791,-0.022005,-0.46437429745,-9.73408079,1.0964815365,-2.741,1.4491,-0.46441,8.000000000008001e-05,-0.00019999999999997797,-1.0000000000065512e-05,-0.0005253887224849763,-0.0013176482798984424,0.0007148189260597348
150000000000.0,-1,0.02897865075,0.045728408949999994,0.08795584384999999,0.011124,-0.01023,-0.021872,-0.46067719039999994,-9.733688524,1.1013848615,-2.7454,1.4488,-0.46007,9.999999999998899e-05,-0.00010000000000021103,9.00000000000345e-05,-0.0005341489653298837,-0.00018981971011133858,0.00024293703700384306
150000000000.0,-1,0.0089436648,0.05746696899999999,-0.0020005566,0.01975,-0.011125,-0.028962,-0.4572644762,-9.7335904575,1.103444258,-2.7488,1.4487,-0.45686,9.999999999998899e-05,0.000500000000000167,0.00024999999999997247,-0.0012635228034909574,0.00602856774789684,-0.0011758513517534652
150000000000.0,-1,-0.0003530394,0.06502789615,-0.07631535029999999,0.016193,-0.01486,-0.028958,-0.45424402799999997,-9.733884656999999,1.102659726,-2.7508,1.4489,-0.4549,-4.999999999999449e-05,-0.000300000000000189,0.00024000000000001798,0.0019515078540797148,-0.000608146730413317,-0.0019032297797265674
150000000000.0,-1,-0.0058055367999999994,0.05100438665,-0.09226096319999999,0.013782,-0.016141,-0.028972,-0.4511843532,-9.7341788565,1.1009925955,-2.7527,1.4492,-0.45321,8.999999999992347e-05,-4.999999999988347e-05,0.000160000000000049,-0.000921064673193861,0.0002459552617983807,-0.00017154895929993863
150000000000.0,-1,-0.00967916355,0.1075985638,-0.04746418599999999,0.010166,-0.017399,-0.037425,-0.44776183234999994,-9.7343749895,1.1007964625,-2.7553,1.4493,-0.45075,-0.0030799999999999716,-4.999999999988347e-05,-0.0012500000000000844,0.019974588743198574,0.0191424305639758,-0.03091931829639738
150000000000.0,-1,-0.0126898051,0.1553961759,-0.009237864299999999,0.005391,-0.021143,-0.041046,-0.44400588539999997,-9.734473055999999,1.1017771275,-2.7585,1.4494,-0.4477,2.999999999997449e-05,-0.00019999999999997797,8.000000000008001e-05,0.000654677879730059,-0.0010072761655184337,7.223880612028388e-05
150000000000.0,-1,-0.044718324,0.2033506944,0.018867994599999997,0.00268,-0.012737,-0.044811,-0.4408481441,-9.7343749895,1.1037384575,-2.7616,1.4493,-0.44475,2.0000000000020002e-05,-0.00010000000000021103,7.999999999996898e-05,0.00016090296393578285,-0.000511997711077461,0.00020229940803484503
150000000000.0,-1,-0.044718324,0.2033506944,0.018867994599999997,0.00268,-0.012737,-0.044811,-0.4408481441,-9.7343749895,1.1037384575,-2.7616,1.4493,-0.44475,-5.999999999994898e-05,-0.00019999999999997797,9.00000000000345e-05,-0.0009015928363664827,-0.0006712974687517193,-0.0002690333256660793
150000000000.0,-1,-0.05489762669999999,0.22144396365,0.019122967499999997,-0.005847,-0.014186,-0.047311,-0.43801402225,-9.7343749895,1.1049152555,-2.7642,1.4493,-0.44226,-4.0000000000040004e-05,-9.999999999976694e-05,7.999999999996898e-05,-0.00031469531681160845,-0.0002851947963455892,-0.0002503383237346668
150000000000.0,-1,-0.05035714775,0.20803827309999998,0.016994924449999997,-0.008257,-0.015468,-0.047325,-0.43491512084999995,-9.7343749895,1.105601721,-2.7668,1.4493,-0.43978,2.999999999997449e-05,-0.00010000000000021103,9.999999999998899e-05,0.0006158298572938037,-0.0008196701213809554,0.0005774519932784106
150000000000.0,-1,-0.08471964935000001,0.1641240944,0.0405210778,-0.004542,-0.016556,-0.048463,-0.4327184312499999,-9.7343749895,1.1070727185,-2.769,1.4493,-0.43774,-6.999999999990347e-05,-9.999999999976694e-05,7.00000000000145e-05,-2.246581964016059e-06,-5.8261491926892006e-05,-0.0005990109620206407
150000000000.0,-1,-0.08134616174999999,0.11760134679999998,0.0538581218,-0.008185,-0.017901,-0.044883,-0.42771703974999997,-9.734669189,1.1062881864999998,-2.7727,1.4496,-0.43421,-8.000000000008001e-05,-0.00010000000000021103,4.999999999999449e-05,-0.0001639223773857168,3.491859957938104e-05,-0.0007271100089440985
150000000000.0,-1,-0.0787277862,0.0721573307,0.05875164014999999,-0.013083,-0.018049,-0.044947,-0.4227058416,-9.734963388499999,1.1051113885,-2.7763,1.4498,-0.43078,-5.999999999994898e-05,-4.999999999988347e-05,7.00000000000145e-05,-0.00037079300966702533,3.0233798433476622e-05,-0.0011402762145533707
150000000000.0,-1,-0.0846313895,0.0597421118,0.03621595845,-0.019269,-0.015774,-0.051078,-0.4172533442,-9.735453720999999,1.103248125,-2.78,1.4502,-0.42718,-2.0000000000020002e-05,-4.999999999988347e-05,5.999999999994898e-05,0.0007300255718041271,-0.0006879639803014648,-0.00023259511026507695
150000000000.0,-1,-0.08841675639999999,0.050376761049999996,0.0232613738,-0.024193,-0.014671,-0.057176,-0.4113693542,-9.735944053499999,1.1009925955,-2.784,1.4507,-0.42334,4.999999999999449e-05,-4.999999999988347e-05,6.0000000000060005e-05,0.000750148861450306,-0.0003774683996513595,0.00044706984429221386
150000000000.0,-1,-0.08742628474999999,0.07962019135,0.01177778665,-0.030474,-0.010042,-0.05492,-0.40877059194999993,-9.7363363195,1.098737066,-2.7854,1.451,-0.42201,-9.99999999995449e-06,-5.000000000032756e-05,3.999999999992898e-05,0.0011423995752917193,-0.00015506634344308878,7.632923833345018e-05
150000000000.0,-1,-0.07134337874999999,0.10849096894999999,0.010395048999999998,-0.032751,-0.013548,-0.057009,-0.405406911,-9.7367285855,1.095991204,-2.7873,1.4513,-0.4202,-4.499999999996174e-05,-4.999999999988347e-05,2.0000000000020002e-05,0.0006700428286290361,0.00023510330830056603,4.886953106764125e-05
150000000000.0,-1,-0.08114022209999999,0.12466213479999999,0.024595078199999995,-0.043841,-0.01144,-0.060797,-0.39889529539999996,-9.737513117499999,1.091676278,-2.7913,1.452,-0.41633,-4.500000000007276e-05,-4.999999999988347e-05,2.0000000000020002e-05,0.000209885712250113,-0.0007931893625086062,-0.000102167277657772
150000000000.0,-1,-0.11984706964999998,0.16196663139999998,0.0328522775,-0.047664,-0.006702,-0.063322,-0.39221696675,-9.7382976495,1.0870671525,-2.7953,1.4527,-0.41235,-2.999999999997449e-05,-3.333333333355171e-05,6.0000000000060005e-05,-7.245718688153602e-06,0.0001577016905263129,-0.0004558391372058157
150000000000.0,-1,-0.13713619359999998,0.16072118685,0.0716081583,-0.052608,-0.005669,-0.059794,-0.38598974399999997,-9.739180248,1.081673495,-2.7988,1.4534,-0.40888,-1.0000000000065512e-05,-3.333333333310762e-05,6.999999999990347e-05,0.000607388130026365,-0.0004332635048838185,0.000433489564843903
150000000000.0,-1,-0.18883685239999998,0.17624511379999996,0.06644986039999999,-0.051494,-0.001991,-0.062237,-0.3794781284,-9.740062846499999,1.076181771,-2.8026,1.4542,-0.40512,-9.999999999998899e-05,-3.333333333355171e-05,-5.999999999994898e-05,0.00014364045818915372,0.0007512236463267374,-0.001200384136941679
150000000000.0,-1,-0.19706463174999997,0.18780715415,0.0695487618,-0.046648,-0.000679,-0.056174,-0.37350587855,-9.7408473785,1.0711803795,-2.8061,1.4549,-0.40161,0.0013600000000000279,-0.0009000000000001229,0.0008500000000000174,0.015443532930768278,-0.02929797465669015,0.023733631865966
150000000000.0,-1,-0.19706463174999997,0.18780715415,0.0695487618,-0.046648,-0.000679,-0.056174,-0.37350587855,-9.7408473785,1.0711803795,-2.8061,1.4549,-0.40161,-9.00000000000345e-05,-9.999999999976694e-05,-6.0000000000060005e-05,0.0008914169034683894,-0.00021000122721126502,0.0014154062101443543
150000000000.0,-1,-0.18682648914999997,0.17104758929999997,0.09440861954999999,-0.043005,0.000666,-0.059754,-0.36727865579999996,-9.741533844,1.0664731875,-2.8099,1.4555,-0.39774,0.0015800000000000258,0.00039999999999995595,0.0006099999999999994,-0.02923978562051399,-0.0006514634640346628,0.010269183137156634
150000000000.0,-1,-0.18682648914999997,0.17104758929999997,0.09440861954999999,-0.043005,0.000666,-0.059754,-0.36727865579999996,-9.741533844,1.0664731875,-2.8099,1.4555,-0.39774,-7.999999999996898e-05,0.0001500000000000945,3.0000000000085514e-05,-6.906351696400748e-05,-0.00047752693963953874,1.9025389856874853e-06
150000000000.0,-1,-0.1447069274,0.20764600709999997,0.004314926,-0.040601,0.001922,-0.056128,-0.37933102864999996,-9.7410435115,1.0669635199999998,-2.8,1.4551,-0.40753,-4.999999999999449e-05,0.0001500000000000945,0.00012999999999996348,0.00019661949465277218,0.004239436183678835,-0.0010281092455517449
150000000000.0,-1,-0.1447069274,0.20764600709999997,0.004314926,-0.040601,0.001922,-0.056128,-0.37933102864999996,-9.7410435115,1.0669635199999998,-2.8,1.4551,-0.40753,-8.000000000008001e-05,3.333333333310762e-05,-2.0000000000020002e-05,-1.3600203447872161e-05,3.59889931809132e-05,0.00012877602355310103
150000000000.0,-1,-0.1188762113,0.19996740014999997,0.0079826131,-0.039461,0.004349,-0.052537,-0.3807726062,-9.741631910499999,1.0613737295,-2.7971,1.4556,-0.41023,-6.999999999990347e-05,3.333333333355171e-05,-2.0000000000020002e-05,-0.00047715724761765443,-0.0002818388766288038,0.0003760352071289219
150000000000.0,-1,-0.1280356224,0.18193297079999998,0.01495514125,-0.045873,0.012556,-0.044316,-0.37698723929999994,-9.742612575499999,1.0537245425,-2.798,1.4564,-0.40906,-9.00000000000345e-05,3.333333333310762e-05,-5.999999999994898e-05,-0.0007309560709112262,0.0002113384365529658,0.0008499323093940081
150000000000.0,-1,-0.13765594605,0.19247511954999996,0.039197180049999995,-0.040928,0.011523,-0.047845,-0.37230946724999997,-9.743200974499999,1.0493115499999999,-2.8006,1.457,-0.40633,-4.999999999999449e-05,3.333333333355171e-05,4.999999999999449e-05,-0.00022160793975434245,-0.0005586283885790078,-0.00026783418227660505
150000000000.0,-1,-0.1587304369,0.16011317455000001,0.0321069721,-0.052122,0.015959,-0.039636,-0.3679847346,-9.7439855065,1.044212092,-2.8028,1.4577,-0.404,-0.000180000000000069,3.333333333310762e-05,-0.00017000000000000348,0.00012323542797876286,0.0002690860884855262,-0.00013691066813192876
150000000000.0,-1,-0.1496887056,0.15424879784999998,0.05266171049999999,-0.052204,0.018357,-0.037265,-0.3643170475,-9.744671971999999,1.0388184345,-2.8043,1.4583,-0.40229,-3.999999999992898e-05,3.333333333355171e-05,2.999999999997449e-05,0.00011753891089139046,-0.00029333690549582236,0.0007182991604515188
150000000000.0,-1,-0.1836197146,0.13160524299999998,0.105127288,-0.052411,0.024352,-0.031337,-0.3610612396999999,-9.7453584375,1.0333267105,-2.8054,1.4589,-0.40088,-6.0000000000060005e-05,4.999999999988347e-05,2.999999999997449e-05,-0.0011850782326936482,-0.0001770072897935293,-0.0004060168294992561
150000000000.0,-1,-0.18033448684999998,0.0944968794,0.10745146404999999,-0.038877,0.023667,-0.028462,-0.35835460429999993,-9.7459468365,1.0286195185,-2.8064,1.4595,-0.3997,-0.00021999999999999797,4.999999999988347e-05,-0.00012000000000000899,0.0015295845966738497,0.0016204248386280096,-0.0005408170849323657
150000000000.0,-1,-0.20526299115000002,0.08858346945,0.1088734283,-0.025351,0.021588,-0.018625,-0.3564717275,-9.7463391025,1.0256775235,-2.8071,1.4598,-0.3987,-0.0029999999999998916,0.000300000000000189,-0.0012099999999999334,0.01861260134779119,0.02178959334156505,-0.028724417557745907
150000000000.0,-1,-0.15340542595,0.15636703425,0.10363667719999999,-0.014326,0.021931,-0.019684,-0.36373845515,-9.7455545705,1.030286649,-2.8022,1.4591,-0.40331,-0.00019999999999997797,4.999999999988347e-05,-2.999999999997449e-05,-0.0016926652399771314,0.00013630131843966886,-0.0006641318617386371
150000000000.0,-1,-0.1357044227,0.20321340129999999,0.0855924412,-0.006991,0.022109,-0.013572,-0.36991664464999996,-9.744868105,1.0350919075,-2.7983,1.4585,-0.4069,-9.999999999998899e-05,4.999999999988347e-05,-6.0000000000060005e-05,6.158600806216441e-05,-0.00010508864336067347,-0.00044967667191242455
150000000000.0,-1,-0.10788295665,0.25604182485,0.0539561883,-0.002021,0.019824,-0.011066,-0.37484938959999997,-9.744279705999999,1.0388184345,-2.7953,1.4579,-0.40971,-0.00020000000000020002,4.999999999988347e-05,-9.999999999998899e-05,0.00016844544163241437,0.0006169517236784827,7.65545157992431e-05
150000000000.0,-1,-0.10788295665,0.25604182485,0.0539561883,-0.002021,0.019824,-0.011066,-0.37484938959999997,-9.744279705999999,1.0388184345,-2.7953,1.4579,-0.40971,-0.00019999999999997797,5.000000000032756e-05,-0.00010999999999994348,0.0013896744873580502,0.0005690651199445895,0.0007037937638958436
150000000000.0,-1,-0.10184206024999999,0.27171285154999997,-0.00116699135,0.00031,0.023513,-0.009883,-0.37938986854999995,-9.74388744,1.0403874985,-2.7919,1.4576,-0.41281,-0.00019999999999997797,-0.00039999999999995595,-0.0001300000000000745,0.0001850016066233806,0.00022821204483047808,0.0009986688783800712
150000000000.0,-1,-0.11701294779999999,0.25664983715,-0.017514676899999998,-0.002078,0.020971,-0.002659,-0.38516598539999997,-9.743691306999999,1.0405836314999999,-2.7871,1.4574,-0.41738,0.0009000000000001229,-0.00039999999999995595,0.00043000000000004146,0.011537543818660012,-0.02467321085291929,0.019463467348927566
150000000000.0,-1,-0.14051948784999999,0.21272585179999998,-0.025556129899999995,-0.004656,0.024476,0.003273,-0.3926386526999999,-9.7433971075,1.0399952325,-2.7806,1.4572,-0.42359,0.0017199999999999438,-0.00010000000000021103,9.00000000000345e-05,-0.03304020829305099,-0.005199516843164664,0.014561736778889278
150000000000.0,-1,-0.1530818065,0.20710664134999998,0.016818404749999998,-0.007262,0.029224,0.004374,-0.39339376474999993,-9.743495174,1.0390145675,-2.7797,1.4573,-0.42424,-0.000140000000000029,0.0005999999999999339,5.999999999994898e-05,0.00015199069261573328,0.008703656518771474,-0.0017078554802301138
150000000000.0,-1,-0.156121868,0.18990577725,0.058643767,-0.013474,0.031411,0.010275,-0.40217071649999997,-9.742906775,1.0411720304999998,-2.773,1.4567,-0.43056,-0.0008099999999999774,0.0013000000000000789,-0.000160000000000049,0.00012396362064137634,0.02172314758340299,-0.011584890674672721
150000000000.0,-1,-0.12057276175,0.19761380415,0.06303714619999999,-0.013487,0.031367,0.016292,-0.40989835669999997,-9.7424164425,1.0431333605,-2.7672,1.4563,-0.43604,-0.00017000000000000348,4.999999999988347e-05,-0.00021999999999999797,-0.001009804168718098,0.00015020258761833105,0.000702571165650534
150000000000.0,-1,-0.08968181424999999,0.2099015366,0.10729455764999998,-0.012363,0.033741,0.027102,-0.41713566439999994,-9.741631910499999,1.0470560205,-2.7625,1.4556,-0.44039,-0.00019999999999997797,4.999999999988347e-05,-0.00018999999999991246,0.0006068169922386346,6.637869891101822e-05,-0.0005864855488895149
150000000000.0,-1,-0.07440305355,0.19496600865,0.12155342674999998,-0.003938,0.037517,0.0416,-0.4250790509,-9.740749312,1.051861279,-2.7576,1.4548,-0.44493,-0.0022999999999999687,-0.0004999999999997229,-0.0012100000000000444,0.01756698336448359,0.002177253445092342,-0.01708671300259934
150000000000.0,-1,-0.050700380499999996,0.19188672055,0.129840046,0.003592,0.031666,0.046597,-0.4302373488,-9.740553178999999,1.0519593455,-2.7534,1.4546,-0.44877,-0.00019999999999997797,9.999999999976694e-05,-0.00029999999999996696,0.0006969780449548324,0.0017225641433911143,-0.0007080676898478799
150000000000.0,-1,-0.053818895199999994,0.19731960464999998,0.11382578654999999,0.020722,0.03214,0.052837,-0.43564081294999996,-9.740160912999999,1.0535284095,-2.7495,1.4543,-0.45235,-0.000300000000000189,0.00019999999999997797,-0.0002300000000000635,-0.0007851673600356435,0.0009277989601101932,-0.0006932870750908648
150000000000.0,-1,-0.0414625162,0.1903863031,0.08603374044999999,0.040432,0.029118,0.051942,-0.44156402954999996,-9.7394744475,1.0570588035,-2.7459,1.4537,-0.45565,-0.00039999999999995595,0.00010000000000021103,-0.00021999999999999797,-0.003895626557583576,-0.00016100487824877163,-0.0011883884408276923
150000000000.0,-1,0.023222147199999998,0.2135299971,0.059261585949999994,0.051562,0.027143,0.05118,-0.44729111315,-9.7386899155,1.0619621284999998,-2.743,1.453,-0.45833,-0.00019999999999997797,9.999999999976694e-05,-0.00017000000000000348,0.0015845000934202602,-0.00012815727744674987,0.0024865082643874548
150000000000.0,-1,0.04780741875,0.29824964644999996,-0.032361944999999996,0.057799,0.023696,0.052515,-0.45167468569999997,-9.737807317,1.068140318,-2.7415,1.4523,-0.4595,-0.00019999999999997797,0.00010000000000021103,-0.00017000000000000348,0.0010492661460874686,-0.0012869341987871152,0.0015287491909088402
150000000000.0,-1,0.01301342455,0.3463904913,-0.07775692785,0.063932,0.023916,0.047782,-0.45743118925,-9.737022784999999,1.07284751,-2.7386,1.4516,-0.46225,-0.00029999999999996696,0.00010000000000021103,-0.00017999999999995797,-0.002276042316541549,-0.0006734414529885324,-0.0009124657407864056
150000000000.0,-1,-0.011003061299999999,0.31951046364999997,-0.09299646195,0.060279,0.023876,0.038108,-0.46319749944999994,-9.7363363195,1.0766721035,-2.7353,1.451,-0.46521,-0.00019999999999997797,9.999999999976694e-05,-0.00029000000000001247,-0.0008833593677497475,0.0008701374394799455,-0.001081185440598098
150000000000.0,-1,-0.011003061299999999,0.31951046364999997,-0.09299646195,0.060279,0.023876,0.038108,-0.46319749944999994,-9.7363363195,1.0766721035,-2.7353,1.451,-0.46521,-0.00029999999999996696,0.00010000000000021103,-0.00032999999999994145,-0.001660114162032933,0.0004755153366371445,-0.0003301685009555744
150000000000.0,-1,-0.007462860649999999,0.31868670504999996,-0.09883141869999999,0.055436,0.022573,0.030843,-0.46673770009999993,-9.7355517875,1.0825560935,-2.7345,1.4503,-0.46577,-9.999999999998899e-05,9.999999999976694e-05,-0.000300000000000078,-0.0004913357082392267,0.0005780945208473387,0.001739665590676731
150000000000.0,-1,-0.061595568649999995,0.2925519828,-0.0874360914,0.049298,0.023674,0.019916,-0.4694639488,-9.734865322,1.0876555515,-2.7341,1.4497,-0.46593,-0.00019999999999997797,0.00019999999999997797,-0.00029999999999996696,0.0009935431406873363,0.0010740505513655574,0.0009031249416067144
150000000000.0,-1,-0.060830649949999996,0.26344584559999995,-0.036951457199999996,0.052991,0.023847,0.011542,-0.4711310793,-9.7341788565,1.0929511424999998,-2.7346,1.4491,-0.46519,0.0023999999999999577,-4.999999999988347e-05,0.0008399999999999519,-0.017392516247649148,-0.019712815996952626,0.027939301408896222
150000000000.0,-1,-0.07632515695,0.22034561884999998,0.0181226892,0.048026,0.02615,0.00663,-0.47223923075,-9.7335904575,1.0978544675,-2.7354,1.4486,-0.46413,-0.00029999999999996696,-4.999999999988347e-05,-0.0005499999999999394,-0.0021515800391460616,-0.003273461545984624,0.001283352458028908
150000000000.0,-1,-0.08457254959999999,0.1983493029,0.05025908125,0.050408,0.028674,0.001814,-0.47282762975,-9.733002058499999,1.102855859,-2.7366,1.4481,-0.46262,-0.00020000000000020002,0.0002999999999997449,-0.00031999999999998696,0.00015530863307677834,0.0031324954854456966,-0.0012701483607118202
150000000000.0,-1,-0.1003808694,0.1387052576,0.06496905624999999,0.060288,0.026573,-0.00043,-0.47871161974999993,-9.731531061,1.1129567084999998,-2.7354,1.4469,-0.46347,-9.999999999998899e-05,-0.00039999999999995595,-0.00047000000000008146,-0.0027791143677369234,-0.00572790353206698,0.003174949029051133
150000000000.0,-1,-0.08622987345,0.1330174006,0.03890298055,0.068941,0.024425,-0.001485,-0.48329132529999996,-9.73015813,1.1227633584999999,-2.7351,1.4458,-0.46345,-0.0013999999999998458,0.0013000000000000789,-0.0007499999999999174,0.0016064969852758182,0.02553797150053838,-0.01551436834009734
150000000000.0,-1,-0.0579965281,0.1352337035,0.027291906949999997,0.079987,0.023507,0.004692,-0.4869786257,-9.728785199,1.1329622744999999,-2.7357,1.4447,-0.46262,-0.0020999999999999908,-0.0005999999999999339,-0.0012600000000000389,0.01644425305417485,0.0021297042584838,-0.013446952101684895
150000000000.0,-1,-0.035460846399999996,0.17794166425,0.0015102241,0.083823,0.018813,0.001201,-0.48946951479999995,-9.7275103345,1.1429650574999999,-2.737,1.4437,-0.46108,-0.00029999999999996696,-0.00013333333333331865,-0.00039999999999995595,-0.001521542736749204,0.00032827047541794663,0.0004575421586041628
150000000000.0,-1,-0.0098458766,0.22967174299999998,-0.0341075287,0.083815,0.018787,0.004811,-0.49084244579999997,-9.726431603,1.1515949095,-2.7387,1.4428,-0.45914,0.0026999999999999247,-0.00013333333333331865,0.0008099999999999774,-0.016988227894834118,-0.02049761819721052,0.02854118138726003
150000000000.0,-1,0.022731814700000002,0.3027116722,-0.07604076409999999,0.081317,0.019886,0.009574,-0.49169562435,-9.7255490045,1.1586556975,-2.7403,1.4421,-0.45733,-0.0023999999999999577,-0.00013333333333331865,-0.0013499999999999623,0.03873280697301862,-0.0006014595657939381,-0.001261766893486671
150000000000.0,-1,0.0356373661,0.36905365944999996,-0.1360770754,0.075048,0.024558,0.005814,-0.49277435585,-9.7245683395,1.1665010175,-2.7419,1.4413,-0.45544,0.0019000000000000128,4.999999999988347e-05,0.00036999999999998145,-0.03996342869134839,-0.006436636475597224,0.00428432984668814
150000000000.0,-1,0.0499943017,0.39147166135,-0.15433705769999997,0.065178,0.026635,0.017914,-0.49471607254999994,-9.7235876745,1.1733656725,-2.7426,1.4406,-0.45446,9.999999999998899e-05,4.999999999988347e-05,-0.00038000000000004697,-0.005471472338420824,0.0008024695954615968,0.0017835495113338595
150000000000.0,-1,0.0408741172,0.37775215799999995,-0.13647914805,0.062657,0.028994,0.015441,-0.4966774025499999,-9.7228031425,1.1796419285,-2.7431,1.4399,-0.45366,-0.000600000000000156,0.00039999999999995595,-0.00017999999999995797,0.003725194228870521,0.005793217326612421,-0.004165135254224905
150000000000.0,-1,0.0408741172,0.37775215799999995,-0.13647914805,0.062657,0.028994,0.015441,-0.4966774025499999,-9.7228031425,1.1796419285,-2.7431,1.4399,-0.45366,-0.00019999999999997797,0.00010000000000021103,-0.00043000000000004146,0.0008106037479072015,0.0009256837837945397,0.0009948878890451152
150000000000.0,-1,0.0625075871,0.33414198544999996,-0.1102855859,0.053879,0.03473,0.021257,-0.49900157859999994,-9.721920544,1.1853297855,-2.7431,1.4393,-0.45326,-0.0029999999999998916,0.0002999999999997449,-0.0016599999999999948,0.018020156485121674,0.02129493005190386,-0.027432372838785968
150000000000.0,-1,0.1070690047,0.3160094896,-0.04459083755,0.050159,0.0358,0.024801,-0.5019631869,-9.721136012,1.190331177,-2.7425,1.4387,-0.45347,-0.00029999999999996696,0.00010000000000021103,-0.00039999999999995595,0.0003260138253917688,-0.0001495867356353653,-9.481621911300309e-05
150000000000.0,-1,0.08506288209999999,0.28879603584999997,-0.03192064575,0.046411,0.038113,0.023515,-0.5049444085,-9.7204495465,1.195038369,-2.7418,1.4381,-0.45378,-0.000300000000000189,9.999999999976694e-05,-0.00041000000000002146,0.0012699109759974903,0.001068378345552512,0.0002421471730200686
150000000000.0,-1,0.0806302763,0.26894737625,-0.033107250399999996,0.048784,0.040603,0.02351,-0.49975669064999995,-9.720155346999999,1.1992552285,-2.7467,1.4379,-0.44849,0.0025000000000001688,-0.00019999999999997797,0.0010700000000000154,-0.0191264281726653,-0.02032193311481545,0.02956456254478934
150000000000.0,-1,0.10804966969999999,0.2515209592,-0.05680992345,0.048634,0.045451,0.021032,-0.49785420054999996,-9.7198611475,1.2030798219999999,-2.7492,1.4376,-0.44556,-0.00029999999999996696,-0.0005999999999999339,-0.0005300000000000304,-0.0007331782395638697,-0.009559064779924409,0.0036976435277604747
150000000000.0,-1,0.11062881864999999,0.25082468705,-0.06136020905,0.046191,0.045395,0.018594,-0.5004333495,-9.719174681999998,1.207590881,-2.7487,1.4371,-0.44557,-0.00020000000000020002,0.00019999999999997797,-0.00036000000000002697,-0.00031101748243678173,0.001081771673584031,0.0015993628176016461
150000000000.0,-1,0.0868084658,0.21635431229999996,-0.07111782579999999,0.043758,0.045374,0.011342,-0.4984524062,-9.718978549,1.2100425435,-2.7508,1.437,-0.44301,-0.00029999999999996696,0.00019999999999997797,-0.00026999999999999247,0.0014151410637612827,0.0005176467515901617,-0.0002911149209898767
150000000000.0,-1,0.08719092514999999,0.1572594394,-0.08051259649999999,0.036241,0.051269,0.000329,-0.4957065442,-9.718978549,1.2110232085,-2.7531,1.437,-0.44024,-0.00019999999999997797,0.00019999999999997797,-0.000140000000000029,-0.0008506843156679267,0.005163492568380779,-0.0012892943175746296
150000000000.0,-1,0.06563590845,0.12405412249999999,-0.0879852638,0.029993,0.056012,-0.013057,-0.49285280905,-9.719076615499999,1.2108270755,-2.755,1.4371,-0.43768,-0.00029999999999996696,6.666666666665932e-05,-0.00030999999999992145,0.0005641660844677432,-0.0008844155801248643,0.0008599523232146744
150000000000.0,-1,0.0560155848,0.11731695394999998,-0.08752435125000001,0.016465,0.058082,-0.021691,-0.4916073645,-9.718978549,1.212690339,-2.7564,1.437,-0.43565,-0.00029999999999996696,6.666666666665932e-05,-0.00014999999999998348,0.000288773797015196,-3.9778553577729525e-06,-0.0013271916217103552
150000000000.0,-1,0.0081787461,0.08679865914999998,-0.07746272835,0.007901,0.057849,-0.025412,-0.48971468105,-9.718978549,1.2133768045,-2.758,1.437,-0.43347,-0.0026999999999999247,6.666666666665932e-05,-0.0012300000000000644,0.015802248702909694,0.019547365951842366,-0.025678027827817917
150000000000.0,-1,-0.025791489499999997,0.013837183149999998,-0.0133174307,0.007758,0.062715,-0.030296,-0.48865556284999995,-9.718978549,1.2132787379999999,-2.7587,1.437,-0.43207,-0.000400000000000178,4.999999999988347e-05,-0.00017000000000000348,0.0005591550392827216,-0.0007507275207154773,0.000321021939175159
150000000000.0,-1,-0.0516810455,-0.01572005995,0.0189464478,0.002824,0.063784,-0.03158,-0.4882142636,-9.718978549,1.2140632699999998,-2.7593,1.437,-0.43079,-0.00029999999999996696,5.000000000032756e-05,-0.00014999999999998348,-0.0008079423302502775,8.983417570718188e-06,0.00018738215370484035
150000000000.0,-1,-0.01203275955,-0.040609337649999994,0.0340094622,0.005273,0.063858,-0.031548,-0.48610583385,-9.7188804825,1.2153381344999998,-2.7611,1.4369,-0.42826,-0.00019999999999997797,9.999999999976694e-05,5.000000000032756e-06,0.00124887422827058,-0.001158051691585671,0.0026675487258869257
150000000000.0,-1,-0.025811102799999996,-0.06049722385,0.015474893699999999,0.000382,0.064993,-0.034994,-0.4832520987,-9.719076615499999,1.2151420015,-2.7631,1.437,-0.42556,-0.00019999999999997797,0.00010000000000021103,4.999999999921734e-06,0.00014488874234164228,-0.0009491483192194394,0.0006323094077964608
150000000000.0,-1,-0.025811102799999996,-0.06049722385,0.015474893699999999,0.000382,0.064993,-0.034994,-0.4832520987,-9.719076615499999,1.2151420015,-2.7631,1.437,-0.42556,-9.999999999998899e-05,0.00010000000000021103,7.00000000000145e-05,-0.00042934577262521145,-0.0013085435106805487,0.0012378712804208547
150000000000.0,-1,-0.01866205495,-0.06483176315,-0.0121014061,0.00271,0.068673,-0.032609,-0.48068275639999997,-9.719174681999998,1.214847802,-2.7648,1.4372,-0.42306,-0.00019999999999997797,9.999999999976694e-05,2.0000000000020002e-05,-0.002040200969140038,-0.0006524135902281625,-0.0006441602239966038
150000000000.0,-1,0.023712479699999997,-0.04329635974999999,-0.0348920607,0.008663,0.074976,-0.043446,-0.47712294245,-9.719370815,1.215240068,-2.7675,1.4373,-0.41961,-0.00019999999999997797,-9.999999999976694e-05,9.999999999998899e-05,-0.0012334447557762473,-0.0023454878032431736,0.0015205190967986226
150000000000.0,-1,0.0293022702,0.02115294405,-0.06037954405,0.011247,0.071488,-0.051784,-0.47298453615,-9.7194688815,1.2160246,-2.7706,1.4373,-0.41564,-0.00019999999999997797,9.999999999976694e-05,0.000140000000000029,-0.0011674626142701428,-0.000502373803501488,0.00040434448171056125
150000000000.0,-1,0.0297141495,0.05959501204999999,-0.0601736044,0.012421,0.074029,-0.063835,-0.46755165204999993,-9.719566947999999,1.217005265,-2.7748,1.4375,-0.41066,-9.999999999998899e-05,6.666666666665932e-05,7.00000000000145e-05,-9.361284087461286e-06,-0.0007591593803129015,0.0014651715693922984
150000000000.0,-1,0.03221484525,0.07683510275,-0.06759723845,0.016121,0.074228,-0.075819,-0.46107926305,-9.719763081,1.21798593,-2.7797,1.4376,-0.4049,-9.999999999998899e-05,6.666666666665932e-05,7.999999999996898e-05,-3.8133811082197155e-05,0.0005754317512842722,0.00031929140820485813
150000000000.0,-1,0.0207704847,0.00922805765,-0.05665301705,0.020968,0.076879,-0.087823,-0.45306722999999993,-9.719959214,1.2196530604999998,-2.7859,1.4377,-0.39783,-9.999999999998899e-05,6.666666666665932e-05,9.00000000000345e-05,0.0021789243594767527,0.0006624387600777659,0.0015274838988270645
150000000000.0,-1,-0.036549384549999994,-0.06961740834999999,-0.059340039149999996,0.020904,0.079338,-0.093874,-0.4445354445,-9.720155346999999,1.2214182574999999,-2.7925,1.4379,-0.39029,-9.999999999998899e-05,-9.999999999976694e-05,0.00012000000000000899,-0.001837531604696352,-0.00040958184863626457,0.0010169718931356542
150000000000.0,-1,-0.16316304269999998,-0.3331515138,-0.040491657849999994,0.03315,0.079709,-0.093714,-0.44422163169999995,-9.7204495465,1.219358861,-2.7922,1.4381,-0.38963,0.0006999999999999229,0.0007999999999999119,0.00012000000000000899,0.017251383004449394,0.005625442922766233,0.0013392467664128382
150000000000.0,-1,-0.19626048645,-0.4025629825,-0.02403609915,0.02703,0.079533,-0.094996,-0.44479041739999997,-9.720547612999999,1.2178878635,-2.7914,1.4382,-0.38944,-0.0009000000000001229,-0.0007999999999999119,1.999999999990898e-05,-0.017550134260959638,-0.005866938358290996,-0.00017526908314557943
150000000000.0,-1,-0.18799348049999998,-0.44532978315,-0.00980665,0.036743,0.082227,-0.092496,-0.4445158312,-9.7206456795,1.2176917305,-2.7916,1.4382,-0.38828,-9.999999999998899e-05,-4.999999999988347e-05,4.0000000000040004e-05,0.00041033806360157854,0.0007110679037989343,0.0009193241654739115
150000000000.0,-1,-0.16923335905,-0.4215878835,-0.0014317708999999998,0.031901,0.079594,-0.082899,-0.44397646544999997,-9.720547612999999,1.2182801294999999,-2.7921,1.4382,-0.38678,-0.00019999999999997797,-5.000000000032756e-05,7.00000000000145e-05,-0.0007544266106904729,-0.00021908959939409556,0.0013107317183436162
150000000000.0,-1,-0.12108270755,-0.3375056664,-0.0330876371,0.035437,0.083258,-0.073277,-0.44199552215,-9.7206456795,1.2178878635,-2.7935,1.4383,-0.38445,-9.999999999998899e-05,0.0002999999999997449,9.999999999998899e-05,0.0004298863961791355,0.0008818940056041225,0.0015235763836827232
150000000000.0,-1,-0.0499158485,-0.21255913875,-0.0690780426,0.034153,0.084358,-0.063685,-0.43641553829999996,-9.720547612999999,1.221124058,-2.7984,1.4382,-0.37861,0.0019000000000000128,0.000300000000000189,0.0009400000000000519,-0.017618056164432794,-0.0014335610097053753,0.01700654087073339
150000000000.0,-1,-0.027654752999999997,-0.12287732449999998,-0.10036125609999999,0.021832,0.085073,-0.047017,-0.43233597189999995,-9.7204495465,1.2233795875,-2.8019,1.4381,-0.37412,-9.999999999998899e-05,-9.999999999976694e-05,4.999999999999449e-05,0.0006148180363387823,0.0020595115216797133,0.0009650571487980208
150000000000.0,-1,0.01779906975,0.0050406181,-0.09339853459999999,0.014455,0.084754,-0.033878,-0.42960972319999996,-9.7204495465,1.2245563855,-2.8042,1.4381,-0.37092,-9.999999999998899e-05,-0.00019999999999997797,-2.0000000000020002e-05,-4.536156817103176e-05,0.0016490229161048031,0.0008895598189517795
150000000000.0,-1,0.01779906975,0.0050406181,-0.09339853459999999,0.014455,0.084754,-0.033878,-0.42960972319999996,-9.7204495465,1.2245563855,-2.8042,1.4381,-0.37092,-0.00019999999999997797,-0.00019999999999997797,-2.999999999997449e-05,0.0013739099196321547,0.0014885780688778105,-0.00029334754908649785
150000000000.0,-1,0.04780741875,0.0829838723,-0.09275129569999999,0.006821,0.094129,-0.020637,-0.4283348587,-9.7204495465,1.225046718,-2.8052,1.4381,-0.36887,-9.999999999998899e-05,-0.00010000000000021103,3.999999999992898e-05,0.00034707340520068186,0.0017257648860653507,0.0005276531073492574
150000000000.0,-1,0.04859195075,0.17460740325000002,-0.0832192319,-0.004097,0.090129,-0.014713,-0.4256870632,-9.721037945499999,1.220927925,-2.8061,1.4386,-0.36701,-0.0020000000000000018,-0.0009000000000001229,-0.0008099999999999774,0.01927853557940651,0.0032370763054767604,-0.013916416638234841
150000000000.0,-1,0.0583495675,0.1330370139,-0.0603893507,-0.013966,0.090926,0.000783,-0.42361786004999996,-9.7216263445,1.2166129989999999,-2.8065,1.439,-0.36562,-0.00019999999999997797,-0.0002999999999997449,2.4999999999941735e-05,-0.0008915341016209055,0.0017805712112393124,-0.0017642643056385854
150000000000.0,-1,0.06183092824999999,0.11312951439999999,-0.025046184099999997,-0.025099,0.092895,0.016246,-0.4233530805,-9.722116676999999,1.2131806715,-2.8058,1.4394,-0.36535,3.333333333332966e-05,-0.000300000000000189,2.5000000000052758e-05,0.0014396429455452164,0.0009842527527519351,0.0009003813656833781
150000000000.0,-1,0.0522890578,0.13806782534999998,-0.0018632635,-0.027613,0.09394,0.028228,-0.42489272454999993,-9.722312809999998,1.2106309425,-2.8041,1.4396,-0.36616,3.333333333332966e-05,-0.0002999999999997449,2.999999999997449e-05,0.003436626952402655,0.001719292076724388,0.0018271193358636584
150000000000.0,-1,0.0608796832,0.16873321989999998,-0.0296553096,-0.039906,0.093412,0.049726,-0.43062961479999995,-9.722607009499999,1.2062179499999999,-2.7987,1.4398,-0.37057,3.333333333332966e-05,-0.00039999999999995595,8.000000000008001e-05,2.2799148478469533e-05,0.0010907166286830972,0.00028178936717138114
150000000000.0,-1,0.1007927487,0.2094308174,-0.03474496095,-0.042266,0.089627,0.061779,-0.43777866265,-9.722901209,1.201314625,-2.7921,1.44,-0.37621,9.999999999998899e-05,-0.000500000000000167,0.00010999999999994348,0.0002852890265141461,0.0004328372114217327,0.0018511715382745209
150000000000.0,-1,0.13096781075,0.22737698689999997,-0.02731152025,-0.049755,0.09294,0.073662,-0.44626141489999993,-9.723195408499999,1.195822901,-2.7844,1.4403,-0.38297,-9.999999999998899e-05,-0.00039999999999995595,-7.00000000000145e-05,-0.0019273454704165083,0.0031544822056586153,-0.0021151829146128787
150000000000.0,-1,0.14595237195,0.19680965884999999,-0.03927563325,-0.057062,0.09018,0.090446,-0.45016446159999995,-9.7239799405,1.1886640465,-2.7796,1.4408,-0.38696,0.00029999999999996696,-0.00010000000000021103,-0.00020999999999993246,0.005888509698945388,0.004572638026407949,0.0054101745989096894
150000000000.0,-1,0.1530621932,0.15899521645,-0.05120051965,-0.057229,0.093636,0.11325,-0.4623639342,-9.724176073499999,1.1822897239999999,-2.7688,1.441,-0.3968,2.4999999999941735e-05,-0.00039999999999995595,-0.0002500000000000835,-0.00014155496380552357,0.001733857245576731,-3.499803304207738e-05
150000000000.0,-1,0.1439812353,0.08371937104999999,-0.05718257615,-0.057217,0.09234,0.1253,-0.4760344043,-9.72427414,1.1757192685,-2.7569,1.4411,-0.40784,2.4999999999941735e-05,-0.0005999999999999339,-9.99999999995449e-06,-0.0011299693147346357,0.0017603925095506234,0.0019344088438708607
150000000000.0,-1,0.15507255645,-0.0035500073,-0.01077750835,-0.056078,0.093427,0.14696,-0.491901564,-9.72427414,1.1694430125,-2.7434,1.4411,-0.42041,2.500000000016378e-05,-0.000500000000000167,-0.00019000000000002348,-0.0005289401559906981,0.0008358505369461255,-0.0010505988938034339
150000000000.0,-1,0.18641460985,-0.026193562150000002,0.02485985775,-0.047456,0.091183,0.15914,-0.50124730145,-9.7243722065,1.164637754,-2.7352,1.4411,-0.42786,2.4999999999941735e-05,-0.00039999999999995595,-0.00010999999999994348,7.62610712854439e-05,0.0016377761146666447,0.00025343050037607284
150000000000.0,-1,0.24056693115,-0.01587696635,0.01407254275,-0.032728,0.090402,0.16175,-0.5191934709499999,-9.723881874,1.1606170274999998,-2.7209,1.4408,-0.4412,9.999999999998899e-05,-0.0004999999999997229,-4.999999999999449e-05,0.0008757259896730041,0.0009663336223548757,0.001041201222696575
150000000000.0,-1,0.24056693115,-0.01587696635,0.01407254275,-0.032728,0.090402,0.16175,-0.5191934709499999,-9.723881874,1.1606170274999998,-2.7209,1.4408,-0.4412,0.00019999999999997797,-0.000300000000000189,-9.00000000000345e-05,0.0013995490178064784,0.0005954222560913269,0.00027010478330291576
150000000000.0,-1,0.31480327164999994,0.1366654744,-0.03678474415,-0.024103,0.088166,0.17273,-0.52444983535,-9.724078007,1.156400168,-2.7158,1.441,-0.44558,-9.999999999998899e-05,-0.00039999999999995595,-2.999999999997449e-05,0.00015882073715833833,0.0015632197082369181,-2.4652327935248408e-05
150000000000.0,-1,0.33325938694999996,0.22909315065,-0.0657633949,-0.0192,0.088332,0.17038,-0.52958851995,-9.7243722065,1.1519871755,-2.7107,1.4411,-0.44994,-0.00019999999999997797,-0.000700000000000145,-2.0000000000020002e-05,-0.0008232572537087979,-0.001567261442203316,-0.00125490696863495
150000000000.0,-1,0.33823135849999997,0.26937886885,-0.09798804679999999,-0.015333,0.084892,0.16229,-0.5342564853499999,-9.724666405999999,1.146985784,-2.7057,1.4414,-0.45423,-0.00019999999999997797,-0.0002999999999997449,4.999999999999449e-05,0.001085933858352206,0.0012725234843833366,-0.00027570671716503625
150000000000.0,-1,0.31586238985,0.28713871199999996,-0.1239952826,-0.010332,0.082713,0.15035,-0.5385223780999999,-9.725058672,1.1414940599999999,-2.7008,1.4417,-0.45838,-5.0000000000105516e-05,-0.000500000000000167,2.999999999997449e-05,-0.0007300127443274906,0.0013139031062012752,0.0003633302568231134
150000000000.0,-1,0.25676751695,0.25931724595,-0.10752991725,-0.003984,0.076965,0.13608,-0.55424243805,-9.7243722065,1.140317262,-2.6892,1.4411,-0.46924,-4.999999999988347e-05,-0.0005999999999999339,0.00017000000000000348,0.00045074441513648367,-0.002658425695775568,0.0013220304231484903
150000000000.0,-1,0.2350850138,0.2608176634,-0.0727849563,0.003599,0.071289,0.11701,-0.5677265817999999,-9.7235876745,1.1400230625,-2.6795,1.4406,-0.47817,-0.00019999999999997797,-0.0007999999999999119,0.000180000000000069,0.0037969050417907546,0.0010072201503183997,-0.0002842559166187364
150000000000.0,-1,0.1933282981,0.3294936333499999,-0.04265892749999999,0.002902,0.05697,0.088333,-0.5784942835,-9.7229992755,1.1398269294999999,-2.6719,1.4401,-0.4852,0.0005999999999999339,-0.000300000000000189,0.00027999999999994696,0.012813185579337416,0.0016765631011017579,-0.007658949992490394
150000000000.0,-1,0.19718231155,0.43003140915,-0.053259916149999996,0.001921,0.051061,0.065543,-0.58638863675,-9.722508943,1.139728863,-2.6664,1.4397,-0.49017,-0.0007999999999999119,-0.001100000000000101,-5.999999999994898e-05,-0.006829266895326258,0.0003673490865809814,0.009381251735116392
150000000000.0,-1,0.15936786915,0.4799766776,-0.03772618255,-0.015015,0.045887,0.041326,-0.592125527,-9.722312809999998,1.1383559319999998,-2.6619,1.4396,-0.49421,-9.999999999998899e-05,-0.0005999999999999339,1.999999999990898e-05,-0.00043660471426920644,0.0008183667605627942,-0.0009259480427663558
150000000000.0,-1,0.1133452607,0.46878728994999996,-0.04712095325,-0.035416,0.033277,0.027994,-0.59578340745,-9.722508943,1.1348255379999999,-2.6582,1.4397,-0.49764,-0.000500000000000167,-0.0009999999999998899,-0.00014999999999998348,0.0033728296834418803,0.0028427012223279924,-0.0014653053071287392
150000000000.0,-1,0.045463629400000004,0.2943171798,-0.04339442625,-0.069617,0.029852,0.023972,-0.5973328581499999,-9.723293475,1.1274705505,-2.6544,1.4403,-0.50108,-0.00029999999999996696,-0.0009999999999998899,1.0000000000065512e-05,0.0018358617398082089,-0.001207078523357108,-0.0012754713794889128
150000000000.0,-1,-0.04800355175,0.1101090662,0.01828940225,-0.10512,0.028814,0.018695,-0.59962761425,-9.72427414,1.1172716345,-2.649,1.4411,-0.50619,-0.00019999999999997797,-0.0009000000000001229,0.00017000000000000348,-0.00018176581572681982,0.0001881342549490128,0.00022871170506544303
150000000000.0,-1,-0.038893173899999994,-0.09788998029999998,0.11722869409999999,-0.13437,0.023024,0.028008,-0.60245192945,-9.725647071,1.1039345905,-2.642,1.4422,-0.51299,-0.0004999999999999449,-0.0009000000000001229,9.99999999995449e-06,0.001646609735478144,0.0005548730673610169,-0.00248960770317197
150000000000.0,-1,-0.03766734265,-0.2559339517,0.23352575644999998,-0.16386,0.024472,0.038418,-0.6063647828,-9.727314201499999,1.0874594185,-2.6329,1.4435,-0.5219,-0.00029999999999996696,-0.0009999999999998899,7.00000000000145e-05,0.001706791740367919,0.0012114603700126292,0.0004913585378552021
150000000000.0,-1,0.09735061454999999,-0.36585669155,0.40246491599999995,-0.17966,0.019037,0.055125,-0.6119545732999999,-9.728981331999998,1.06892485,-2.6216,1.4449,-0.53307,-0.00029999999999996696,-0.0009000000000001229,0.00026999999999999247,0.004433600511374314,0.001352445914469369,-0.0019305541725926911
150000000000.0,-1,0.09735061454999999,-0.36585669155,0.40246491599999995,-0.17966,0.019037,0.055125,-0.6119545732999999,-9.728981331999998,1.06892485,-2.6216,1.4449,-0.53307,-0.000400000000000178,-0.0012999999999996348,0.00012000000000000899,0.0005885971984487259,-0.0019377310567341155,0.00029247414545818806
150000000000.0,-1,0.18798367384999998,-0.2843340101,0.44074027094999996,-0.19291,0.011348,0.059868,-0.6181916027,-9.730746529,1.0490173505,-2.6091,1.4463,-0.54559,-0.0004999999999999449,-0.001000000000000334,0.00019999999999997797,0.0008330212211773436,0.0011529669692824651,-0.00028914044140293527
150000000000.0,-1,0.2950036453,-0.09784094704999999,0.43632727844999997,-0.19764,0.005073,0.071924,-0.62555639685,-9.7324136595,1.0288156515,-2.5953,1.4477,-0.55945,-0.00029999999999996696,-0.0010999999999996568,0.000160000000000049,0.004265913934628163,0.002364965046637524,-0.0019299032541795214
150000000000.0,-1,0.36144369905,0.10485270179999999,0.39610040015000003,-0.1959,-0.010547,0.06615,-0.6129842715499999,-9.733100125,1.029894383,-2.6047,1.4483,-0.55033,-0.00019999999999997797,-0.001200000000000312,0.00019999999999997797,0.0007357365381075454,-0.0004737002071277807,-0.0009351813354783189
150000000000.0,-1,0.44672232745,0.25565936549999996,0.35132323625,-0.19659,-0.025026,0.058148,-0.6186623219,-9.734865322,1.0095946175,-2.5918,1.4498,-0.56355,-0.00039999999999995595,-0.0013999999999998458,-4.999999999999449e-05,0.0012112275950928453,0.00012218847973954894,-4.099066022766884e-05
150000000000.0,-1,0.4546755206,0.3496266858,0.28012695725,-0.20342,-0.040887,0.049859,-0.62377158655,-9.7367285855,0.9890006524999999,-2.5789,1.4513,-0.577,-0.00029999999999996696,-0.0013999999999998458,-0.0001100000000000545,0.002047461819779439,0.00240638357132128,-0.0012450458972228517
150000000000.0,-1,0.41107515469999995,0.38598974399999997,0.22866165805,-0.21659,-0.049643,0.035367,-0.62745888695,-9.738591849,0.9672396961499999,-2.5661,1.453,-0.59035,-0.00020000000000020002,-0.0015000000000000568,-0.00012000000000000899,-0.0005362440383667177,0.001591097461651314,-0.001742762222753047
150000000000.0,-1,0.35087213035,0.3738491113,0.23098583409999998,-0.22515,-0.049876,0.031646,-0.63024397555,-9.740749312,0.94427252185,-2.5531,1.4548,-0.60404,-0.00019999999999997797,-0.0015000000000000568,-0.00027999999999994696,-0.0009812552128125596,0.0009799916087895877,-0.001486238133248552
150000000000.0,-1,0.17125352894999998,0.1045781156,0.312243736,-0.22857,-0.058476,0.036533,-0.6334899767,-9.742710642,0.9209228882,-2.539,1.4566,-0.61875,-0.00019999999999997797,-0.0017000000000000348,-0.00045000000000006146,-0.0021740768036928593,0.0010490940047338526,-0.0004314475811857399
150000000000.0,-1,0.1317817627,-0.11148199719999999,0.3750651359,-0.22006,-0.055775,0.033,-0.63636332515,-9.744671971999999,0.897896874,-2.525,1.4583,-0.63346,-4.999999999988347e-05,-0.0016000000000002679,-0.00030999999999992145,-0.0004408961824615698,0.0030727331248365797,-0.0018045882402415447
150000000000.0,-1,0.11854278519999999,-0.28713871199999996,0.4198815264,-0.20649,-0.060357,0.054904,-0.6410803237999999,-9.7463391025,0.8762830174,-2.51,1.4599,-0.64924,-5.0000000000105516e-05,-0.0017999999999998018,-0.0005900000000000905,-0.0012330760625978154,0.0023713487458028037,-0.00047298663058614743
150000000000.0,-1,0.1543174444,-0.3755162418,0.4588335402,-0.17939,-0.065704,0.072187,-0.6369026909,-9.7461429695,0.8819218411499999,-2.5161,1.4596,-0.644,-9.999999999998899e-05,-0.0019999999999997797,-0.0005999999999999339,-0.0017013469200972686,0.0007742835044630691,-0.0016009585772032153
150000000000.0,-1,0.21354961039999998,-0.29053181289999996,0.47392597455,-0.1314,-0.072855,0.092184,-0.6452579567,-9.746829434999999,0.8675747122,-2.5021,1.4603,-0.65888,-4.999999999988347e-05,-0.0019000000000000128,-0.00039000000000000146,-0.003144400312590445,0.00266823372249414,-0.0002275330138021836
150000000000.0,-1,0.33324958029999996,-0.05951655884999999,0.35658940729999994,-0.082124,-0.082402,0.11464,-0.6558589453499999,-9.747025568,0.8581701348499999,-2.489,1.4604,-0.6729,-5.0000000000105516e-05,-0.002000000000000224,-0.0008099999999999774,-0.001742882526349021,0.005145327618853557,-0.0022830311789392432
150000000000.0,-1,0.44568282254999997,0.23319233035,0.2400864053,-0.023047,-0.091653,0.13722,-0.66864681695,-9.746437168999998,0.8549633602999999,-2.4779,1.4599,-0.68505,9.999999999998899e-05,-0.0022999999999999687,-0.0004899999999999904,-0.0022777701365648273,0.0025228543544475457,0.00021584377654382259
150000000000.0,-1,0.5412584334499999,0.49757961435,0.0856512811,0.021222,-0.097716,0.15836,-0.6838667377500001,-9.745162304499999,0.8567677839,-2.468,1.4588,-0.69605,4.999999999988347e-05,-0.002200000000000202,-0.0006099999999999994,-0.001326150604671117,0.0017789030824804097,-0.0005273419235103383
150000000000.0,-1,0.5412584334499999,0.49757961435,0.0856512811,0.021222,-0.097716,0.15836,-0.6838667377500001,-9.745162304499999,0.8567677839,-2.468,1.4588,-0.69605,5.0000000000105516e-05,-0.0023999999999997357,-0.0006099999999999994,-0.0037525352261653655,0.005387678018418995,-0.0008632572726037235
150000000000.0,-1,0.5834760617,0.6784632735999999,-0.028674644599999997,0.069075,-0.1013,0.18552,-0.66801919135,-9.745456504,0.8662017812,-2.4847,1.459,-0.68065,9.999999999998899e-05,-0.0022999999999999687,-0.0008900000000000574,-0.001010707854881332,0.0047302349307376534,-0.002225687938119947
150000000000.0,-1,0.61151327405,0.79285784585,-0.1298204327,0.10474,-0.10639,0.20291,-0.6875246182,-9.743102908,0.87695967625,-2.4767,1.4569,-0.68979,9.999999999998899e-05,-0.0026999999999999247,-0.0005800000000000249,-0.002278546882942045,0.0020326340206024973,0.00033359363076579385
150000000000.0,-1,0.6432475934499999,0.8753219657,-0.19809432999999999,0.13152,-0.10211,0.22487,-0.70938364105,-9.740258979499998,0.8909145392,-2.4691,1.4544,-0.6985,0.00029999999999996696,-0.0026000000000001577,-0.0009699999999999154,-0.00555379662599087,0.003696144142586455,-0.000611577190714474
150000000000.0,-1,0.68002253095,0.8881490638999999,-0.2577972152,0.15963,-0.10142,0.2481,-0.7335962598999999,-9.7369247185,0.9075270042999999,-2.4618,1.4515,-0.70699,0.00020000000000020002,-0.0026000000000001577,-0.0009000000000000119,-0.0026580108590776863,0.00682959339438538,-0.0024038353778144117
150000000000.0,-1,0.6946736660499999,0.8877764112,-0.2515405725,0.17546,-0.099909,0.27235,-0.76035860775,-9.733100125,0.9262577057999999,-2.4542,1.4483,-0.71567,0.00029999999999996696,-0.0029999999999996696,-0.0011900000000000244,-0.003961515514804059,0.001932952162409407,-0.0012445572118937598
150000000000.0,-1,0.7258490063999999,0.84157728305,-0.22913237725,0.18867,-0.093674,0.30132,-0.7900433372999999,-9.7288832655,0.946341725,-2.446,1.4448,-0.72503,0.00019999999999997797,-0.0030000000000001137,-0.0010000000000000009,-0.004615517523040458,0.004616231276060256,0.00032340695866284186
150000000000.0,-1,0.7176114204,0.66664626035,-0.16027008094999998,0.19837,-0.092372,0.3291,-0.8226602552,-9.724078007,0.9675633156,-2.437,1.4409,-0.73511,0.00029999999999996696,-0.0028999999999999027,-0.0012999999999999678,-0.0014229229682409805,0.006173094976724025,-0.00269861900044277
150000000000.0,-1,0.75622020145,0.50901416825,-0.14559933255,0.21412,-0.088443,0.35332,-0.8576699956999999,-9.718782416,0.9901774505,-2.4278,1.4368,-0.74534,0.00039999999999995595,-0.0031000000000003247,-0.0010200000000000209,-0.00477348326123983,0.002706112002339056,0.00028575584653878217
150000000000.0,-1,0.7458741857,0.3747317098,-0.104342756,0.2348,-0.085592,0.38002,-0.8582485880499999,-9.716428819999999,1.0120462799999999,-2.4382,1.4351,-0.73606,0.00029999999999996696,-0.0032999999999998586,-0.0013900000000000023,-0.006428352741983501,0.005431017025779417,-0.001217441601635505
150000000000.0,-1,0.805714364,0.25153076585,-0.08850501625,0.25682,-0.086318,0.4056,-0.8986421793999999,-9.709956431,1.0388184345,-2.4284,1.4303,-0.74688,0.000400000000000178,-0.0032999999999998586,-0.0011999999999999789,0.0009893295123342138,0.0047053670952779125,-0.0014849662492981697
150000000000.0,-1,0.85560079255,0.17552922835,-0.08656329954999999,0.29858,-0.089978,0.41824,-0.94074212785,-9.702699509999999,1.0695132489999999,-2.4202,1.425,-0.75618,0.00029999999999996696,-0.0036000000000000476,-0.0015200000000000768,-0.0022179676670963655,0.004300797013154778,-0.0006419310582488347
150000000000.0,-1,0.8809117562,0.22318954735,-0.15632780764999998,0.3294,-0.096396,0.43198,-0.9839992609999999,-9.694461923999999,1.1039345905,-2.4136,1.4194,-0.76386,0.00029999999999996696,-0.0036000000000000476,-0.0013499999999999623,-0.0017348635641236676,0.006017982255332566,-0.0006700745454666368
150000000000.0,-1,0.9321122758499999,0.30107396165,-0.2075675539,0.35156,-0.10068,0.44798,-1.0286195185,-9.685635938999999,1.1408075945,-2.4079,1.4135,-0.7707,0.0004999999999999449,-0.0038000000000000256,-0.0014600000000000168,-0.0024212903286096044,0.0035337702003559457,-0.0005128937988847504
150000000000.0,-1,0.96090460025,0.43697451735,-0.31866709175,0.36277,-0.1064,0.45062,-1.074024308,-9.676025421999999,1.179347729,-2.4029,1.4074,-0.77689,0.00039999999999995595,-0.0036999999999998145,-0.0015699999999999603,-0.002373726123027442,0.005830006337806726,-0.0006607526755986193
150000000000.0,-1,0.96090460025,0.43697451735,-0.31866709175,0.36277,-0.1064,0.45062,-1.074024308,-9.676025421999999,1.179347729,-2.4029,1.4074,-0.77689,0.00029999999999996696,-0.004100000000000215,-0.0015300000000000313,-0.0026591461183671505,0.005807301577711144,-0.0006014609642863711
150000000000.0,-1,0.9708191234,0.6504064479499999,-0.4872532119,0.35766,-0.10058,0.46009,-1.1200174965,-9.6661207055,1.217789797,-2.398,1.4013,-0.78298,0.000400000000000178,-0.0040999999999997705,-0.0014499999999999513,-0.001695490788133025,0.005099658273712837,-0.0002985436110085615
150000000000.0,-1,0.9954730414999999,0.6882306970000001,-0.5571157864999999,0.33425,-0.097728,0.46936,-1.16699135,-9.655823723,1.2541724685,-2.3922,1.3952,-0.78996,0.0004999999999999449,-0.004200000000000426,-0.0016300000000000203,-0.0013366768333258339,0.004341082859171452,-0.002836591754258988
150000000000.0,-1,0.9865489899999998,0.6617037087499998,-0.5245380951999999,0.30815,-0.086436,0.47005,-1.2141613365,-9.645624806999999,1.2875150784999998,-2.3855,1.3893,-0.79769,0.0004999999999999449,-0.0042999999999997485,-0.0015500000000000513,-0.0032921746937626395,0.005009827160881164,-0.001235803866658447
150000000000.0,-1,0.9806061600999999,0.6113073344,-0.44094621059999994,0.27838,-0.07657,0.48515,-1.242502555,-9.638956284999999,1.3104626394999999,-2.3828,1.3856,-0.80146,0.0004999999999999449,-0.0047000000000001485,-0.0015899999999999803,0.0011385330805504523,0.004050690359189479,-0.0010606965229476017
150000000000.0,-1,1.0070448885,0.5524282078,-0.3419971121,0.24752,-0.070301,0.49187,-1.2918300045,-9.6286593025,1.337823193,-2.3737,1.38,-0.81156,0.000500000000000167,-0.0045999999999999375,-0.0014699999999999713,-0.001029803505863569,0.005264336424387617,0.0002874487152992877
150000000000.0,-1,1.037739703,0.48144767509999997,-0.2442444249,0.22887,-0.062446,0.49752,-1.3420400525,-9.61836232,1.3628301505,-2.3639,1.3745,-0.82228,0.0004999999999999449,-0.0047999999999999154,-0.0014199999999999768,-0.00034885293725417377,0.004722084286281403,-0.001175465413506105
150000000000.0,-1,1.1279608829999999,0.46463907699999996,-0.1817956777,0.2091,-0.058287,0.50802,-1.393132699,-9.607771138,1.385679645,-2.3535,1.3691,-0.83349,0.0004999999999999449,-0.004999999999999893,-0.0012900000000000134,-0.0008111791946354696,0.0034450521735462925,-0.000906444346890245
150000000000.0,-1,1.217789797,0.4806043032,-0.17637260025,0.18584,-0.058973,0.50531,-1.4442253455,-9.5972780225,1.406077477,-2.3428,1.3638,-0.84504,0.0004999999999999449,-0.0050000000000003375,-0.0011999999999999789,0.0010949638839992115,0.003797307037959108,-0.0009819921776494933
150000000000.0,-1,1.2577028625,0.431100334,-0.21663870514999997,0.17566,-0.047165,0.5014,-1.4948276595,-9.5866868405,1.4252985109999998,-2.3324,1.3586,-0.85629,0.000400000000000178,-0.005299999999999638,-0.0011200000000000099,0.0013170861465077177,0.003717816196832091,-0.001182257573188794
150000000000.0,-1,1.3210538214999998,0.41567447355,-0.2610137964,0.15099,-0.041823,0.49498,-1.5450377075,-9.576193725,1.4420678824999997,-2.3217,1.3536,-0.86763,0.0005999999999999339,-0.0052000000000003155,-0.0008400000000000629,-0.00041627982619973913,0.002870638739024045,0.0005758398759556638
150000000000.0,-1,1.369204473,0.43325779699999994,-0.3361327354,0.12272,-0.039033,0.49215,-1.5947574229999997,-9.5658967425,1.4559933255,-2.3108,1.3488,-0.87931,0.0004999999999999449,-0.005399999999999849,-0.0006599999999999939,0.00032057411434815997,0.0026947129119994084,0.0005836402500760673
150000000000.0,-1,1.387052576,0.25309982984999996,-0.31373434679999995,0.095597,-0.033765,0.48569,-1.6438887395,-9.555893959499999,1.4671729064999999,-2.2995,1.3442,-0.89129,0.0006999999999999229,-0.005399999999999849,-0.0007800000000000029,0.002978243801740499,0.0007411493243485445,-0.0026616231047429384
150000000000.0,-1,1.3045786495,0.1050096082,-0.2856677145,0.054811,-0.022882,0.48138,-1.6927258565,-9.5462834425,1.474527894,-2.2874,1.3398,-0.90392,0.000700000000000145,-0.005600000000000271,-0.00046999999999997044,0.0002904251701512095,0.0002652336394324273,-3.6080458040377295e-05
150000000000.0,-1,1.268588244,0.0699802544,-0.2597977718,0.017208,-0.033526,0.45815,-1.651832126,-9.555305560499999,1.4618773155,-2.2952,1.3439,-0.89731,0.0005999999999999339,-0.005900000000000016,-0.00024999999999997247,-0.0008174437052246297,0.0008154863756952846,-0.0005244929457437486
150000000000.0,-1,1.298008194,0.01738719045,-0.21030360924999997,-0.019831,-0.022287,0.4202,-1.6954717185,-9.5478525065,1.4612889165,-2.2822,1.3405,-0.91104,0.0009000000000001229,-0.005700000000000038,-7.00000000000145e-05,0.0018603703698429896,0.00024431848281913915,-0.0015634338144021598
150000000000.0,-1,1.298008194,0.01738719045,-0.21030360924999997,-0.019831,-0.022287,0.4202,-1.6954717185,-9.5478525065,1.4612889165,-2.2822,1.3405,-0.91104,0.0007999999999999119,-0.005999999999999783,0.00012000000000000899,0.002508933813221148,0.0002870463518680477,0.0004896253284969454
150000000000.0,-1,1.34351105,-0.09676221555,-0.1345080114,-0.066424,-0.018555,0.37741,-1.7346983184999998,-9.541576250499999,1.4560913919999998,-2.2691,1.3377,-0.92465,0.0008999999999999009,-0.006200000000000205,0.00030999999999992145,-0.0007684337563444998,-0.0010734680000301644,0.000706316373421334
150000000000.0,-1,1.403920014,-0.22510184409999998,-0.07316741565,-0.095692,-0.019048,0.32288,-1.768531261,-9.5366729255,1.4472654069999997,-2.2566,1.3356,-0.93771,0.0009000000000001229,-0.006199999999999761,0.0005900000000000905,0.000974985537177897,0.0002593839431672684,-0.0005288757424284363
150000000000.0,-1,1.170325611,-0.82688692135,0.0354020065,-0.10298,-0.016399,0.26017,-1.7062590334999999,-9.550206102499999,1.4328496314999999,-2.2693,1.3416,-0.92617,0.0006999999999999229,-0.006600000000000161,0.0006800000000000139,0.0013221002407577398,-0.001925404451671442,-0.0009584602858228042
150000000000.0,-1,0.9032905314999999,-1.141101794,0.1485511342,-0.11124,-0.02231,0.2072,-1.7285201289999998,-9.54775444,1.4220623165,-2.2592,1.3405,-0.93675,0.001000000000000112,-0.00649999999999995,0.0009799999999999809,0.0018731351491680925,-0.0018884393782137021,0.0001022266048535947
150000000000.0,-1,0.7843750935999999,-1.349983439,0.18024622699999998,-0.10843,-0.029043,0.14718,-1.744603035,-9.5464795755,1.4112750015,-2.251,1.3399,-0.94552,0.0007999999999999119,-0.006800000000000139,0.0011499999999999844,0.0029612098802980213,-0.0002794835170982779,0.00022097065687187722
150000000000.0,-1,0.7259666861999999,-1.372538734,0.2082540194,-0.098206,-0.038031,0.09571,-1.754998084,-9.545989243,1.4018606175,-2.2448,1.3397,-0.95228,0.0007999999999999119,-0.006999999999999673,0.0012199999999999989,0.003077746022343897,-0.001429855017122117,0.0008836777734961831
150000000000.0,-1,0.69312421535,-1.2830040194999999,0.18696378225,-0.091928,-0.038667,0.042866,-1.7599994755,-9.5462834425,1.3932307655,-2.2404,1.3399,-0.95723,0.0008000000000001339,-0.007100000000000328,0.0015499999999999403,0.0012383370587163434,-0.0027059255315062813,0.0009521669174499259
150000000000.0,-1,0.6876815246,-1.1900369775,0.09376138064999999,-0.095541,-0.037245,-0.001719,-1.7602936749999998,-9.547558307,1.3844047804999997,-2.2372,1.3404,-0.9609,0.0007899999999999574,-0.007199999999999651,0.0016400000000000858,0.004414907276978797,-0.001069503158626528,0.000317895653562994
150000000000.0,-1,0.6670777529499999,-1.2651559165000001,-0.028517738199999997,-0.096796,-0.033377,-0.040291,-1.7565671479999998,-9.549519637,1.3753826625,-2.2351,1.3413,-0.96347,0.0007800000000000029,-0.007500000000000284,0.0015600000000000058,0.00576315366515634,-0.0021623854227315054,0.000178232957930069
150000000000.0,-1,0.642727841,-1.4783524874999998,-0.11332564739999999,-0.10549,-0.027369,-0.071774,-1.7498986259999998,-9.5521674325,1.365477946,-2.2334,1.3425,-0.96549,0.0007599999999999829,-0.00749999999999984,0.0015399999999999858,0.004474205560140998,-0.002022349060876616,-0.00042327124472052446
150000000000.0,-1,0.627233334,-1.7513696234999998,-0.0840037639,-0.13635,-0.019744,-0.085532,-1.7409745744999998,-9.55559976,1.3529254339999999,-2.2314,1.344,-0.96779,0.0007000000000000339,-0.007600000000000051,0.0014199999999999768,0.003154446503951025,-0.0017770222379134282,0.0004696340039114233
150000000000.0,-1,0.6052272113999999,-1.9265163925,-0.0072961475999999996,-0.17346,-0.00742,-0.10666,-1.730481459,-9.5598166195,1.3363521955,-2.2284,1.346,-0.97103,0.0007300000000000084,-0.007800000000000029,0.0012799999999999478,0.0016237447808578054,-0.0032526432236155145,0.0006839235186308912
150000000000.0,-1,0.6983609664499999,-2.1020554275,0.1383522182,-0.22532,0.005642,-0.12439,-1.7183212129999998,-9.565014144,1.3146794990000001,-2.2239,1.3483,-0.97562,0.0010499999999999954,-0.007800000000000029,0.0012199999999999989,0.0031047707518905288,-0.0017448580758059329,0.0018078502868112967
150000000000.0,-1,0.7509344171,-2.1183344665,0.2069595416,-0.27106,0.020193,-0.15529,-1.7035131715,-9.571290399999999,1.287809278,-2.2181,1.3513,-0.98137,0.0010599999999999499,-0.007899999999999796,0.0009400000000000519,0.0030939440068233903,-0.0031835146147793925,-0.00021605274941260966
150000000000.0,-1,0.7509344171,-2.1183344665,0.2069595416,-0.27106,0.020193,-0.15529,-1.7035131715,-9.571290399999999,1.287809278,-2.2181,1.3513,-0.98137,0.0011100000000000554,-0.00790000000000024,0.0007800000000000029,-8.295177953465682e-05,-0.002224384764551335,0.00020511349694896097
150000000000.0,-1,0.77952080185,-2.065868889,0.28219616039999995,-0.33057,0.042711,-0.17566,-1.6867437999999997,-9.5786453875,1.2547608675,-2.2104,1.3547,-0.98888,0.0011299999999999644,-0.007899999999999796,0.0006800000000000139,-0.0012794469333223812,-0.0038125811140237165,0.00017533858229845656
150000000000.0,-1,0.6989395588,-2.098426967,0.4026022091,-0.38109,0.05216,-0.18971,-1.6683072979999998,-9.5868829735,1.2159265335,-2.2006,1.3587,-0.99831,0.0013499999999999623,-0.007800000000000029,0.0006099999999999994,0.002709744816088877,-0.003980886110955817,0.0006347360519398659
150000000000.0,-1,0.6717849449499999,-2.037233471,0.5538207521,-0.39221,0.055511,-0.19833,-1.649086264,-9.595316692499999,1.1749347365,-2.1899,1.3628,-1.0087,0.0012000000000000899,-0.008000000000000007,0.0006399999999999739,-0.0007002317199997776,-0.005052483411519315,0.0011943972325814123
150000000000.0,-1,0.6238402331,-1.9059224274999997,0.69498747885,-0.38724,0.054548,-0.21148,-1.6283942325,-9.6037504115,1.134041006,-2.1791,1.367,-1.0191,0.0014099999999999113,-0.007800000000000029,0.0005500000000000504,0.0016583538854353375,-0.005732676843716256,0.00037518423623228436
150000000000.0,-1,0.62045693885,-1.7021402405,0.77091056315,-0.35901,0.054271,-0.22192,-1.6066234695,-9.611889931,1.0955008714999999,-2.1693,1.3712,-1.0285,0.0012400000000000189,-0.007900000000000018,0.00043999999999999595,-0.00025546786456742687,-0.006032102939194095,0.00028329470360088926
150000000000.0,-1,0.6751290126,-1.2094541444999998,0.73799944575,-0.29867,0.04652,-0.23424,-1.5834797754999999,-9.619441051499999,1.062256328,-2.1617,1.3751,-1.0357,0.0012199999999999989,-0.007800000000000029,0.0005600000000000049,-0.0019190746256645408,-0.006276352866033896,6.527796153332766e-05
150000000000.0,-1,0.74682543075,-0.6675778921,0.6032854947,-0.22945,0.030714,-0.26556,-1.5573940865,-9.626599906,1.036170639,-2.1579,1.3789,-1.0393,0.0011300000000000754,-0.008099999999999996,0.0006299999999999084,0.005191700849968672,-0.007429577001151211,0.002597344838214166
150000000000.0,-1,0.8050082851999999,-0.11786612634999999,0.4984916328,-0.15541,0.018776,-0.31012,-1.5269934714999998,-9.6333664945,1.0178322034999998,-2.1587,1.3826,-1.0382,0.0010999999999999899,-0.007900000000000018,0.0007000000000000339,-0.0015935877161206147,-0.005998672696043927,0.0015436649204032538
150000000000.0,-1,0.8781658942,0.39141282144999995,0.33140593009999997,-0.075126,0.003444,-0.36055,-1.491199199,-9.6400350165,1.0078294205,-2.1651,1.3862,-1.0315,0.0010700000000000154,-0.008000000000000007,0.0007399999999999629,0.00037830125696936,-0.006956877788237614,0.0013025095406875575
150000000000.0,-1,0.9484697680499999,0.8751552526499999,0.056054811399999994,-0.013375,-0.006325,-0.42214,-1.4491286705,-9.646801605,1.0051816249999999,-2.1772,1.39,-1.0193,0.0012199999999999989,-0.007800000000000029,0.0009000000000000119,-0.0009916557797815528,-0.006485175769061158,-0.00017319004330973442
150000000000.0,-1,0.84426430515,1.290947406,-0.2531292498,0.006298,-0.00413,-0.47605,-1.4014683515,-9.6537643265,1.0056719575,-2.1932,1.394,-1.0031,0.0011999999999999789,-0.008199999999999985,0.0008200000000000429,0.004263235773811047,-0.0064807890896203535,0.001957613155796789
150000000000.0,-1,0.5978329973,1.581028113,-0.45711737645,0.001319,0.00213,-0.52674,-1.348414375,-9.661315446999998,1.005966157,-2.2118,1.3984,-0.98428,0.0010899999999999244,-0.007900000000000018,0.0010099999999999554,-0.0018102781382016708,-0.004029150471386966,-0.0010345958753799067
150000000000.0,-1,0.32374693644999997,1.7268529984999998,-0.57059993025,-0.02467,0.013799,-0.57778,-1.2902609404999998,-9.6694549665,1.003808694,-2.232,1.4033,-0.96367,0.0012600000000000389,-0.008299999999999974,0.0008700000000000374,0.0021197949282216744,-0.006888740490658352,0.001304352434732925
150000000000.0,-1,-0.057349289199999993,1.146789651,-0.42149962364999993,-0.055788,0.032567,-0.629,-1.2267138485,-9.6782809515,0.9985131029999998,-2.254,1.4088,-0.94103,0.0013499999999999623,-0.008099999999999996,0.0009599999999999609,0.0010339285425882139,-0.004079059358407022,0.0009027441609146258
150000000000.0,-1,-0.20086961195,0.74182403925,-0.22041426539999998,-0.079412,0.045369,-0.65958,-1.159930562,-9.687303069499999,0.99047165,-2.2775,1.4146,-0.91673,0.0012900000000000134,-0.008399999999999963,0.0008100000000000884,-0.0017138152941633678,-0.005380825574043291,0.0003334517174224949
150000000000.0,-1,-0.20086961195,0.74182403925,-0.22041426539999998,-0.079412,0.045369,-0.65958,-1.159930562,-9.687303069499999,0.99047165,-2.2775,1.4146,-0.91673,0.0013300000000000534,-0.008299999999999974,0.0007699999999999374,-8.631290943172942e-05,-0.003718406664831253,0.0013629231452649826
150000000000.0,-1,-0.30472203545,0.40912363134999996,-0.007590347099999999,-0.096193,0.035364,-0.68373,-1.097952534,-9.6955406555,0.9809591994999999,-2.3,1.4201,-0.89352,0.0011999999999999789,-0.008499999999999952,0.0005399999999999849,-1.0524499102437801e-05,-0.0036430367062665336,-0.0015334396829977948
150000000000.0,-1,-0.3958944605,0.26963384175,0.14913953319999998,-0.10224,0.032755,-0.68257,-1.0276388534999998,-9.704268573999999,0.97014246455,-2.3274,1.4262,-0.8654,0.0014600000000000168,-0.008400000000000185,0.0007599999999999829,0.002357064156280897,-0.003016246127165223,0.0022683969585546304
150000000000.0,-1,-0.45939251924999996,0.00079433865,0.37426099059999995,-0.10011,0.041143,-0.66341,-0.9585804242,-9.712408093499999,0.9593061163,-2.3566,1.4321,-0.83556,0.0012600000000000389,-0.008599999999999941,0.00031000000000003247,-0.001599008423546211,-0.002232889103168656,-0.0027149201420562097
150000000000.0,-1,-0.4433194199,-0.15522946284999997,0.39278575244999997,-0.078056,0.039165,-0.6318,-0.8923463101,-9.719665014499999,0.9499113456,-2.3874,1.4375,-0.80398,0.0012999999999999678,-0.00869999999999993,0.00036999999999998145,-0.0019375286760401345,-0.0022831626366315305,0.0024112219501839505
150000000000.0,-1,-0.3675924686,-0.30012271659999995,0.43210061229999996,-0.05362,0.038382,-0.58815,-0.8411752104,-9.723489608,0.9572859463999999,-2.4207,1.4405,-0.77006,0.0013199999999999878,-0.008599999999999941,0.00014999999999998348,6.705090128100721e-05,-0.002847867499588652,3.1966100228153493e-05
150000000000.0,-1,-0.42471620485,-0.29507229185,0.43493473415,-0.011931,0.034484,-0.54301,-0.7840514741499999,-9.728589066,0.9544518245499999,-2.4539,1.4445,-0.73616,0.0011599999999999389,-0.008800000000000141,0.00017000000000000348,-7.953966482387997e-05,-0.0012631915382153025,-0.0022412842796986077
150000000000.0,-1,-0.5665203638499999,-0.49786400719999996,0.44840907125,0.00214,0.011505,-0.48234,-0.73278230795,-9.7326097925,0.9542949181499999,-2.4867,1.4478,-0.70284,0.0013900000000000023,-0.008599999999999941,8.000000000008001e-05,0.002650980647887602,-0.0024271055747464576,0.0006576175293797615
150000000000.0,-1,-0.53682582765,-0.6828958794,0.27679269624999997,0.003638,-0.000905,-0.43162,-0.6864655000000001,-9.735944053499999,0.9544224045999998,-2.5181,1.4506,-0.67129,0.0012500000000000844,-0.008599999999999941,-0.00012000000000000899,-0.003622290359084568,0.00045615199951010155,-0.002181140999812259
150000000000.0,-1,-0.5138390400499999,-0.53207940905,0.034823414149999996,0.032115,-0.013708,-0.38052,-0.6457090625999999,-9.738395716,0.95711923335,-2.5481,1.4528,-0.64115,0.0019799999999999818,-0.008399999999999963,5.999999999994898e-05,0.008956768233891577,-0.0040864766151942344,0.007839692352690442
150000000000.0,-1,-0.20930333095,0.1232892038,-0.24374428574999998,0.040854,-0.022245,-0.33336,-0.6095127174499999,-9.740357046,0.96155183915,-2.5766,1.4544,-0.61262,0.0005800000000000249,-0.009000000000000119,-0.00027999999999994696,-0.007085163481780121,-0.0009138443486798042,-0.008492801558996899
150000000000.0,-1,-0.1937401774,0.5310497108,-0.13893081055,0.017873,-0.03536,-0.28777,-0.5782393106,-9.7420241765,0.96418002135,-2.6014,1.4559,-0.58805,0.0012499999999999734,-0.008899999999999908,-0.00026999999999999247,0.001227023729720944,-0.001310866633389196,0.0005991765084236711
150000000000.0,-1,-0.22162048335,0.53245206175,-0.14100982034999998,0.019219,-0.041599,-0.25517,-0.55035900465,-9.7433971075,0.9662590311499999,-2.6238,1.4572,-0.5659,0.0012799999999999478,-0.008600000000000163,-0.000300000000000078,-0.002380761568433698,-0.00270005488056424,-0.0031669250367531987
150000000000.0,-1,-0.14693303694999998,0.79744735805,-0.08069892285,0.011491,-0.032396,-0.22292,-0.54514186685,-9.743495174,0.9678967416999998,-2.6287,1.4573,-0.56124,0.0013300000000000534,-0.008299999999999974,-0.00014999999999998348,0.0011939566075340746,-0.0011376627252213112,-0.002781916301950238
150000000000.0,-1,-0.02576206955,0.8833830319999999,-0.03690242395,-0.010297,-0.042909,-0.1978,-0.52341033045,-9.744770038499999,0.9673475692999999,-2.6456,1.4584,-0.54456,0.0012199999999999989,-0.008799999999999919,-0.00039000000000000146,-0.0005594717408359262,-0.0024251521992619818,0.0013113863686691207
150000000000.0,-1,-0.20367431384999998,1.0704939139999998,-0.09127049154999999,-0.008346,-0.067176,-0.17698,-0.5039637435,-9.74584877,0.9667983968999999,-2.6611,1.4594,-0.52968,0.0011999999999999789,-0.008799999999999919,-0.00025999999999992696,0.0018584524722304874,-0.0021453105809001727,-0.0013378252687175074
150000000000.0,-1,-0.20367431384999998,1.0704939139999998,-0.09127049154999999,-0.008346,-0.067176,-0.17698,-0.5039637435,-9.74584877,0.9667983968999999,-2.6611,1.4594,-0.52968,0.0012600000000000389,-0.008800000000000141,-0.000660000000000105,-0.004818460627291854,-0.0018545170580530623,-0.0028852535183234718
150000000000.0,-1,-0.19776090389999998,1.270745707,-0.01652420525,-0.003229,-0.074318,-0.1708,-0.48547820825,-9.746829434999999,0.96672975035,-2.6762,1.4603,-0.51526,0.0009799999999999809,-0.00869999999999993,-0.00031999999999998696,0.005347019859737845,-0.002389043921514844,-0.0006750582261823013
150000000000.0,-1,-0.27362514829999995,1.2266157819999999,-0.04361997919999999,-0.005385,-0.084107,-0.16347,-0.46722803259999995,-9.7477120335,0.9665826505999999,-2.6913,1.4611,-0.50092,0.0010799999999999699,-0.008599999999999941,-0.00032999999999994145,-0.0030285307344897205,0.0009602628350358078,-0.001711483513425982
150000000000.0,-1,-0.24653918099999997,1.1390423975,-0.09628168969999999,-0.011756,-0.11449,-0.16794,-0.4488307572,-9.748594632,0.9659746383,-2.7066,1.462,-0.48666,0.0010000000000000009,-0.008800000000000141,-0.0007900000000000684,0.0027912596232857467,-0.0029020157832397864,-0.0026533559361232584
150000000000.0,-1,-0.31213586285,1.0399952325,-0.029115943849999996,-0.002669,-0.12989,-0.17361,-0.42961952984999996,-9.7494772305,0.966151158,-2.7232,1.4628,-0.47138,0.0009900000000000464,-0.008799999999999919,-0.0005199999999999649,0.0004932608738625888,-2.602719844091439e-07,-0.0016916737388164016
150000000000.0,-1,-0.39150108129999994,1.0015531645,0.067469752,-0.002308,-0.14071,-0.17947,-0.4098002902,-9.7502617625,0.9665238107,-2.7406,1.4635,-0.45538,0.0008199999999999319,-0.008899999999999908,-0.0007500000000000284,0.002922341491525371,-0.0015363433031896356,-0.001303313802275552
150000000000.0,-1,-0.53307968735,0.82722034745,0.0326953711,0.012681,-0.14864,-0.18998,-0.38868657274999996,-9.7510462945,0.9680732613999999,-2.7598,1.4642,-0.43762,0.0010200000000000209,-0.008800000000000141,-0.0007099999999999884,0.00017054092258228515,-0.0020499896318932898,-0.0009377343951255668
150000000000.0,-1,-0.5600773948,0.8129222517499999,-0.00922805765,0.023231,-0.17256,-0.18108,-0.36797492795,-9.751536627,0.9709564165,-2.7793,1.4647,-0.41974,0.0009400000000000519,-0.008799999999999919,-0.0007800000000000029,0.0026975330135465825,-0.0013672078878346205,-0.0005883240524338085
150000000000.0,-1,-0.6938008742,0.6221731025999999,-0.0081002929,0.013998,-0.19103,-0.17373,-0.34767516244999996,-9.7520269595,0.9735649854,-2.7986,1.4652,-0.40239,0.0009799999999999809,-0.008800000000000141,-0.0010000000000000009,-0.00047916428775973685,-0.0005181140295169584,-0.0033723442460975583
150000000000.0,-1,-0.72774168985,0.6327250579999999,0.09146662455,-0.015883,-0.21624,-0.15573,-0.3286992947,-9.752713425,0.9733590457499999,-2.8159,1.4658,-0.38723,0.0004999999999999449,-0.009099999999999886,-0.0008899999999999464,0.003053311712766238,2.2433434136770458e-05,0.0019048765771114695
150000000000.0,-1,-0.6123076127,0.45590135185,0.043051193499999994,-0.055408,-0.20787,-0.14194,-0.31141017075,-9.753596023499998,0.9695442588999998,-2.8308,1.4668,-0.37455,0.0011500000000000954,-0.008799999999999919,-0.0012600000000000389,0.0034955503197329207,-0.0007814760572242285,-0.0015528367678456778
150000000000.0,-1,-0.5385223780999999,0.40480870535,0.03529413335,-0.11121,-0.18913,-0.12491,-0.29585682385,-9.755067020999999,0.95994354855,-2.8426,1.4682,-0.36475,0.0008199999999999319,-0.00890000000000013,-0.0010599999999999499,-0.002038100717425273,0.0013013772044065952,-0.0018733578637470938
150000000000.0,-1,-0.5017768605499999,0.4848015494,0.0836507245,-0.13752,-0.17185,-0.11829,-0.28157834145,-9.756832218,0.94660650455,-2.8525,1.4699,-0.35673,0.0010499999999999954,-0.008999999999999897,-0.0013900000000000023,0.0027373931673206897,-0.0024641365615512,-0.00016394355728088783
150000000000.0,-1,-0.408348906,0.5735125053,0.26782941814999994,-0.14589,-0.17945,-0.10506,-0.26861395014999995,-9.758597414999999,0.9319651760999998,-2.861,1.4717,-0.35006,0.0007900000000000684,-0.00890000000000013,-0.0011600000000000499,-4.6296151025027044e-05,0.001606981463268431,0.0014134723352356993
150000000000.0,-1,-0.3336026197,0.78344346185,0.51446666565,-0.13551,-0.15987,-0.09437,-0.2568753901,-9.760166479,0.9180103131499999,-2.8688,1.4734,-0.34404,0.0008199999999999319,-0.008899999999999908,-0.0013099999999999223,0.004755692278990198,-0.0005773811438634091,-0.0010854385779117681
150000000000.0,-1,-0.3336026197,0.78344346185,0.51446666565,-0.13551,-0.15987,-0.09437,-0.2568753901,-9.760166479,0.9180103131499999,-2.8688,1.4734,-0.34404,0.0008500000000000174,-0.009000000000000119,-0.0011200000000000099,-0.0048903939178597255,-2.0074770052724844e-05,-0.00026237187457334166
150000000000.0,-1,-0.38519540534999996,0.7924949997999999,0.60121629155,-0.13699,-0.15275,-0.082459,-0.2464215012,-9.761735542999999,0.9041339034,-2.8755,1.4751,-0.33889,0.0009900000000000464,-0.008799999999999919,-0.0011300000000000754,0.002878730412271935,-0.0005874125641698313,-0.0008546240241298353
150000000000.0,-1,-0.4668357666,0.79101419565,0.59831352315,-0.14184,-0.1554,-0.070456,-0.23721305684999996,-9.763304607,0.8901300072,-2.8812,1.4767,-0.33488,0.0006399999999999739,-0.009100000000000108,-0.0009199999999999209,0.00255532482438503,0.0009235056499588001,0.00018911106384655874
150000000000.0,-1,-0.5111225979999999,0.57889635615,0.48418373044999996,-0.15486,-0.13296,-0.051698,-0.23032878855,-9.764873670999998,0.8746747267999999,-2.8841,1.4784,-0.33342,0.0007800000000000029,-0.008899999999999908,-0.0007200000000000539,0.0026462179774511263,-0.00048265443268613595,0.001709928253410986
150000000000.0,-1,-0.2222971422,0.95670735405,0.05839860075,-0.14407,-0.088004,-0.038954,-0.22497435764999998,-9.7663446685,0.85948422595,-2.8856,1.4801,-0.33301,0.0009399999999999409,-0.008999999999999897,-0.00034999999999996145,-0.0022732678151655694,0.0006546336067796421,0.001702841637178265
150000000000.0,-1,-0.22644535515,0.9580998983499999,0.0732360622,-0.14552,-0.043379,-0.031182,-0.22081633804999998,-9.7677175995,0.8446467645,-2.8859,1.4817,-0.33327,0.0007400000000000739,-0.00890000000000013,-0.000300000000000078,0.0033137414224839734,-0.0003787682155007577,-0.00024795487757356405
150000000000.0,-1,-0.29719052825,1.0474482864999999,0.134939504,-0.13996,-0.026356,-0.021723,-0.21786453639999998,-9.768992464,0.8299171761999999,-2.8849,1.4832,-0.33458,0.0009199999999999209,-0.008899999999999908,4.0000000000040004e-05,-0.0016728166252251153,0.0013453198669446387,0.0012393739574345641
150000000000.0,-1,-0.2995343176,1.0486250844999998,0.14906107999999998,-0.13158,-0.020049,-0.022902,-0.21552074705,-9.7702673285,0.8158054068499999,-2.8833,1.4846,-0.3364,0.0006300000000000194,-0.008800000000000141,0.00026999999999999247,0.005436432683359804,1.82886364203938e-05,0.002387088802683568
150000000000.0,-1,-0.182992089,1.1107011789999999,0.17929498195,-0.11133,-0.002599,-0.010844,-0.21414781604999997,-9.771346059999999,0.8038314872,-2.8812,1.4859,-0.33855,0.00043000000000004146,-0.009199999999999875,0.00034999999999996145,-0.000691501465954536,0.0005270069769194308,-0.0003122153707553199
150000000000.0,-1,-0.25945453905,1.2455426165,0.0849648156,-0.11696,0.0202,-0.011242,-0.21309850449999998,-9.772326725,0.7916124013,-2.8786,1.4871,-0.34102,0.0007300000000000084,-0.009100000000000108,0.000540000000000096,-0.0016218111105550381,0.0006858436431826931,0.0014266493940715552
150000000000.0,-1,-0.4011312116,0.7423830183,-0.01999575935,-0.11253,0.036012,-0.013487,-0.2120786129,-9.77330739,0.7795502217999999,-2.876,1.4883,-0.34336,0.0007500000000000284,-0.008899999999999908,0.0007499999999999174,-0.0010930431930378237,0.0010211193919780204,0.002792519575593344
150000000000.0,-1,-0.5692760324999999,0.59558727445,-0.05406406144999999,-0.1044,0.049494,-0.005146,-0.21167654025,-9.7741899885,0.7684294807,-2.8728,1.4894,-0.34605,0.0006499999999999284,-0.009100000000000108,0.0009200000000000319,-0.002404217113823659,0.002751577763173474,0.0008191183602979102
150000000000.0,-1,-0.4777996013,0.38527385855,0.1455110727,-0.099744,0.056845,0.000829,-0.21202957965,-9.775072586999999,0.7577010056,-2.8687,1.4905,-0.34951,0.0009000000000000119,-0.009099999999999886,0.0009299999999999864,-0.0032637212973130048,0.0004197202729292471,0.001527023709654074
150000000000.0,-1,-0.54822115495,-0.1227204181,0.27932281194999997,-0.09663,0.073803,0.009053,-0.21328483085,-9.775857119,0.7473451832,-2.8636,1.4915,-0.35394,0.0007300000000000084,-0.009000000000000119,0.0009400000000000519,0.00456123582926482,0.000593189779831027,0.001749280590597646
150000000000.0,-1,-0.6499063087999999,-0.5468580305999999,0.38088047934999997,-0.088705,0.093289,0.022119,-0.2160404995,-9.776445518,0.7375091132499999,-2.8566,1.4924,-0.35998,0.0009900000000000464,-0.008999999999999897,0.0009299999999999864,-0.006375162778556431,-0.001164026037755006,0.0032314804902175975
150000000000.0,-1,-0.69045680655,-1.0856942215,0.38741170825,-0.082016,0.1127,0.039982,-0.22038484544999998,-9.777033916999999,0.7285850617499999,-2.8479,1.4931,-0.36761,0.0013199999999999878,-0.008899999999999908,0.0010200000000000209,-0.006252794481628188,0.0012688889061511777,0.0002946765397047191
150000000000.0,-1,-0.69045680655,-1.0856942215,0.38741170825,-0.082016,0.1127,0.039982,-0.22038484544999998,-9.777033916999999,0.7285850617499999,-2.8479,1.4931,-0.36761,0.0010999999999999899,-0.00890000000000013,0.0009599999999999609,-0.00508003680771929,0.002073892828601931,-0.0025964675769130086
150000000000.0,-1,-0.72564306675,-2.2036523215,0.6397073928,-0.065092,0.11917,0.052149,-0.22634728865,-9.777524249499999,0.7209456813999999,-2.8374,1.4937,-0.37688,0.0012599999999999278,-0.008899999999999908,0.0010900000000000354,-0.0061430892816993765,-8.807873452099102e-05,0.0022050553878105728
150000000000.0,-1,-0.6488864172,-2.2766137975,0.67855153345,-0.030078,0.13462,0.068043,-0.23427106185,-9.777622316,0.71652288225,-2.8256,1.4938,-0.38728,0.0012300000000000644,-0.008800000000000141,0.0012599999999999278,-0.004737858970707665,0.0013393466712117164,0.0014797129199368708
150000000000.0,-1,-0.63975642605,-2.2768099305,0.6785221135,0.018873,0.13601,0.081918,-0.24340105299999998,-9.777426183,0.7165523021999999,-2.8141,1.4936,-0.39732,0.0012400000000000189,-0.008899999999999908,0.0013000000000000789,-0.006947189638076168,-0.0012859661040447445,0.0022562255798708186
150000000000.0,-1,-0.5681482677499999,-2.1546190715,0.66956864205,0.094866,0.13587,0.08535,-0.25321750965,-9.776543584499999,0.7243093623499999,-2.8053,1.4925,-0.40475,0.0010899999999999244,-0.009100000000000108,0.0014399999999999968,-0.0027777450030104234,-0.0009791063894348806,0.001736568489897783
150000000000.0,-1,-0.4503017547,-1.8988616394999998,0.6439242522999999,0.17614,0.1238,0.089022,-0.2634654589,-9.775170653499998,0.7397744494,-2.7995,1.4906,-0.40922,0.0011400000000000299,-0.00869999999999993,0.0015299999999999203,-0.003961713949179213,0.0027346974480075836,0.002042252797975541
150000000000.0,-1,-0.4249417578,-1.6544799215,0.56618693775,0.28776,0.12246,0.074904,-0.27267390324999996,-9.7728170575,0.7663308576,-2.7998,1.4878,-0.40761,0.0009900000000000464,-0.009099999999999886,0.0016200000000000658,0.001201194818895468,-0.0008444712068067517,0.004257075228798479
150000000000.0,-1,-0.42057779855,-1.4730568965,0.4207445115999999,0.4033,0.11401,0.056127,-0.28002889075,-9.7694827965,0.80539074455,-2.807,1.4837,-0.39912,0.0005899999999999794,-0.009100000000000108,0.0015499999999999403,-0.002673011225566624,0.0009755441964440781,0.0017471700852864647
150000000000.0,-1,-0.43314992384999995,-1.1435534565,0.02589936265,0.49604,0.09039,0.033648,-0.28510873545,-9.7651678705,0.8547181940499999,-2.8196,1.4788,-0.38538,0.0008000000000000229,-0.008999999999999897,0.0016400000000000858,0.0006352225021934998,0.0005563778644435136,0.004439243548285177
150000000000.0,-1,-0.46498230974999993,-0.8171096912999999,-0.17936362849999998,0.56656,0.070857,0.021643,-0.31612716939999996,-9.760362612,0.8980733937000001,-2.8031,1.4736,-0.40082,0.0006799999999999029,-0.009100000000000108,0.0014899999999999913,-0.0026323554749982936,0.0015513794185531005,0.0033567375163576774
150000000000.0,-1,-0.49102877214999996,-0.42346095364999997,-0.48758663799999996,0.57659,0.065255,0.002607,-0.3174608738,-9.754576688499998,0.9578939586999999,-2.8216,1.4677,-0.38162,0.00048000000000003595,-0.009199999999999875,0.0013299999999999423,0.000466458797331315,0.0009812409854368376,0.0007595781915596955
150000000000.0,-1,-0.615269221,-0.03227368515,-0.76375170865,0.53692,0.079807,-0.002946,-0.3181669526,-9.748790764999999,1.0149882749999999,-2.8378,1.4621,-0.36446,0.0006099999999999994,-0.009100000000000108,0.0013199999999999878,-0.00030175085816952496,0.0025278945999256397,0.0035203878413148093
150000000000.0,-1,-0.6866420196999999,0.1343707183,-0.8878156378,0.46854,0.10908,0.00775,-0.31982427645,-9.7433971075,1.065394456,-2.85,1.4571,-0.35115,0.000500000000000056,-0.008899999999999908,0.0010999999999999899,0.0018962967937969921,0.0033201544590655274,-0.001259809311044524
150000000000.0,-1,-0.6759331579,-0.0824543132,-0.8612592295999999,0.36451,0.14083,0.02876,-0.32379596969999996,-9.7386899155,1.1058959204999999,-2.8568,1.453,-0.34287,0.0005499999999999394,-0.009300000000000086,0.0009500000000000064,-0.001363311918509913,0.00020474654636415401,0.0032083719123006116
150000000000.0,-1,-0.6994298912999999,-0.53435455185,-0.5288530211999999,0.24683,0.17825,0.044692,-0.32992512594999995,-9.735257588,1.134041006,-2.8585,1.4501,-0.33937,0.0008299999999999974,-0.009300000000000086,0.0008099999999999774,-0.0005455781417915695,0.0019287761653221658,0.002833732615960649
150000000000.0,-1,-0.7455603728999999,-1.0060642235,-0.1476489224,0.14639,0.21252,0.065714,-0.33886879075,-9.733002058499999,1.150712311,-2.8552,1.4482,-0.34046,0.0006399999999999739,-0.009199999999999875,0.0007500000000000284,-0.00056676574808745,-0.00046760285139058055,0.001921065788158094
150000000000.0,-1,-0.7455603728999999,-1.0060642235,-0.1476489224,0.14639,0.21252,0.065714,-0.33886879075,-9.733002058499999,1.150712311,-2.8552,1.4482,-0.34046,0.0008500000000000174,-0.009000000000000119,0.0006300000000000194,0.0019136621909221496,0.001707757843537383,0.002771543190220882
150000000000.0,-1,-0.5238418230499999,-1.0221471295,0.47824090054999996,0.072824,0.25004,0.085849,-0.35019547149999997,-9.7316291275,1.1590479635,-2.8482,1.447,-0.34491,0.0007099999999999884,-0.009199999999999875,0.0006199999999999539,0.0021498227089848942,0.0010852179273364015,0.001591693080123635
150000000000.0,-1,-0.4316495064,-0.8934838814999999,0.6757468315499999,0.00987,0.26251,0.10287,-0.36382671499999997,-9.730942662,1.1606170274999998,-2.8378,1.4464,-0.35256,0.0005700000000000705,-0.009400000000000075,0.000540000000000096,-0.002686550887834427,-0.0002319864334272559,0.0028775175904727224
150000000000.0,-1,-0.28358870469999997,-0.41441922234999995,0.64110974375,-0.019888,0.27238,0.11677,-0.4158215733,-9.7194688815,1.2365204985,-2.8172,1.4374,-0.37029,0.00037999999999993594,-0.009099999999999886,0.0005799999999999139,0.0034218336079565592,-5.8988103032842076e-05,0.00040307675105188956
150000000000.0,-1,-0.17053764349999997,-0.0507592204,0.6299595827,-0.019891,0.27238,0.11798,-0.43160047315,-9.719174681999998,1.2331862375,-2.8049,1.4372,-0.37973,0.0006099999999999994,-0.009300000000000086,0.0007400000000000739,-0.0006699491553323611,0.0010235608649447059,0.0007446461989735198
150000000000.0,-1,-0.08111080215,0.50613101315,0.4659335548,-0.009852,0.26546,0.1134,-0.44695768704999994,-9.7188804825,1.230538442,-2.7932,1.4369,-0.38869,0.0006099999999999994,-0.009200000000000097,0.00034999999999996145,0.0058338004305815705,-0.0023645508387628578,0.006631846430629862
150000000000.0,-1,0.004540478949999999,0.9387709911999998,0.19782955044999997,0.008851,0.25644,0.10174,-0.46122636279999996,-9.7182920835,1.2297539100000001,-2.7828,1.4365,-0.39641,0.00046000000000001595,-0.009199999999999875,0.000500000000000056,-0.0020324415331600676,0.0015996692688460268,-0.000680964670985329
150000000000.0,-1,0.0214765635,1.2208298585,-0.0306163613,0.027969,0.2341,0.095098,-0.47442611369999993,-9.717507551499999,1.2310287745,-2.7737,1.4359,-0.40292,0.000280000000000058,-0.009100000000000108,0.00025999999999992696,0.0009368938851916919,0.0006326086093377814,-0.0016860112957688411
150000000000.0,-1,-0.0538385085,1.3979379575,-0.16640904385,0.037353,0.21034,0.077513,-0.48575279444999997,-9.716624953,1.2335785035,-2.7665,1.4352,-0.40791,0.0005799999999999139,-0.009399999999999853,0.00036000000000002697,0.001957291450491061,-0.0024647291818342687,0.0027049374981287233
150000000000.0,-1,-0.11212923609999999,1.4883552704999998,-0.27287003624999995,0.013363,0.19523,0.060559,-0.4951083385499999,-9.716036553999999,1.2345591685,-2.7602,1.4347,-0.4121,0.0006700000000000594,-0.009000000000000119,0.00021000000000004349,0.0008884576625693974,0.0001321849561630728,-0.00048694649389036115
150000000000.0,-1,-0.10494096165,1.5515100964999997,-0.37541817529999993,-0.019185,0.1799,0.037478,-0.5019828002,-9.715938487499999,1.232695905,-2.7549,1.4347,-0.4155,0.0005699999999999594,-0.009299999999999864,-4.0000000000040004e-05,-0.0013871537770704379,-0.0019813134242658847,0.0015039061280197608
150000000000.0,-1,-0.08262102625,1.5113028314999999,-0.42069547835,-0.071789,0.17848,0.01393,-0.5063565661,-9.716526886499999,1.2257331835,-2.7498,1.4351,-0.41865,0.0008799999999999919,-0.009200000000000097,0.00014999999999998348,0.001946362549996472,-0.0011620903186271292,0.001806484634262251
150000000000.0,-1,-0.10726513769999999,1.311933637,-0.37036775055,-0.12429,0.17472,-0.020412,-0.5072980045,-9.7180959505,1.2132787379999999,-2.7456,1.4363,-0.42107,0.0006800000000000139,-0.009099999999999886,-9.999999999998899e-05,-0.0033435853700420903,-0.0021801307128328506,-0.0005849615663813257
150000000000.0,-1,-0.18262924295,0.9964537065,-0.20779310685,-0.1596,0.16898,-0.043667,-0.50585642695,-9.7202534135,1.196607433,-2.7416,1.4379,-0.42319,0.0008799999999999919,-0.009200000000000097,-0.00012999999999996348,-0.0029773701612882952,-0.0016457699251535285,0.0010142463793592071
150000000000.0,-1,-0.30955671389999995,0.46537457574999996,0.2003302462,-0.17041,0.164,-0.069008,-0.50148266105,-9.722705075999999,1.178170931,-2.7392,1.4399,-0.42389,0.0008100000000000884,-0.009200000000000097,-0.000180000000000069,-9.317245526774265e-05,-0.0034803213714544867,-0.002036529948589605
150000000000.0,-1,-0.30955671389999995,0.46537457574999996,0.2003302462,-0.17041,0.164,-0.069008,-0.50148266105,-9.722705075999999,1.178170931,-2.7392,1.4399,-0.42389,0.0008399999999999519,-0.008999999999999897,-0.00026999999999999247,0.0027213723271590773,-0.003604380252234307,0.0001523218974210927
150000000000.0,-1,-0.26767251175,0.37260366675,0.30494758839999997,-0.15633,0.14769,-0.093849,-0.5358745826,-9.717017218999999,1.209356078,-2.7245,1.4355,-0.4368,0.0013299999999999423,-0.008999999999999897,-0.00024000000000001798,-0.01330569719253405,-0.0025702913050211773,0.005300250372152204
150000000000.0,-1,-0.2746058133,0.34463510095,0.32663989819999995,-0.11764,0.12723,-0.11229,-0.5264013586999999,-9.7192727485,1.1953325684999998,-2.7268,1.4372,-0.43308,0.0008800000000001029,-0.009100000000000108,-0.00041999999999997595,-0.00033641842946030565,-0.0018888175625404457,0.0014273746977102597
150000000000.0,-1,-0.29638638294999997,0.5024731326999999,0.2276123465,-0.070281,0.10465,-0.13419,-0.5144960855999999,-9.721037945499999,1.1861143175,-2.7323,1.4386,-0.42624,0.0004899999999999904,-0.009200000000000097,-0.0005399999999999849,0.0026347974169960153,-0.0034148916988221423,-0.0011892608761883139
150000000000.0,-1,-0.2658190549,0.7483944947499999,0.0003530394,-0.01898,0.073737,-0.15713,-0.4997272707,-9.722312809999998,1.1820935909999999,-2.7416,1.4396,-0.416,0.0008799999999999919,-0.009099999999999886,-0.0005300000000000304,-0.0010131178865491197,-0.0025352471219401984,0.00023400717660471138
150000000000.0,-1,-0.2065476623,0.9584235177999999,-0.24243019464999999,0.034599,0.049004,-0.18974,-0.48163400144999996,-9.7229992755,1.1839568544999999,-2.7552,1.4401,-0.40167,0.0006699999999999484,-0.009300000000000086,-0.0007399999999999629,-0.00047044981555655063,-0.0020629830592910903,4.687524926660913e-06
150000000000.0,-1,-0.1873854682,1.0763779039999999,-0.3872842218,0.071126,0.020051,-0.2117,-0.46053989729999995,-9.723195408499999,1.1905273099999998,-2.7725,1.4403,-0.38398,0.0007800000000000029,-0.009299999999999864,-0.0009000000000000119,-0.0024051589100424486,-0.003146435594775676,-0.0009122234869924917
150000000000.0,-1,-0.2035076008,1.1157025704999999,-0.5326187748,0.078002,-0.00131,-0.23778,-0.43664109125,-9.723293475,1.1986668295,-2.7923,1.4403,-0.36399,0.0008500000000000174,-0.009400000000000075,-0.0010299999999999754,0.004385701266223396,-0.0020045486803716983,0.0016936259743012272
150000000000.0,-1,-0.28208828724999996,1.014792142,-0.60531547125,0.073703,-0.018173,-0.26406,-0.40938841089999994,-9.723489608,1.2066102159999998,-2.8145,1.4405,-0.34174,0.0013100000000000334,-0.009099999999999886,-0.0010999999999999899,-0.006647922860551603,0.0008176742425898276,0.0029881798376494295
150000000000.0,-1,-0.3739275645,0.8700263747,-0.6605367174,0.04697,-0.024982,-0.27034,-0.38114525889999995,-9.7239799405,1.2125922724999998,-2.837,1.4408,-0.31924,0.0006699999999999484,-0.009700000000000042,-0.0011999999999999789,-0.0005767480551166493,-0.0002566831637742517,-0.003356494404842092
150000000000.0,-1,-0.45452842085,0.735694883,-0.6316463265,0.016497,-0.029452,-0.28152,-0.35171550225,-9.7247644725,1.215043935,-2.8598,1.4414,-0.29657,0.0008400000000000629,-0.009500000000000064,-0.0014100000000000223,0.0016462352848731765,-0.0011827046104373462,-0.00037853393195486085
150000000000.0,-1,-0.5211646075999999,0.6781102341999999,-0.5460244653499999,-0.010494,-0.029102,-0.27587,-0.32249168524999994,-9.725843203999998,1.214651669,-2.8821,1.4423,-0.27447,0.0007999999999999119,-0.009700000000000042,-0.0014500000000000624,0.00020588232352847236,0.0010572125667687171,0.0012746910512519971
150000000000.0,-1,-0.44056375124999997,0.7513953296499999,-0.1693804588,-0.032565,-0.029863,-0.26292,-0.3595510156,-9.726235469999999,1.2008242925,-2.8507,1.4426,-0.30557,0.0010200000000000209,-0.009800000000000031,-0.0017899999999999583,0.004256701623444048,0.0009072026590026816,-0.0007095108998789179
150000000000.0,-1,-0.42259796844999997,0.84848116465,-0.049651068949999995,-0.045915,-0.035216,-0.24738,-0.33292596085,-9.7277064675,1.196607433,-2.8702,1.4438,-0.2862,0.0009600000000000719,-0.009800000000000031,-0.0019000000000000128,-0.0027280060893739577,0.0004857945939735764,0.000519234701854776
150000000000.0,-1,-0.4151351078,0.97208418125,-0.028233345349999998,-0.048138,-0.045224,-0.20997,-0.30970381364999994,-9.728981331999998,1.1918021744999998,-2.8874,1.4449,-0.26938,0.0008699999999999264,-0.009799999999999809,-0.0019799999999999818,-0.0021450707991383933,0.0018253449059595361,-0.001935015067249024
150000000000.0,-1,-0.30207423995,1.123057558,-0.0852786284,-0.044508,-0.046593,-0.17261,-0.2900414804,-9.73015813,1.187193049,-2.902,1.4458,-0.25514,0.0007200000000000539,-0.010000000000000009,-0.0021200000000000108,-0.00035586321415359556,0.0020634232522429574,-0.0034100669028822583
150000000000.0,-1,-0.30207423995,1.123057558,-0.0852786284,-0.044508,-0.046593,-0.17261,-0.2900414804,-9.73015813,1.187193049,-2.902,1.4458,-0.25514,0.0009500000000000064,-0.00990000000000002,-0.0020200000000000218,0.005066690872401525,0.001457988821202294,3.222207308728464e-05
150000000000.0,-1,-0.22287573454999998,1.1886640465,-0.16525185915,-0.05566,-0.046026,-0.13066,-0.2748215596,-9.7312368615,1.181897458,-2.9131,1.4467,-0.24441,0.0012199999999999989,-0.00990000000000002,-0.0020999999999999908,-0.00047077862713162943,0.0013430457533898377,0.0012030025499090158
150000000000.0,-1,-0.1024010393,1.2594680594999998,-0.25072662055,-0.060483,-0.0526,-0.077692,-0.2646618702,-9.732315593,1.1759154015,-2.9202,1.4476,-0.23781,0.0007899999999999574,-0.010000000000000009,-0.0021099999999999453,-0.000206436300911772,0.0010246150432560164,-0.0028552162439354767
150000000000.0,-1,-0.02028995885,1.3065399795,-0.2775674216,-0.06689,-0.048384,-0.018884,-0.26057249714999997,-9.7331981915,1.1692468795,-2.9223,1.4483,-0.23623,0.0008000000000000229,-0.010099999999999998,-0.0016599999999999948,0.0048157989973989235,0.0034063770679590988,-0.0008329525083847766
150000000000.0,-1,0.0538777351,1.3445897815,-0.32919943385,-0.07447,-0.04537,0.033909,-0.26202388135,-9.73408079,1.1617938255,-2.9198,1.4491,-0.2393,0.0009299999999999864,-0.010090000000000043,-0.0016400000000000858,-0.002233101880235955,0.002417309549219926,-0.0023015323611599303
