Time,placement_label,user_acc_x(m/s^2),user_acc_y(m/s^2),user_acc_z(m/s^2),rotation_rate_x(rad/s),rotation_rate_y(rad/s),rotation_rate_z(rad/s),gravity_x(m/s^2),gravity_y(m/s^2),gravity_z(m/s^2),attitude_roll(rad),attitude_pitch(rad),attitude_yaw(rad),target_delta_x,target_delta_y,target_delta_z,target_delta_roll,target_delta_pitch,target_delta_yaw
150000000000.0,-1,-0.0324600115,0.13575345595,-0.00583495675,-0.017142,-0.006381,-0.011874,-0.33250427489999995,-9.7084854335,1.3433149169999998,-2.8989,1.4292,-0.69043,0.0,0.0,0.0,0.0,0.0,0.0
150000000000.0,-1,-0.0242028122,0.16357492199999998,0.0101596894,-0.019681,-0.004083,-0.005925,-0.33253369485,-9.7086815665,1.3422361854999998,-2.8987,1.4293,-0.69066,-2.999999999997449e-05,-5.999999999994898e-05,2.0000000000020002e-05,-0.0006523549926393812,-0.00039256560523948103,0.0003558698084793477
150000000000.0,-1,-0.0384616813,0.146315218,-0.00285373515,-0.020822,-0.006518,-0.008312,-0.33278866775,-9.708877699499999,1.3404709885,-2.8982,1.4295,-0.69122,1.999999999990898e-05,-5.999999999994898e-05,1.0000000000065512e-05,-6.667972379448273e-05,0.00020613142297398745,-0.00036026723400839344
150000000000.0,-1,-0.021143137399999998,0.129643913,0.00514849125,-0.022016,-0.007789,-0.004701,-0.33274944115,-9.709171899,1.3387057914999998,-2.898,1.4297,-0.69158,-9.99999999995449e-06,-6.000000000039307e-05,2.999999999997449e-05,-0.0002346212063037978,-0.00011545590829831198,-4.121368543930082e-05
150000000000.0,-1,-0.06485137645,0.11042287899999999,0.0058839899999999995,-0.024221,-0.013762,-0.004521,-0.3337791393999999,-9.709368031999999,1.3368425279999998,-2.8969,1.4298,-0.69276,4.0000000000040004e-05,-5.999999999994898e-05,2.999999999997449e-05,0.0008910014760230567,0.000553866073817133,-0.0006797521907317972
150000000000.0,-1,-0.056378430849999994,0.09438900624999999,0.051906598449999994,-0.02537,-0.016223,-0.003298,-0.33446560489999994,-9.7094660985,1.3356657299999999,-2.8962,1.4299,-0.69361,-9.00000000000345e-05,-5.999999999994898e-05,2.999999999997449e-05,-0.0016621476650582334,-0.0035542655381428645,0.0019128975800335457
150000000000.0,-1,-0.05591751829999999,0.07965941794999999,0.0539758016,-0.021624,-0.018545,-0.000808,-0.33553452975,-9.709564165,1.3347831315,-2.8953,1.43,-0.69469,-1.0000000000065512e-05,0.0005333333333332746,3.0000000000085514e-05,-0.0001849106071682982,-0.00032298386791196343,0.0004485910990275066
150000000000.0,-1,-0.08065969625,0.12135729375,0.0735302617,-0.015375,-0.021948,-0.005488,-0.33473038445,-9.709858364499999,1.3332140674999997,-2.8956,1.4302,-0.69462,-0.00012999999999996348,0.0005333333333337187,1.999999999990898e-05,0.00011648578813749921,4.163299965576073e-05,-0.0003816485952512494
150000000000.0,-1,-0.08026743025,0.12396586264999998,0.07374600799999999,-0.011691,-0.021802,-0.010253,-0.3334849399,-9.7100544975,1.331939203,-2.8963,1.4303,-0.69419,-0.00012999999999996348,0.0005333333333332746,-0.00029999999999996696,-0.004819362963181639,0.02698043160636443,-0.028617949104647877
150000000000.0,-1,-0.05990882484999999,0.15163042229999998,0.0384616813,-0.009139,-0.025395,-0.004153,-0.3327396345,-9.710152564,1.331154671,-2.8967,1.4304,-0.69409,0.00024999999999997247,-0.0016000000000002679,0.00029999999999996696,0.0043969464879478615,-0.02678161449213956,0.02698475704593939
150000000000.0,-1,-0.08583760744999999,0.1430594102,0.039962098749999994,-0.006648,-0.026519,-0.005306,-0.33419101869999995,-9.709956431,1.3322334025,-2.8958,1.4303,-0.69519,-9.99999999995449e-06,-9.999999999976694e-05,-5.000000000032756e-06,0.00048121181386817646,-6.684175275739612e-05,0.0002807054473026316
150000000000.0,-1,-0.04704250005,0.1856791111,-0.01344491715,-0.001794,-0.025181,-0.002853,-0.3351324571,-9.709956431,1.3322334025,-2.8951,1.4303,-0.69613,2.999999999997449e-05,-0.00010000000000021103,-4.999999999921734e-06,0.00022910570084255788,0.0002674623818099686,-0.00045930197340715573
150000000000.0,-1,-0.04704250005,0.1856791111,-0.01344491715,-0.001794,-0.025181,-0.002853,-0.3351324571,-9.709956431,1.3322334025,-2.8951,1.4303,-0.69613,-9.999999999998899e-05,-9.999999999976694e-05,-9.99999999995449e-06,-0.001591999748879358,-0.0024638069252718164,0.0015745347438007595
150000000000.0,-1,-0.045600922499999995,0.17582342785,-0.0033244543499999996,-0.0005,-0.027586,0.000808,-0.3362700285,-9.709858364499999,1.3328218015,-2.8945,1.4302,-0.69708,-2.999999999997449e-05,-0.000500000000000167,-0.000320000000000098,0.0020414877229431028,-0.0033854697722590643,0.006077406264806129
150000000000.0,-1,-0.03384274915,0.16403583454999998,0.013856796449999998,-0.005395,-0.027725,-0.000459,-0.336956494,-9.709760297999999,1.3335082669999998,-2.8941,1.4301,-0.69774,-4.999999999999449e-05,-4.999999999988347e-05,0.00010666666666669933,-0.0007843504264928303,-0.0005682734517569177,7.552873938165838e-05
150000000000.0,-1,-0.04541459614999999,0.15232669445,0.029576856399999997,-0.004258,-0.025308,0.004335,-0.33826077845,-9.709564165,1.334488932,-2.8934,1.4299,-0.69875,-9.00000000000345e-05,-4.999999999988347e-05,0.00010666666666669933,-0.0012387109905604987,-3.8637376876371476e-05,0.0018083753612474496
150000000000.0,-1,-0.0279881791,0.12349514345,0.02366344645,-0.00437,-0.021676,0.003079,-0.33922183014999996,-9.7094660985,1.335077331,-2.8928,1.4299,-0.69958,0.00012000000000000899,0.0004999999999997229,0.00010666666666669933,-0.0008429925872683874,0.0034335357797243837,-0.007998260971130655
150000000000.0,-1,-0.038128255199999996,0.1275845165,0.053171656299999995,-0.000694,-0.021556,0.001924,-0.34045746804999993,-9.709171899,1.3365483285,-2.8922,1.4297,-0.70041,-0.0001300000000000745,-0.0004999999999997229,-0.000260000000000038,0.00029722552295274873,-0.002971657951990281,0.006207263575783939
150000000000.0,-1,-0.015102240999999999,0.10973641349999999,0.03763792269999999,-0.003277,-0.018068,0.010262,-0.3414871663,-9.708975766,1.3377251264999999,-2.8916,1.4295,-0.70113,0.00010000000000010001,-9.999999999976694e-05,-7.999999999996898e-05,0.002202876565807532,8.160083197616963e-05,-1.7948921045451982e-05
150000000000.0,-1,-0.0199074995,0.12233795874999999,0.0458362821,0.0004,-0.017948,0.009107,-0.3429581638,-9.7086815665,1.3391961239999999,-2.8909,1.4294,-0.7021,-0.000140000000000029,-0.00010000000000021103,-8.000000000008001e-05,-0.0010717574793983609,-0.0006227376731329226,0.0016382770689835624
150000000000.0,-1,-0.014013702849999999,0.1368027675,0.011532620399999999,0.002728,-0.014268,0.011492,-0.34436051474999996,-9.7084854335,1.3402748555000001,-2.8901,1.4292,-0.70306,2.999999999997449e-05,-5.000000000032756e-05,3.0000000000085514e-05,1.990008838892443e-05,0.00044312271572222173,-0.00023623431336194933
150000000000.0,-1,-0.005295591,0.15418995795,-0.01220927925,0.002659,-0.010524,0.013963,-0.3457530590499999,-9.708387366999998,1.3408632544999999,-2.8892,1.4291,-0.70406,-2.999999999997449e-05,-4.999999999988347e-05,-4.0000000000040004e-05,5.842384180154703e-05,-0.00021990962804818714,0.00025066906242598996
150000000000.0,-1,0.01750487025,0.14383413555,-0.02680157445,0.003866,-0.009209,0.004336,-0.34610609844999995,-9.708387366999998,1.340961321,-2.889,1.4291,-0.70439,0.0018299999999999983,0.00039999999999995595,0.0014399999999999968,-0.03128882260561294,0.0020761595360618834,-0.004119513166403355
150000000000.0,-1,0.012042566199999999,0.18064829964999998,-0.007374600799999999,0.00382,-0.008027,0.007928,-0.34663565755000003,-9.708191234,1.3418439195,-2.8888,1.429,-0.70468,-0.0018900000000000583,-0.00039999999999995595,-0.0014800000000000368,0.03143414865780403,-0.002271658800113485,0.0044951419961118955
150000000000.0,-1,-0.0242028122,0.16798791449999997,-0.00028439285,0.003663,-0.003205,0.009061,-0.34780264889999996,-9.7080931675,1.3422361854999998,-2.888,1.4289,-0.70547,0.0018400000000000638,0.000300000000000189,0.0014200000000000879,-0.0310375223035535,0.0018731044402640062,-0.003500418528675331
150000000000.0,-1,-0.03866762095,0.1336450262,-0.015935806249999997,0.000105,-0.006939,0.009066,-0.34949919934999996,-9.7080931675,1.342334252,-2.8869,1.4289,-0.70671,-2.999999999997449e-05,0.0009999999999998899,-0.0006300000000000194,-0.00033130563876326846,0.0028899794343009155,-0.0037103541494820647
150000000000.0,-1,0.00491313165,0.12907512729999998,-0.010473502199999998,0.002438,-0.003242,0.009045,-0.35027392469999996,-9.707995101,1.3427265179999999,-2.8864,1.4288,-0.70722,-5.0000000000105516e-05,-0.00012500000000015277,4.999999999999449e-05,3.097533216145365e-05,0.0006562418355735566,-0.0008749824023897013
150000000000.0,-1,0.0006276255999999999,0.12901628739999998,-0.0146707484,-0.001202,-0.004578,0.011421,-0.35138207615,-9.707897034499998,1.3428245845,-2.8857,1.4288,-0.70802,1.0000000000065512e-05,-0.00012499999999970868,-2.999999999997449e-05,0.00031137651018386947,-8.630427659239714e-05,0.0002956238705913439
150000000000.0,-1,0.0006276255999999999,0.12901628739999998,-0.0146707484,-0.001202,-0.004578,0.011421,-0.35138207615,-9.707897034499998,1.3428245845,-2.8857,1.4288,-0.70802,-0.0007250000000000867,-0.00012500000000015277,9.99999999995449e-06,0.0001762678560943698,-9.93372070599019e-05,0.00014363870370726062
150000000000.0,-1,0.006727361899999999,0.1344491715,-0.035107807,0.001109,0.00038,0.004163,-0.3519410552,-9.707995101,1.342334252,-2.8852,1.4288,-0.70852,-0.0007249999999999757,-0.00012500000000015277,-0.00024999999999997247,0.02370016397011998,-0.0007813566855350285,-0.007273228589746994
150000000000.0,-1,0.010502922149999998,0.12702553744999998,-0.0361669252,-0.001296,-0.000884,0.001742,-0.35212738155,-9.707995101,1.341941986,-2.885,1.4289,-0.70872,-0.0010299999999999754,0.000700000000000145,-0.00034000000000000696,-0.009930186168936483,0.024821834314146196,-0.020759411870993283
150000000000.0,-1,0.01058137535,0.1335077331,-0.0010395049,0.003607,-0.000719,-0.000601,-0.35190182859999997,-9.707897034499998,1.3427265179999999,-2.8853,1.4288,-0.70845,-9.99999999995449e-06,-9.999999999976694e-05,-2.0000000000020002e-05,5.477035378254058e-05,-1.554196865205526e-06,-0.0001126032445610825
150000000000.0,-1,0.007678606949999999,0.1211513541,-0.0028047019,-0.003765,0.000311,-0.00673,-0.35140168944999994,-9.707995101,1.342334252,-2.8856,1.4288,-0.70815,-2.0000000000020002e-05,-4.999999999988347e-05,-2.0000000000020002e-05,-6.985055680019947e-05,4.32865045947306e-05,-0.00021983777706169327
150000000000.0,-1,-0.0031969679,0.121406327,-0.0170243444,-0.008668,0.000145,-0.004388,-0.3508427104,-9.7080931675,1.341745853,-2.8858,1.4289,-0.70785,9.99999999995449e-06,-5.000000000032756e-05,-2.999999999997449e-05,0.0004113835277179678,-0.0001715801578836551,0.000393543986218825
150000000000.0,-1,-0.012415218899999999,0.12135729375,-0.0234575068,-0.003716,-0.000862,-0.011525,-0.34971494564999994,-9.708191234,1.341353587,-2.8865,1.429,-0.70713,1.0000000000065512e-05,-0.00019999999999997797,-1.0000000000065512e-05,-0.00020957790842723867,0.00012381179033793543,2.3104310128641004e-05
150000000000.0,-1,0.01983885295,0.12379914959999999,-0.0029027683999999997,-0.003751,0.000355,-0.012747,-0.34814588164999993,-9.708191234,1.3414516534999998,-2.8877,1.429,-0.70602,-1.0000000000065512e-05,-0.00019999999999997797,-2.999999999997449e-05,-0.0005786806358787366,0.0002599543251868841,-0.0008781934649664258
150000000000.0,-1,0.0127878716,0.12306365084999998,0.00014709975,-0.01355,5e-05,-0.011672,-0.34647875115,-9.708387366999998,1.3405690549999998,-2.8887,1.4291,-0.70501,1.0000000000065512e-05,-0.00019999999999997797,2.999999999997449e-05,-4.217112937432432e-05,0.000480726411252963,-0.0001461671376801199
150000000000.0,-1,0.012572125299999999,0.11751308695,-0.019789819699999996,-0.017115,-0.003711,-0.008057,-0.34536079304999995,-9.7086815665,1.338803858,-2.8891,1.4293,-0.70458,0.0010599999999999499,-0.00019999999999997797,0.00031000000000003247,0.01083990096738141,-0.024215765815678747,0.020580914459177535
150000000000.0,-1,-0.040403398,0.11770921994999999,0.0025693423,-0.009668,-0.004531,-0.010229,-0.34416438174999997,-9.708877699499999,1.3377251264999999,-2.8898,1.4295,-0.70399,1.0000000000065512e-05,-5.000000000032756e-05,-9.99999999995449e-06,8.198754078869719e-05,-0.00026625910496247407,0.00013077528928184812
150000000000.0,-1,-0.04266873415,0.0780413207,0.007649186999999999,-0.008493,-0.003321,-0.005417,-0.34324255665,-9.708975766,1.3370386609999998,-2.8903,1.4296,-0.70351,0.00010999999999994348,-4.999999999988347e-05,2.0000000000020002e-05,-0.0008427193267803723,-0.00013795829311269436,-0.0007733222380443827
150000000000.0,-1,-0.040373978049999995,0.07266727649999999,0.0045306723,-0.002362,-0.003109,-0.008947,-0.34359559604999995,-9.708975766,1.3368425279999998,-2.89,1.4296,-0.70382,0.0016100000000000003,0.000500000000000167,0.00039999999999995595,-0.025366683240376053,0.0011428584049970603,0.006732616798130975
150000000000.0,-1,-0.017092990949999998,0.10554897395,0.02762533305,0.004903,-0.000489,-0.00648,-0.34323275000000003,-9.708877699499999,1.3383135255,-2.8905,1.4294,-0.70332,9.999999999998899e-05,-0.00019999999999997797,0.00010999999999994348,6.933301032852057e-05,-0.000596618883768496,-0.000943292230186854
150000000000.0,-1,0.012415218899999999,0.16396718799999999,0.0169262779,0.007574,-0.007697,-0.00153,-0.3426639643,-9.7085835,1.340176789,-2.8913,1.4293,-0.70265,0.0002300000000000635,9.999999999976694e-05,6.0000000000060005e-05,-0.0034872197884068257,0.0007131571595075936,0.0005218529113397707
150000000000.0,-1,0.04488503705,0.2009970984,-0.0341663686,0.008812,-0.007616,-0.00753,-0.34177155914999996,-9.7084854335,1.340961321,-2.892,1.4292,-0.70196,5.999999999994898e-05,-9.999999999976694e-05,5.999999999994898e-05,-0.00021349831639039252,-5.0939590621412734e-05,-0.0008040170242822331
150000000000.0,-1,0.04488503705,0.2009970984,-0.0341663686,0.008812,-0.007616,-0.00753,-0.34177155914999996,-9.7084854335,1.340961321,-2.892,1.4292,-0.70196,-0.00017000000000000348,-0.00019999999999997797,-0.00012000000000000899,0.001929568139964033,-0.0012409281025227425,-0.0009416950081304609
150000000000.0,-1,0.021829602899999998,0.17465643649999998,-0.04955300245,0.011297,-0.008759,-0.006277,-0.34100664044999995,-9.708387366999998,1.3422361854999998,-2.8928,1.4291,-0.70126,-0.0021299999999999653,-0.0015000000000000568,-0.0011199999999998989,0.03687831192858382,-0.005191723187324415,0.008739039334132226
150000000000.0,-1,-0.00463854545,0.140431228,-0.07781576774999999,0.011415,-0.012373,-0.007428,-0.34012404194999996,-9.708289300499999,1.3433149169999998,-2.8936,1.429,-0.70058,0.0020700000000000163,0.0015000000000000568,0.0011299999999999644,-0.036138255182279755,0.005585709915013837,-0.009899060753280287
150000000000.0,-1,-0.035029353799999996,0.11765038005,-0.08173842775,0.001696,-0.015085,-0.00752,-0.3392120235,-9.708191234,1.3438052495000001,-2.8943,1.429,-0.7,-1.0000000000065512e-05,-0.00010000000000021103,2.0000000000020002e-05,0.0005373277593623271,-0.0004553332016061784,-0.000503000764958017
150000000000.0,-1,-0.0373633365,0.1118154233,-0.025526709949999997,-0.000765,-0.015202,-0.001536,-0.3400161688,-9.708191234,1.34351105,-2.8937,1.429,-0.70076,-2.999999999997449e-05,-9.999999999976694e-05,-1.0000000000065512e-05,0.0009213070706284299,-0.0005963946958456035,-0.0007993258917360357
150000000000.0,-1,-0.01118938765,0.1421768117,-0.0223395487,0.001879,-0.021158,-0.00262,-0.34000636214999996,-9.708191234,1.3436091165,-2.8937,1.429,-0.70093,9.00000000000345e-05,0.0001499999999996504,9.999999999998899e-05,-0.0005990436875382699,7.040629264576381e-05,-0.0006969691098697162
150000000000.0,-1,-0.02693886755,0.141608026,0.03368584275,-0.003067,-0.020133,0.002112,-0.34086934734999996,-9.707995101,1.3453743135,-2.8934,1.4288,-0.70143,-7.00000000000145e-05,0.0001500000000000945,0.00010000000000010001,0.000331840566394348,0.004016204367437659,-0.002309953152172861
150000000000.0,-1,0.0097281968,0.1455895259,0.021407916949999998,0.004556,-0.028348,-7.6e-05,-0.34028094835,-9.707700901499999,1.347041444,-2.8942,1.4286,-0.70103,-0.0017200000000000548,-0.0005999999999999339,-0.0006500000000000394,0.025551570147417824,-0.00030157731796376375,-0.006965548127815024
150000000000.0,-1,-0.012523092049999998,0.1312522036,0.04349249274999999,-0.002667,-0.032167,-0.003729,-0.34002597545,-9.7075047685,1.349002774,-2.8947,1.4285,-0.70082,-0.0009299999999999864,0.00039999999999995595,-0.00036000000000002697,-0.010017291597963274,0.01932307627074481,-0.018218703735475072
150000000000.0,-1,-0.042394147949999995,0.13923481669999999,0.030626167949999998,-2.4e-05,-0.038131,-0.003609,-0.340683021,-9.707210568999999,1.3506699045,-2.8945,1.4283,-0.70137,-7.00000000000145e-05,-4.999999999988347e-05,-4.999999999999449e-05,-0.0005892897141013265,0.0008326717420454877,-0.0010920181348375024
150000000000.0,-1,-0.04790548524999999,0.1266823047,0.04765051234999999,-0.00113,-0.041783,-0.004775,-0.34100664044999995,-9.7069163695,1.3526312345,-2.8946,1.4281,-0.70168,-3.999999999992898e-05,-4.999999999988347e-05,-2.999999999997449e-05,-0.0016528877251478225,0.00043577588673548995,-0.0024625203471912993
150000000000.0,-1,-0.0594086857,0.1307814844,0.01560238015,0.00375,-0.039077,-0.004625,-0.34177155914999996,-9.706720236499999,1.3542002985,-2.8944,1.4279,-0.70234,-4.999999999999449e-05,-4.999999999988347e-05,-1.0000000000065512e-05,-0.0008308385961575127,0.0005543449518508048,-0.0016185681079001757
150000000000.0,-1,-0.07022542065,0.1340372922,0.007423634049999999,0.00275,-0.046386,-0.000926,-0.34306603695,-9.7065241035,1.3551809635,-2.8936,1.4278,-0.70352,-3.0000000000085514e-05,-5.000000000032756e-05,-2.999999999997449e-05,-0.00014462746139187743,-7.241118135636881e-05,-0.0003227676862243012
150000000000.0,-1,-0.10258736565,0.13640069484999998,0.0089044382,0.008839,-0.044976,-0.003269,-0.3452725332,-9.7061318375,1.357044227,-2.8924,1.4275,-0.70518,2.0000000000020002e-05,0.00024999999999986144,2.999999999997449e-05,0.0002582034177134318,-0.0003808109883916,0.000343705322972232
150000000000.0,-1,-0.0431100334,0.13791091895,-0.01513166095,0.006504,-0.048682,-0.002045,-0.3456451859,-9.706033771,1.357828759,-2.8923,1.4274,-0.70578,0.0005300000000000304,0.00025000000000030553,3.0000000000085514e-05,0.013101584518665721,0.004309207774326529,0.001398952439572776
150000000000.0,-1,-0.019005287699999998,0.1336842528,-0.012523092049999998,0.004176,-0.052361,-0.00443,-0.34581189895000003,-9.705837638,1.3591036234999998,-2.8924,1.4273,-0.7062,-0.0005800000000000249,-0.0005999999999999339,-6.0000000000060005e-05,-0.013815092430319087,-0.004946348004440049,-0.0020462287179481287
150000000000.0,-1,-0.019005287699999998,0.1336842528,-0.012523092049999998,0.004176,-0.052361,-0.00443,-0.34581189895000003,-9.705837638,1.3591036234999998,-2.8924,1.4273,-0.7062,-5.999999999994898e-05,0.00024999999999986144,-3.999999999992898e-05,-0.0005376694384136016,0.00031409371989399304,-0.0008014253851673647
150000000000.0,-1,-0.0161025193,0.08650445965,-0.02650737495,0.002869,-0.05,-0.002075,-0.34557653935,-9.705837638,1.3594958895,-2.8927,1.4273,-0.70649,0.0006399999999999739,0.00024999999999986144,0.00011999999999989797,0.014027194134973442,0.0038117048934516173,0.002028913453096637
150000000000.0,-1,-0.0289688441,0.09332988804999999,-0.01473939495,0.004102,-0.049937,-0.005669,-0.3452725332,-9.705739571499999,1.3599862219999999,-2.893,1.4272,-0.70672,5.999999999994898e-05,-3.333333333310762e-05,5.0000000000105516e-05,0.000834621781591327,-0.0006844606845655132,0.0005242952276418578
150000000000.0,-1,-0.01615155255,0.09407519345,-0.02176095635,0.001604,-0.048838,-0.000905,-0.34477239405,-9.705739571499999,1.3600842885,-2.8933,1.4272,-0.70687,2.0000000000020002e-05,-3.333333333355171e-05,-1.0000000000065512e-05,-0.00028748589564164817,0.0002359264556492935,-0.0007648687042873803
150000000000.0,-1,-0.01269961175,0.1166795217,0.01062060195,0.005371,-0.05109,-0.008041,-0.3437426958,-9.705641505,1.3614572195,-2.8943,1.4271,-0.70646,-2.999999999997449e-05,-3.333333333310762e-05,-2.0000000000020002e-05,-0.00045128998839394363,7.798138326431392e-05,-0.0008421834144420881
150000000000.0,-1,-0.022290515449999996,0.12155342674999998,0.00893385815,0.007655,-0.04622,-0.003267,-0.34312487685,-9.7053473055,1.36312435,-2.895,1.427,-0.70623,7.999999999996898e-05,7.142857142650172e-06,6.0000000000060005e-05,0.0009740204825865462,-0.000697444111114276,0.0007719959603544879
150000000000.0,-1,-0.020976424349999998,0.13777362585,-0.01515127425,0.006449,-0.046195,-0.011705,-0.34204614535,-9.7053473055,1.3640069485,-2.8959,1.4269,-0.70582,-3.999999999992898e-05,7.142857143094261e-06,-4.999999999999449e-05,-0.00032957060985983055,6.544674900976766e-05,-0.0006354054275152787
150000000000.0,-1,-0.019868272899999997,0.1224458319,-0.01781868305,0.006336,-0.042563,-0.012961,-0.34045746804999993,-9.705249238999999,1.364889547,-2.8971,1.4269,-0.70502,-4.999999999999449e-05,7.142857142650172e-06,-4.0000000000040004e-05,-0.0008962956589462223,0.0004178660301257242,-0.001425079239981919
150000000000.0,-1,-0.0433257797,0.1363908882,-0.02942975665,0.002663,-0.042674,-0.013009,-0.33854517129999995,-9.705249238999999,1.3650856799999997,-2.8985,1.4269,-0.70411,9.99999999995449e-06,7.142857143094261e-06,4.999999999999449e-05,-0.00021036583516487184,-0.0004384411097828611,9.275448582890533e-05
150000000000.0,-1,-0.03413694865,0.1286044081,-0.035892338999999995,0.006298,-0.041355,-0.012979,-0.3375645063,-9.705249238999999,1.3653798794999998,-2.8992,1.4269,-0.7038,9.99999999995449e-06,7.142857142650172e-06,-2.999999999997449e-05,-0.00030381950302227345,9.91981994151736e-05,-0.0006978798596548597
150000000000.0,-1,-0.030851720899999997,0.10888323494999999,-0.03309744375,0.002503,-0.037861,-0.010673,-0.33650538809999997,-9.705249238999999,1.365477946,-2.9,1.4269,-0.70347,0.0001300000000000745,7.142857143094261e-06,2.0000000000020002e-05,0.0013214555872071987,-0.0008543618091383376,0.0004950780802264187
150000000000.0,-1,-0.03592175895,0.1300754056,-0.05130839279999999,-0.001143,-0.039215,-0.00589,-0.33622099525,-9.7053473055,1.3647914804999999,-2.9001,1.427,-0.70378,-2.999999999997449e-05,7.142857142650172e-06,-1.0000000000065512e-05,-0.0001313728506378009,-1.664286799596404e-05,0.00022683037385173854
150000000000.0,-1,-0.02933169015,0.11227633585,-0.0489155702,-0.001148,-0.036612,-0.013023,-0.3353285901,-9.7055434385,1.363908882,-2.9005,1.4271,-0.70371,-4.999999999999449e-05,7.142857142650172e-06,-5.999999999994898e-05,-0.001058772188840651,0.00025953528964817174,-0.001037415193565261
150000000000.0,-1,-0.04223724155,0.10085158859999999,-0.027546879849999997,-0.00361,-0.03673,-0.007039,-0.33500497064999996,-9.705641505,1.3633204829999999,-2.9007,1.4271,-0.70395,6.999999999990347e-05,7.142857143094261e-06,-2.0000000000020002e-05,0.0006693989902495368,-0.00012407042317730266,5.9881655355198404e-05
150000000000.0,-1,-0.05320107625,0.12737857685,-0.02015266575,-0.006059,-0.036804,-0.007071,-0.3351128438,-9.705641505,1.3630262835,-2.9005,1.4272,-0.70447,4.0000000000040004e-05,7.142857142650172e-06,-9.99999999995449e-06,0.0001959501136330477,-6.226144099175102e-05,-0.0002761282170495871
150000000000.0,-1,-0.05320107625,0.12737857685,-0.02015266575,-0.006059,-0.036804,-0.007071,-0.3351128438,-9.705641505,1.3630262835,-2.9005,1.4272,-0.70447,-9.99999999995449e-06,7.142857143094261e-06,-4.0000000000040004e-05,-5.2790243427747185e-05,0.00035535544243181505,-0.00027860300758542067
150000000000.0,-1,-0.0782178404,0.13151698315,-0.043237519849999996,-0.005035,-0.030754,-0.003533,-0.3340341123,-9.705739571499999,1.3626340174999998,-2.9012,1.4272,-0.70413,9.99999999995449e-06,7.142857142650172e-06,-2.0000000000020002e-05,-0.000414567773964869,-0.0005502405032620228,-0.0005982637338015628
150000000000.0,-1,-0.061046396249999996,0.13022250535,-0.040893730499999996,-0.001467,-0.026985,-0.00835,-0.3327984744,-9.705837638,1.362535951,-2.902,1.4273,-0.70361,-9.99999999995449e-06,7.142857143094261e-06,-2.999999999997449e-05,-0.00022819781436900222,0.00025707885461101476,6.635550938249857e-05
150000000000.0,-1,-0.0514064593,0.13636146825,-0.029988735699999998,0.001065,-0.029309,-0.01069,-0.33271021455,-9.705837638,1.362535951,-2.9021,1.4273,-0.70385,1.999999999990898e-05,7.142857142650172e-06,-6.0000000000060005e-05,0.0001247164717828042,0.00044926372015940963,-0.0007033504775133537
150000000000.0,-1,-0.0767860695,0.13734213325,-0.0354020065,0.004609,-0.025618,-0.004678,-0.333818366,-9.705739571499999,1.362732084,-2.9014,1.4272,-0.70486,7.500000000004725e-05,-0.00011999999999989797,-3.999999999992898e-05,-0.0003683333745341244,0.00011054144259925458,-0.0005745200243376658
150000000000.0,-1,-0.03792231555,0.14916895315,-0.0492489963,0.005718,-0.021958,-0.004715,-0.33392623914999997,-9.705739571499999,1.3626340174999998,-2.9013,1.4272,-0.70518,7.500000000004725e-05,-0.00011999999999989797,9.99999999995449e-06,0.0013359910969970024,-0.00037864607080972945,-0.00013470038199470125
150000000000.0,-1,-0.0519164051,0.1858360175,-0.059673465249999995,0.005792,-0.024382,-0.003476,-0.334602898,-9.705837638,1.3624378844999998,-2.9008,1.4272,-0.70591,-9.999999999998899e-05,-0.00012000000000034206,-7.00000000000145e-05,-0.0011501886747375956,-0.00015948637135032584,0.0006589397327827484
150000000000.0,-1,-0.065116156,0.17643144014999998,-0.059899018199999994,0.004419,-0.01957,-0.005968,-0.33561298295,-9.705837638,1.3620456185,-2.9,1.4273,-0.70687,-1.0000000000065512e-05,-0.00011999999999989797,-4.999999999999449e-05,-0.0006031325750761596,0.00046645532501154996,-0.0003424066570554274
150000000000.0,-1,-0.05415232129999999,0.16164301195,-0.05096516005,0.00551,-0.014632,-0.015648,-0.33535801005,-9.705837638,1.361947552,-2.9002,1.4273,-0.70686,-0.0004999999999999449,-0.00011999999999989797,-3.999999999992898e-05,-0.01134547425775434,-0.007461684277948688,0.002360948712197164
150000000000.0,-1,-0.050935740099999995,0.14513842,-0.07236327035,0.004167,-0.011054,-0.014513,-0.3351324571,-9.7059357045,1.36116302,-2.9002,1.4274,-0.70692,4.999999999999449e-05,0.00011999999999989797,-1.0000000000065512e-05,0.00011178789978938397,0.00024754493514866915,0.000535465028022708
150000000000.0,-1,-0.031322440099999994,0.1502967179,-0.0547995602,0.006428,-0.004924,-0.016975,-0.3340929522,-9.706033771,1.3609668869999998,-2.9009,1.4274,-0.70629,-3.0000000000085514e-05,0.00011999999999989797,-7.999999999996898e-05,-0.0005763358597414836,0.00041342566545510273,-0.000332384511572581
150000000000.0,-1,-0.052200797949999996,0.1279963958,-0.03978557905,0.006229,0.001098,-0.014657,-0.3337202995,-9.706033771,1.3610649535,-2.9012,1.4274,-0.70601,3.0000000000085514e-05,0.00012000000000034206,-7.00000000000145e-05,-0.00018319338953798336,0.00013756931705799502,0.00036253687844367555
150000000000.0,-1,-0.033960428949999996,0.13281146095,-0.030459454899999995,0.001218,0.004582,-0.015976,-0.332053169,-9.706033771,1.361359153,-2.9023,1.4274,-0.70476,4.999999999999449e-05,0.00011999999999989797,-9.99999999995449e-06,-0.00011896531653921016,-0.00014174096862951124,0.0005370932911863413
150000000000.0,-1,-0.07117666569999999,0.15766151205,-0.04610106165,0.003582,0.007045,-0.01237,-0.33060178479999996,-9.706033771,1.3615552859999998,-2.9034,1.4274,-0.70364,0.0006800000000000139,0.00011999999999989797,-4.0000000000040004e-05,0.012205636985637813,0.006100110267795555,-0.000843274381882253
150000000000.0,-1,-0.07236327035,0.1619862447,-0.0218688295,0.002172,0.015582,-0.009782,-0.32985647939999996,-9.706033771,1.3618494854999998,-2.904,1.4274,-0.70292,9.99999999995449e-06,-0.0003499999999996284,-0.00012000000000000899,-0.000114108417872405,-0.0001473052574851863,0.0007062226557219553
150000000000.0,-1,-0.00944380395,0.14530513305,-0.0039422733,0.010595,0.02069,-0.012147,-0.32888562104999997,-9.7059357045,1.3626340174999998,-2.9048,1.4274,-0.70189,-0.0005100000000000104,-0.0003500000000000725,2.0000000000020002e-05,-0.01252116996694319,-0.006602520022070291,0.0023522780473352878
150000000000.0,-1,-0.00944380395,0.14530513305,-0.0039422733,0.010595,0.02069,-0.012147,-0.32888562104999997,-9.7059357045,1.3626340174999998,-2.9048,1.4274,-0.70189,0.0006000000000000449,0.0005999999999999339,-0.00017000000000000348,0.011746744727867187,0.0068799595744295505,-0.0019314725132502097
150000000000.0,-1,0.030145642099999998,0.1724401336,-0.01346453045,0.017829,0.024545,-0.013308,-0.32702235755,-9.705739571499999,1.3647914804999999,-2.9064,1.4272,-0.69999,-0.000520000000000076,-0.000700000000000145,2.0000000000020002e-05,-0.012447840656159448,-0.006843397728693246,0.0028267506182895197
150000000000.0,-1,0.02352615335,0.172793173,-0.01883857465,0.018781,0.033027,-0.012212,-0.32563961989999995,-9.705445372,1.3669489434999997,-2.9077,1.427,-0.69833,-1.999999999990898e-05,0.0002999999999997449,-0.0001300000000000745,-0.6262857480831485,-0.7012867311832947,-0.2895441093623119
150000000000.0,-1,0.02205515585,0.17254800674999998,-0.02093719775,0.021244,0.033145,-0.018196,-0.3241686224,-9.705249238999999,1.36900834,-2.9091,1.4268,-0.6966,0.0006399999999999739,0.000300000000000189,-0.00011999999999989797,0.6381294985049646,0.7086515040875356,0.28754033406997537
150000000000.0,-1,0.00208881645,0.14992406519999998,-0.02393803265,0.027124,0.040541,-0.013409,-0.3232075707,-9.704856973,1.371558069,-2.9102,1.4266,-0.69509,-0.0006200000000000649,-0.0006999999999997009,-4.999999999999449e-05,-0.012572026658117963,-0.00716242205019868,0.002335204943611835
150000000000.0,-1,0.0158671597,0.12292635774999998,-0.06966644159999999,0.023373,0.042846,-0.013493,-0.32202096604999997,-9.704856973,1.3722445344999998,-2.9111,1.4266,-0.69369,0.003350000000000075,0.0013999999999998458,0.0016299999999999093,-0.007225067228838533,0.005339284070785544,0.00776540738503706
150000000000.0,-1,0.0091790244,0.14011741519999998,-0.0544857474,0.024479,0.046497,-0.012326,-0.32102068775,-9.704660839999999,1.373715532,-2.912,1.4264,-0.69226,-0.0025800000000000267,-0.000700000000000145,-0.0017599999999999838,0.02024384681481517,0.0026738817438951568,-0.009481160807909728
150000000000.0,-1,0.01022833595,0.13861699775,-0.032391364949999994,0.025693,0.046499,-0.007498,-0.32027538234999997,-9.704464707,1.3748923299999998,-2.9127,1.4263,-0.69104,9.99999999995449e-06,-4.999999999988347e-05,-5.999999999994898e-05,-0.0005727798098253967,0.00038414354058669,-0.0005503890389320087
150000000000.0,-1,0.023987065899999997,0.16966485165,-0.048444851,0.026964,0.045355,-0.011074,-0.31937317055,-9.704268573999999,1.3767555934999998,-2.9137,1.4262,-0.68962,-9.99999999995449e-06,-4.999999999988347e-05,-6.0000000000060005e-05,-8.36998738962258e-05,0.00018918140949186757,0.00048393553039138837
150000000000.0,-1,0.040256298249999996,0.1681840475,-0.0404426246,0.025607,0.048889,-0.003924,-0.31858863855,-9.7039743745,1.3789130565,-2.9145,1.426,-0.68822,2.0000000000020002e-05,-9.000000000014552e-05,-2.0000000000020002e-05,-0.00023144056826085446,-0.0001778835205803464,0.0003739069367538761
150000000000.0,-1,0.050376761049999996,0.18411004709999998,-0.04666984735,0.02577,0.044084,-0.007464,-0.31747068045,-9.7037782415,1.3808743864999997,-2.9156,1.4258,-0.68665,2.0000000000020002e-05,-8.999999999970143e-05,-3.999999999992898e-05,8.87119703170125e-05,0.00038603286093441547,4.623358969868541e-05
150000000000.0,-1,0.02468333805,0.1787948428,-0.05303436319999999,0.023277,0.0452,-0.005107,-0.31707841445,-9.703484042,1.382541517,-2.9162,1.4256,-0.68561,2.999999999997449e-05,-9.000000000014552e-05,-2.999999999997449e-05,-0.00013700216575829316,-0.00016686964179890573,0.00022552961930033533
150000000000.0,-1,0.0226141349,0.1758920744,-0.055593898850000004,0.021101,0.036681,-0.006219,-0.31664692185,-9.703287909,1.3841105809999998,-2.9167,1.4255,-0.68466,3.999999999992898e-05,-9.000000000014552e-05,-4.999999999999449e-05,-0.0005281719008571883,0.00017449065988017765,-0.00019872946271970449
150000000000.0,-1,0.01707337765,0.1661638776,-0.04321790655,0.017551,0.032973,-0.009824,-0.31590161645,-9.7031898425,1.385287379,-2.9174,1.4254,-0.68358,0.00010000000000010001,-8.999999999970143e-05,6.999999999990347e-05,0.0007754482810060637,-0.0002909009304949972,0.0012626226716987432
150000000000.0,-1,0.00257914895,0.10762798375,-0.05534873259999999,0.011467,0.03158,-0.009887,-0.31547012385,-9.7031898425,1.3855815784999999,-2.9177,1.4254,-0.68285,3.999999999992898e-05,-9.000000000014552e-05,-7.999999999996898e-05,-0.0006505248701045296,0.00029461402130248615,-0.001348917033439978
150000000000.0,-1,-0.03399965555,0.06857790344999999,-0.0356177528,0.004404,0.025451,-0.00838,-0.3158525832,-9.7031898425,1.3854835119999998,-2.9175,1.4254,-0.68283,7.999999999996898e-05,-9.000000000014552e-05,2.0000000000020002e-05,-0.00019419839621415136,-0.000703469083229713,0.0002567941784685779
150000000000.0,-1,-0.03399965555,0.06857790344999999,-0.0356177528,0.004404,0.025451,-0.00838,-0.3158525832,-9.7031898425,1.3854835119999998,-2.9175,1.4254,-0.68283,6.0000000000060005e-05,-9.000000000014552e-05,-9.00000000000345e-05,-5.757733165134837e-06,0.00015870914570492722,-0.0007027016663132546
150000000000.0,-1,-0.03399965555,0.06857790344999999,-0.0356177528,0.004404,0.025451,-0.00838,-0.3158525832,-9.7031898425,1.3854835119999998,-2.9175,1.4254,-0.68283,0.00010999999999994348,-8.999999999970143e-05,1.0000000000065512e-05,0.0008384076645975291,-0.00035394045213155145,0.00026749482543131364
150000000000.0,-1,-0.04445354444999999,0.08519036854999999,-0.01807365595,0.000923,0.019301,-0.00834,-0.3164802088,-9.7031898425,1.385287379,-2.917,1.4254,-0.68305,0.0023500000000000743,-9.000000000014552e-05,0.0015199999999999658,-0.022978245074174897,-0.022098693677256476,0.0263324509353009
150000000000.0,-1,-0.056054811399999994,0.05715315619999999,-0.01850514855,-0.001283,0.012016,-0.013079,-0.3157937433,-9.7031898425,1.384895113,-2.9174,1.4254,-0.68227,-2.999999999997449e-05,-0.00024999999999986144,-4.999999999999449e-05,-0.0001428696390055606,-0.00013646557893842726,0.0017851096787504517
150000000000.0,-1,-0.056692243649999995,0.06257623365,0.0186130217,0.001318,0.00725,-0.011774,-0.31605852284999997,-9.703091775999999,1.3855815784999999,-2.9173,1.4254,-0.68223,-0.000140000000000029,-0.00025000000000030553,-0.00024999999999997247,-0.00039250197872586767,-0.006160798776360998,0.0040821446510428405
150000000000.0,-1,-0.0304398416,0.08786758399999998,0.0011277647499999999,0.003966,0.001303,-0.01406,-0.31462675195,-9.703091775999999,1.385875778,-2.9184,1.4254,-0.68117,0.00017000000000000348,0.00010000000000021103,8.999999999992347e-05,0.0016924187607569863,0.001484720327325606,-0.0015780921121071323
150000000000.0,-1,-0.012915358049999999,0.12645675174999998,-0.00856120545,0.005399,-0.004646,-0.021176,-0.31269484189999996,-9.703091775999999,1.386464177,-2.9198,1.4254,-0.67978,3.999999999992898e-05,9.999999999976694e-05,9.999999999998899e-05,-0.0035760727233062894,-0.0005650008537636531,-0.002418750352564114
150000000000.0,-1,-0.013954862949999999,0.11853297855,-0.050170821399999996,0.004384,-0.010669,-0.028323,-0.30986072005,-9.703091775999999,1.387052576,-2.9218,1.4254,-0.67782,-0.00018999999999991246,-0.0006999999999997009,-0.00034999999999996145,-0.0007622744776636381,-0.007419518539625969,0.006770379025467177
150000000000.0,-1,-0.0416782625,0.13288991415,-0.07024503395,0.005641,-0.011857,-0.025883,-0.3071246647,-9.703091775999999,1.3876409749999998,-2.9238,1.4254,-0.67596,0.00013999999999991797,3.333333333310762e-05,6.0000000000060005e-05,-0.0008672400528233482,-0.00022663373288644983,-0.000974336932476394
150000000000.0,-1,-0.08418028359999999,0.0686857766,-0.07065691325,0.002115,-0.016825,-0.022251,-0.30756596395,-9.703287909,1.3865622434999998,-2.9233,1.4255,-0.67654,-3.999999999992898e-05,3.333333333355171e-05,-0.0001100000000000545,0.0014487158539173706,0.00039914158483966844,0.001091232487090199
150000000000.0,-1,-0.05258325729999999,0.08738705815,-0.05971269184999999,-0.002624,-0.021786,-0.024651,-0.30654607235,-9.7035821085,1.3847970465,-2.9237,1.4257,-0.6763,0.00029999999999996696,3.333333333310762e-05,0.00031999999999998696,-0.0023233966818843044,0.0008085425972865767,-0.00257645400995532
150000000000.0,-1,-0.05345604915,0.10377397029999999,-0.0480721983,-0.005186,-0.018228,-0.025938,-0.30536927435,-9.7037782415,1.3834241155,-2.9243,1.4258,-0.67585,-7.999999999996898e-05,2.0000000000131024e-05,-0.00017000000000000348,0.0017810327776075496,0.0002189382230841641,0.001241835737669783
150000000000.0,-1,-0.05345604915,0.10377397029999999,-0.0480721983,-0.005186,-0.018228,-0.025938,-0.30536927435,-9.7037782415,1.3834241155,-2.9243,1.4258,-0.67585,0.00012999999999996348,2.0000000000131024e-05,0.000180000000000069,-0.0022190900908549693,-0.0008338712834843331,-0.0010637420889807458
150000000000.0,-1,-0.046257968049999994,0.12479942789999998,-0.035882532349999996,-0.0063,-0.021906,-0.023495,-0.3040453766,-9.7039743745,1.382149251,-2.9251,1.426,-0.67533,-5.999999999994898e-05,1.9999999999686935e-05,-9.00000000000345e-05,0.00013710673360467496,-0.0005248805421593783,0.0008291241513980196
150000000000.0,-1,-0.038755880799999996,0.1421179718,-0.01220927925,-0.004872,-0.027872,-0.028204,-0.29897533854999997,-9.704268573999999,1.381364719,-2.9285,1.4262,-0.67243,0.00015999999999993797,2.0000000000131024e-05,0.00010999999999994348,0.00046629065673542414,0.0009112448241457294,-0.0006567887498500902
150000000000.0,-1,-0.038755880799999996,0.1421179718,-0.01220927925,-0.004872,-0.027872,-0.028204,-0.29897533854999997,-9.704268573999999,1.381364719,-2.9285,1.4262,-0.67243,2.999999999997449e-05,2.0000000000131024e-05,-3.999999999992898e-05,0.001124659475273404,0.0003847795064664261,-0.00031756733634491496
150000000000.0,-1,-0.061781894999999996,0.12494652765,-0.015357213899999998,-0.000133,-0.022911,-0.025803,-0.29779854055,-9.704268573999999,1.381364719,-2.9293,1.4262,-0.67184,8.000000000008001e-05,2.4999999999941735e-05,2.999999999997449e-05,-5.8489990217402976e-05,5.263419537837599e-05,-0.0004346550763096868
150000000000.0,-1,-0.054211161199999996,0.09193734375,-0.010944221399999999,-0.00123,-0.024013,-0.026731,-0.2962392832,-9.704366640499998,1.381364719,-2.9303,1.4262,-0.67099,3.999999999992898e-05,2.4999999999941735e-05,-9.99999999995449e-06,-0.000738348803168698,-0.0002823183369755622,0.00011460050203182526
150000000000.0,-1,-0.0697252815,0.09722312809999999,-0.01860321505,0.002487,-0.025092,-0.029072,-0.29299328204999997,-9.704366640499998,1.3816589184999999,-2.9326,1.4263,-0.66893,4.999999999999449e-05,2.4999999999941735e-05,2.999999999997449e-05,-6.267313687580156e-05,-0.00024023916359627862,-0.0007879350566790677
150000000000.0,-1,-0.0645865969,0.07395194764999999,-0.00936535075,-8.8e-05,-0.021578,-0.024343,-0.2899041873,-9.704464707,1.3818550515,-2.9348,1.4263,-0.66697,4.0000000000040004e-05,2.4999999999941735e-05,-2.0000000000020002e-05,0.0011766287236749662,0.0005297390527077006,0.00014566698306528458
150000000000.0,-1,-0.07032348715,0.0828073526,0.0025105023999999997,0.002229,-0.017933,-0.017145,-0.2877663376,-9.704464707,1.3820511844999999,-2.9363,1.4263,-0.66566,0.0001100000000000545,0.0002999999999997449,-4.999999999999449e-05,0.0016118237676092662,0.001266517327825678,-0.000233095893822588
150000000000.0,-1,-0.0469934668,0.08150306815,0.019113160849999998,-0.000181,-0.019215,-0.017159,-0.2856481012,-9.7045627735,1.3822473174999999,-2.9378,1.4264,-0.66435,0.00014999999999998348,0.000300000000000189,0.00017999999999995797,0.0002982695056470419,0.005506724927273332,-0.0051092953757807535
150000000000.0,-1,-0.041648842549999995,0.0883383032,0.0041384062999999995,-0.008912,-0.014661,-0.014935,-0.28635417999999996,-9.704366640499998,1.3834241155,-2.9375,1.4262,-0.6648,1.999999999990898e-05,-9.999999999976694e-05,-7.999999999996898e-05,0.002484753462690392,-0.0004357658941147591,0.0019300301401048436
150000000000.0,-1,-0.0344801814,0.06434143064999999,0.0141804159,-0.002957,-0.009688,-0.008909,-0.28634437334999996,-9.704268573999999,1.3839144479999999,-2.9376,1.4262,-0.66484,5.0000000000105516e-05,9.999999999976694e-05,7.999999999996898e-05,-0.0029018465467149923,-0.00018248715937052573,-0.0022695528974661094
150000000000.0,-1,-0.0358531124,0.06441988385,0.014464808749999999,-0.002949,-0.009662,-0.012519,-0.28497144235,-9.704366640499998,1.3836202484999998,-2.9385,1.4262,-0.66402,6.999999999990347e-05,0.000300000000000189,-4.999999999999449e-05,0.0003623461004238493,0.00041463825748322414,0.00089997469192582
150000000000.0,-1,-0.018377662099999997,0.09556580425,0.032950344,-0.007934,-0.00743,-0.007805,-0.28463801624999996,-9.704268573999999,1.3846009135,-2.9388,1.4262,-0.66374,-0.00010999999999994348,0.000300000000000189,-2.999999999997449e-05,0.0008335309234048793,9.166008102212686e-05,0.00026136023924006047
150000000000.0,-1,-0.020446865249999998,0.12995772579999998,0.0382851616,-0.008101,-0.002643,-0.001859,-0.28510873545,-9.704072441,1.385679645,-2.9387,1.426,-0.66394,7.00000000000145e-05,0.0002999999999997449,2.0000000000020002e-05,-0.0010148281326598507,-0.0002539735199371673,-8.71523140590913e-05
150000000000.0,-1,-0.01687724465,0.14876688049999998,0.036745517549999995,-0.004399,-0.003774,0.003019,-0.28583442755,-9.703876307999998,1.3869545095,-2.9383,1.4259,-0.66432,-0.0022699999999999942,0.000300000000000189,-0.0014000000000000679,0.024066939493217587,0.025153141095136444,-0.028228566693071278
150000000000.0,-1,-0.0410898635,0.15552366235,0.025242317099999998,-0.004506,-0.000125,-0.000643,-0.28870777599999997,-9.703484042,1.3893081054999998,-2.9367,1.4256,-0.66596,-3.0000000000085514e-05,4.999999999988347e-05,-0.00010999999999994348,-0.0003705474906710027,0.000964845224447064,-0.0008211063859036027
150000000000.0,-1,-0.0350685804,0.16960601175,-0.00187307015,-0.000838,-3.1e-05,0.001812,-0.29009051365,-9.703287909,1.3898965044999998,-2.9358,1.4255,-0.66683,5.0000000000105516e-05,4.999999999988347e-05,-9.99999999995449e-06,-0.0002651800558279849,-5.6023125603710255e-05,-4.7458607900674465e-05
150000000000.0,-1,-0.02217283565,0.15309161315,-0.010198915999999999,-0.003418,0.003465,0.008946,-0.29162035105,-9.703287909,1.389994571,-2.9348,1.4255,-0.66783,3.999999999992898e-05,-4.999999999988347e-05,-1.0000000000065512e-05,-0.00017794785993219264,0.0002602216170739524,-0.0004096503840451682
150000000000.0,-1,-0.02217283565,0.15309161315,-0.010198915999999999,-0.003418,0.003465,0.008946,-0.29162035105,-9.703287909,1.389994571,-2.9348,1.4255,-0.66783,7.00000000000145e-05,-4.999999999988347e-05,1.0000000000065512e-05,2.7724334189294098e-05,-0.00011599350561253274,9.867789112316672e-05
150000000000.0,-1,-0.01832862885,0.16650711035,-0.021937476049999998,0.001411,0.006055,0.005366,-0.29291482885,-9.7031898425,1.3900926374999998,-2.9339,1.4254,-0.66867,7.00000000000145e-05,-5.000000000032756e-05,-4.0000000000040004e-05,0.00012040740779428738,-0.00012821778850935495,0.0003600853599847742
150000000000.0,-1,-0.011846433200000001,0.16252561045,-0.006060509699999999,-0.001057,0.00592,0.013756,-0.2946113793,-9.703091775999999,1.3903868369999999,-2.9328,1.4254,-0.66974,0.00010999999999994348,-4.999999999988347e-05,-3.0000000000085514e-05,0.0002706975892328156,4.414037274336202e-05,-0.0006161077661752667
150000000000.0,-1,0.00630567595,0.15424879784999998,-0.0109638347,-0.00231,0.009665,0.013962,-0.29616083,-9.703091775999999,1.3902887705,-2.9317,1.4253,-0.67072,-1.999999999990898e-05,-4.999999999988347e-05,-2.999999999997449e-05,-0.0008232264393337463,0.0004698155791997838,-0.00010320709979505516
150000000000.0,-1,-0.0203782187,0.14385374885,0.0033342610000000003,-0.007048,0.004704,0.011562,-0.2982006132,-9.7029937095,1.3903868369999999,-2.9303,1.4253,-0.67206,0.004089999999999927,-4.999999999988347e-05,0.003010000000000068,-0.020263547253367875,0.013873222107449346,-0.010239093710175062
150000000000.0,-1,-0.010169496049999999,0.1510420233,0.028547158149999998,-0.002312,0.009656,0.015165,-0.29987755034999997,-9.7029937095,1.389994571,-2.9291,1.4253,-0.67321,0.0016000000000000458,-0.0005999999999999339,-0.00012999999999996348,-0.01747038838347237,0.009483069805368283,-0.008296324408470612
150000000000.0,-1,-0.02256510165,0.1263684919,0.020338992099999998,-0.007022,0.003452,0.017596,-0.30260379904999996,-9.702895643,1.3902887705,-2.9273,1.4252,-0.67499,-0.002870000000000039,0.0004999999999997229,-0.0013800000000000479,-0.01388475043786741,-0.010071715493649602,0.026577008843544414
150000000000.0,-1,-0.0098458766,0.15368001215,0.026811381099999997,0.000369,0.002484,0.015303,-0.30438860935,-9.702699509999999,1.3914655684999997,-2.9262,1.425,-0.67602,9.00000000000345e-05,0.0009999999999998899,0.00010999999999994348,0.03119833474385736,-0.015810179594397678,-0.00039486708583424956
150000000000.0,-1,-0.0098458766,0.15368001215,0.026811381099999997,0.000369,0.002484,0.015303,-0.30438860935,-9.702699509999999,1.3914655684999997,-2.9262,1.425,-0.67602,5.999999999994898e-05,-0.00019999999999997797,3.0000000000085514e-05,0.000811363757343031,-2.9200189266775922e-05,5.645253143615747e-05
150000000000.0,-1,-0.01328801075,0.1288986076,0.0248108245,0.000488,-0.00113,0.014152,-0.3063401327,-9.7024053105,1.392740433,-2.9251,1.4249,-0.67718,-0.0007699999999999374,-0.00019999999999997797,-0.0002300000000000635,-0.011290970403369904,-0.005542834358855053,0.013379861416072947
150000000000.0,-1,-0.028174505449999998,0.11215865604999999,-0.0087475318,0.003105,-0.005843,0.008238,-0.30955671389999995,-9.702111110999999,1.3939172309999999,-2.9231,1.4247,-0.67929,-1.0000000000065512e-05,9.999999999976694e-05,-2.0000000000020002e-05,0.00011958266956479946,0.00028234503083335305,-0.0001276329140520449
150000000000.0,-1,-0.01830901555,0.10790256995,-0.0027360553499999997,0.003059,-0.004662,0.01183,-0.3105962188,-9.7020130445,1.3942114304999997,-2.9224,1.4246,-0.68001,-0.00037999999999993594,0.00010000000000021103,-0.0006099999999999994,0.017310448650048826,0.005966785104788874,-0.016288634135204427
150000000000.0,-1,-0.03515684025,0.1304872849,-0.03054771475,-0.004283,-0.004866,0.009328,-0.3115572705,-9.7020130445,1.3940152975,-2.9217,1.4246,-0.68075,-0.0012800000000000589,-0.0002999999999997449,-0.0008499999999999064,0.015279769612217553,0.0023567318193957743,-0.0065501401501093515
150000000000.0,-1,-0.01995653275,0.13606726875,-0.02068222485,-0.009222,-0.003815,0.01045,-0.31344014729999997,-9.702111110999999,1.3933288320000001,-2.9203,1.4246,-0.68221,4.999999999999449e-05,-0.00010000000000021103,3.999999999992898e-05,0.000335089791677623,1.955877680304141e-05,0.00047866935437057556
150000000000.0,-1,-0.018210949049999998,0.12779045614999998,0.00730595425,-0.007881,-0.007401,0.010518,-0.3150288246,-9.7020130445,1.3933288320000001,-2.9192,1.4246,-0.68338,-0.0005799999999999139,-0.0005999999999999339,4.0000000000040004e-05,-0.012802549529424612,-0.0049020360951428366,0.0008364224112948904
150000000000.0,-1,-0.007453054,0.12580951285,0.0129840046,-0.008079,-0.00138,0.012837,-0.31666653515,-9.7020130445,1.393132699,-2.9181,1.4246,-0.68456,0.0006499999999999284,0.0005999999999999339,-4.999999999999449e-05,0.013251952584047766,0.005631497162203125,-0.0006513770804832397
150000000000.0,-1,-0.007453054,0.12580951285,0.0129840046,-0.008079,-0.00138,0.012837,-0.31666653515,-9.7020130445,1.393132699,-2.9181,1.4246,-0.68456,-0.0005899999999999794,-0.0006999999999997009,-1.4999999999987246e-05,-0.012910543138945352,-0.005012267903702128,0.0009915719872493067
150000000000.0,-1,0.0035892338999999997,0.11845452534999999,0.0211627507,-0.01049,-0.002662,0.012822,-0.31782371984999996,-9.702111110999999,1.3920539674999999,-2.9171,1.4247,-0.68557,2.0000000000020002e-05,-9.999999999976694e-05,-1.4999999999987246e-05,0.0002983981396962321,-6.753156363004109e-07,0.0005513346077361536
150000000000.0,-1,-0.0055113372999999995,0.11828781229999999,0.026997707449999995,-0.013024,-0.000347,0.016365,-0.31964775674999996,-9.702307244,1.3906810364999997,-2.9157,1.4248,-0.68704,0.00019999999999997797,-0.00010000000000021103,0.00015999999999993797,0.002033551126784161,-0.0015976951906147008,0.0022418228226244175
150000000000.0,-1,-0.0147295883,0.12523092049999998,0.05590771165,-0.020526,0.004262,0.016199,-0.32120701409999997,-9.702503377,1.388817773,-2.9143,1.4249,-0.68836,9.99999999995449e-06,-2.4999999999941735e-05,-2.999999999997449e-05,-0.0001523633182030082,0.00032158599257581244,8.978807568671421e-05
150000000000.0,-1,-0.01585735305,0.11837607215,0.04759167245,-0.014326,0.004614,0.016529,-0.3227760781,-9.702699509999999,1.3872487089999999,-2.913,1.425,-0.68965,3.0000000000085514e-05,-2.5000000000385825e-05,-1.0000000000065512e-05,0.00020394665585854455,0.00013575883878913508,0.00028389587734123367
150000000000.0,-1,0.021231397249999995,0.12570163969999998,0.026487761649999997,-0.015588,0.005785,0.016495,-0.32409997585,-9.702699509999999,1.3869545095,-2.912,1.425,-0.69058,2.0000000000020002e-05,-2.4999999999941735e-05,-2.999999999997449e-05,6.58274138505277e-05,0.0001508939253558328,0.0002863281535749884
150000000000.0,-1,0.009483030549999999,0.127094184,0.02291814105,-0.022976,0.006761,0.017584,-0.32596323934999993,-9.702699509999999,1.3862680440000001,-2.9106,1.4251,-0.69193,0.00018333333333331314,-2.4999999999941735e-05,-4.999999999999449e-05,-0.00020703217310824584,7.043501596415425e-05,1.896674189261205e-05
150000000000.0,-1,0.013660663449999999,0.12933990685,0.010395048999999998,-0.023066,0.009133,0.023565,-0.3280520558,-9.702895643,1.3846989799999998,-2.909,1.4252,-0.69355,0.00018333333333331314,0.00025000000000030553,-3.999999999992898e-05,-0.0002090496370543704,0.00012029473016461623,-1.665504938586082e-05
150000000000.0,-1,0.041246769899999994,0.15016923145,0.04073682409999999,-0.020603,0.009251,0.017581,-0.32900330085,-9.702895643,1.384306714,-2.9082,1.4252,-0.69419,0.00018333333333331314,0.00024999999999986144,-0.0001100000000000545,0.011256196403072627,0.007402377940665339,-0.0027748460537486697
150000000000.0,-1,0.02554632325,0.14924740635,0.02125101055,-0.024619,0.020027,0.014968,-0.33005261239999995,-9.7029937095,1.383129916,-2.9073,1.4253,-0.69493,2.0000000000020002e-05,-0.00010000000000021103,9.99999999995449e-06,0.00023979101700066785,-0.0004396800644352883,0.0014629937805412663
150000000000.0,-1,0.046964046849999996,0.14673690395,0.019024901,-0.023366,0.018821,0.019814,-0.33113134389999993,-9.7031898425,1.381560852,-2.9064,1.4254,-0.69575,2.0000000000020002e-05,-9.999999999976694e-05,-9.99999999995449e-06,-0.0002465865613918705,0.00024932008350009305,-0.001019680218936836
150000000000.0,-1,0.042296081449999995,0.1622412176,0.0146315218,-0.028371,0.022323,0.016087,-0.3319943291,-9.7033859755,1.3796975885,-2.9055,1.4256,-0.69645,-6.0000000000060005e-05,-0.00010000000000021103,2.0000000000020002e-05,-0.000259339870739117,-3.1395433410574825e-05,0.0013821205738551168
150000000000.0,-1,0.028390251749999998,0.186914749,0.02121178395,-0.025947,0.023649,0.010085,-0.33305344729999997,-9.7035821085,1.3785207904999999,-2.9045,1.4257,-0.69712,-2.0000000000020002e-05,-9.999999999976694e-05,-2.0000000000020002e-05,-4.724521819543526e-05,1.5187215313572366e-05,0.00022216397727925496
150000000000.0,-1,0.025271737049999996,0.15522946284999997,0.03501954715,-0.023614,0.027346,0.010064,-0.3344263783,-9.703876307999998,1.3757749284999998,-2.9031,1.4259,-0.69825,-9.99999999995449e-06,-0.00010000000000021103,9.99999999995449e-06,-4.063274530952121e-05,2.9279903916767935e-05,9.96127191694729e-05
150000000000.0,-1,0.03109688715,0.159259996,0.045620535799999994,-0.022503,0.031015,0.008824,-0.33590718244999995,-9.7041705075,1.3734213325,-2.9017,1.4261,-0.69935,-9.99999999995449e-06,-9.999999999976694e-05,-1.999999999990898e-05,0.0003264801098175063,-8.141371700509659e-05,0.0006966174028910643
150000000000.0,-1,0.03109688715,0.159259996,0.045620535799999994,-0.022503,0.031015,0.008824,-0.33590718244999995,-9.7041705075,1.3734213325,-2.9017,1.4261,-0.69935,4.999999999999449e-05,-4.999999999988347e-05,7.999999999996898e-05,0.0002585350382895424,6.691625182342342e-05,0.0005011811161017565
150000000000.0,-1,0.04519884985,0.16307478285000002,0.03530394,-0.01646,0.033607,0.010072,-0.33743701985,-9.704366640499998,1.3714600024999999,-2.9003,1.4263,-0.70039,9.99999999995449e-06,-5.000000000032756e-05,-7.00000000000145e-05,0.00039653981076015477,0.0004487076688692859,-0.001208061681138295
150000000000.0,-1,0.039609059349999996,0.1455110727,0.042717767399999995,-0.015183,0.03248,0.004089,-0.33753508634999996,-9.704366640499998,1.3718522684999999,-2.9003,1.4262,-0.70006,2.0000000000020002e-05,-0.00010000000000021103,2.0000000000020002e-05,0.0003905610601397935,-0.00019956089835071467,0.00027304695892182984
150000000000.0,-1,0.037932122199999994,0.14799215515,0.0414036763,-0.014001,0.033707,0.006494,-0.33766257279999995,-9.704268573999999,1.3722445344999998,-2.9003,1.4262,-0.69974,4.0000000000040004e-05,-9.999999999976694e-05,-2.999999999997449e-05,0.00031994789855138706,-6.606401222586378e-05,-0.0001048155312903809
150000000000.0,-1,0.0338525558,0.12092580115,0.0353235533,-0.016475,0.034885,0.000428,-0.33731934004999997,-9.704366640499998,1.3721464679999997,-2.9005,1.4262,-0.69914,4.999999999999449e-05,-0.00010000000000021103,1.4999999999987246e-05,0.0005429752639021235,-0.00021333338601392526,0.0004922003582479295
150000000000.0,-1,0.0236144132,0.08136577505,0.05206350485,-0.023811,0.034698,-0.004481,-0.336956494,-9.704366640499998,1.371558069,-2.9007,1.4263,-0.69861,2.999999999997449e-05,-0.00019999999999997797,1.4999999999987246e-05,0.0006076212744292597,-0.0003134927547303601,0.0011207012654885773
150000000000.0,-1,0.00736479415,0.06348825209999999,0.0607031635,-0.023788,0.035947,-0.003054,-0.33686823415,-9.704464707,1.3710677365,-2.9007,1.4263,-0.69827,-7.00000000000145e-05,-9.999999999976694e-05,-4.999999999999449e-05,-0.0009619152043263135,3.615149660407546e-05,-2.4372934586569528e-05
150000000000.0,-1,-0.004501252349999999,0.035137226949999996,0.0767860695,-0.023897,0.039588,-0.005513,-0.3368192009,-9.7045627735,1.3704793375,-2.9006,1.4264,-0.69792,2.0000000000020002e-05,-0.00010000000000021103,4.999999999999449e-05,0.00035965124393033676,-0.000119849232853797,0.0012813149296251325
150000000000.0,-1,0.005687856999999999,0.04073682409999999,0.08536688824999998,-0.01757,0.03377,-0.010159,-0.3363877083,-9.704464707,1.371165803,-2.901,1.4263,-0.69713,5.999999999994898e-05,-9.999999999976694e-05,2.999999999997449e-05,0.0004951124625525161,0.0003347557468382778,-0.00016795946957115504
150000000000.0,-1,0.00734518085,0.09685047539999998,0.0950264385,-0.014989,0.030273,-0.017293,-0.3350540039,-9.704366640499998,1.3726368005,-2.9022,1.4262,-0.69566,2.0000000000020002e-05,-0.00019999999999997797,4.0000000000040004e-05,0.00018147570658699763,-0.00041790341858960467,0.0011911796887580373
150000000000.0,-1,-0.00563882375,0.1519246218,0.10425449614999999,-0.002622,0.027038,-0.019487,-0.33343590665,-9.704464707,1.371950335,-2.9032,1.4263,-0.69435,-7.00000000000145e-05,-0.00010000000000021103,2.999999999997449e-05,-0.0013177075772352609,0.0006740718514359756,-0.0005456160842727265
150000000000.0,-1,0.01328801075,0.20378218699999998,0.10181264029999999,0.005992,0.026098,-0.020561,-0.33156283649999996,-9.7039743745,1.3759710614999998,-2.9051,1.426,-0.69209,2.0000000000020002e-05,-9.999999999976694e-05,2.999999999997449e-05,-0.00018736919183526268,-0.000260781857215564,0.00048377685290423855
150000000000.0,-1,-0.00289296175,0.20329185449999998,0.044404511199999996,0.0073,0.023737,-0.022917,-0.3297584129,-9.703680175,1.37881499,-2.9068,1.4257,-0.69012,2.0000000000020002e-05,-0.00010000000000021103,4.999999999999449e-05,0.0004873700970582373,-0.0004862026830625421,0.00037883759978663
150000000000.0,-1,0.016504591949999998,0.19595648029999999,0.0085317855,0.007411,0.020096,-0.020458,-0.32760094989999994,-9.703484042,1.3803840539999999,-2.9086,1.4256,-0.68814,-2.999999999997449e-05,-4.999999999988347e-05,4.0000000000040004e-05,-0.00027165481866164853,-0.00033783641423457134,0.0006032183189597085
150000000000.0,-1,-0.019466200249999996,0.16316304269999998,-0.0030106415499999996,0.00839,0.027336,-0.014531,-0.32694390435,-9.703287909,1.381756985,-2.9093,1.4255,-0.68719,-4.0000000000040004e-05,-4.999999999988347e-05,-1.0000000000065512e-05,0.00017261323183870303,-0.00021295838509560738,0.00014599638063117482
150000000000.0,-1,-0.011110934449999998,0.14269656414999998,-0.049984495049999994,0.009661,0.026192,-0.018107,-0.3258749795,-9.7033859755,1.381756985,-2.91,1.4255,-0.68614,-2.999999999997449e-05,-0.00010000000000021103,3.0000000000085514e-05,-0.0002584328232930755,-0.0002148227624807486,0.0006263936042174567
150000000000.0,-1,-0.011110934449999998,0.14269656414999998,-0.049984495049999994,0.009661,0.026192,-0.018107,-0.3258749795,-9.7033859755,1.381756985,-2.91,1.4255,-0.68614,-1.0000000000065512e-05,-4.999999999988347e-05,2.0000000000020002e-05,-0.00024592040409543436,-0.0005532096037264012,0.0006124156574600637
150000000000.0,-1,0.0140038962,0.16586967809999997,-0.00679600845,0.010729,0.031051,-0.016958,-0.32435494875,-9.7031898425,1.383326049,-2.9113,1.4254,-0.68452,0.000140000000000029,-4.999999999988347e-05,3.999999999992898e-05,0.0009420569096214582,-0.0010265785587513232,0.0006298561374580292
150000000000.0,-1,0.03148915315,0.1389406172,0.017622550049999998,0.015627,0.031199,-0.016895,-0.3231291175,-9.7029937095,1.3846009135,-2.9123,1.4253,-0.68312,-4.0000000000040004e-05,-0.0003500000000000725,-4.999999999999449e-05,-0.0012740399272186398,0.00024494148772302715,2.8682930741874557e-05
150000000000.0,-1,0.040403398,0.11308048115,0.06016379775,0.001867,0.040515,-0.025633,-0.32111875425,-9.703091775999999,1.384895113,-2.9137,1.4253,-0.68126,0.0025900000000000922,-0.0003500000000000725,0.0017599999999999838,-0.024462457427549378,-0.02284851765866125,0.026981786324574486
150000000000.0,-1,0.023212340550000002,0.0568589567,0.044855617099999995,-0.000637,0.042927,-0.035327,-0.31770604005,-9.7029937095,1.386464177,-2.9163,1.4252,-0.67821,0.00011999999999989797,-0.00010000000000021103,3.0000000000085514e-05,-0.0029673165099142196,-0.00015162738902207984,0.0022308961783354953
150000000000.0,-1,-0.0270467407,0.0334995164,0.036941650549999996,0.000383,0.050298,-0.047448,-0.31456791205,-9.702895643,1.3873467755,-2.9186,1.4252,-0.67537,3.0000000000085514e-05,-9.999999999976694e-05,9.99999999995449e-06,-0.00035154333710529784,-0.00031217163585517405,0.0007191240613559913
150000000000.0,-1,-0.07679587614999998,0.0051582979,0.04246279449999999,-0.004793,0.058578,-0.044025,-0.3130086547,-9.702895643,1.3880332409999998,-2.9198,1.4252,-0.67352,-0.0010900000000000354,-0.00010000000000021103,-0.00012999999999996348,0.002716231772466493,-7.479415427402714e-05,0.000592446464118046
150000000000.0,-1,-0.1391955901,0.038971627099999996,0.02644853505,-4.2e-05,0.064973,-0.051234,-0.3091252213,-9.7029937095,1.3879351744999997,-2.9224,1.4253,-0.67018,-0.0010900000000000354,-0.0004999999999997229,-0.0013200000000000989,0.029770294494364302,-0.000801115393359142,0.0006805086118353287
150000000000.0,-1,-0.14477557394999999,0.1088145884,0.0360296321,0.002176,0.072294,-0.051307,-0.3089290883,-9.7027975765,1.3893081054999998,-2.9228,1.4252,-0.66903,-0.0010899999999999244,0.0004999999999997229,-0.0005099999999998994,-0.02062741291542136,0.01980275327534775,-0.02122931220662294
150000000000.0,-1,-0.10828502929999999,0.16436926065000002,0.01552392695,0.014259,0.077469,-0.047607,-0.30831126935,-9.702601443499999,1.391171369,-2.9235,1.425,-0.66742,3.999999999992898e-05,-9.999999999976694e-05,-9.00000000000345e-05,0.0013896271277580308,0.0011071933875188567,0.002452775223271475
150000000000.0,-1,-0.09022118,0.20269364885,-0.0254188368,0.022604,0.084992,-0.050007,-0.30721292455,-9.702307244,1.3934268984999998,-2.9246,1.4248,-0.66538,4.999999999999449e-05,-0.00010000000000021103,-6.0000000000060005e-05,-3.8358982517028295e-06,0.00021437780573041465,0.0008692131460084074
150000000000.0,-1,-0.0970466084,0.25153076585,-0.05537815255,0.024808,0.092269,-0.044064,-0.30667355879999997,-9.7020130445,1.3952901619999998,-2.9252,1.4246,-0.66371,3.0000000000085514e-05,-9.999999999976694e-05,-2.999999999997449e-05,-0.0003041241631205338,-0.00031395999947259057,0.000825903471627587
150000000000.0,-1,-0.09990034354999999,0.25133463284999996,-0.057349289199999993,0.022045,0.10184,-0.04183,-0.30381982365,-9.7018169115,1.3972514919999999,-2.9275,1.4245,-0.66037,7.999999999996898e-05,-0.00010000000000021103,-7.999999999996898e-05,0.001095287681672552,0.00034274028274960955,0.0005640498084682477
150000000000.0,-1,-0.10062603564999999,0.25515922635,-0.0944772661,0.021638,0.11385,-0.03238,-0.30175062049999996,-9.701620778499999,1.399212822,-2.9292,1.4243,-0.65745,0.00019999999999997797,-4.999999999988347e-05,-1.0000000000065512e-05,0.002282033280818885,8.8456901804701e-05,0.0017828662644141513
150000000000.0,-1,-0.07606037739999999,0.1901509435,-0.1354102232,0.021429,0.11983,-0.025248,-0.3005738225,-9.7014246455,1.4008799525,-2.9302,1.4242,-0.65512,9.00000000000345e-05,-4.999999999988347e-05,-9.99999999995449e-06,0.0009905347400225306,5.78904870922603e-05,0.0005598445908010508
150000000000.0,-1,-0.07093149944999999,0.1409215605,-0.1390779103,0.012764,0.12194,-0.018176,-0.3003188496,-9.701228512499998,1.4020567505000001,-2.9306,1.4241,-0.65347,0.0006199999999999539,0.00019999999999997797,7.00000000000145e-05,0.009385636674780873,0.00491944293438995,-0.0027564896610972056
150000000000.0,-1,-0.07093149944999999,0.1409215605,-0.1390779103,0.012764,0.12194,-0.018176,-0.3003188496,-9.701228512499998,1.4020567505000001,-2.9306,1.4241,-0.65347,9.999999999998899e-05,-0.00010000000000021103,4.0000000000040004e-05,0.0006763077752158786,-0.00015871175824266892,0.0012722203541675192
150000000000.0,-1,-0.02609549565,0.1124038223,-0.11508103775,0.005202,0.12768,-0.008734,-0.30100531509999995,-9.701228512499998,1.4024490164999999,-2.9302,1.424,-0.65251,6.0000000000060005e-05,-9.999999999976694e-05,-4.999999999999449e-05,-3.895547907295516e-05,0.0002107698243634104,0.00032278814684327806
150000000000.0,-1,-0.00981645665,0.1872874017,-0.029468983249999997,0.004024,0.12512,0.005723,-0.30381982365,-9.701130445999999,1.4023509499999998,-2.9282,1.4239,-0.65309,2.0000000000020002e-05,-0.00019999999999997797,-2.0000000000020002e-05,0.00038779805310862336,-0.0003381696512063659,0.002169458286813919
150000000000.0,-1,-0.01030678915,0.18176625775,-0.02201592925,0.004165,0.12025,0.011809,-0.30752673734999997,-9.700934313,1.402547083,-2.9257,1.4238,-0.65428,0.00017000000000000348,-0.00010000000000021103,0.00018499999999999073,0.0005189253009654227,-0.00023848239168300367,0.0011730160970564452
150000000000.0,-1,0.01707337765,0.14493248035,-0.0367357109,0.004113,0.12141,0.017808,-0.31051776559999994,-9.700934313,1.4020567505000001,-2.9236,1.4238,-0.65509,0.00037999999999993594,-0.0013999999999998458,0.00018499999999999073,0.00423877863212585,-0.02377905590785523,0.0251406645287795
150000000000.0,-1,0.059134099499999995,0.10828502929999999,-0.02976318275,0.000704,0.11283,0.020289,-0.31246928895,-9.700934313,1.4014683515,-2.9222,1.4238,-0.6553,-0.00022999999999995246,0.001100000000000101,-0.00043999999999999595,-0.00528188347319225,0.02409834413434031,-0.02384553642939724
150000000000.0,-1,0.06276256,0.1082261894,-0.0293807234,-0.000515,0.11281,0.017866,-0.31609774944999997,-9.700934313,1.4010760855,-2.9197,1.4238,-0.65661,0.0006499999999999284,-0.0013000000000000789,0.00039000000000000146,0.007172583965724844,-0.022093068300652607,0.02437037297916511
150000000000.0,-1,0.0263406619,0.09418306659999999,-0.088063717,-0.001461,0.10435,0.014363,-0.31678421495,-9.701326579,1.3977418244999997,-2.9187,1.4241,-0.6565,0.0001300000000000745,-0.0005999999999999339,-0.00017000000000000348,-0.001040214925461802,-0.004005502761198931,0.0035196579496143965
150000000000.0,-1,-0.01171894675,0.09573251729999999,-0.06679309315,0.001143,0.101,0.00725,-0.31988311635,-9.701522712,1.3955843614999999,-2.9163,1.4243,-0.65785,0.00024999999999997247,-0.00019999999999997797,-2.0000000000020002e-05,-0.0010588987357795787,-0.0022148191873798684,0.0015051343896748115
150000000000.0,-1,-0.0166909183,0.06817583079999999,-0.06336076565,-0.007308,0.097132,0.004784,-0.3225407185,-9.7018169115,1.3930346325,-2.9141,1.4245,-0.65902,0.00017999999999995797,-0.000300000000000189,-2.999999999997449e-05,-0.001269257071008001,-0.0007847779310738989,0.0020345975735496236
150000000000.0,-1,-0.06357651195,0.08735763819999999,-0.043061000149999994,-0.007218,0.09476,-0.001196,-0.3259338194,-9.7020130445,1.3909752359999998,-2.9114,1.4246,-0.66062,0.00021999999999999797,0.00010000000000021103,5.999999999994898e-05,-0.0026051351807983014,0.0019137351587603657,-0.0003173003001399888
150000000000.0,-1,-0.023634026499999995,0.09811553325,-0.0607816167,-0.00842,0.093463,0.006025,-0.3287581346,-9.702307244,1.3883274405,-2.9091,1.4248,-0.66195,-0.00014999999999998348,0.0012999999999996348,-0.0004999999999999449,-0.0076515951050191156,0.02818331531943641,-0.023725797149812156
150000000000.0,-1,-0.017092990949999998,0.12263215825,-0.06249778045,-0.007198,0.093491,0.007244,-0.33170993625,-9.702601443499999,1.3857777114999998,-2.9066,1.425,-0.66338,0.00036999999999998145,-0.00019999999999997797,-4.999999999999449e-05,-0.00090458550370065,-0.00041710202307632116,-0.0005947574794096244
150000000000.0,-1,-0.0063350959,0.1460406318,-0.08419989689999999,0.003781,0.095023,0.008573,-0.33424005195,-9.7027975765,1.3836202484999998,-2.9046,1.4251,-0.66445,-0.00012000000000000899,-0.0007999999999999119,0.00013999999999991797,-0.012355293303483394,-0.0035134971785932834,0.0016301286810309623
150000000000.0,-1,0.0212412039,0.12523092049999998,-0.09164314424999999,0.021029,0.091883,0.013662,-0.33652500139999997,-9.7027975765,1.383129916,-2.9029,1.4251,-0.6651,0.0005500000000000504,-0.00039999999999995595,4.0000000000040004e-05,0.0017481636112355314,0.0005102060275894438,3.253669652591995e-06
150000000000.0,-1,0.0212412039,0.12523092049999998,-0.09164314424999999,0.021029,0.091883,0.013662,-0.33652500139999997,-9.7027975765,1.383129916,-2.9029,1.4251,-0.6651,0.0014100000000000223,-0.00039999999999995595,0.00046000000000001595,0.010334691234538118,-0.02030322294557152,0.017297256780183234
150000000000.0,-1,0.07366755479999999,0.138862164,-0.10046912925,0.044429,0.089025,0.005596,-0.338525558,-9.702209177499999,1.3867583765,-2.9022,1.4247,-0.66492,-0.00046000000000001595,0.000500000000000167,-0.0007000000000000339,-0.007923950546234515,0.018925308744588865,-0.013712425608105594
150000000000.0,-1,0.12827098199999998,0.15009077824999997,-0.0991256182,0.063006,0.083594,-0.001295,-0.34000636214999996,-9.701326579,1.3925442999999997,-2.9021,1.4241,-0.66405,0.00029000000000001247,-0.00020000000000042206,-0.00015999999999993797,-0.005452473489441445,0.000689316667467299,-0.001027963996993897
150000000000.0,-1,0.1534152326,0.13584171579999998,-0.10480366854999999,0.080284,0.080551,-0.009443,-0.33596602234999995,-9.7006401135,1.3979379575,-2.9057,1.4237,-0.65958,0.0008899999999999464,-0.00019999999999997797,4.999999999999449e-05,0.00797886852490337,0.002512451995695164,0.001058597519534521
150000000000.0,-1,0.14401065524999998,0.15311122645,-0.18404140054999998,0.096452,0.073847,-0.017553,-0.33135689684999997,-9.700149781,1.4028412825,-2.9096,1.4233,-0.65487,0.000300000000000078,-0.00019999999999997797,-4.0000000000040004e-05,-0.0028646375269740787,0.0013456896068475555,-0.0011250937555975504
150000000000.0,-1,0.1260546791,0.11949403025,-0.22177738974999997,0.10144,0.071615,-0.022268,-0.32671835139999994,-9.699561381999999,1.4076465409999999,-2.9135,1.4229,-0.65018,0.0005099999999998994,-0.00019999999999997797,1.0000000000065512e-05,0.0014498620761329573,-0.0004942929401230423,0.0017774006228996608
150000000000.0,-1,0.0946341725,0.07336354865,-0.2807055496,0.104,0.068057,-0.020981,-0.32282511134999997,-9.6992671825,1.4108827355,-2.9167,1.4227,-0.6463,0.000520000000000076,-0.0002999999999997449,-1.0000000000065512e-05,0.0006834843274636793,0.0007204497221278139,0.0002913573845673145
150000000000.0,-1,0.06276256,0.06634198725,-0.2690356361,0.1054,0.063324,-0.029317,-0.3208932013,-9.697796185,1.421571984,-2.9196,1.4216,-0.64264,0.00039000000000000146,-0.000500000000000167,2.999999999997449e-05,-0.0008742152481961973,-9.146017258898631e-05,0.0025746012803429252
150000000000.0,-1,0.03774579585,0.07691355594999999,-0.2825491998,0.10918,0.059803,-0.028013,-0.318912258,-9.696227121,1.4325554319999998,-2.9225,1.4206,-0.63899,0.0036399999999999766,0.000500000000000167,0.001960000000000073,-0.024952994820718555,-0.0007279242130653341,0.007097070774468861
150000000000.0,-1,0.06431201069999999,0.08543553479999999,-0.23936071319999996,0.10187,0.058347,-0.024482,-0.31704899449999996,-9.6947561235,1.4430485475,-2.9253,1.4196,-0.63553,-0.0026199999999999557,-0.00140000000000029,-0.0022500000000000853,0.022484057155936155,0.002878773726983308,-0.008763897301607537
150000000000.0,-1,0.0855728279,0.1375872995,-0.1860517638,0.099428,0.058378,-0.020863,-0.31301846135,-9.694069657999998,1.4483441384999998,-2.9288,1.4191,-0.63145,0.0016499999999999293,-0.0002999999999997449,0.0007100000000000994,-0.018929232361014403,-0.005850718855894277,0.013292858316993339
150000000000.0,-1,0.0923982563,0.12637829855,-0.1113643174,0.09692,0.05945,-0.012492,-0.3068304652,-9.6937754585,1.4516783994999998,-2.9333,1.4189,-0.62628,-9.99999999995449e-06,-0.002000000000000224,-0.00031000000000003247,0.024534767967725246,-0.018033594526552177,0.01242897464548176
150000000000.0,-1,0.11100147134999999,0.13340966659999998,-0.1207198615,0.09093,0.054364,-0.002876,-0.30418266969999996,-9.692892859999999,1.4581507884999998,-2.9359,1.4183,-0.62304,8.999999999992347e-05,0.000800000000000356,-0.00041999999999997595,-0.00576174292833409,0.023185035965264778,-0.022560659434276875
150000000000.0,-1,0.12644694509999999,0.09292781539999999,-0.12504459415,0.076263,0.052677,0.001761,-0.3013779678,-9.6922063945,1.4632502465,-2.9385,1.4179,-0.61995,0.0008500000000000174,-0.000500000000000167,-9.99999999995449e-06,0.0010934890450169377,0.0019249466611732657,-0.003053922805889897
150000000000.0,-1,0.12830040194999998,0.09187850385,-0.13164446959999998,0.063644,0.063088,0.013476,-0.30323142464999997,-9.691127663,1.469820702,-2.9381,1.4172,-0.61962,0.00036999999999998145,-0.0005999999999999339,-1.0000000000065512e-05,-0.0008634082572529511,0.0014354651159507181,0.00032989964317331477
150000000000.0,-1,0.18288421584999998,0.07967903125,-0.09232960974999999,0.07328,0.068198,0.015938,-0.30050517595,-9.690441197499998,1.4748220934999998,-2.9406,1.4167,-0.61651,-0.00017999999999995797,-0.001200000000000312,9.999999999998899e-05,-0.01162368047015705,-0.003449623513692268,0.006874141955238278
150000000000.0,-1,0.18288421584999998,0.07967903125,-0.09232960974999999,0.07328,0.068198,0.015938,-0.30050517595,-9.690441197499998,1.4748220934999998,-2.9406,1.4167,-0.61651,0.0006000000000000449,-0.0005999999999999339,9.99999999995449e-06,-0.000266332144508441,-0.0015634013367653576,-0.0010528879547486714
150000000000.0,-1,0.192798739,0.0254776767,-0.08660252615,0.078435,0.059848,0.02214,-0.29814177329999997,-9.6896566655,1.4805099505,-2.9429,1.4162,-0.61362,0.0010999999999999899,-0.00019999999999997797,-5.999999999994898e-05,0.012517415636103202,0.007161846424732943,-0.002212689198199058
150000000000.0,-1,0.20112458484999998,0.13749903965,-0.054662267099999995,0.068587,0.060715,0.028009,-0.29644522284999997,-9.688774066999999,1.4869823394999997,-2.9448,1.4156,-0.61106,0.0010499999999999954,-0.0019999999999997797,0.00031000000000003247,0.011180307472067774,-0.021959752133256183,0.026598949579300868
150000000000.0,-1,0.14465789415,0.0457186023,0.023222147199999998,0.061226,0.060449,0.033928,-0.29683748885,-9.687597269,1.4941411939999998,-2.9455,1.4148,-0.60982,-0.0006599999999999939,-0.000500000000000167,-2.0000000000020002e-05,-0.0248789421269644,0.017752640675753106,-0.02504621240793692
150000000000.0,-1,0.17774553124999998,0.1791282689,-0.031626446249999995,0.048808,0.064849,0.04212,-0.30209385325,-9.686616604,1.499240652,-2.9428,1.4142,-0.61188,0.00043999999999999595,-0.0005999999999999339,-0.00017000000000000348,0.0024006829906235705,0.001971444368228381,0.0016174642135162731
150000000000.0,-1,0.2688591164,0.18178587105,-0.14955141249999998,0.035369,0.063207,0.045572,-0.30776209695,-9.685832072,1.5031633119999999,-2.9396,1.4137,-0.61436,0.0012900000000000134,-0.000300000000000189,0.00027999999999994696,0.016066043893484316,0.004248322317473852,-0.00011751893741962505
150000000000.0,-1,0.24816708489999997,0.12093560779999998,-0.20700857485,0.009569,0.064819,0.048811,-0.31386183324999994,-9.685439806,1.504536243,-2.9359,1.4134,-0.61742,-9.00000000000345e-05,-0.0015999999999998238,0.00019999999999997797,-0.008017037338192923,-0.004960125294923845,0.004713891239335188
150000000000.0,-1,0.24649014775,0.05047482755,-0.0693526288,-0.012453,0.062883,0.056961,-0.3129302015,-9.6859301385,1.5016923144999998,-2.9361,1.4137,-0.61663,0.0016500000000000403,-0.0015000000000000568,0.00048000000000003595,0.010583439429239894,-0.021669041790241428,0.016036410930303946
150000000000.0,-1,0.20587100345,0.07012735415,-0.0222807088,-0.03584,0.065786,0.05901,-0.31376376675,-9.686420470999998,1.4983580535,-2.9352,1.4141,-0.61701,0.00046000000000001595,-0.0009000000000001229,-5.999999999994898e-05,0.003191062669935407,0.0009637707256184846,0.00017609580931821078
150000000000.0,-1,0.20392928675,0.06669502664999999,0.03201871225,-0.06413,0.068522,0.063401,-0.3151072778,-9.687205002999999,1.4930624625,-2.9336,1.4146,-0.61799,-0.0007500000000000284,-0.0004999999999997229,-0.00047000000000008146,-0.011911311598793883,0.021355845868403556,-0.019024797384396663
150000000000.0,-1,0.1791282689,0.01419022255,0.0529951366,-0.091079,0.067673,0.067861,-0.31800023954999995,-9.688283734499999,1.4856094085,-2.9307,1.4153,-0.62025,0.0005899999999999794,-0.001100000000000101,0.000140000000000029,0.002527444452919081,0.003050347174035961,0.0002587006317527063
150000000000.0,-1,0.20191892349999999,0.012366185649999998,0.0661556609,-0.11922,0.066879,0.07114,-0.32057938849999995,-9.689754731999999,1.4754104925,-2.9276,1.4162,-0.62274,0.0017899999999999583,-0.0015000000000000568,0.0005500000000000504,0.008706158007916187,-0.02275807665718954,0.018299636966099708
150000000000.0,-1,0.20783233345,-0.044012245199999994,0.112580342,-0.14138,0.069844,0.069595,-0.3232075707,-9.691421862499999,1.463740579,-2.9243,1.4173,-0.62549,-0.0004999999999999449,-0.000700000000000145,-0.00031999999999998696,-0.007218006421042977,0.02553446722113839,-0.017654565452511983
150000000000.0,-1,0.20938178414999997,-0.04031513815,0.11844471869999999,-0.16587,0.069086,0.07168,-0.32595343269999993,-9.693481259,1.4494228699999998,-2.9204,1.4187,-0.62877,0.0008899999999999464,-0.0011999999999998678,1.999999999990898e-05,0.004955185189570388,-0.003071485000897267,0.0018475300920879345
150000000000.0,-1,0.24711777335,-0.0190445143,0.13294875404999998,-0.17933,0.068705,0.067892,-0.3216385067,-9.695442588999999,1.4371645575,-2.9214,1.42,-0.62719,0.0005899999999999794,-0.0009000000000001229,-0.00017999999999995797,0.0012551578776389682,0.003511053197003511,0.0014883238409231225
150000000000.0,-1,0.2414201097,0.03617673185,0.14812944825,-0.20019,0.069266,0.070007,-0.3235802234,-9.697796185,1.4204932525,-2.9176,1.4217,-0.63039,0.0007300000000000084,-0.0011999999999998678,-0.00021999999999999797,0.0010851658055877067,0.0010463884693405756,0.0009034577875417504
150000000000.0,-1,0.2414201097,0.03617673185,0.14812944825,-0.20019,0.069266,0.070007,-0.3235802234,-9.697796185,1.4204932525,-2.9176,1.4217,-0.63039,0.0008900000000000574,-0.0013000000000000789,0.000140000000000029,-0.0018503467684374275,-0.002789485416184956,-0.00034113274056246645
150000000000.0,-1,0.2464215012,0.0802772369,0.19738825119999998,-0.20756,0.070322,0.060266,-0.3248354746,-9.700149781,1.4040180804999998,-2.9142,1.4233,-0.63318,0.0010599999999999499,-0.0009999999999998899,-6.0000000000060005e-05,0.0038232702867400103,0.002240258771700754,0.001352239317593762
150000000000.0,-1,0.2464215012,0.0802772369,0.19738825119999998,-0.20756,0.070322,0.060266,-0.3248354746,-9.700149781,1.4040180804999998,-2.9142,1.4233,-0.63318,0.0008700000000000374,-0.001100000000000101,-0.00012999999999996348,-0.000724521128672162,0.0030411231471554334,0.000151094994230494
150000000000.0,-1,0.24464649754999998,0.0989687118,0.19024901,-0.20507,0.069188,0.060314,-0.32590439945,-9.702601443499999,1.3872487089999999,-2.9108,1.425,-0.63597,0.0007200000000000539,-0.0017000000000000348,0.000140000000000029,-0.0038920543022453735,-0.00732522695715998,0.001656350861726441
150000000000.0,-1,0.22570985639999996,0.22238540205,0.07774712119999999,-0.18306,0.071079,0.058175,-0.32925827375,-9.7073086355,1.3528273674999998,-2.9028,1.4283,-0.64271,0.0020399999999999308,-0.0017000000000000348,0.00041999999999997595,0.008711925230177053,-0.0206361024636319,0.01665373681972704
150000000000.0,-1,0.22570985639999996,0.22238540205,0.07774712119999999,-0.18306,0.071079,0.058175,-0.32925827375,-9.7073086355,1.3528273674999998,-2.9028,1.4283,-0.64271,-0.00032999999999994145,-0.0008999999999996788,-0.0006599999999999939,-0.00671516192811672,0.023146282353526892,-0.016225802207942897
150000000000.0,-1,0.25249181755,0.23541843989999997,0.0388539473,-0.15374,0.074418,0.053708,-0.33000357915,-9.7094660985,1.3373328604999999,-2.8997,1.4299,-0.64519,0.0009099999999999664,-0.001200000000000312,0.00021999999999999797,0.0036741855358233266,0.00045742596111786327,0.00037791675183562745
150000000000.0,-1,0.29904398509999996,0.28134298184999995,0.025889555999999998,-0.075276,0.075746,0.031885,-0.3330142207,-9.7122119605,1.3159543635,-2.8937,1.4319,-0.64969,0.00043000000000004146,-0.0013999999999998458,-4.999999999999449e-05,-0.002444009655998558,0.001587107290226708,-0.0011635221349191038
150000000000.0,-1,0.2919635838,0.28707006544999997,-0.0460324151,-0.042016,0.072055,0.013134,-0.3287777479,-9.7131926255,1.3100703734999999,-2.8957,1.4326,-0.647,0.0010599999999999499,-0.0015999999999998238,1.0000000000065512e-05,0.00453180694462918,-0.002250021012591752,0.0038600467158340646
150000000000.0,-1,0.26382830495,0.2720560843,-0.14002915535,-0.01494,0.069316,0.00391,-0.3238351963,-9.714075224,1.3049709154999998,-2.8984,1.4333,-0.64366,0.0007500000000000284,-0.00140000000000029,9.99999999995449e-06,-0.00017522973325823088,0.0013375483239612684,-0.002801998297374375
150000000000.0,-1,0.18845439305,0.2458331022,-0.203389921,-0.007485,0.067228,-0.010399,-0.3195398836,-9.714859756,1.2996753245000001,-2.9005,1.4339,-0.6408,0.0009799999999999809,-0.0013999999999998458,0.00029999999999996696,0.005785583734391642,-0.0009612435538639552,0.004128386120181959
150000000000.0,-1,0.1454522328,0.24490147044999996,-0.25375687539999997,-0.012371,0.067124,-0.01648,-0.3154407039,-9.715938487499999,1.2930068024999999,-2.9023,1.4347,-0.6383,0.0014199999999999768,-0.0030000000000001137,5.999999999994898e-05,0.015330529202023602,-0.02375094053293081,0.02342357140608753
150000000000.0,-1,0.12037662874999999,0.24695106029999997,-0.28291204584999996,-0.025834,0.068066,-0.02385,-0.31415603275,-9.7163307535,1.2902609404999998,-2.9028,1.435,-0.63711,-0.00017000000000000348,-0.0010499999999997733,-0.0005799999999999139,-0.01633658999201071,0.027253715981240934,-0.022658199976553828
150000000000.0,-1,0.10568626704999999,0.1607898334,-0.17727481204999998,-0.05885,0.065886,-0.027874,-0.31219470275,-9.7171152855,1.2848672829999999,-2.9032,1.4356,-0.6359,0.0005100000000000104,-0.0010500000000002174,0.00034000000000000696,0.0010783013785204965,-0.005487389777383056,-0.00016097735396014556
150000000000.0,-1,0.09280032894999998,0.06414529765,-0.08116964204999999,-0.089725,0.073441,-0.032006,-0.30991955995,-9.7182920835,1.2761393644999999,-2.9034,1.4365,-0.63502,0.00048000000000003595,-0.0013000000000000789,-0.00019000000000002348,0.002153390309424408,0.004642355958206279,-0.004332212972529392
150000000000.0,-1,0.09280032894999998,0.06414529765,-0.08116964204999999,-0.089725,0.073441,-0.032006,-0.30991955995,-9.7182920835,1.2761393644999999,-2.9034,1.4365,-0.63502,0.0019500000000000073,-0.0028999999999999027,0.0009000000000000119,0.00912651344522697,-0.03228689546384933,0.021923346210060313
150000000000.0,-1,0.11445341215,0.0163574922,0.11045229895,-0.11682,0.07744,-0.030021,-0.30778171025,-9.7198611475,1.2645675175,-2.9028,1.4377,-0.63472,-0.00038000000000004697,-0.0005999999999999339,-0.0005399999999999849,-0.00488668328432218,0.027319049643779847,-0.014028957660002783
150000000000.0,-1,0.17452895005,-0.028213732049999996,0.24342066629999998,-0.1313,0.071036,-0.040956,-0.30022078309999994,-9.721136012,1.257016397,-2.9071,1.4386,-0.62967,0.00043999999999999595,-0.0017999999999998018,0.00025999999999992696,0.0014353733325751517,-0.0022964644053460326,-0.0036006679437095013
150000000000.0,-1,0.19595648029999999,-0.043247326499999995,0.3653173258,-0.12893,0.074848,-0.056618,-0.29576856399999996,-9.7229992755,1.2433851535,-2.9081,1.4401,-0.62794,0.0005600000000000049,-0.0017000000000000348,1.0000000000065512e-05,0.0019157016364566015,0.0020700089965375312,-0.0007648668798163616
150000000000.0,-1,0.1677133283,-0.048032971699999996,0.41849878874999996,-0.13484,0.068694,-0.066236,-0.2901199336,-9.7249606055,1.2294597105,-2.9099,1.4416,-0.62538,0.0008799999999999919,-0.0019000000000000128,0.00036999999999998145,0.005325049380160429,-0.004188339976835653,-0.004087554107899738
150000000000.0,-1,0.20259558235,0.00012748645,0.4045439257999999,-0.1433,0.066142,-0.083158,-0.28280417269999997,-9.727020002,1.214651669,-2.9128,1.4433,-0.62164,0.00019999999999997797,-0.0019000000000000128,0.00022999999999995246,-0.0004340169797789617,0.0012321131900152604,0.005739984328992476
150000000000.0,-1,0.1683409539,0.2360852921,0.34600803195,-0.15291,0.061121,-0.097654,-0.27383108795,-9.729275531499999,1.1988629624999998,-2.917,1.4451,-0.61676,0.000500000000000056,-0.0022999999999999687,0.00021000000000004349,0.0029204322867650845,-0.0036089052789041176,0.001348840963399045
150000000000.0,-1,0.1305657381,0.1278983293,0.25888575334999997,-0.16741,0.055951,-0.11221,-0.26314183944999997,-9.7316291275,1.181701325,-2.9225,1.447,-0.61066,0.0005199999999999649,-0.0019000000000000128,0.00034000000000000696,0.001214837823803716,0.001206226175734404,0.0010746936027739018
150000000000.0,-1,0.016818404749999998,0.09697796185,0.23661485119999998,-0.18454,0.055495,-0.12086,-0.2515994124,-9.734276923,1.1626764239999998,-2.9285,1.4492,-0.60401,0.0004899999999999904,-0.0020999999999999908,0.0005800000000000249,0.0011285286944242578,-0.001147159422330013,-0.0013707865737480063
150000000000.0,-1,0.0097281968,0.06720497245,0.29223816999999996,-0.19404,0.046841,-0.1341,-0.23852714795,-9.7369247185,1.142670858,-2.9358,1.4515,-0.59609,0.0007500000000000284,-0.0020999999999999908,0.00029999999999996696,0.009028679899890424,-0.0005488149503791728,-0.005033793122330543
150000000000.0,-1,-0.021358883699999998,0.08376840429999999,0.35488305019999994,-0.20647,0.052527,-0.13675,-0.22509203745,-9.738395716,1.1329622744999999,-2.9455,1.4527,-0.58584,9.00000000000345e-05,-0.0024999999999999467,0.00041999999999997595,-0.003547824841435121,0.0007006516086678349,0.00701677040400539
150000000000.0,-1,-0.013954862949999999,0.060428577299999994,0.44201513545,-0.21005,0.050036,-0.14158,-0.2110979479,-9.7412396445,1.110897312,-2.9538,1.4552,-0.57689,0.00039000000000000146,-0.0024000000000001798,0.00024999999999997247,0.002962338510268614,-0.0016536166462435276,5.154940800511376e-05
150000000000.0,-1,0.0110619012,0.02756649315,0.50126691475,-0.2088,0.048821,-0.13553,-0.19751573764999997,-9.7439855065,1.089126549,-2.9622,1.4577,-0.56793,0.00037999999999993594,-0.0026000000000001577,0.00031999999999998696,0.0028445570388062613,0.0014618626527931333,0.0014218827464143047
150000000000.0,-1,0.022682781449999998,0.0746482198,0.46369763859999996,-0.20868,0.043885,-0.12102,-0.1851887786,-9.746633302,1.067355786,-2.9698,1.4601,-0.55977,0.000520000000000076,-0.0023999999999997357,0.000180000000000069,0.002760273464927243,0.0011264030071367337,-0.0004866465241193385
150000000000.0,-1,-0.0029616083000000002,-0.08892670219999999,0.47605401759999993,-0.21961,0.041072,-0.11025,-0.17360712495,-9.747613967,1.0600007985,-2.9792,1.461,-0.54985,0.00036999999999998145,-0.0026999999999999247,2.999999999997449e-05,0.0014279271423338624,0.0004741348798102951,0.0008589459479255712
150000000000.0,-1,0.059428299,-0.0966347291,0.39980731384999996,-0.23679,0.040449,-0.096037,-0.16387892815,-9.750457895499999,1.035778373,-2.9847,1.4637,-0.54395,0.00039999999999995595,-0.0027000000000003688,0.00012000000000000899,0.002763576038850246,0.0024153371198201157,0.0010103196180528684
150000000000.0,-1,0.059428299,-0.0966347291,0.39980731384999996,-0.23679,0.040449,-0.096037,-0.16387892815,-9.750457895499999,1.035778373,-2.9847,1.4637,-0.54395,0.00045000000000006146,-0.0028999999999999027,-0.00017999999999995797,0.002460215846825209,0.0007561654309475863,0.0005443062776218088
150000000000.0,-1,0.1092068544,-0.1973686379,0.37513378245,-0.24702,0.052063,-0.073479,-0.1562003212,-9.7532037575,1.0101830165,-2.9882,1.4664,-0.5399,0.0005799999999999139,-0.0026999999999999247,-0.00019000000000002348,-0.0005277563899137583,0.0009720799985153405,0.0022122164902622643
150000000000.0,-1,0.1179543862,-0.25317828305,0.40884904515,-0.26192,0.056274,-0.049677,-0.15116950975,-9.756047685999999,0.9831166625,-2.989,1.4692,-0.53848,0.0003700000000000925,-0.0030999999999998806,-0.00041999999999997595,0.002605683373103629,0.001705644503459558,0.0011491446781513037
150000000000.0,-1,0.18466902615,-0.3422716983,0.5842213670999999,-0.26707,0.061963,-0.022157,-0.1420199053,-9.757028351,0.9745554570499999,-2.9969,1.4702,-0.53002,0.00047999999999992493,-0.0031000000000003247,-0.0003500000000000725,0.0017476380113747858,0.0027194467474898065,0.0015406631910011015
150000000000.0,-1,0.22948541665,-0.31898090455,0.6135334439499999,-0.265,0.07147,0.009016,-0.13461588454999998,-9.758107082499999,0.9655921789499999,-3.0031,1.4712,-0.52316,0.0006800000000000139,-0.0028999999999999027,-0.0005100000000000104,-0.00030186963733402905,0.001925607329840373,0.0006081394305148535
150000000000.0,-1,0.23819372185,-0.09079977234999999,0.57511098925,-0.25696,0.085967,0.043808,-0.1308991642,-9.758989681,0.9571780732499999,-3.0057,1.4721,-0.51977,0.0005699999999999594,-0.0032999999999998586,-0.0006800000000000139,-0.0006205672207582058,0.0016183729173346872,0.0007003018358189284
150000000000.0,-1,0.28004850405,0.0829446457,0.52293961125,-0.24365,0.089831,0.06679,-0.12876131449999997,-9.7596761465,0.9496367594,-3.0068,1.4729,-0.51779,0.0006800000000000139,-0.0030999999999998806,-0.0005999999999999339,0.0010031933575656016,0.0033210127959197866,0.0012084020255855865
150000000000.0,-1,0.35703070655,0.3247177948,0.43238500514999995,-0.22944,0.10337,0.093259,-0.13885235734999998,-9.761931676,0.9252770408,-2.9926,1.4752,-0.53098,0.0006400000000000849,-0.0034000000000000696,-0.0007099999999999884,0.00022241459703598032,0.0020293864207359125,0.0013388395625748561
150000000000.0,-1,0.38597993734999997,0.5882224803,0.35198028179999996,-0.21256,0.10971,0.12227,-0.15210114149999998,-9.763893006,0.9024275463,-2.9746,1.4773,-0.54791,0.0005799999999999139,-0.0033000000000003027,-0.0007900000000000684,-0.0004981026028072488,0.003936035991593867,0.0020038924861849328
150000000000.0,-1,0.43001179585,0.81274573205,0.30148584095,-0.17859,0.11905,0.14425,-0.16754661524999998,-9.765364003499998,0.8825985,-2.954,1.4791,-0.56738,0.0006400000000000849,-0.0035999999999996035,-0.0009399999999999409,-0.0005234268458975677,0.0009967574941784907,0.00278507842802167
150000000000.0,-1,0.45932387269999997,0.9400164357499999,0.2329471641,-0.14342,0.12967,0.16022,-0.1851887786,-9.7665408015,0.86644694745,-2.931,1.4803,-0.58908,0.0005999999999999339,-0.0035000000000002807,-0.0008200000000000429,-0.000917104828015658,0.0027427473956658233,0.0013691954175405474
150000000000.0,-1,0.46745358555,1.0201857994999999,0.1806581063,-0.10448,0.13671,0.18471,-0.20498840495,-9.767227266999999,0.85438476795,-2.9061,1.4811,-0.61266,0.0005800000000000249,-0.0036999999999998145,-0.0009799999999999809,-0.0013610708140594507,0.0045100204070636085,0.0022758572290413337
150000000000.0,-1,0.4754067787,1.0611775964999999,0.16778197485,-0.061809,0.14274,0.19963,-0.22671013469999998,-9.7674234,0.8464708014,-2.8799,1.4813,-0.63746,0.0006800000000000139,-0.0036000000000000476,-0.0010000000000000009,-0.0008151489879288931,0.0018671094337150418,0.00279405552343448
150000000000.0,-1,0.45444016099999995,1.0853019555,0.1202687556,-0.016649,0.14762,0.21461,-0.25004015505,-9.7671292005,0.8433915133,-2.8534,1.481,-0.66251,0.0006199999999999539,-0.0039000000000002366,-0.0011400000000000299,0.0007625017255346034,0.004327929850322487,0.0012544528435414204
150000000000.0,-1,0.47820167394999996,1.0763779039999999,0.1040877831,0.021091,0.15472,0.22705,-0.27485097955,-9.7663446685,0.8440191389,-2.8268,1.4802,-0.68757,0.0007099999999999884,-0.0038999999999997925,-0.0012199999999999989,-0.001606638491455037,0.003258166381813421,0.001754039125683171
150000000000.0,-1,0.47820167394999996,1.0763779039999999,0.1040877831,0.021091,0.15472,0.22705,-0.27485097955,-9.7663446685,0.8440191389,-2.8268,1.4802,-0.68757,0.0005800000000000249,-0.004100000000000215,-0.0012199999999999989,-8.84957568711986e-05,0.003959090373416796,0.00235356017649635
150000000000.0,-1,0.508572869,1.0397990995,0.054319034349999996,0.04529,0.16385,0.23687,-0.3005738225,-9.765364003499998,0.8475495329,-2.8008,1.479,-0.71194,0.0007200000000000539,-0.0041999999999999815,-0.0013599999999999168,-0.0020733638711512015,0.0033450804781904875,0.0035957845708467495
150000000000.0,-1,0.5313831368999999,1.0017492975,0.02676234785,0.056019,0.17256,0.24652,-0.3275813366,-9.7639910725,0.8525116977999999,-2.7747,1.4775,-0.73628,0.0006499999999999284,-0.0042999999999997485,-0.0012800000000000589,-0.0006806212493257746,0.004284919018959776,0.0018435032881520819
150000000000.0,-1,0.5604304341999999,0.95890404365,-0.03554910625,0.065292,0.18849,0.25604,-0.3557264221,-9.762520075,0.8584054944499999,-2.7487,1.4759,-0.76041,0.0007500000000000284,-0.0043000000000001926,-0.0013499999999999623,-0.0011034615949310211,0.004666181610886833,0.0021800345140221555
150000000000.0,-1,0.527793903,0.8975438345999999,-0.0550545331,0.06119,0.20031,0.27507,-0.38578380435,-9.7608529445,0.8641423846999999,-2.7217,1.4741,-0.78545,0.0007399999999999629,-0.0044999999999997264,-0.0014000000000000679,-0.002925398251029998,0.003440690597871443,0.0033313042166966955
150000000000.0,-1,0.5090043616,0.7492280599999999,0.0490528633,0.071799,0.21264,0.28707,-0.39976808725,-9.759381947,0.87495911965,-2.713,1.4725,-0.79212,0.0007599999999999829,-0.0045999999999999375,-0.0012900000000000134,-0.0010116291966175694,0.003989440543944234,0.0026774013088117776
150000000000.0,-1,0.5464755712499999,0.69840019305,0.13771478595,0.078607,0.22844,0.30378,-0.4330420507,-9.7573225505,0.8819120344999999,-2.6851,1.4704,-0.81772,0.0008100000000000884,-0.0046000000000003816,-0.0014099999999999113,-0.0014946799756245799,0.0036950623573670516,0.002727702344842209
150000000000.0,-1,0.58668283625,0.67003936125,0.24534276969999996,0.088021,0.23949,0.31939,-0.46831657074999994,-9.754968954499999,0.8895121882499999,-2.657,1.4681,-0.84349,0.0007499999999999174,-0.004899999999999682,-0.0013800000000000479,-0.002566765511915925,0.0037769925039889962,0.002702491750996572
150000000000.0,-1,0.6255073635999999,0.6630079931999999,0.28882545579999996,0.10477,0.25074,0.33871,-0.5053562878,-9.752321159,0.89869121265,-2.6293,1.4655,-0.86861,0.0007300000000000084,-0.0051000000000001044,-0.0012799999999999478,-0.0016239322610707152,0.0035984615179662782,0.0023878455486030514
150000000000.0,-1,0.68441591015,0.70908944155,0.24896142354999998,0.12411,0.25849,0.34968,-0.52490094125,-9.749281097499999,0.9198539633499999,-2.623,1.4626,-0.87243,0.0008200000000000429,-0.004999999999999893,-0.0013300000000000534,-0.0007839767302022516,0.004843641344138394,0.002909660722470786
150000000000.0,-1,0.75673014725,0.7393037302,0.21734478394999998,0.1423,0.26379,0.36188,-0.5647453602,-9.74584877,0.9327693214,-2.5972,1.4594,-0.89563,0.0008200000000000429,-0.0051000000000001044,-0.0011700000000000044,-0.002653372476439486,0.0039470276274065075,0.0028017688780006544
150000000000.0,-1,0.8135792972999999,0.7521112150999999,0.11892524455,0.15306,0.27129,0.37395,-0.6057371572,-9.7420241765,0.94664573115,-2.5724,1.4559,-0.91771,0.0006799999999999029,-0.005300000000000082,-0.0010700000000000154,-0.0009539885122680225,0.004802877361056002,0.0018483300408083103
150000000000.0,-1,0.83288859115,0.71748393395,0.05424058115,0.17011,0.27416,0.38136,-0.62938099035,-9.7386899155,0.9655431457,-2.5639,1.453,-0.92348,0.0007400000000000739,-0.005599999999999827,-0.0011200000000000099,-0.0030848291035385778,0.0029027825043359545,0.002651735220272844
150000000000.0,-1,0.8882667437,0.6959583372,0.014043122799999998,0.1774,0.27685,0.37419,-0.6531817298999999,-9.735257588,0.9839992609999999,-2.5556,1.4501,-0.9291,0.0007800000000000029,-0.00550000000000006,-0.0007999999999999119,-0.002122393309585302,0.004909647349358837,0.002609032907635811
150000000000.0,-1,0.9186771653499999,0.6106208689,0.0135724036,0.18218,0.2806,0.37781,-0.6759723845,-9.731825260499999,1.0029260955,-2.5485,1.4472,-0.93341,0.0008199999999999319,-0.005900000000000016,-0.0010100000000000664,-0.000594749081079371,0.002026773207912891,0.00428516143254587
150000000000.0,-1,0.9302490123499999,0.5082002163,0.037412369749999994,0.19198,0.28091,0.37553,-0.7182096260499999,-9.7269219355,1.0205780654999999,-2.5283,1.4432,-0.95074,0.0008400000000000629,-0.005700000000000038,-0.0007899999999999574,-0.001078882241589918,0.0034755898532345952,0.0014277559936284323
150000000000.0,-1,0.9302490123499999,0.5082002163,0.037412369749999994,0.19198,0.28091,0.37553,-0.7182096260499999,-9.7269219355,1.0205780654999999,-2.5283,1.4432,-0.95074,0.0008399999999999519,-0.006000000000000227,-0.0006000000000000449,-0.003654560341953328,0.004431036646721953,0.0020745407996827225
150000000000.0,-1,0.9453316400499999,0.34995030525,0.07688413599999999,0.2053,0.28619,0.37082,-0.75992711515,-9.721724411,1.0394068335,-2.5103,1.4391,-0.96588,0.0007700000000000484,-0.006299999999999972,-0.0004899999999999904,-0.00044336965674474094,0.0024226234877002817,0.0017612562484654593
150000000000.0,-1,0.9350934974499999,0.21040167574999996,0.10598046655,0.20172,0.2837,0.36479,-0.80117388505,-9.716428819999999,1.0580394684999999,-2.4935,1.435,-0.97977,0.0008199999999999319,-0.006199999999999761,-0.00026999999999999247,-0.001756474947119946,0.0017587551451965222,0.003027582558818631
150000000000.0,-1,0.9546871841499999,0.0713531854,0.1362928217,0.20059,0.28131,0.35639,-0.84155766975,-9.711035162499998,1.0763779039999999,-2.478,1.431,-0.99233,0.0008299999999999974,-0.00649999999999995,-0.00017000000000000348,-0.0018151388552614112,0.0033235520945935626,0.002871444953609581
150000000000.0,-1,0.8918265576499999,-0.31556819035,0.2287499179,0.20185,0.28013,0.35763,-0.8820983608499999,-9.7053473055,1.0946182729999998,-2.4633,1.4269,-1.0042,0.0008200000000000429,-0.006400000000000183,0.00014999999999998348,-0.001846237912787041,0.0017301715909692206,0.0022530673591536488
150000000000.0,-1,0.9113319845,-0.43912217369999995,0.24637246794999998,0.20313,0.27901,0.35044,-0.9219623930999999,-9.699561381999999,1.1129567084999998,-2.4498,1.4229,-1.0148,0.0006899999999999684,-0.006800000000000139,0.00036000000000002697,-0.0004406542706993921,-2.7719700314676743e-05,0.001966205775360441
150000000000.0,-1,0.9500094121,-0.44498655039999996,0.2280830657,0.20327,0.27546,0.34087,-0.9606300140499999,-9.693677392,1.1311970775,-2.4376,1.4189,-1.0242,0.0006800000000000139,-0.006599999999999717,0.0007000000000000339,-0.0003525721196699916,0.0029570590537495445,0.0015334861456366422
150000000000.0,-1,0.9541968516499999,-0.53659046805,0.29146344465,0.20721,0.26844,0.32537,-0.9694658057,-9.689754731999999,1.1568905005,-2.4441,1.4163,-1.0151,0.0005899999999999794,-0.007099999999999884,0.0008799999999999919,-0.0025489650073444725,0.00047529330558027105,0.0012692131978611076
150000000000.0,-1,1.0062603565,-0.6700687811999999,0.36741594889999996,0.20242,0.26599,0.3097,-1.0053777579999998,-9.6839688085,1.175032803,-2.4339,1.4124,-1.0225,0.0007400000000000739,-0.007100000000000328,0.0012099999999999334,-0.0004872612467281545,-0.0010767400950872918,0.0030704213065944064
150000000000.0,-1,1.0472521535,-0.76367325545,0.35220583475,0.20279,0.2565,0.28578,-1.0388184345,-9.678182885,1.1932731719999998,-2.4253,1.4088,-1.0285,0.0006199999999999539,-0.007099999999999884,0.0014800000000000368,0.0016492811449830835,0.0011067205688279902,0.0019051474184743622
150000000000.0,-1,1.0323460455,-0.8469415205999999,0.3286992947,0.19077,0.25155,0.25199,-1.0348957745,-9.6755350895,1.2176917305,-2.4372,1.4071,-1.0142,0.0006500000000000394,-0.007600000000000051,0.0012799999999999478,-0.0003152787156259773,0.0008339932544589868,0.0012451240372659544
150000000000.0,-1,1.017734137,-0.9884122535,0.3029078052,0.17397,0.24281,0.2194,-1.0615698624999999,-9.670729831,1.2333823704999998,-2.4309,1.4041,-1.0178,0.0007199999999999429,-0.007600000000000051,0.0014400000000001079,0.00022872001457407976,-0.0007314087663969904,0.002070917179407772
150000000000.0,-1,0.96596483165,-1.1557137025,0.31516611769999997,0.1499,0.23278,0.16869,-1.0836348249999999,-9.6665129715,1.2467194144999998,-2.4261,1.4016,-1.0202,0.0007900000000000684,-0.007699999999999818,0.0013499999999999623,-0.0009971456170150272,0.0003431760417018648,0.0016897304937597557
150000000000.0,-1,0.8809804027499999,-1.3147775654999998,0.34119296679999994,0.13062,0.22522,0.13003,-1.101090662,-9.663080643999999,1.2582912615,-2.4227,1.3995,-1.0212,0.0008699999999999264,-0.007600000000000051,0.0012799999999999478,-0.001882538154893476,-0.0015992160639202169,0.0006741372491283482
150000000000.0,-1,0.7921125404499999,-1.4707033004999999,0.41692972474999995,0.10912,0.21162,0.081811,-1.1137412405,-9.660334782,1.2677056455,-2.4208,1.3979,-1.0208,0.0007800000000000029,-0.008000000000000007,0.0010700000000000154,-0.0015418059632057446,-0.0006778895307708588,1.6185933944923292e-05
150000000000.0,-1,0.7563182679499999,-1.6279039,0.53047111845,0.085094,0.19908,0.044367,-1.12188076,-9.658569584999999,1.2745703005,-2.4198,1.3968,-1.0196,0.0010700000000000154,-0.008000000000000007,0.0010900000000000354,-0.002546944683605501,-0.0010587727200830344,0.002124474395768905
150000000000.0,-1,0.7563182679499999,-1.6279039,0.53047111845,0.085094,0.19908,0.044367,-1.12188076,-9.658569584999999,1.2745703005,-2.4198,1.3968,-1.0196,0.0011400000000000299,-0.008000000000000007,0.0009500000000000064,-0.0022442852346058473,-0.000785881394422816,0.0008085243681801302
150000000000.0,-1,0.58989941745,-2.2054175185,0.6273706271,0.060917,0.19136,0.006853,-1.1260976194999999,-9.657392787,1.2792774925000001,-2.4198,1.3961,-1.0175,0.0010799999999999699,-0.008099999999999774,0.0007199999999999429,-0.0003798138280537433,-0.0024634257519666747,0.0013301689591778132
150000000000.0,-1,0.5288530211999999,-2.5744417579999994,0.69063332625,0.039148,0.18358,-0.011377,-1.1278628165,-9.657000520999999,1.2812388224999998,-2.4198,1.3958,-1.0155,0.0011600000000000499,-0.008200000000000207,0.0005900000000000905,-0.0052078682177170155,-0.0022704137741358377,-0.0001067915663723884
150000000000.0,-1,0.49873679904999996,-2.8518718865,0.7392448903,0.039486,0.17402,-0.024472,-1.128157016,-9.6567063215,1.283102086,-2.4204,1.3957,-1.013,0.0013099999999999223,-0.008099999999999996,0.0007199999999999429,-0.0028904194728172072,-0.0023578949282438977,0.0006859814582882429
150000000000.0,-1,0.49818762664999994,-2.8521660859999995,0.7364303817499999,0.048452,0.16222,-0.027794,-1.1275686169999999,-9.6563140555,1.2859460145,-2.4217,1.3955,-1.0099,0.0012100000000000444,-0.008299999999999974,0.0005699999999999594,-0.0045676318640317515,-0.002964118415541339,0.0007055967668694318
150000000000.0,-1,0.51152467065,-2.7677308294999996,0.75378815225,0.083232,0.14886,-0.040371,-1.12580342,-9.655823723,1.2919280709999998,-2.4248,1.3952,-1.0051,0.0012199999999999989,-0.008000000000000007,0.0005900000000000905,-0.0020439169964205917,-0.003934381810571708,-7.441640343941458e-06
150000000000.0,-1,0.7575048725999999,-2.161581793,0.7459134123,0.12939,0.125,-0.057459,-1.1219788265,-9.654843057999999,1.3023231199999998,-2.4304,1.3946,-0.99794,0.0011100000000000554,-0.008399999999999963,0.00031999999999998696,-0.0027926964233069285,-0.004393930163382631,0.00032256444744449553
150000000000.0,-1,0.9613949327499999,-1.24544455,0.5633037826499999,0.18047,0.10136,-0.084109,-1.1157025704999999,-9.653372060499999,1.318406026,-2.4393,1.3938,-0.98779,0.0011899999999999133,-0.008299999999999974,0.0006599999999999939,-0.0037187504070264055,-0.004796759786401372,-0.0012406604822765566
150000000000.0,-1,1.085203889,-0.48486038929999997,0.4224508687,0.22417,0.07873,-0.11448,-1.1058959204999999,-9.6516068635,1.3394903234999997,-2.4515,1.3927,-0.9745,0.0011300000000000754,-0.008299999999999974,0.0005999999999999339,-0.0033155257307291297,-0.005156503606180474,0.0007414673586707554
150000000000.0,-1,1.1176639005,0.13760691279999998,0.14730568965,0.2704,0.053784,-0.1484,-1.0923627435,-9.6494494005,1.3655760125,-2.4669,1.3915,-0.95819,0.0010399999999999299,-0.008500000000000174,0.00047000000000008146,-0.0035952456977323966,-0.00562101099443435,-0.00046351608965333746
150000000000.0,-1,1.0986389994999999,0.56789329485,-0.218884428,0.30963,0.01905,-0.1955,-1.0741223745,-9.647193870999999,1.3960746939999997,-2.4858,1.3902,-0.93864,0.0010999999999999899,-0.008599999999999941,0.0006199999999999539,-0.0009103423403740152,-0.007692193512342627,-0.0008059285434192098
150000000000.0,-1,0.9231686110499999,1.0237161934999999,-0.5717865349,0.33758,-0.007509,-0.2501,-1.0496057495,-9.644840275,1.4303979689999997,-2.5085,1.3889,-0.91553,0.0010999999999999899,-0.008299999999999974,0.0009200000000000319,-0.0012237778013153289,-0.005669020334656105,-0.00039394394580538616
150000000000.0,-1,0.8196005804,1.210729009,-0.63757934975,0.35215,-0.036829,-0.31325,-1.0186167355,-9.642682812,1.4666825739999998,-2.5346,1.3877,-0.88938,0.0008800000000001029,-0.009100000000000108,0.00036000000000002697,-0.0016099108479492585,-0.006725656472162056,-0.0001789589447476203
150000000000.0,-1,0.6901724136999999,1.3257610135,-0.60549199095,0.35442,-0.064069,-0.38141,-0.9801746674999999,-9.640917615,1.5039478439999998,-2.564,1.3867,-0.86011,0.0010899999999999244,-0.00869999999999993,0.0008499999999999064,-0.0011022881596245426,-0.006403865590014046,-0.000498994491112903
150000000000.0,-1,0.4315318266,1.1554195029999998,-0.47613247079999993,0.33947,-0.090708,-0.43779,-0.93521117725,-9.6396427505,1.540232449,-2.5959,1.386,-0.82857,0.0010900000000000354,-0.008899999999999908,0.0007300000000000084,-0.0016483055043889916,-0.005137253734623037,-0.002445571388107526
150000000000.0,-1,0.4315318266,1.1554195029999998,-0.47613247079999993,0.33947,-0.090708,-0.43779,-0.93521117725,-9.6396427505,1.540232449,-2.5959,1.386,-0.82857,0.0008599999999999719,-0.009200000000000097,0.0005700000000000705,0.0012343091969879705,-0.0051135162364608355,-0.0024963844903258536
150000000000.0,-1,0.19231821315,0.9200010630999998,-0.42859963824999997,0.31348,-0.11644,-0.49913,-0.8833438054,-9.639054351499999,1.5742615245,-2.6302,1.3857,-0.79482,0.0011499999999999844,-0.009099999999999886,0.0005699999999999594,0.0006486226869870659,-0.00449955061006424,0.0005304673904060753
150000000000.0,-1,0.0160044528,0.6976450809999999,-0.30846817574999996,0.27371,-0.13426,-0.54153,-0.82643581545,-9.639054351499999,1.604760206,-2.666,1.3857,-0.75983,0.0013800000000000479,-0.009000000000000119,0.0007399999999999629,-0.0008819231709984443,-0.004508236156309797,-0.0017497245226070213
150000000000.0,-1,-0.12423064219999999,0.46223644775,-0.15877947015,0.22285,-0.15128,-0.57446,-0.76551690565,-9.6398388835,1.6304536289999998,-2.7026,1.3861,-0.72418,0.0012499999999999734,-0.009299999999999864,0.00029000000000001247,-0.0013010285466861227,-0.005118666088644419,-0.001166782070242789
150000000000.0,-1,-0.18767966769999997,0.46381531839999995,-0.177892631,0.15477,-0.16774,-0.58958,-0.7020580734999999,-9.6414079475,1.6495765965,-2.7392,1.387,-0.68876,0.0011100000000000554,-0.009300000000000086,0.00031999999999998696,0.0008511735051899283,-0.005078805673547793,-0.0017443894836277618
150000000000.0,-1,-0.2679372913,0.2536588089,-0.047101339949999994,0.094957,-0.17562,-0.58666,-0.6438065725,-9.643271211,1.6623252414999998,-2.7721,1.388,-0.65712,0.0012900000000000134,-0.009400000000000075,0.00019000000000002348,-2.236483347339835e-05,-0.005066013500658162,-0.003575581674227335
150000000000.0,-1,-0.26092553654999995,0.05539776585,0.031302826799999996,0.065395,-0.17174,-0.57869,-0.5807890396,-9.64582094,1.670660894,-2.807,1.3894,-0.62348,0.0013499999999999623,-0.009299999999999864,0.00019000000000002348,-0.001594649829802064,-0.0056838683996693895,0.0014807890746995067
150000000000.0,-1,-0.22221868899999997,-0.11046210559999999,0.1417453191,0.039737,-0.17633,-0.55251,-0.52013490935,-9.648272602499999,1.676348751,-2.8407,1.3908,-0.5911,0.0012699999999999934,-0.009300000000000086,9.00000000000345e-05,0.0006079207011437937,-0.0043751162353600215,-0.0008750561939390167
150000000000.0,-1,-0.14981619205,-0.18482593255,0.18245272324999998,0.015618,-0.19053,-0.52857,-0.4615990155,-9.650724265,1.6796830119999997,-2.8734,1.3922,-0.55995,0.0012999999999999678,-0.009400000000000075,-0.000140000000000029,-0.0015158168918132375,-0.005279265760405716,-0.0021623837110889
150000000000.0,-1,0.30090724859999995,-0.08671039929999999,0.20384102689999997,0.00968,-0.19812,-0.50689,-0.405210778,-9.652881727999999,1.6815462755,-2.9051,1.3935,-0.52982,0.0010700000000000154,-0.009299999999999864,-0.000140000000000029,0.0008455113636565148,-0.006735803582782474,-0.0016364318008623702
150000000000.0,-1,0.393835064,-0.1000082167,0.08456274295,0.022164,-0.20631,-0.49217,-0.35044063775,-9.654548858499998,1.6842921375,-2.9365,1.3945,-0.50019,0.0013199999999999878,-0.009200000000000097,-0.000140000000000029,0.003001874866709997,-0.004878032540791555,-0.00038961804866799454
150000000000.0,-1,0.34019268849999995,-0.09880199875,0.08116964204999999,0.025888,-0.2087,-0.48005,-0.29679826225,-9.655823723,1.6877244649999998,-2.9675,1.3952,-0.47092,0.0015100000000000113,-0.009399999999999853,-0.00017999999999995797,-0.00031480098866087936,-0.004370706666601221,-0.0013939639936497716
150000000000.0,-1,0.23185862595,0.3409772205,-0.24830437799999996,0.023741,-0.21846,-0.47754,-0.22586676279999998,-9.657981186,1.6858612015,-3.0084,1.3965,-0.43204,0.0011499999999999844,-0.009500000000000064,-0.0005800000000000249,-0.0007907725869988891,-0.004498334658115333,-0.0006497931449434002
150000000000.0,-1,0.1405292945,0.65389761535,-0.331857036,0.010429,-0.22368,-0.47885,-0.17255781339999998,-9.658765718,1.6877244649999998,-3.0397,1.3969,-0.40266,0.0013300000000000534,-0.009300000000000086,-0.0006099999999999994,0.0034074508152366345,-0.003910094334536263,-0.003144068383966969
150000000000.0,-1,0.03858916775,0.8902280736999999,-0.42142117044999994,-0.006842,-0.21929,-0.49117,-0.1183466522,-9.659550249999999,1.6878225315,-3.0716,1.3974,-0.37268,0.0013699999999999823,-0.009299999999999864,-0.0006399999999999739,-0.0005168465911493669,-0.005720566063060817,0.0008707779312997488
150000000000.0,-1,-0.0710982125,0.987725788,-0.44760492595,-0.022943,-0.21369,-0.49628,-0.06312540605,-9.6604328485,1.686155401,-3.1042,1.3979,-0.34194,0.0013499999999999623,-0.009600000000000053,-0.0007300000000000084,-0.002805156516518359,-0.004437472985944435,0.000845989300167993
150000000000.0,-1,-0.0710982125,0.987725788,-0.44760492595,-0.022943,-0.21369,-0.49628,-0.06312540605,-9.6604328485,1.686155401,-3.1042,1.3979,-0.34194,0.0014199999999999768,-0.009500000000000064,-0.0009099999999999664,0.0039756715263270515,-0.002023653001847814,-0.004213208150281478
150000000000.0,-1,-0.18812096694999997,1.0734359089999999,-0.42605971589999997,-0.046317,-0.21075,-0.50025,-0.00775706015,-9.661315446999998,1.6819385414999999,-3.137,1.3984,-0.31094,0.0012600000000000389,-0.009400000000000075,-0.0010700000000000154,0.002655458522565768,-0.0043932455458555175,0.0005162714628805798
150000000000.0,-1,-0.24337163304999998,1.0745146405,-0.41945003379999996,-0.067329,-0.20535,-0.4994,0.04749360595,-9.6623941785,1.6753680859999998,3.1133,1.399,-0.27974,0.0015399999999999858,-0.009599999999999831,-0.0008799999999999919,0.0016360711296607988,-0.0035397316285898928,-0.0012397829136330252
150000000000.0,-1,-0.4107221153,1.0982467335,-0.33445579825,-0.085917,-0.19995,-0.4877,0.10186167355,-9.6633748435,1.6669343669999999,3.0806,1.3997,-0.24875,0.0013400000000000079,-0.009200000000000097,-0.0010499999999999954,0.0006616088076025761,-0.001387434709273494,-0.0019089594392678322
150000000000.0,-1,-0.54235677825,1.067159653,-0.2704281804,-0.088668,-0.19168,-0.47342,0.15464106384999998,-9.6643555085,1.6576180495000001,3.0486,1.4002,-0.21841,0.0013400000000000079,-0.009800000000000031,-0.0011700000000000044,0.0018167844380023723,-0.004107773455833685,0.00033880921412432485
150000000000.0,-1,-0.6389228607999999,1.0284233855,-0.2001733398,-0.095063,-0.18474,-0.45555,0.20557680394999997,-9.665140040499999,1.6475172,3.0175,1.4007,-0.18885,0.0016599999999999948,-0.009700000000000042,-0.0011800000000000699,-0.0011099395132649903,-0.0004183544160025754,-0.0003817439645783516
150000000000.0,-1,-0.5325305149499999,0.983803128,-0.18870936594999999,-0.089252,-0.17625,-0.43635,0.2545021808,-9.665630372999999,1.6375144169999998,2.9874,1.401,-0.1603,0.0011400000000000299,-0.009599999999999831,-0.0014999999999999458,0.003359063478575175,-0.0030202000674075524,-0.0014254306770051794
150000000000.0,-1,-0.51966419015,1.065590589,-0.2560516315,-0.088279,-0.17036,-0.40995,0.3004365294,-9.6659245725,1.628100033,2.9591,1.4012,-0.13345,0.0014399999999999968,-0.009500000000000064,-0.0012699999999999934,0.0030392629300093343,0.00010374840630156257,0.0001731564166085331
150000000000.0,-1,-0.56275461025,1.0658847884999998,-0.2458331022,-0.094692,-0.1635,-0.38366,0.34353675614999996,-9.6661207055,1.6179011169999997,2.9324,1.4013,-0.10811,0.0017199999999999438,-0.009700000000000042,-0.001060000000000061,0.0022665329161910552,-0.002577938438867111,0.0018541733260450943
150000000000.0,-1,-0.58101459255,1.1204097625,-0.31076293185,-0.10134,-0.14941,-0.35387,0.38348904824999996,-9.6665129715,1.607113802,2.9073,1.4015,-0.084374,0.001060000000000061,-0.009600000000000053,-0.0017399999999999638,0.0008120811001690598,0.0002367396477758188,-0.0030364648894281032
150000000000.0,-1,-0.59101737555,1.1490451805,-0.37819345725,-0.11533,-0.13682,-0.31454,0.4192342875,-9.667003304,1.5948554894999998,2.8845,1.4018,-0.062768,0.0015600000000000058,-0.00969999999999982,-0.0012799999999999478,-0.00032266869210739735,0.00046196440311652154,-0.00020088113096528026
150000000000.0,-1,-0.5869770357499999,1.1513987765,-0.40861368555,-0.13287,-0.12797,-0.27519,0.45094899359999996,-9.6678859025,1.581028113,2.8637,1.4024,-0.043062,0.0014499999999999513,-0.009500000000000064,-0.0014200000000000879,0.002696749870756854,0.002244508707783366,0.0002567286208670083
150000000000.0,-1,-0.5953126882499999,1.082850293,-0.34760651589999997,-0.15439,-0.10955,-0.23724,0.47829974044999995,-9.669160767,1.5649452069999998,2.845,1.4031,-0.025261,0.0009900000000000464,-0.009700000000000042,-0.0013399999999998968,0.008497029164507008,-0.0016760546531049414,-0.001961938123486995
150000000000.0,-1,-0.571531562,0.9978266374999999,-0.28432420345,-0.1685,-0.093377,-0.19315,0.5009040686999999,-9.670827897499999,1.5472932369999999,2.8285,1.4042,-0.009611,0.0014799999999999258,-0.009800000000000031,-0.0013400000000000079,-0.0011808292662076614,0.0004799797950547635,-0.0005598847162893161
150000000000.0,-1,-0.53384460605,0.8870016858499999,-0.14683497045,-0.18867,-0.07854,-0.15633,0.5193307640499999,-9.672985360499998,1.5278760699999998,2.8139,1.4055,0.004269,0.0014800000000000368,-0.009600000000000053,-0.001060000000000061,-0.0016735760316310966,0.0006925759591047687,6.683259132067576e-05
150000000000.0,-1,-0.49151910465,0.82333691405,-0.08644561975,-0.1992,-0.058569,-0.12066,0.53357001985,-9.675437023,1.507085972,2.8013,1.407,0.016358,0.0016399999999999748,-0.009799999999999809,-0.0008700000000000374,0.00527037093139926,-0.0031657354236072077,0.005752575618782174
150000000000.0,-1,-0.49151910465,0.82333691405,-0.08644561975,-0.1992,-0.058569,-0.12066,0.53357001985,-9.675437023,1.507085972,2.8013,1.407,0.016358,0.0010499999999999954,-0.009700000000000042,-0.0008199999999999319,0.009987355157062616,0.001849164472219167,-0.0037221915784169113
150000000000.0,-1,-0.464246811,0.76210419145,-0.04790548524999999,-0.2107,-0.047113,-0.081268,0.51317218785,-9.67916355,1.490218534,2.81,1.4094,0.007592,0.0015400000000000968,-0.009500000000000064,-0.0006099999999999994,-0.006003864615331089,0.002664279561682248,0.0017193022089103671
150000000000.0,-1,-0.42816814564999994,0.76400668155,-0.0206528049,-0.21954,-0.041578,-0.047771,0.4929606822,-9.682693944,1.4739394949999998,2.8188,1.4116,-0.001427,0.0012099999999999334,-0.009600000000000053,-0.0005500000000000504,0.00476271925116678,-0.0016398451050321228,-0.0011639182207343612
150000000000.0,-1,-0.42634410874999995,0.7636634487999999,-0.0174362237,-0.22464,-0.037069,-0.023835,0.47123895244999997,-9.686420470999998,1.456679791,2.8287,1.414,-0.011419,0.0012300000000000644,-0.009700000000000042,3.0000000000085514e-05,-0.0030619487529806033,0.008193105820013091,-0.005023243958724555
150000000000.0,-1,-0.47115069260000003,0.7982024700999999,0.027076160649999997,-0.23728,-0.026728,-0.002495,0.4725040103,-9.689950864999998,1.4323592989999998,2.823,1.4164,-0.005908,0.0013099999999999223,-0.009399999999999853,9.999999999998899e-05,-0.0015931653617600183,0.0007250915155097015,5.748988617160222e-06
150000000000.0,-1,-0.4343757551,0.6680093846999999,0.0506807672,-0.2388,-0.019729,0.026261,0.47088591304999994,-9.693677392,1.4073523415,2.8187,1.4189,-0.001834,0.0014600000000000168,-0.009600000000000053,0.0005600000000000049,0.005193361164627763,-0.0017678071169260345,0.005391472449475465
150000000000.0,-1,-0.49973707734999995,0.43389522924999996,0.1074612707,-0.22775,-0.021979,0.049301,0.4666592469,-9.697403919,1.3834241155,2.8162,1.4214,0.00044,0.0014100000000000223,-0.009400000000000075,0.0006899999999999684,0.002195738024580063,0.0009831137707152493,0.002318333229450076
150000000000.0,-1,-0.52805868255,0.22457228499999998,0.1299773391,-0.20832,-0.017904,0.068755,0.46042221749999995,-9.7008362465,1.3609668869999998,2.8154,1.4238,0.001127,0.0008200000000000429,-0.009799999999999809,0.0008399999999999519,0.00067825917756692,0.003473999431831132,-0.003980609100909804
150000000000.0,-1,-0.5714825287499999,-0.01048330885,0.15925018935,-0.18383,-0.018503,0.08714,0.45192965859999995,-9.7039743745,1.3411574539999997,2.8166,1.426,-0.000287,0.0011499999999999844,-0.009600000000000053,0.0010999999999999899,-0.0010510603929816398,0.001606824232351256,0.0011939039146744435
150000000000.0,-1,-0.5230278710999999,-0.29275792245,0.23525172684999998,-0.17044,-0.017028,0.10655,0.44162286944999996,-9.7069163695,1.3232112845,2.8195,1.4281,-0.003393,0.0010999999999999899,-0.009700000000000042,0.0010499999999999954,0.004471189530817377,0.0006870122441786641,-0.0001671116124066785
150000000000.0,-1,-0.55590956855,-0.78585589775,0.2311819671,-0.15589,-0.013049,0.11872,0.4297666296,-9.709760297999999,1.3065399795,2.8238,1.4301,-0.007916,0.0012799999999999478,-0.009500000000000064,0.0014200000000000879,0.0012680391254966672,0.0038189543746474097,0.0010599210606505594
150000000000.0,-1,-0.5389342573999999,-1.0931472755,0.22260114835,-0.14387,-0.006754,0.13443,0.41638055234999993,-9.712310027,1.2912416055,2.8297,1.432,-0.013938,0.0012699999999999934,-0.009399999999999853,0.0013199999999999878,-0.0017371370720042911,0.0029837484659434033,-0.001978196232205409
150000000000.0,-1,-0.52615619245,-1.3938191645,0.2297501962,-0.15144,-0.001025,0.14628,0.40135676454999997,-9.715055888999999,1.2757470985000001,2.8368,1.434,-0.021162,0.0010999999999999899,-0.009700000000000042,0.0013799999999999368,0.003547501674166176,0.0015232539390428457,-0.0020593007011575626
150000000000.0,-1,-0.58740852835,-1.6877244649999998,0.30928212769999996,-0.1602,0.003432,0.16174,0.38509733884999997,-9.717801751,1.2594680594999998,2.8449,1.4361,-0.029293,0.0010700000000000154,-0.009600000000000053,0.0017000000000000348,-0.0012306686131517974,0.004053180628797115,2.2646505926759986e-05
150000000000.0,-1,-0.61200360655,-1.9822181644999999,0.39801269689999996,-0.1728,0.012566,0.1831,0.36645489719999996,-9.720743746,1.2420122225,2.8547,1.4384,-0.039096,0.0012499999999999734,-0.009600000000000053,0.0016399999999999748,-0.00260755504635668,0.0017063538851318505,0.002092863943712775
150000000000.0,-1,-0.61200360655,-1.9822181644999999,0.39801269689999996,-0.1728,0.012566,0.1831,0.36645489719999996,-9.720743746,1.2420122225,2.8547,1.4384,-0.039096,0.0014399999999999968,-0.009299999999999864,0.0018299999999999983,-0.003470835638226033,0.0015381158550018537,0.0021600395997742883
150000000000.0,-1,-0.6053841178,-2.32025339,0.4792313722,-0.17171,0.01732,0.19664,0.3462139716,-9.7237838075,1.224262186,2.866,1.4407,-0.050329,0.0013800000000000479,-0.009100000000000108,0.0018600000000000838,0.0016259528334108264,0.0008940368309395819,8.495468882707691e-05
150000000000.0,-1,-0.59246875975,-2.5326654289999997,0.5708254832,-0.15992,0.030852,0.21345,0.32386461624999996,-9.726627736,1.207198615,2.8795,1.443,-0.063628,0.0011100000000000554,-0.009299999999999864,0.0019499999999998963,0.0015722037176277848,8.084205868796879e-05,0.002412122112622095
150000000000.0,-1,-0.58074000635,-2.6135702915000003,0.68180734125,-0.12949,0.036529,0.22461,0.30046594935,-9.729177465,1.1929789725,2.8949,1.445,-0.078769,0.0013699999999999823,-0.009200000000000097,0.0017400000000000748,-0.006221985480151293,-0.0024391371466907508,-0.00012460775146561076
150000000000.0,-1,-0.47733868875,-2.48892777,0.7385976513999999,-0.083012,0.039091,0.23242,0.27607681079999996,-9.7310407285,1.1833684555,2.9124,1.4466,-0.096009,0.0010899999999999244,-0.009100000000000108,0.0018399999999999528,0.0007505114666532808,0.0019450356129988577,0.0035749008450542963
150000000000.0,-1,-0.32481586129999995,-1.7976570115,0.64922964995,-0.036626,0.045355,0.22935,0.251638639,-9.7324136595,1.178170931,2.9312,1.4476,-0.11446,0.0011700000000000044,-0.009099999999999886,0.0020299999999999763,0.00015014878739583182,-0.0018446818114408181,0.0027081461067357537
150000000000.0,-1,-0.3122633493,-1.4883552704999998,0.42765819985,0.009814,0.050464,0.21907,0.2278673194,-9.733002058499999,1.177974798,2.9505,1.4481,-0.1334,0.0011400000000000299,-0.009200000000000097,0.0018400000000000638,-0.003520404255616283,0.0015595719146728193,-0.0008788301537079324
150000000000.0,-1,-0.29448389285,-1.2206337255,0.19257318605,0.043713,0.064909,0.20248,0.20575332365,-9.733002058499999,1.181701325,2.9692,1.4482,-0.15159,0.0010799999999999699,-0.008799999999999919,0.0019500000000000073,-0.0029682338092591465,0.0007733160869898281,0.0006769284566408018
150000000000.0,-1,-0.29562146425,-1.0492134835,0.006913688249999999,0.072915,0.074534,0.16424,0.16603639115000002,-9.7337865905,1.181505192,3.002,1.4488,-0.18358,0.0012199999999999989,-0.009100000000000108,0.0018899999999999473,-0.0011471534927336435,-0.0021005665581215194,-0.00025679273642609246
150000000000.0,-1,-0.3274244302,-1.0402894319999998,-0.0846902294,0.099755,0.081695,0.1224,0.1510027967,-9.732903991999999,1.1912137754999998,3.0155,1.448,-0.19636,0.0013199999999999878,-0.008899999999999908,0.0021600000000000508,-0.0011754621353126105,-0.0015012744425502156,0.004557317508094183
