Time,placement_label,user_acc_x(m/s^2),user_acc_y(m/s^2),user_acc_z(m/s^2),rotation_rate_x(rad/s),rotation_rate_y(rad/s),rotation_rate_z(rad/s),gravity_x(m/s^2),gravity_y(m/s^2),gravity_z(m/s^2),attitude_roll(rad),attitude_pitch(rad),attitude_yaw(rad),target_delta_x,target_delta_y,target_delta_z,target_delta_roll,target_delta_pitch,target_delta_yaw
150100000000.0,-1,-0.2987301723,0.06887210295,-0.14210816515,-0.31753,0.28106,0.056213,0.022643554849999997,-2.16334699,-9.565014144,0.002368,0.22243,2.9121,0.0,0.0,0.0,0.0,0.0,0.0
150100000000.0,-1,-0.32884639444999997,0.0419332354,-0.1361751419,-0.26614,0.33097,0.020174,0.05276958365,-2.1363787024999996,-9.5709962005,0.005513,0.21962,2.9124,0.00024999999999997247,0.00019999999999997797,-9.999999999998899e-05,0.001876554494695204,-0.0015444483805087117,0.0014287741924471353
150100000000.0,-1,-0.19339694464999999,0.0744717001,-0.055211439499999994,-0.17759,0.32429,0.015927,0.08401357055,-2.1171576685,-9.575016927,0.008774,0.2176,2.9126,0.00017000000000000348,0.00019999999999997797,3.333333333332966e-05,0.0003530631977378129,-0.00043883172729075604,0.0007855213476276601
150100000000.0,-1,-0.09011330684999999,0.07890430589999999,-0.11452205869999998,-0.077487,0.25486,0.02856,0.10986389994999998,-2.1073510184999997,-9.5768801905,0.011471,0.21658,2.9129,0.0001300000000000745,9.999999999998899e-05,3.333333333332966e-05,-0.001034687839820303,0.0005749655186824132,0.00011667219592570444
150100000000.0,-1,-0.10601969314999998,0.07799228744999999,-0.11451225204999999,0.010803,0.14418,0.033651,0.12577028625,-2.1064684199999997,-9.5768801905,0.013132,0.21649,2.9132,8.999999999992347e-05,9.999999999998899e-05,3.333333333332966e-05,-0.0008544897497713699,-0.0002135423211206966,-0.00015253312456908752
150100000000.0,-1,-0.00010787314999999999,0.07760982809999999,-0.15028691125,0.07562,0.019915,0.023814,0.1299969524,-2.1123524099999997,-9.575605326,0.013575,0.2171,2.9135,6.0000000000060005e-05,9.999999999998899e-05,9.999999999998899e-05,-0.001108254087231586,0.0003207006903584997,-0.0004152658580698354
150100000000.0,-1,-0.0375986961,0.027350746849999996,-0.15937767579999998,0.10639,-0.075484,0.001269,0.12259293164999999,-2.1194131979999997,-9.5741343285,0.012804,0.21784,2.9136,7.999999999996898e-05,0.00029999999999996696,9.999999999998899e-05,-0.0020489593871645395,-5.922903856969697e-05,-0.00015222613375454053
150100000000.0,-1,-0.0272821003,0.037804635749999996,-0.1615743654,0.10742,-0.11979,-0.030741,0.11227633585,-2.1299063135,-9.571878799,0.011729,0.21893,2.9133,6.0000000000060005e-05,9.999999999998899e-05,9.999999999998899e-05,-0.001632322165866229,0.00015339453532425829,0.00012472501621307863
150100000000.0,-1,-0.14552087935,0.004609125499999999,-0.08689672565,0.082931,-0.11214,-0.047749,0.10197935335,-2.138438099,-9.570113602,0.010656,0.21983,2.9129,0.00011999999999989797,0.00029999999999996696,-3.333333333332966e-05,-0.0011995850102836103,-0.0001690734539192551,0.0005989511607015219
150100000000.0,-1,-0.16954717184999998,0.01301342455,-0.03923640665,0.056337,-0.073888,-0.043415,0.09487933874999999,-2.1444201554999998,-9.5688387375,0.009915,0.22045,2.9124,0.00010000000000010001,0.00020000000000020002,-3.333333333332966e-05,0.000269399776199275,0.0005027154512771137,0.0007290876895739151
150100000000.0,-1,-0.1668503431,0.016896857949999997,-0.04008958519999999,0.035079,-0.020931,-0.023091,0.09218251,-2.1483428155,-9.567956139,0.009634,0.22086,2.9121,0.00011999999999989797,0.00029999999999996696,-3.333333333332966e-05,0.0008841581240539576,-2.306409610186577e-06,0.0008917442804805553
150100000000.0,-1,-0.22809287234999998,0.08051259649999999,-0.00085317855,0.020212,0.035115,0.005753,0.08354285135,-2.1465776185,-9.5684464715,0.008731,0.22068,2.9123,8.000000000008001e-05,9.999999999998899e-05,-4.999999999988347e-05,-0.0001305354511493828,-0.0010738657416156094,0.0006687659173920668
150100000000.0,-1,-0.23018168879999998,0.06276256,0.016131939249999998,0.003219,0.092246,0.032472,0.0802380103,-2.1444201554999998,-9.5690348705,0.008385,0.22045,2.9128,8.999999999992347e-05,0.00019999999999997797,-5.0000000000105516e-05,5.0776989012679685e-05,-0.0004511765996371153,0.0006137428890147234
150100000000.0,-1,-0.24162604935,0.06224280755,0.016141745899999997,-0.008438,0.14096,0.048534,0.0916921775,-2.1438317565,-9.5690348705,0.009582,0.22039,2.9133,6.0000000000060005e-05,9.999999999998899e-05,-9.999999999998899e-05,-0.0001675883402896261,-0.0008356566369880358,0.00021470155369285315
150100000000.0,-1,-0.22041426539999998,0.0942615198,0.0714904785,-0.022236,0.17913,0.056064,0.0974192611,-2.1383400325,-9.570211668499999,0.010179,0.21981,2.914,4.0000000000040004e-05,9.999999999998899e-05,-9.999999999998899e-05,0.0004885352292235967,0.00031712262725314133,-0.00036069540112604326
150100000000.0,-1,-0.22041426539999998,0.0942615198,0.0714904785,-0.022236,0.17913,0.056064,0.0974192611,-2.1383400325,-9.570211668499999,0.010179,0.21981,2.914,9.99999999995449e-06,9.999999999998899e-05,-9.999999999998899e-05,0.0004863196287472338,-0.00034474400681361317,-0.0007616608982702333
150100000000.0,-1,-0.14787447535,0.06748936529999999,0.0664106338,-0.043543,0.20877,0.074209,0.10941279405,-2.1323579759999998,-9.5713884665,0.011431,0.21919,2.9149,2.999999999997449e-05,5.0000000000105516e-05,-9.999999999998899e-05,0.00048195061999645183,-0.0006335895730424923,-0.0007728835917566457
150100000000.0,-1,-0.0411683167,-0.017151830849999997,0.06232126075,-0.099092,0.22344,0.12741,0.14606024509999999,-2.1189228655,-9.573840128999999,0.015255,0.21779,2.9171,1.4999999999987246e-05,4.999999999988347e-05,-0.00019999999999997797,-0.00026930673346214906,0.0005447229868016379,-0.0011320432037779105
150100000000.0,-1,0.031067467199999997,0.04957261574999999,-0.0068842683,-0.12159,0.18638,0.13158,0.16376124834999997,-2.1057819545,-9.5764879245,0.017099,0.21641,2.9185,1.4999999999987246e-05,9.999999999998899e-05,-9.999999999998899e-05,-0.0005692611766185407,0.0006116662835793374,-0.0006528741609609368
150100000000.0,-1,0.0206135783,0.037902702249999996,-0.0045110589999999996,-0.1217,0.11656,0.10802,0.17421513724999999,-2.094112041,-9.5788415205,0.018185,0.21519,2.9197,1.0000000000065512e-05,-3.333333333332966e-05,-0.00019999999999997797,0.000688129045679664,0.000828025734398663,-0.0007608761312782875
150100000000.0,-1,-0.00157887065,0.26236711409999997,0.010855961549999998,-0.084405,0.054221,0.057895,0.17904981569999998,-2.0745968075,-9.583058379999999,0.018682,0.21316,2.9204,2.999999999997449e-05,-3.333333333332966e-05,-0.00019999999999997797,0.0012647013598003909,0.0005400149157253065,-0.0007694348239953852
150100000000.0,-1,-0.08732821824999999,0.29975987055,0.0655476486,-0.012927,0.012927,0.01102,0.177108099,-2.060573298,-9.586098441499999,0.018474,0.21169,2.9207,4.0000000000040004e-05,-3.333333333332966e-05,-0.00029999999999996696,0.001343650738371005,0.0005328215688824578,-0.0006669807113112158
150100000000.0,-1,-0.0868280791,0.30418266969999996,0.0646062102,0.06495,-0.012635,-0.01561,0.1766177665,-2.0649862905,-9.585117776499999,0.018424,0.21216,2.9206,2.0000000000020002e-05,9.090909090847532e-06,-0.00020000000000020002,0.0009824782866984516,0.00092608729060073,-0.0007405320264614046
150100000000.0,-1,-0.13463549784999998,0.16571277169999998,0.07092169279999999,0.11614,-0.025505,-0.024133,0.16546760544999997,-2.0608674975,-9.586196507999999,0.017259,0.21173,2.9206,-1.0000000000065512e-05,9.090909091069577e-06,-0.00029999999999996696,0.0018110024589697016,-0.00029055505905639656,-0.000919508602546415
150100000000.0,-1,-0.17023363735,0.0614876955,0.08646523304999999,0.13212,-0.025691,-0.008173,0.1570633064,-2.0720470785,-9.5839409785,0.016387,0.21289,2.9205,-5.999999999994898e-05,9.090909090847532e-06,-0.00029999999999996696,1.3882970210099543e-05,-0.0003172685983765522,-0.0006517341498558649
150100000000.0,-1,-0.1679683012,0.07263785655,0.08409202375,0.10754,-0.019438,0.019491,0.1548077769,-2.0831285929999996,-9.581587382499999,0.016155,0.21405,2.9207,-4.0000000000040004e-05,9.090909090847532e-06,-0.00019999999999997797,0.0001922694895300503,-0.000392116897310002,-0.0009126952665072796
150100000000.0,-1,-0.16097615975,-0.0782178404,0.11043268565,0.055254,-0.003492,0.041851,0.14316728335,-2.0949946395,-9.5792337865,0.014944,0.21529,2.9212,-1.0000000000065512e-05,9.090909090847532e-06,-0.00029999999999996696,0.0016619877893274682,0.00011214295958339449,-0.00041618991846936737
150100000000.0,-1,-0.15131660949999998,-0.051023999949999996,0.1885818795,0.008338,0.022026,0.057852,0.13859738445,-2.0998979644999998,-9.578155055,0.014469,0.2158,2.9219,-9.99999999995449e-06,9.090909091069577e-06,-0.00029999999999996696,0.0006953544117627719,0.0003650132287289498,-0.00025180825879589364
150100000000.0,-1,-0.15382711189999998,-0.05278919694999999,0.18893491889999997,-0.027894,0.047558,0.06641,0.14110788685,-2.0981327675,-9.578547321,0.01473,0.21561,2.9226,-2.0000000000020002e-05,9.090909090847532e-06,-0.00019999999999997797,0.0017334214207904153,-0.00011478742585779855,-0.00015484244313856976
150100000000.0,-1,-0.19615261329999997,0.010885381500000001,0.21446162884999997,-0.042777,0.066735,0.062196,0.1345080114,-2.097446302,-9.578743454,0.014041,0.21554,2.9235,-1.999999999990898e-05,9.090909090847532e-06,-0.00019999999999997797,0.001337485308754549,0.00016921940500025379,-0.00042505081797106214
150100000000.0,-1,-0.18311957545,0.0135920169,0.23477120099999998,-0.045911,0.076458,0.03988,0.1352337035,-2.094112041,-9.579527986,0.014116,0.2152,2.9241,-2.0000000000020002e-05,9.090909090847532e-06,-0.00020000000000020002,0.0002917414875570623,-0.0004658560797554667,-0.0004346257304674861
150100000000.0,-1,-0.1893664115,0.009208444349999999,0.23563418619999998,-0.044792,0.061927,-0.0027,0.14148053955,-2.089797115,-9.5804105845,0.014767,0.21474,2.9242,-4.0000000000040004e-05,9.090909091069577e-06,-0.00019999999999997797,0.0008090123483935896,-0.0004379229819231334,-0.00018116979958460178
150100000000.0,-1,-0.16886070635,0.02013305245,0.203389921,-0.030906,0.032487,-0.044246,0.1356455828,-2.087051253,-9.580998983499999,0.014156,0.21446,2.9241,-4.0000000000040004e-05,9.090909090847532e-06,-9.999999999998899e-05,-0.00013676462170159054,-0.0005287342583371046,-0.0003410714264135972
150100000000.0,-1,-0.150630144,-0.00911037785,0.2215910634,-0.005315,0.001838,-0.071964,0.133566573,-2.087443519,-9.580998983499999,0.01394,0.2145,2.9235,-4.999999999999449e-05,-2.4999999999941735e-05,-9.999999999998899e-05,-3.87807685677255e-05,-0.0002891538330593857,-0.0003637274045711347
150100000000.0,-1,-0.15033594449999998,-0.00803164635,0.22135570379999997,0.017033,-0.027905,-0.077344,0.13327237349999999,-2.0885222504999996,-9.580704784,0.01391,0.21462,2.9227,-4.999999999999449e-05,-2.500000000016378e-05,-9.999999999998899e-05,-0.000342275428317107,1.1091732994517045e-05,-0.000456340171826497
150100000000.0,-1,-0.12421102889999999,0.004128599649999999,0.2123335858,0.025502,-0.051327,-0.069948,0.12286751785,-2.093523642,-9.5798221855,0.012825,0.21513,2.9221,-5.999999999994898e-05,-2.4999999999941735e-05,-9.999999999998899e-05,0.00042723594943488985,-2.144843099327609e-05,-0.0005555688046978702
150100000000.0,-1,-0.09797824014999999,-0.0639785846,0.19949668094999998,0.020095,-0.07156,-0.056167,0.1150320045,-2.0986230999999997,-9.578743454,0.012009,0.21566,2.9216,-7.00000000000145e-05,-2.4999999999941735e-05,-9.999999999998899e-05,0.0003725205639594775,5.758187349780286e-05,-0.0005640835196980554
150100000000.0,-1,-0.09162353095,-0.0639589713,0.1995653275,-0.007674,-0.076823,-0.046613,0.10868710195,-2.0986230999999997,-9.5788415205,0.011346,0.21567,2.9211,-9.999999999998899e-05,-9.999999999998899e-05,-4.999999999988347e-05,0.00034765538974618204,-0.0006402157511580242,-0.0008913088516181444
150100000000.0,-1,-0.10792218324999998,-0.044767357249999994,0.16530089239999998,-0.045001,-0.071373,-0.04661,0.09715448154999999,-2.099799898,-9.578743454,0.010142,0.21579,2.9207,-4.999999999999449e-05,-3.333333333332966e-05,-5.0000000000105516e-05,0.00039831903886200504,-0.0005059718506079669,-0.0005498942735138179
150100000000.0,-1,-0.12570163969999998,-0.016033872749999997,0.12158284669999998,-0.076953,-0.054223,-0.054025,0.08919148175,-2.0942101075,-9.5800183185,0.00931,0.2152,2.9203,-7.00000000000145e-05,-3.333333333332966e-05,-9.999999999998899e-05,0.0003467742384661854,-0.0012567325552490516,-0.0003038782251166827
150100000000.0,-1,-0.12339707695,-0.025193283849999998,0.1236030166,-0.099286,-0.032836,-0.065683,0.08687711235,-2.0849918565,-9.582077714999999,0.009067,0.21425,2.9197,-7.999999999996898e-05,-3.333333333332966e-05,1.999999999990898e-05,0.00023177898152731968,-0.0007837662231497955,-0.0003744147436208767
150100000000.0,-1,-0.14393220205,0.0151414676,0.05941849235,-0.10241,-0.00939,-0.079459,0.0831800053,-2.0747929405,-9.5843332445,0.008679,0.21318,2.919,-7.00000000000145e-05,1.1111111111183902e-05,2.0000000000131024e-05,0.0006479241296732385,-0.00048823637062822556,-0.0004758578239649758
150100000000.0,-1,-0.13587113574999998,0.04498310354999999,0.02307504745,-0.092745,0.013925,-0.082594,0.08215030705,-2.064299825,-9.586588773999999,0.008569,0.21209,2.9182,-7.00000000000145e-05,1.1111111110961858e-05,1.999999999990898e-05,0.0007485427185709437,-6.800602815415502e-05,-0.0007580639805082612
150100000000.0,-1,-0.13965650265,0.036647451049999995,0.024830437799999997,-0.085274,0.025472,-0.070865,0.08593567395,-2.0559641725,-9.588353971,0.008962,0.21122,2.9175,-7.999999999996898e-05,1.1111111111183902e-05,2.0000000000131024e-05,0.00018895866659240923,-1.8201424803354627e-05,-0.0004396472779318872
150100000000.0,-1,-0.07069613984999999,-0.03201871225,-0.0724319169,-0.087453,0.023207,-0.050661,0.0853570816,-2.04762852,-9.590119168,0.0089,0.21035,2.917,-7.00000000000145e-05,1.1111111111183902e-05,1.999999999990898e-05,0.00013599051040275034,-0.00023202029130486856,-0.0003900299711837585
150100000000.0,-1,-0.0544072942,-0.05162220559999999,-0.07918869875,-0.098171,0.009391,-0.041121,0.08613180694999999,-2.0392928675,-9.591884364999999,0.008979,0.20948,2.9166,-7.999999999996898e-05,1.1111111110961858e-05,5.0000000000105516e-05,0.00012946099290400692,8.141839034503384e-05,-0.00046894687486376263
150100000000.0,-1,-0.0556429321,-0.061585761999999995,-0.07709007564999999,-0.10459,0.004114,-0.041135,0.08736744485,-2.0292900845,-9.594041828,0.009106,0.20844,2.9162,-9.00000000000345e-05,1.1111111111183902e-05,4.999999999988347e-05,-0.0002841395786262746,-0.0002924975205715885,-0.00012392053268417413
150100000000.0,-1,-0.059026226349999995,-0.0007158854499999999,-0.07571714465,-0.10563,0.007347,-0.04751,0.08580818750000001,-2.0186008359999996,-9.5962973575,0.008942,0.20733,2.9158,-6.0000000000060005e-05,1.1111111111183902e-05,9.999999999998899e-05,-3.285273401870681e-05,-0.0003436254755766477,-0.00035086773828651996
150100000000.0,-1,-0.076688003,0.01203275955,-0.0693526288,-0.086397,0.018951,-0.049606,0.0864161998,-2.0089903189999996,-9.5982586875,0.009003,0.20632,2.9154,-6.999999999990347e-05,1.1111111110961858e-05,1.4285714285744433e-05,4.3381540772047256e-05,0.00013261514840912092,-0.00032094708622143475
150100000000.0,-1,-0.07989477754999999,0.00563882375,-0.06804834435,-0.058655,0.02411,-0.045332,0.08962297435,-2.00251793,-9.5996316185,0.009336,0.20565,2.9149,-5.0000000000105516e-05,1.1111111111183902e-05,1.4285714285744433e-05,-0.0005553135859602265,0.00032509293714499954,-0.00045554200856501303
150100000000.0,-1,-0.06216435435,-0.04274718735,-0.06618508085,-0.0288,0.023926,-0.036815,0.0898485273,-1.999379802,-9.6002200175,0.009358,0.20532,2.9146,-6.999999999990347e-05,-5.0000000000105516e-05,1.4285714285744433e-05,-0.00014230701483008978,0.0002624458023132714,-0.00045404361389089765
150100000000.0,-1,-0.06216435435,-0.04274718735,-0.06618508085,-0.0288,0.023926,-0.036815,0.0898485273,-1.999379802,-9.6002200175,0.009358,0.20532,2.9146,-7.00000000000145e-05,-4.999999999988347e-05,1.4285714285522388e-05,0.0003841283366730619,0.00019438427402129754,-0.0005159330923021344
150100000000.0,-1,-0.06424336415,-0.04406127844999999,-0.06593010795,-0.010686,0.011152,-0.04003,0.0919275371,-1.9980068709999999,-9.600514216999999,0.009575,0.20518,2.9142,-4.0000000000040004e-05,9.999999999998899e-05,1.4285714285744433e-05,-0.000345989121267154,-8.02030484978733e-05,-0.00025513373271435213
150100000000.0,-1,-0.0482683313,-0.091986377,-0.07527584539999999,-0.033081,-0.005551,-0.063475,0.0925551627,-1.9954571419999998,-9.601004549499999,0.00964,0.20491,2.9131,-5.999999999994898e-05,5.0000000000105516e-05,1.4285714285744433e-05,-0.0001767494048075524,-0.00016322841907423502,-0.00010106306447066338
150100000000.0,-1,-0.069234949,-0.0914960445,-0.05418174125,-0.053333,-0.003301,-0.069857,0.09168237084999999,-1.9926132134999999,-9.6015929485,0.009548,0.20462,2.9124,-3.0000000000085514e-05,4.999999999988347e-05,1.4285714285744433e-05,0.0007008801147557198,-0.00033173557900001427,0.00011178011740109461
150100000000.0,-1,-0.08783816404999999,-0.04247260115,-0.0044914457,-0.063951,0.01901,-0.069809,0.09203541024999999,-1.9875137554999998,-9.602671679999998,0.009584,0.20408,2.9118,-3.999999999992898e-05,-1.1111111111183902e-05,-4.999999999988347e-05,-0.00019466361287018286,-0.00015379108612290082,-6.440012797659378e-05
150100000000.0,-1,-0.05110245315,-0.037716375899999995,0.0252227038,-0.057479,0.052896,-0.06654,0.09659550249999999,-1.982512364,-9.603652344999999,0.010058,0.20357,2.9111,-7.00000000000145e-05,-1.1111111110961858e-05,-5.0000000000105516e-05,0.0006742880866623668,-0.00026395602133555407,-0.000194709484100275
150100000000.0,-1,-0.015808319799999998,-0.037392756449999995,-0.0293022702,-0.041443,0.072933,-0.060108,0.1042446895,-1.9787858369999998,-9.6043388105,0.010853,0.20318,2.9105,-2.999999999997449e-05,-1.1111111111183902e-05,-1.999999999990898e-05,-0.0001569647862713075,8.303795594355456e-05,-9.044534682900451e-05
150100000000.0,-1,-0.023486926749999998,-0.04009939184999999,-0.028831550999999997,-0.024403,0.065393,-0.053739,0.11192329644999999,-1.9761380414999998,-9.604829143,0.011652,0.2029,2.9099,-4.999999999999449e-05,-1.1111111111183902e-05,-2.0000000000131024e-05,0.00030713730087794655,-0.00024920043673137826,-0.00021737302148561177
150100000000.0,-1,0.0475818658,-0.008433719,-0.10762798375,-0.014861,0.038843,-0.053796,0.11792496624999999,-1.974667044,-9.605025276,0.012276,0.20275,2.9094,-4.0000000000040004e-05,-1.1111111110961858e-05,-1.999999999990898e-05,0.00019156183931845483,-0.00022938563475527474,-3.980073742626544e-05
150100000000.0,-1,0.034313468349999994,0.01654381855,-0.0870634387,-0.009586,0.007056,-0.060249,0.1213082605,-1.9728037804999998,-9.605417542,0.012628,0.20255,2.9088,-4.0000000000040004e-05,-1.1111111111183902e-05,-2.0000000000131024e-05,0.0003120695758146441,3.18837373833869e-05,-0.0003707478675729625
150100000000.0,-1,0.033764295949999995,0.016416332099999997,-0.0870438254,0.003176,-0.008918,-0.058154,0.12186723954999999,-1.9726076474999998,-9.605417542,0.012686,0.20253,2.9082,-3.999999999992898e-05,-1.1111111111183902e-05,-1.999999999990898e-05,0.00014370034687810618,0.00037106277297471735,-0.0003992959828320597
150100000000.0,-1,0.0101793027,-0.0040795664,0.00975761675,0.019167,-0.005873,-0.04857,0.12195549939999999,-1.9741767114999997,-9.6051233425,0.012696,0.20269,2.9076,-3.0000000000085514e-05,-1.1111111110961858e-05,-4.999999999988347e-05,0.0007566107205920214,0.0005198481175094916,-0.0004332894828515954
150100000000.0,-1,-0.024232232149999998,-0.018524761849999998,0.0261837555,0.027691,0.00036,-0.03579,0.12209279249999999,-1.9772167729999999,-9.604436877,0.012711,0.20301,2.9073,-9.99999999995449e-06,-1.1111111111183902e-05,-5.0000000000105516e-05,0.0005181540434476828,0.0005403121881384365,-0.0005608521815734235
150100000000.0,-1,-0.025722842949999998,-0.0157494799,0.025595356499999996,0.028769,0.011965,-0.028317,0.12359320994999999,-1.979962635,-9.6039465445,0.012868,0.2033,2.9069,-4.0000000000040004e-05,-5.0000000000105516e-05,3.333333333332966e-05,-4.5296706221165106e-05,0.0005398776277611983,-0.00024867096792269283
150100000000.0,-1,0.011159967699999999,-0.01318994425,0.12607429239999998,0.02879,0.019404,-0.030428,0.12545647345,-1.983100763,-9.603260079,0.013063,0.20363,2.9066,-4.999999999999449e-05,-4.999999999988347e-05,3.333333333332966e-05,-0.0003242890996559833,-0.0006525852242798003,-0.00017482433598325908
150100000000.0,-1,0.026036655749999995,-0.039834612299999995,0.07026464725,0.019171,0.006757,-0.035777,0.1279375559,-1.9865330904999998,-9.602475547,0.013323,0.20399,2.9063,-9.99999999995449e-06,2.4999999999941735e-05,3.333333333332966e-05,-0.00013969733317015232,-0.0003475888672126448,0.00030693228225797675
150100000000.0,-1,0.02644853505,-0.0391677601,0.0701371608,0.004184,-0.018611,-0.03903,0.1275256766,-1.9872195559999997,-9.6023774805,0.01328,0.20405,2.9059,-9.99999999995449e-06,2.4999999999941735e-05,4.999999999988347e-05,-0.0005189905518384608,-0.00017049189688855826,5.390765917656637e-06
150100000000.0,-1,-0.0223787753,-0.0129643913,0.09332008139999999,-0.00226,-0.034516,-0.035876,0.12502498085,-1.9881021544999997,-9.602181347499998,0.01302,0.20415,2.9055,-3.0000000000085514e-05,2.500000000016378e-05,5.0000000000105516e-05,-0.00035950742561952076,-0.0006059277900212212,3.747807471898845e-05
150100000000.0,-1,-0.0223787753,-0.0129643913,0.09332008139999999,-0.00226,-0.034516,-0.035876,0.12502498085,-1.9881021544999997,-9.602181347499998,0.01302,0.20415,2.9055,-9.99999999995449e-06,2.4999999999941735e-05,-9.999999999998899e-05,-0.0004402893008063624,-8.992264780705028e-05,-0.00013295767501952938
150100000000.0,-1,-0.04843504435,0.013101684399999999,0.10671596529999999,0.004175,-0.013389,-0.028381,0.12250467179999999,-1.9885924869999998,-9.602083280999999,0.012757,0.2042,2.9052,-2.999999999997449e-05,-9.999999999998899e-05,4.999999999988347e-05,-0.0002729690316783384,4.477867357577381e-06,-0.00019440172717266613
150100000000.0,-1,-0.02591897595,0.03870684755,0.1036759038,0.004256,0.028974,-0.020839,0.12572125299999998,-1.989377019,-9.601887148,0.013093,0.20428,2.9047,5.000000000032756e-06,-4.999999999988347e-05,5.0000000000105516e-05,-9.055693393766884e-05,-0.00023101583506157652,-0.00020255321130990822
150100000000.0,-1,-0.0008041452999999999,0.00036284604999999996,0.0681954441,0.001068,0.037446,-0.01763,0.129643913,-1.9899654179999997,-9.6017890815,0.013501,0.20434,2.9045,4.999999999921734e-06,-5.0000000000105516e-05,2.4999999999941735e-05,-0.0002483551603273404,0.0004851073505616199,-0.0005598806205170392
150100000000.0,-1,-0.0042168595,-0.00048052584999999995,0.06832293055,-0.011758,0.028998,-0.015525,0.13304682054999997,-1.9890828194999999,-9.601887148,0.013856,0.20425,2.9044,4.0000000000040004e-05,9.999999999998899e-05,2.500000000016378e-05,0.0001825780404429711,0.00044827567356753306,-0.00011130704141326664
150100000000.0,-1,-0.0074432473499999995,-0.04009939184999999,0.11033461915,-0.025658,0.014215,-0.016626,0.13598881555,-1.9876118219999999,-9.602181347499998,0.014161,0.2041,2.9042,5.999999999994898e-05,-9.999999999998899e-05,2.4999999999941735e-05,0.00013058417523886812,0.0004404620000806325,-0.00011007728393996885
150100000000.0,-1,-0.00199074995,-0.024663724749999998,0.10290117845,-0.029924,0.01003,-0.021955,0.1374107798,-1.985846625,-9.602475547,0.014309,0.20391,2.904,0.0001100000000000545,9.999999999998899e-05,2.4999999999941735e-05,-0.0006846127294870552,0.0005151657927320308,0.0004023499201819547
150100000000.0,-1,-0.0034029075499999997,-0.02756649315,0.1034797708,-0.028851,0.008997,-0.026212,0.13882293739999998,-1.9830026964999998,-9.603063945999999,0.014455,0.20361,2.9037,7.00000000000145e-05,9.999999999998899e-05,9.999999999998899e-05,-0.0006073892858423635,0.00036796850084175325,1.0384671946361834e-05
150100000000.0,-1,-0.023447700149999997,-0.061154269399999996,0.07389310774999999,-0.021388,0.005794,-0.027281,0.1395682428,-1.9820220315,-9.603260079,0.014532,0.20351,2.9035,3.999999999992898e-05,-2.4999999999941735e-05,9.999999999998899e-05,-0.0014727403008246709,-0.00035174867766452067,0.0003276210743554664
150100000000.0,-1,-0.018103075899999998,-0.06837196379999999,0.0943007464,-0.017137,-0.003752,-0.029429,0.1396074694,-1.9824142974999999,-9.603162012499999,0.014537,0.20355,2.9032,2.999999999997449e-05,-2.500000000016378e-05,9.999999999998899e-05,-0.0005763970222021908,-1.3817384138636868e-05,-0.0001905688525064564
150100000000.0,-1,-0.016818404749999998,-0.06975470145,0.09460475254999999,-0.013981,-0.027063,-0.033735,0.13832279825,-1.9810413664999997,-9.603456212,0.014403,0.20341,2.9029,3.0000000000085514e-05,-2.4999999999941735e-05,9.999999999998899e-05,-0.0006751034847123361,-0.0005659195618394897,0.00012106702121816859
150100000000.0,-1,0.00510926465,-0.08368995109999999,0.025850329399999997,-0.014033,-0.052498,-0.03592,0.1348022109,-1.9816297655,-9.603456212,0.014036,0.20347,2.9025,3.999999999992898e-05,-2.4999999999941735e-05,9.999999999998899e-05,-0.0007898810442732995,-0.000601927932332158,-1.0071569723768548e-06
150100000000.0,-1,-0.04939609605,-0.0255169033,0.05811420789999999,-0.007648,-0.055737,-0.031671,0.12884957435,-1.9815316989999998,-9.603456212,0.013416,0.20347,2.9022,3.0000000000085514e-05,-4.999999999988347e-05,9.999999999998899e-05,-0.0005653671342158995,-0.0005629798795363516,0.00011371190818609822
150100000000.0,-1,-0.04598338184999999,-0.025154057249999997,0.05808478795,0.008382,-0.034672,-0.020982,0.1254466668,-1.981923965,-9.603456212,0.013062,0.2035,2.9019,8.999999999992347e-05,-5.0000000000105516e-05,0.00010000000000021103,0.00023256954052747192,-0.0007881645695002604,0.00013572597560596034
150100000000.0,-1,-0.04007977855,-0.009453610599999999,0.08691633894999999,0.026555,-0.002014,-0.001758,0.12357359664999999,-1.984473694,-9.6029658795,0.012868,0.20377,2.9019,7.00000000000145e-05,-9.999999999998899e-05,9.999999999998899e-05,0.0009779953173936207,-0.000742989090469548,0.00012972787862697288
150100000000.0,-1,-0.023732092999999996,-0.00289296175,0.051985051649999996,0.039375,0.01798,0.012119,0.12414238235,-1.9882982875,-9.602181347499998,0.012928,0.20417,2.902,9.999999999998899e-05,-9.999999999998899e-05,5.0000000000105516e-05,0.00010726679714362364,-0.00031638381262633075,0.0001803295144101602
150100000000.0,-1,-0.0261445289,0.0014611908499999999,0.051053419899999994,0.045813,0.029659,0.006829,0.12655481824999998,-1.9927112799999998,-9.6012006825,0.01318,0.20462,2.9021,9.999999999998899e-05,-9.999999999998899e-05,4.999999999988347e-05,0.0003484184535707535,8.545324674691379e-05,0.000145617854372726
150100000000.0,-1,0.0407172108,-0.05135742605,0.054024834849999995,0.041592,0.036159,-0.009113,0.1301734721,-1.9976146049999999,-9.600121951,0.013558,0.20514,2.902,0.0001300000000000745,-9.999999999998899e-05,9.999999999998899e-05,-0.000694092673099056,0.00032489684955838705,1.6318112380675487e-05
150100000000.0,-1,0.0876910643,-0.044002438549999995,-0.007119627899999999,0.03199,0.022524,-0.024038,0.13542002984999998,-2.0020275974999997,-9.599141286,0.014106,0.20559,2.9017,7.999999999996898e-05,-9.999999999998899e-05,9.999999999998899e-05,-0.0005668141983686814,0.0006504268106031219,-6.584124147268611e-05
150100000000.0,-1,0.0866711727,-0.0415409694,-0.007639380349999999,0.025546,-0.001793,-0.030477,0.13643992145,-2.0044792599999997,-9.5986509535,0.014214,0.20585,2.9014,4.999999999999449e-05,-9.999999999998899e-05,9.999999999998899e-05,-0.0011273538796428562,0.0002808414508723711,-0.0002800625788619282
150100000000.0,-1,0.134939504,-0.07716852884999999,-0.0047464186,0.020171,-0.020852,-0.031586,0.13845028469999998,-2.0083038534999997,-9.597768355,0.014424,0.20625,2.9011,2.0000000000020002e-05,-0.00020000000000020002,9.999999999998899e-05,-0.0013054844859214376,0.00015430652283132673,-0.00029547062834156534
150100000000.0,-1,0.14606024509999999,-0.11229594914999999,-0.005491723999999999,0.014784,-0.038905,-0.025246,0.13929365659999998,-2.012520713,-9.596885756499999,0.014514,0.20669,2.9007,-1.0000000000065512e-05,-0.00019999999999997797,9.999999999998899e-05,-0.0008442860980330535,0.0003811494808036997,-0.0004541775051386532
150100000000.0,-1,0.15054188415,-0.11100147134999999,-0.0056976636499999995,0.013652,-0.051762,-0.007193,0.13481201755,-2.013893644,-9.5966896235,0.014047,0.20683,2.9006,1.0000000000065512e-05,-0.00019999999999997797,9.999999999998899e-05,-0.0005789543261074392,1.8613442239967526e-05,-0.00035859042161712207
150100000000.0,-1,0.06744033205,-0.0445614176,-0.039510992849999996,0.020006,-0.057225,0.010879,0.13218383535,-2.017620171,-9.595905091499999,0.013774,0.20722,2.9006,-2.0000000000020002e-05,-0.00019999999999997797,3.333333333332966e-05,0.0006471049927607719,0.00025308686993796847,-0.000685581870950136
150100000000.0,-1,-0.00987529655,0.03050848815,-0.005668243699999999,0.037076,-0.047829,0.021541,0.12659404485,-2.0199737669999998,-9.595512825499998,0.013192,0.20746,2.9008,9.99999999995449e-06,-0.00029999999999996696,3.333333333332966e-05,0.0007140951922601779,-0.0004283435539651492,-0.0007432783103710205
150100000000.0,-1,-0.006933301549999999,0.03603943875,-0.00679600845,0.063824,-0.016105,0.019493,0.12364224319999999,-2.025465491,-9.594434094,0.012887,0.20804,2.901,6.666666666710341e-06,-0.00039999999999995595,3.333333333332966e-05,0.000207110029824209,-0.001193198379794147,-0.0011673550561599466
150100000000.0,-1,-0.08687711235,-0.02028995885,-0.1314287233,0.084179,0.010421,0.006794,0.12293616439999999,-2.0310552814999996,-9.593257295999999,0.012814,0.20862,2.9011,6.666666666599319e-06,-0.00029999999999996696,-9.999999999998899e-05,-0.00012711762812528393,-0.0006139837078147359,-0.0008650425586361754
150100000000.0,-1,-0.09079977234999999,-0.06495924959999999,-0.06097774969999999,0.091662,0.006203,0.00036,0.12132787379999999,-2.0411561309999997,-9.591099833,0.012649,0.20968,2.9011,6.666666666710341e-06,-0.000400000000000178,-4.999999999988347e-05,0.000559204174147232,-0.0010088932163185849,-0.0007718126960720717
150100000000.0,-1,-0.0923198031,-0.057133542899999994,-0.0626644935,0.07569,0.020053,0.000387,0.12284790455,-2.0490014509999996,-9.5894327025,0.01281,0.21049,2.9011,6.0000000000060005e-05,-0.00019999999999997797,-5.0000000000105516e-05,-0.0005597523644174929,-0.0007620662632046304,-0.0005951312035471501
150100000000.0,-1,-0.07648206335,-0.1433143831,0.0177500365,0.04692,0.037119,0.002545,0.12422083554999999,-2.0563564385,-9.587863638499998,0.012955,0.21126,2.9012,7.999999999996898e-05,-0.00029999999999996696,-9.999999999998899e-05,0.0008336365754063879,-0.0011118660290634352,-0.0005605603575816742
150100000000.0,-1,-0.0557606119,-0.15658278054999997,0.0737263947,0.010683,0.050013,-0.000626,0.12743741674999998,-2.0624365614999998,-9.5864907075,0.013292,0.21189,2.9012,9.999999999998899e-05,-9.999999999998899e-05,-0.00019999999999997797,0.00024405664762464085,-0.0013121871258743312,-0.0005946559309004673
150100000000.0,-1,-0.06098755634999999,-0.15760267214999998,0.07387349445,-0.017044,0.054374,-0.001687,0.1326643612,-2.06135783,-9.5866868405,0.013838,0.21178,2.9012,0.0001100000000000545,-0.00019999999999997797,-0.00019999999999997797,0.0015828913307865677,-0.00013304185537843516,-0.0004265746991568564
150100000000.0,-1,-0.0018240368999999999,-0.10397990994999999,0.03288169745,-0.034138,0.043829,-0.000652,0.13635166159999998,-2.0624365614999998,-9.586392641,0.014222,0.2119,2.9012,0.00010999999999994348,-0.00019999999999997797,-9.999999999998899e-05,0.0030689716391790745,-0.0008419264167136564,-0.00017242090785862807
150100000000.0,-1,-0.018642441649999997,-0.09409480674999998,0.038245934999999995,-0.031008,0.016212,0.003542,0.13820511845,-2.061750096,-9.5864907075,0.014415,0.21182,2.9012,9.999999999998899e-05,-0.00029999999999996696,-9.999999999998899e-05,0.002152153994607775,-0.0013089165633726196,-0.00030772882659502176
150100000000.0,-1,-0.0173969971,-0.09562464415,0.0385989744,-0.008698,-0.018929,0.010914,0.1369596739,-2.0601810319999996,-9.586784907,0.014285,0.21166,2.9013,0.00012000000000000899,-9.999999999998899e-05,-0.00010000000000021103,0.001864596125106921,-0.0018089154582754396,8.570218230319337e-05
150100000000.0,-1,-0.16079964004999997,0.0023045627499999996,0.09930213789999999,0.028567,-0.051962,0.011913,0.1266823047,-2.063907559,-9.586196507999999,0.013215,0.21204,2.9016,0.00012000000000000899,-0.00019999999999997797,5.0000000000105516e-05,0.0013852603450269507,-0.0013527910752773042,0.00048321905741277593
150100000000.0,-1,-0.21772724329999998,0.044973296899999994,0.1189546645,0.05948,-0.07006,0.004435,0.1147770316,-2.0685166845,-9.5853139095,0.011974,0.21253,2.9018,0.00010999999999994348,-9.999999999998899e-05,5.0000000000105516e-05,0.0013310496733245913,-0.0019973736900742445,0.00045642401878631667
150100000000.0,-1,-0.20785194674999996,-0.010895188149999999,0.21220609934999998,0.081919,-0.068971,-0.011512,0.10296001834999999,-2.0773426694999997,-9.583548712499999,0.010743,0.21344,2.9018,0.0001300000000000745,-9.999999999998899e-05,9.999999999998899e-05,0.0004824584532718279,-0.0020454075801215055,0.0007828470277360111
150100000000.0,-1,-0.20299765499999997,-0.0019417166999999998,0.2103134159,0.096939,-0.050842,-0.032741,0.09809591994999999,-2.086266721,-9.581685449,0.010238,0.21438,2.9015,9.00000000000345e-05,-9.999999999998899e-05,9.999999999998899e-05,0.00038908910064833213,-0.0013768405812570883,0.0009290083557653706
150100000000.0,-1,-0.2178056965,-0.03678474415,0.17438185029999997,0.097035,-0.026302,-0.052895,0.0904565396,-2.097642435,-9.5792337865,0.009443,0.21557,2.9011,5.999999999994898e-05,-0.00020000000000020002,0.00019999999999997797,-0.0007532181664000048,-0.001083202225263813,0.0003784684431148433
150100000000.0,-1,-0.2184529354,-0.02958666305,0.172793173,0.066193,-0.00268,-0.075187,0.0911037785,-2.1048012894999997,-9.5776647225,0.009512,0.21632,2.9004,9.00000000000345e-05,-9.999999999998899e-05,4.999999999988347e-05,-0.0009450816904824078,-0.0007956194507490189,-7.446774055963612e-05
150100000000.0,-1,-0.1161695759,-0.0242224255,0.2077636869,0.028936,0.017752,-0.093232,0.0872987983,-2.1120582105,-9.5760956585,0.009116,0.21707,2.8996,5.999999999994898e-05,-9.999999999998899e-05,5.0000000000105516e-05,0.0003928544569917203,-0.0007707703175630076,-0.0005550409417393043
150100000000.0,-1,-0.02897865075,-0.0032558077999999997,0.1268392111,-0.003019,0.03279,-0.10172,0.09152546444999998,-2.1130388755,-9.575899525499999,0.009557,0.21718,2.8986,2.0000000000020002e-05,-0.00029999999999996696,5.0000000000105516e-05,0.0010100952563011356,-0.001980043925182917,-0.0007645707726070539
150100000000.0,-1,0.03965809259999999,0.050288501199999995,0.1687920598,-0.038177,0.048886,-0.10807,0.0992040714,-2.1097046144999996,-9.5764879245,0.010359,0.21683,2.8975,9.99999999995449e-06,-9.999999999998899e-05,4.999999999988347e-05,0.00040964465927639804,-0.0024017598419958652,-0.0004589428882405544
150100000000.0,-1,0.1296242997,0.03337202995,0.17853006324999998,-0.059485,0.063803,-0.10592,0.11054055880000001,-2.1044090234999997,-9.577566655999998,0.011541,0.21627,2.8964,1.4999999999987246e-05,-0.00019999999999997797,9.999999999998899e-05,0.002500991794654406,-0.002927087422555541,-0.0003330657951213789
150100000000.0,-1,0.1296242997,0.03337202995,0.17853006324999998,-0.059485,0.063803,-0.10592,0.11054055880000001,-2.1044090234999997,-9.577566655999998,0.011541,0.21627,2.8964,1.5000000000098268e-05,-0.00019999999999997797,9.999999999998899e-05,0.001580631061169846,-0.004104460767017093,-0.00023837219363820328
150100000000.0,-1,0.20110497154999998,0.06012457115,0.08844617634999999,-0.078688,0.074398,-0.094197,0.1245052284,-2.096073371,-9.5792337865,0.012997,0.2154,2.8953,1.999999999990898e-05,-0.00019999999999997797,9.999999999998899e-05,0.0002369900399278313,-0.001950411094275184,-0.000221856956666322
150100000000.0,-1,0.21292198479999996,0.086690786,0.10405836315,-0.11075,0.077495,-0.065479,0.15264050725,-2.0740084085,-9.583646779,0.015926,0.2131,2.8935,4.0000000000040004e-05,-9.999999999998899e-05,9.999999999998899e-05,4.61237404428827e-05,-0.0005726506828067635,-2.4048738489712562e-05
150100000000.0,-1,0.21292198479999996,0.086690786,0.10405836315,-0.11075,0.077495,-0.065479,0.15264050725,-2.0740084085,-9.583646779,0.015926,0.2131,2.8935,9.99999999995449e-06,-0.00019999999999997797,0.00019999999999997797,-0.0001902689075118369,0.0006176100786674521,-0.0006199509460762531
150100000000.0,-1,0.19496600865,0.059232165999999996,0.0018142302499999999,-0.11821,0.086998,-0.055887,0.16655614359999998,-2.06135783,-9.586098441499999,0.017373,0.21178,2.8928,3.0000000000085514e-05,-9.999999999998899e-05,0.00019999999999997797,-0.0012878682298379518,0.001142886337466953,-0.0011610698304811429
150100000000.0,-1,0.054770140249999995,0.07240249694999999,-0.23408473549999997,-0.14697,0.1157,-0.049448,0.19213188679999998,-2.0307610819999997,-9.5921785645,0.020027,0.20858,2.8917,1.999999999990898e-05,-9.999999999998899e-05,0.00019999999999997797,-0.0030157248484114496,0.0021648565988232615,-0.0012665608449830001
150100000000.0,-1,0.031322440099999994,0.0744520868,-0.23654620464999998,-0.15436,0.15493,-0.044043,0.20764600709999997,-2.0132071785,-9.595512825499998,0.021637,0.20675,2.8913,4.0000000000040004e-05,-9.999999999998899e-05,9.999999999998899e-05,-0.002467802670211572,0.001731269440870431,-0.0010612825424751726
150100000000.0,-1,0.028566771449999997,0.0686661633,-0.28952172795,-0.14255,0.19826,-0.031178,0.2264159352,-1.9989875359999998,-9.598062554499998,0.023585,0.20528,2.891,2.0000000000020002e-05,-9.999999999998899e-05,0.00019999999999997797,-0.00230797331318644,0.0017376993857629586,-0.0011967852447980487
150100000000.0,-1,0.0471307599,0.041776328999999994,-0.217119231,-0.11374,0.21709,-0.011981,0.24735313294999997,-1.9872195559999997,-9.600023884499999,0.02576,0.20405,2.8908,2.999999999997449e-05,-5.0000000000105516e-05,0.00010000000000021103,-0.00179369560100473,0.0020377724782218998,-0.0008758846237495455
150100000000.0,-1,0.04566956905,-0.012395605599999998,-0.08688691899999999,-0.071135,0.2093,0.014604,0.26767251175,-1.9792761695,-9.601102616,0.027872,0.20323,2.8909,4.999999999999449e-05,-5.0000000000105516e-05,9.999999999998899e-05,-0.002184461485787187,0.002277931211471129,-0.0008099041028537535
150100000000.0,-1,0.07140221865,0.028439284999999995,0.0149649479,-0.023247,0.17711,0.039009,0.2869818056,-1.9753535094999999,-9.601298749,0.029881,0.20282,2.8912,4.999999999999449e-05,-9.999999999998899e-05,9.999999999998899e-05,-0.0016511505642257673,0.0015044086474211849,-0.0004454496645810435
150100000000.0,-1,0.0181423025,0.05686876335,0.065508422,0.010776,0.13027,0.04423,0.29983832375,-1.9758438419999997,-9.600906483,0.03122,0.20287,2.8917,6.0000000000060005e-05,-5.0000000000105516e-05,9.999999999998899e-05,-0.0015416461888350663,0.0004010275727248658,0.00011429094581782984
150100000000.0,-1,-0.010551955399999998,0.03915795345,0.09837050615,0.020308,0.081606,0.023912,0.30817397625,-1.9777071054999997,-9.6002200175,0.03209,0.20306,2.892,9.99999999995449e-06,-4.999999999988347e-05,9.999999999998899e-05,-0.0006420368182980252,0.0007442317120707198,0.00011289181232720935
150100000000.0,-1,-0.1048723151,0.0477583855,0.058702606899999996,0.003303,0.068246,-0.023988,0.31272426184999996,-1.9778051719999998,-9.600023884499999,0.032564,0.20307,2.8919,4.0000000000040004e-05,-9.999999999998899e-05,-3.333333333332966e-05,-0.00033780186754331365,0.0004315170110522626,0.00029595321420761156
150100000000.0,-1,-0.1858948574,0.0383047749,0.03976596574999999,-0.038109,0.10279,-0.083486,0.31877496489999996,-1.9743728445,-9.600514216999999,0.033191,0.20271,2.8913,2.0000000000020002e-05,-9.999999999998899e-05,-3.333333333332966e-05,-0.0002454307203353101,-0.00015552588180134386,0.00022626344035614476
150100000000.0,-1,-0.1836197146,0.0521321514,0.06777375814999999,-0.081597,0.17962,-0.12374,0.3322100754,-1.9661352584999998,-9.6017890815,0.034585,0.20186,2.8902,2.999999999997449e-05,-4.999999999988347e-05,-3.333333333332966e-05,0.00019482411061821914,-1.2436560379303074e-05,0.00013280473129062553
150100000000.0,-1,-0.09132933145,0.06398839125,0.0812579019,-0.10809,0.25717,-0.12677,0.35618733464999996,-1.9545634114999997,-9.603260079,0.037073,0.20065,2.889,2.999999999997449e-05,-5.0000000000105516e-05,-3.333333333332966e-05,0.00029802992703931164,0.00014060746658195455,0.00014200492293503508
150100000000.0,-1,0.0746089932,0.09317298165,0.05110245315,-0.099515,0.30039,-0.096883,0.38851985969999997,-1.9421089659999997,-9.6045349435,0.040429,0.19936,2.8879,2.999999999997449e-05,1.1111111111183902e-05,-3.333333333332966e-05,-0.0003083515052343111,0.0002603382642476504,0.00041603844965931724
150100000000.0,-1,0.24372467244999999,0.1124234356,0.0353823932,-0.055915,0.26815,-0.062907,0.42275487484999996,-1.9327926484999998,-9.605025276,0.043986,0.19839,2.8871,2.0000000000020002e-05,1.1111111110961858e-05,-3.333333333332966e-05,-0.0005217189166399072,0.0007258336995481507,0.00024656544550638593
150100000000.0,-1,0.29126731165,0.13369405944999999,0.025654196399999996,0.009959,0.16383,-0.045044,0.44913476334999997,-1.9290661214999998,-9.6045349435,0.046729,0.198,2.8865,-9.99999999995449e-06,1.1111111111183902e-05,-2.4999999999941735e-05,-0.0007316701867471076,0.0008172363764518131,-7.909397869598767e-05
150100000000.0,-1,0.28259823305,0.10941279405,0.0345390213,0.075803,0.027847,-0.048526,0.46245219404999993,-1.932302316,-9.603260079,0.048118,0.19834,2.8858,-2.0000000000020002e-05,1.1111111111183902e-05,-2.500000000016378e-05,-0.000846223518362027,0.0008934791026218303,-0.00037891433454828594
150100000000.0,-1,0.18582621085,0.0643512373,0.05167123885,0.12674,-0.10374,-0.063702,0.46075564359999993,-1.9420108995,-9.6013968155,0.047952,0.19935,2.8851,-5.000000000032756e-06,1.1111111110961858e-05,-2.4999999999941735e-05,-0.0015028778304720103,0.0012153109136212592,-0.0003156261322333487
150100000000.0,-1,0.054015028199999995,0.053171656299999995,0.07820803374999999,0.16178,-0.19076,-0.074526,0.44652619444999997,-1.9561324755,-9.5992393525,0.046483,0.20081,2.8843,-5.000000000032756e-06,1.1111111111183902e-05,-2.4999999999941735e-05,-0.0013815030911172033,0.0016522670677534546,-0.0007015702015814584
150100000000.0,-1,0.0019122967499999998,0.0051582979,0.10260697895,0.17557,-0.22685,-0.077795,0.4267952146499999,-1.972901847,-9.5966896235,0.044444,0.20256,2.8834,2.0000000000020002e-05,1.1111111111183902e-05,-9.999999999998899e-05,-0.00018437061454962267,0.00107340079498508,-0.0006561468358958766
150100000000.0,-1,-0.054426907499999996,-0.016190779149999997,0.09070170585,0.17233,-0.23643,-0.071436,0.404426246,-1.9902596174999998,-9.594041828,0.042129,0.20437,2.8826,4.999999999999449e-05,1.1111111110961858e-05,-0.00020000000000020002,0.001159577137139961,0.0015703993451798848,-0.0002692917092137481
150100000000.0,-1,-0.1221712457,0.01397447625,0.10057700239999999,0.15522,-0.24072,-0.055494,0.37970368135,-2.0059502575,-9.591786298499999,0.039565,0.206,2.882,8.000000000008001e-05,1.1111111111183902e-05,-0.00019999999999997797,0.0009175261055235084,0.0008573086148602194,-0.0003225521894145711
150100000000.0,-1,-0.16838998714999998,0.029410143349999997,0.13510621704999998,0.13388,-0.2291,-0.038454,0.3543927177,-2.0192873015,-9.589923035,0.036938,0.20739,2.8816,5.999999999994898e-05,9.999999999998899e-05,-0.00019999999999997797,0.001704359425280716,0.0004737622387678275,-4.1449474909360795e-05
150100000000.0,-1,-0.19116102845,0.07318702895,0.18705204209999998,0.11581,-0.18884,-0.02454,0.3315236099,-2.030172683,-9.5884520375,0.034561,0.20853,2.8813,7.999999999996898e-05,9.999999999998899e-05,-0.00019999999999997797,0.001060326202189904,-0.00016218051378924514,-9.899932865498062e-05
150100000000.0,-1,-0.17762785144999998,0.08307213214999999,0.18541433154999998,0.099916,-0.12947,-0.013773,0.31798062625,-2.039979333,-9.5868829735,0.033157,0.20956,2.8811,4.999999999999449e-05,9.999999999998899e-05,-9.999999999998899e-05,0.00042546523765726874,-0.0003861962780506989,0.00019319603475476121
150100000000.0,-1,-0.13443936485,0.04919015639999999,0.182992089,0.084002,-0.076495,0.001235,0.30248611925,-2.0467459215,-9.5859023085,0.031545,0.21025,2.8812,8.000000000008001e-05,9.999999999998899e-05,-0.00019999999999997797,0.000252458421070606,-0.0006815009868481603,0.0001338398411945274
150100000000.0,-1,-0.04763089905,0.044022051849999994,0.15487642345,0.060601,-0.035131,0.013023,0.2969257487,-2.0530221775,-9.584725510499998,0.030969,0.21091,2.8813,5.999999999994898e-05,0.00010000000000021103,-9.999999999998899e-05,0.001032563325058411,0.00014593232914372756,0.00020297633801225068
150100000000.0,-1,-0.04605202839999999,0.04763089905,0.15415073135,0.028649,-0.00641,0.018398,0.29534687805,-2.056650638,-9.584039044999999,0.030807,0.21129,2.8815,9.999999999998899e-05,9.999999999998899e-05,-0.00019999999999997797,0.001546067302106685,0.0005867315923946403,0.00015311844200260882
150100000000.0,-1,0.09960614404999998,0.09504605179999999,0.1078339234,0.00307,0.003253,0.016286,0.29753376099999995,-2.0552777069999997,-9.584235177999998,0.031034,0.21115,2.8816,7.00000000000145e-05,0.00019999999999997797,-9.999999999998899e-05,0.0004345761010020599,0.00021881316379479543,0.00040205393859460425
150100000000.0,-1,0.09953749749999999,0.16481055990000001,0.09586000375,-0.012923,0.00862,0.016294,0.3001423299,-2.0514531134999996,-9.58501971,0.031304,0.21075,2.8817,9.00000000000345e-05,9.999999999998899e-05,-9.999999999998899e-05,0.0007069264503820616,-0.0003426970013513664,0.0002822177488960298
150100000000.0,-1,0.09982189035,0.16395738135000001,0.09605613674999999,-0.005506,-0.001066,0.031165,0.29985793704999997,-2.050570515,-9.585215842999999,0.031274,0.21066,2.882,5.999999999994898e-05,9.999999999998899e-05,-9.999999999998899e-05,0.0015377656515036253,-0.0007561903091350963,0.00045462982906563365
150100000000.0,-1,0.09228057649999999,0.21608953274999998,0.1043231427,0.024272,-0.027815,0.047067,0.30052478925,-2.0453729904999998,-9.5862945745,0.031339,0.21012,2.8824,9.00000000000345e-05,0.00019999999999997797,-9.999999999998899e-05,0.0014922149576234167,-0.0010016998077997386,0.0008950981791503443
150100000000.0,-1,0.1252701471,0.22486648449999996,0.09659550249999999,0.059407,-0.067121,0.037414,0.29685710215,-2.046451722,-9.586196507999999,0.030957,0.21022,2.8827,4.999999999999449e-05,9.999999999998899e-05,-9.999999999998899e-05,0.001311680207002175,-0.0016403416082446665,0.0011885653537869745
150100000000.0,-1,0.13492969735,0.23295697074999996,0.09515392495,0.092448,-0.10733,0.007549,0.28719755189999996,-2.0544931749999997,-9.584725510499998,0.029955,0.21106,2.8829,4.0000000000040004e-05,0.00019999999999997797,-9.999999999998899e-05,0.0012630206816296452,-0.0021936913727005347,0.0013806974062915423
150100000000.0,-1,0.14557971925,0.027007514099999998,0.20564545049999997,0.11592,-0.13056,-0.018026,0.28118607544999996,-2.0634172265,-9.5829603135,0.029334,0.21199,2.8826,5.000000000032756e-06,9.999999999998899e-05,-0.00010000000000021103,0.0006404780265583665,-0.0021113390342011318,0.0014066272219306342
150100000000.0,-1,0.15236592105,-0.0393050532,0.10988351325,0.11378,-0.14425,-0.029759,0.27126174565,-2.075871672,-9.580606717499998,0.028306,0.21329,2.8822,4.999999999921734e-06,0.00019999999999997797,-9.999999999998899e-05,-0.00017817461839592097,-0.002028613395735679,0.0011011970103473878
150100000000.0,-1,0.16646788375,-0.030939980749999995,0.10845174234999999,0.07747,-0.15579,-0.026603,0.25715978294999997,-2.0842073245,-9.57913572,0.026839,0.21416,2.8819,-2.0000000000020002e-05,0.00019999999999997797,-9.999999999998899e-05,-2.0286961021576122e-05,-0.0006550665019515733,0.0009371950998146028
150100000000.0,-1,0.07522681214999999,0.015984839499999997,0.10725533105,0.024141,-0.14396,-0.020208,0.24768655905,-2.0887183835,-9.578449254499999,0.025853,0.21464,2.8816,2.999999999997449e-05,0.00019999999999997797,-9.999999999998899e-05,0.0004895124152691777,0.0012562455710443121,0.000561233560593899
150100000000.0,-1,0.051896791799999994,0.03798115545,0.08587683404999999,-0.024869,-0.10881,-0.01376,0.23765435609999996,-2.0871493195,-9.5790376535,0.024805,0.21447,2.8814,-9.99999999995449e-06,9.999999999998899e-05,-9.999999999998899e-05,-0.0002801791353654326,0.0025867532503967006,-0.00010835322471058895
150100000000.0,-1,0.05951655884999999,0.03282285755,0.0871811185,-0.062144,-0.072673,-0.005178,0.23003458904999996,-2.0819517949999997,-9.580312518,0.024006,0.21393,2.8813,-2.0000000000020002e-05,0.00019999999999997797,-4.999999999988347e-05,-0.0016616405128789813,0.002279827726128225,-0.0002740090182957733
150100000000.0,-1,0.03819690175,0.0157690932,0.047287666299999996,-0.078078,-0.034495,0.003413,0.2265140017,-2.0744987409999998,-9.582077714999999,0.023635,0.21315,2.8813,-9.99999999995449e-06,0.00020000000000020002,-5.0000000000105516e-05,6.464417368734487e-05,0.002778010641905304,0.00011079252677492768
150100000000.0,-1,0.0171812508,0.0680777643,-0.0351666469,-0.079076,0.004674,0.013075,0.22642574184999997,-2.0661630884999997,-9.583842912,0.023621,0.21228,2.8815,-5.000000000032756e-06,9.999999999998899e-05,-9.999999999998899e-05,-0.0008650985396912447,0.0024388767564376135,-5.411248324915796e-05
150100000000.0,-1,0.01554354025,0.0609581364,-0.0336760361,-0.072644,0.023689,0.019501,0.22806345239999998,-2.0591023004999998,-9.5853139095,0.023789,0.21154,2.8817,-5.000000000032756e-06,0.00019999999999997797,1.6666666666775853e-05,-0.00048455312407430506,0.0007576327213447698,4.529729168090135e-05
150100000000.0,-1,0.049778555399999994,0.041452709549999994,-0.08376840429999999,-0.060937,0.01618,0.024806,0.23049550159999999,-2.0516492465,-9.5868829735,0.024038,0.21077,2.8819,-4.999999999999449e-05,9.999999999998899e-05,1.666666666655381e-05,-0.0004815905212369187,-0.00027202395483238995,0.00031733639502573574
150100000000.0,-1,0.03686319735,0.050415987649999994,-0.07126492555,-0.046051,-0.002992,0.027957,0.23174094615,-2.0455691235,-9.588157837999999,0.024165,0.21013,2.8822,-9.99999999995449e-06,9.999999999998899e-05,1.666666666655381e-05,0.0011978589450440391,-0.0005908963061660444,0.0009248333281062227
150100000000.0,-1,0.0385205212,0.04702288674999999,-0.07050000684999999,-0.033262,-0.013608,0.022618,0.23008362229999998,-2.042136796,-9.58894237,0.02399,0.20978,2.8824,-2.999999999997449e-05,9.999999999998899e-05,1.6666666666775853e-05,0.0009509048081461358,-0.001631947307500381,0.0007166900458497327
150100000000.0,-1,-0.01062060195,0.014298095700000001,-0.05812401455,-0.036444,-0.008269,0.019438,0.22834784525,-2.0383122025,-9.589726901999999,0.023807,0.20938,2.8826,-9.99999999995449e-06,9.999999999998899e-05,1.6666666666775853e-05,0.0006646191322793316,-0.0012657786075236377,0.0010489348203128745
150100000000.0,-1,-0.09779191379999999,-0.02185902285,-0.0179265562,-0.061984,0.020466,0.019497,0.2281222923,-2.032918545,-9.590903699999998,0.023781,0.20882,2.8829,-1.0000000000065512e-05,9.999999999998899e-05,1.666666666655381e-05,0.00011767929817357858,-0.0003857549272872074,0.0006899212822637502
150100000000.0,-1,-0.10275407869999999,-0.030910560799999997,-0.016131939249999998,-0.1067,0.070415,0.029171,0.23309426384999998,-2.023896427,-9.592668897,0.024294,0.20788,2.8832,9.99999999995449e-06,9.999999999998899e-05,3.333333333332966e-05,0.0004126544077836525,0.00014488368441933908,0.0004288058154545693
150100000000.0,-1,-0.16507533945,-0.048680210599999996,0.00630567595,-0.14498,0.13832,0.04527,0.2404982846,-2.0116381144999997,-9.5951205595,0.025059,0.2066,2.8837,1.0000000000065512e-05,-2.4999999999941735e-05,3.333333333332966e-05,-0.0003653666407393841,0.001135390863084007,4.262924457865136e-05
150100000000.0,-1,-0.16507533945,-0.048680210599999996,0.00630567595,-0.14498,0.13832,0.04527,0.2404982846,-2.0116381144999997,-9.5951205595,0.025059,0.2066,2.8837,-1.0000000000065512e-05,-2.4999999999941735e-05,3.333333333332966e-05,-0.0010570796270100713,0.0018697489068095763,-0.00026222642617368397
150100000000.0,-1,-0.21503041454999997,0.17346002519999998,0.15999549475,-0.15764,0.21674,0.059273,0.25304098994999996,-1.9957513414999999,-9.598062554499998,0.026358,0.20494,2.8844,-4.999999999999449e-05,-2.500000000016378e-05,9.999999999998899e-05,-0.0010413443065181993,0.0024975734645471537,-0.0006951622908274446
150100000000.0,-1,-0.11296280134999999,0.1600053014,0.13579268255,-0.10522,0.28855,0.071149,0.30225075965,-1.968390788,-9.602279414,0.031467,0.20209,2.8859,-5.999999999994898e-05,-2.4999999999941735e-05,0.00019999999999997797,-0.0015770355293182603,0.0012430525747675336,-0.0007702374225118103
150100000000.0,-1,0.14798234849999997,0.1165226153,0.017259704,-0.076599,0.20785,0.06991,0.32337428374999994,-1.9570150739999999,-9.6039465445,0.033658,0.20091,2.8867,-4.999999999999449e-05,-2.4999999999941735e-05,9.999999999998899e-05,-0.0018622895973782194,0.0007599016785899693,-0.0007919169512018431
150100000000.0,-1,0.13940152975,0.1117761967,0.01793636285,-0.042781,0.06561,0.069598,0.3319551025,-1.952307882,-9.60463301,0.034548,0.20042,2.8874,-4.0000000000040004e-05,-2.500000000016378e-05,0.00020000000000020002,-0.0009916675003839859,0.0006026191004029346,-0.00031467748813263086
150100000000.0,-1,0.23450642145,0.02691925425,0.0240459058,0.001702,-0.085098,0.061823,0.33113134389999993,-1.9511310839999998,-9.6049272095,0.034461,0.2003,2.8879,-2.0000000000020002e-05,-2.4999999999941735e-05,9.999999999998899e-05,-0.00014587356541750918,-0.00026563703879922684,5.6610429162162745e-05
150100000000.0,-1,0.019466200249999996,-0.053583535599999996,0.07966922459999999,0.046279,-0.1934,0.055207,0.31781391319999996,-1.955053744,-9.6045349435,0.033078,0.2007,2.8884,-4.999999999999449e-05,-2.4999999999941735e-05,9.999999999998899e-05,0.0002780109004393849,-0.0012099834412926391,0.0001998732196627495
150100000000.0,-1,0.0432865531,-0.04672868725,0.07903179234999999,0.07497,-0.24756,0.050837,0.29399356034999996,-1.9618203324999999,-9.6039465445,0.030602,0.20141,2.8889,-2.999999999997449e-05,-4.999999999988347e-05,9.999999999998899e-05,-0.0001004332240034933,-0.0011333128212953625,0.00023023625607809795
150100000000.0,-1,-0.04333558635,-0.09346718115,0.03360738955,0.077125,-0.24329,0.045529,0.26779019155,-1.9718231155,-9.602671679999998,0.02788,0.20245,2.8894,-5.999999999994898e-05,-5.0000000000105516e-05,9.999999999998899e-05,0.000374171965009773,-0.0018500005994053215,0.0004294637208299701
150100000000.0,-1,-0.27126174565,-0.09196676369999998,0.0040991797,0.063397,-0.18383,0.042469,0.24342066629999998,-1.9809433,-9.6013968155,0.025348,0.2034,2.8899,-4.999999999999449e-05,-5.0000000000105516e-05,9.999999999998899e-05,4.691351606972427e-05,-0.003206863775452984,0.00030840125985087674
150100000000.0,-1,-0.26025868435,-0.08746551135,0.00344213415,0.039112,-0.078685,0.035255,0.23242741164999997,-1.985454359,-9.60071035,0.024205,0.20387,2.8903,-5.0000000000105516e-05,-4.999999999988347e-05,0.00019999999999997797,-0.0002716978551782767,-0.0016434111738885537,0.0001771676764235064
150100000000.0,-1,-0.2798425644,-0.1060491131,-0.07785499435,0.011618,0.027486,0.033361,0.2256706298,-1.9892789524999999,-9.600121951,0.023503,0.20427,2.8908,-1.999999999990898e-05,-4.999999999988347e-05,9.999999999998899e-05,-0.000428566991916457,-0.0003683445626128101,0.0002138029271177011
150100000000.0,-1,-0.1775592049,-0.15648471404999997,-0.08903457534999999,-0.014917,0.1017,0.049477,0.2272396938,-1.9911422159999999,-9.599729685,0.023667,0.20446,2.8913,-1.0000000000065512e-05,-5.0000000000105516e-05,0.00019999999999997797,-0.000927179297438685,0.0005674960279196117,-0.00016142374473848697
150100000000.0,-1,-0.1880327071,-0.15894618319999998,-0.08877960245,-0.029838,0.12495,0.068672,0.23770338935,-1.9886905535,-9.599925817999999,0.024756,0.2042,2.892,1.0000000000065512e-05,-3.333333333332966e-05,9.999999999998899e-05,-0.0013011725645524774,0.0010660100658330673,-0.0005946919733208489
150100000000.0,-1,-0.057535615549999995,-0.13557693625,-0.139450563,-0.038456,0.095226,0.077113,0.24517605664999997,-1.9875137554999998,-9.600023884499999,0.025534,0.20408,2.8928,-3.0000000000085514e-05,-3.333333333332966e-05,0.00019999999999997797,-0.0007037380757641543,0.0016441061518115418,-0.0012690645060775552
150100000000.0,-1,-0.057535615549999995,-0.13557693625,-0.139450563,-0.038456,0.095226,0.077113,0.24517605664999997,-1.9875137554999998,-9.600023884499999,0.025534,0.20408,2.8928,-2.999999999997449e-05,-3.333333333332966e-05,9.999999999998899e-05,-0.0006338117344051875,0.0005008275550375529,-0.001078526051750961
150100000000.0,-1,0.07978690439999998,-0.1450011269,-0.06783259805,-0.032211,0.021008,0.071628,0.24866722405,-1.9873176224999998,-9.599925817999999,0.025897,0.20407,2.8935,-3.999999999992898e-05,-4.999999999988347e-05,0.00019999999999997797,-0.0007396774858388633,0.00038099127019575185,-0.000757908060473711
150100000000.0,-1,0.07709007564999999,-0.1138355932,-0.01673995155,0.024006,-0.15394,0.037209,0.23056414814999998,-1.9899654179999997,-9.5998277515,0.024013,0.20433,2.8946,-3.0000000000085514e-05,-5.0000000000105516e-05,0.00019999999999997797,0.00041260061595815856,-0.0003177049213638483,-0.00030798584753599645
150100000000.0,-1,-0.11635590225,0.01664188505,0.07325567549999999,0.065594,-0.19204,0.00416,0.21151963385,-1.996045541,-9.599043219499999,0.022032,0.20497,2.8947,1.0000000000065512e-05,9.999999999998899e-05,0.00010000000000021103,-0.0006995187964443927,-0.0011340605892509181,0.00023537631783154822
150100000000.0,-1,-0.09937078444999999,0.02591897595,0.07167680485,0.10732,-0.17599,-0.036213,0.1945443227,-2.0053618585,-9.5974741555,0.020267,0.20594,2.8944,9.99999999995449e-06,-9.999999999998899e-05,0.00019999999999997797,-0.0008027058682733568,-0.0012706355025986493,0.0003684645033839029
150100000000.0,-1,-0.10546071409999999,0.0159063863,0.0538777351,0.12879,-0.13668,-0.057392,0.17878503615,-2.0174240379999997,-9.595218626,0.01863,0.2072,2.8939,4.0000000000040004e-05,9.999999999998899e-05,0.00019999999999997797,-0.00024864941767432924,-0.0009047600138401002,0.0006362516049889244
150100000000.0,-1,-0.08651426629999999,-0.07070594649999999,0.0023045627499999996,0.11927,-0.094288,-0.048789,0.1676152618,-2.030957215,-9.5925708305,0.017472,0.20861,2.8934,4.999999999999449e-05,-1.2499999999970868e-05,9.999999999998899e-05,-0.00019607681656141907,-0.00024408354054883397,0.0003366644205278213
150100000000.0,-1,-0.06733245889999999,-0.0899073672,-0.0135724036,0.075599,-0.04231,-0.027409,0.1612997792,-2.041352264,-9.590511434,0.016818,0.2097,2.8931,7.999999999996898e-05,-1.2499999999970868e-05,0.00019999999999997797,-3.0428705840912507e-05,0.0004736824002151696,0.0002904235706104874
150100000000.0,-1,-0.09994937679999999,-0.0430119669,-0.01460210185,0.020247,0.027774,-0.010246,0.1601033679,-2.04566719,-9.5896288355,0.016694,0.21014,2.893,4.0000000000040004e-05,-1.2499999999970868e-05,0.00019999999999997797,0.00011612697685436935,0.0005631128657299644,-0.00018109782614628145
150100000000.0,-1,-0.1466486441,0.0039128533499999995,0.0259680092,-0.023291,0.11809,-0.010053,0.16609523105,-2.0443923254999996,-9.589726901999999,0.017319,0.21001,2.8929,2.999999999997449e-05,-1.2499999999970868e-05,0.00019999999999997797,-0.0008492363791010593,0.0003141792711873759,-8.622745066633186e-06
150100000000.0,-1,-0.12475039464999998,0.01546508705,0.0773352419,-0.048698,0.19884,-0.017323,0.18131515184999997,-2.0400773995,-9.5904133675,0.018903,0.20956,2.8928,4.0000000000040004e-05,-1.2500000000192912e-05,0.00019999999999997797,-0.0012727255037349172,0.00019385951788342126,-0.00016654444357433462
150100000000.0,-1,-0.0407564374,0.0042560861,0.06524364245,-0.04328,0.23488,-0.018304,0.20326243454999998,-2.0357624734999997,-9.590903699999998,0.02119,0.20911,2.8927,3.999999999992898e-05,-1.2499999999970868e-05,9.999999999998899e-05,-0.0003222324062729376,-6.612465782707133e-05,-6.202012193656792e-05
150100000000.0,-1,0.0559567449,-0.01346453045,0.06882306969999999,-0.014542,0.21454,-0.007705,0.22640612854999997,-2.0339972765,-9.590707566999999,0.023603,0.20893,2.8925,2.999999999997449e-05,-1.2499999999970868e-05,0.00019999999999997797,-0.0006196859242788844,-7.004484893480267e-05,-0.00017093407452706266
150100000000.0,-1,0.1728520129,-0.07297128265,0.041217349949999996,0.022601,0.139,0.005961,0.24599000859999998,-2.0370373379999998,-9.5896288355,0.025646,0.20925,2.8925,3.0000000000085514e-05,-1.2499999999970868e-05,9.999999999998899e-05,-0.00010608826597210963,-0.000392150740101016,-8.162580933168684e-06
150100000000.0,-1,0.27097735279999996,-0.08890708889999999,0.00505042475,0.048992,0.02007,0.012081,0.25664983715,-2.043313594,-9.587961705,0.026761,0.20989,2.8924,4.999999999999449e-05,5.0000000000105516e-05,9.999999999998899e-05,0.0005730739387165007,-0.0008901978942845723,0.0002667145914703184
150100000000.0,-1,0.26425979754999995,-0.054770140249999995,0.0136312435,0.060487,-0.10289,-0.000997,0.2552867128,-2.050178249,-9.586588773999999,0.026623,0.21061,2.8923,8.999999999992347e-05,4.999999999988347e-05,9.999999999998899e-05,-0.00024138611203819438,-0.0008504656215031492,0.0004971467280205921
150100000000.0,-1,0.1468055505,0.01303303785,0.015357213899999998,0.064662,-0.17264,-0.034128,0.24330298649999998,-2.0561603054999997,-9.585608108999999,0.025377,0.21124,2.892,0.0001100000000000545,3.333333333332966e-05,9.999999999998899e-05,-0.0004330527320975386,-0.0007301060821760519,0.0008443788457370704
150100000000.0,-1,0.04174690905,0.05694721654999999,0.05494665995,0.067951,-0.16707,-0.072407,0.22864204474999997,-2.0616520295,-9.584725510499998,0.02385,0.21181,2.8913,7.999999999996898e-05,3.333333333332966e-05,0.00020000000000020002,-0.0012818251863401797,-1.6658067857999725e-05,0.00046536039105959937
150100000000.0,-1,-0.03168528615,0.060605097,0.03411733535,0.070258,-0.10439,-0.08822,0.21799202284999997,-2.0671437535,-9.583842912,0.022741,0.21238,2.8905,8.000000000008001e-05,3.333333333332966e-05,9.999999999998899e-05,-0.000715795853060891,0.0007410783240913155,0.00014285286060544689
150100000000.0,-1,-0.029155170449999997,0.06738149215,0.0327149844,0.073619,-0.022834,-0.076334,0.2154521005,-2.073910342,-9.582469981,0.02248,0.21309,2.8896,2.999999999997449e-05,-2.4999999999941735e-05,0.00019999999999997797,-0.0011291910645682968,0.0008442507065999916,-0.00023192173443720154
150100000000.0,-1,-0.029616082999999998,0.0173185439,0.0598794049,0.074795,0.055381,-0.042119,0.21830583564999997,-2.0800885315,-9.580998983499999,0.022782,0.21373,2.8891,2.999999999997449e-05,-2.500000000016378e-05,0.00019999999999997797,-0.0016100383314943123,0.0007467116204182833,-0.00040378080250125237
150100000000.0,-1,-0.029616082999999998,0.0173185439,0.0598794049,0.074795,0.055381,-0.042119,0.21830583564999997,-2.0800885315,-9.580998983499999,0.022782,0.21373,2.8891,2.0000000000020002e-05,-2.4999999999941735e-05,0.00019999999999997797,-0.0009316538058493917,0.0001719286494721306,-0.0006165756650421406
150100000000.0,-1,0.02599742915,-0.050465020900000004,0.030018155649999996,0.064137,0.097523,0.000521,0.22778886619999997,-2.0877377184999997,-9.57913572,0.023775,0.21453,2.889,-1.0000000000065512e-05,-2.4999999999941735e-05,9.999999999998899e-05,-0.0008651981204294557,-0.00026159506131429033,-0.0005401592802046773
150100000000.0,-1,0.07630554364999999,-0.049866815249999995,-0.00962032365,0.030911,0.068688,0.045122,0.24676473395,-2.0985250335,-9.5762917915,0.025763,0.21565,2.8896,2.0000000000020002e-05,-2.4999999999941735e-05,0.00019999999999997797,-0.0005676800622700651,-0.00039930449283942515,-0.00022332678169978415
150100000000.0,-1,0.07412846734999999,-0.0473268929,-0.01022833595,0.025482,0.018931,0.036498,0.24894181025,-2.100976696,-9.5757033925,0.025991,0.21592,2.89,2.0000000000020002e-05,-2.4999999999941735e-05,0.00019999999999997797,-0.0008486201172129004,-0.0009556327427255873,0.0002125843592591936
150100000000.0,-1,0.021751149699999996,0.02548748335,0.04894499014999999,0.040365,-0.02023,0.018331,0.24774539895,-2.1042128905,-9.575016927,0.025868,0.21626,2.8902,4.0000000000040004e-05,-2.500000000016378e-05,9.999999999998899e-05,0.0003337937329882523,-0.0007610595933789099,0.0003975756044752865
150100000000.0,-1,-0.04566956905,0.06373341834999999,0.12254389839999999,0.070254,-0.029751,-0.000829,0.24394041875,-2.109606548,-9.573938195499998,0.025474,0.21681,2.8903,4.999999999999449e-05,-2.4999999999941735e-05,9.999999999998899e-05,0.0008243169712623677,-0.001168599432618933,0.0003798485656533179
150100000000.0,-1,-0.06668521999999999,0.054632847150000004,0.14097059375,0.098052,-0.018069,-0.017814,0.24071403089999996,-2.118040267,-9.5721729985,0.025142,0.21769,2.8901,5.999999999994898e-05,-5.0000000000105516e-05,9.999999999998899e-05,-5.649307250388258e-06,-0.0006631739442626294,0.000557600347436682
150100000000.0,-1,-0.0346763144,0.0145334553,0.11186445655,0.10559,0.004251,-0.028399,0.24042963805,-2.128435316,-9.569819402499999,0.025118,0.21878,2.8899,4.999999999999449e-05,-4.999999999988347e-05,9.999999999998899e-05,0.0003869294056770278,-0.0008092399537895645,-7.701554533023902e-05
150100000000.0,-1,-0.02399687255,-0.05076902705,0.09005446695,0.081114,0.027703,-0.031543,0.24201831534999999,-2.1388303649999996,-9.5674658065,0.02529,0.21987,2.8895,6.0000000000060005e-05,-4.999999999988347e-05,0.00019999999999997797,-0.0004883621607837951,-3.360523567907947e-05,5.1543390835018243e-05
150100000000.0,-1,-0.029312076849999997,-0.0455224693,0.08874037585,0.045962,0.057488,-0.025103,0.24733351965,-2.144125956,-9.566190942,0.02585,0.22042,2.8892,2.0000000000020002e-05,-5.0000000000105516e-05,0.00010000000000021103,0.0004016994219043779,-0.00010785046617778349,-0.00012057621627303838
150100000000.0,-1,0.03794192885,-0.022310128749999998,0.1023421994,0.015058,0.084028,-0.012287,0.2562477645,-2.1471660175,-9.5653083435,0.026783,0.22074,2.889,3.999999999992898e-05,-9.999999999998899e-05,9.999999999998899e-05,0.0003864333699600264,-0.00018110678649407852,-0.00014717840461320186
150100000000.0,-1,0.04074663075,0.00430511935,0.12835924185,0.002235,0.092412,0.007939,0.26616228765,-2.148048616,-9.564818011,0.02782,0.22083,2.889,4.0000000000040004e-05,-5.0000000000105516e-05,9.999999999998899e-05,-0.0005198195756206114,-0.0001372628973650425,-0.00011943891167021103
150100000000.0,-1,0.0479152919,0.028507931549999997,0.12782968274999998,0.01709,0.07733,0.03131,0.2747038798,-2.1493234805,-9.564229612,0.028714,0.22096,2.8893,5.000000000032756e-06,-5.0000000000105516e-05,9.999999999998899e-05,-0.00021218667689704152,-0.0007376539637253821,-4.800582431596645e-05
150100000000.0,-1,0.044649677449999994,0.032146198699999996,0.12691766429999998,0.042558,0.0315,0.048232,0.2779596876,-2.152951941,-9.5633470135,0.029057,0.22134,2.8897,4.999999999921734e-06,-9.999999999998899e-05,9.999999999998899e-05,0.00026741141727695816,-0.0006797943546463792,-0.00014739231852434198
150100000000.0,-1,0.044649677449999994,0.032146198699999996,0.12691766429999998,0.042558,0.0315,0.048232,0.2779596876,-2.152951941,-9.5633470135,0.029057,0.22134,2.8897,-9.99999999995449e-06,-9.999999999998899e-05,9.999999999998899e-05,-0.0003007944422533382,-0.0008721200595804834,-0.00016948541300476627
150100000000.0,-1,0.019564266749999996,0.11184484324999999,-0.038226321699999996,0.075491,-0.029086,0.049167,0.27716534895,-2.1567765344999996,-9.5625624815,0.028977,0.22175,2.8902,-1.0000000000065512e-05,-9.999999999998899e-05,9.999999999998899e-05,-0.0003626448573007257,-0.0008826997220541255,-0.0002188097760209562
150100000000.0,-1,-0.06445911045,0.10868710195,-0.0547995602,0.10529,-0.11151,-0.006323,0.2580914147,-2.1735459059999997,-9.5592282205,0.026992,0.2235,2.8905,-2.999999999997449e-05,-9.999999999998899e-05,9.999999999998899e-05,-0.00012705795904113804,0.0004102231388085631,-0.0003014034300277135
150100000000.0,-1,-0.15197365505,0.017955976149999997,0.03615711855,0.10428,-0.10285,-0.028641,0.24280284735,-2.1826660904999997,-9.55756109,0.025399,0.22445,2.8904,1.0000000000065512e-05,-0.00019999999999997797,9.999999999998899e-05,6.85757935065534e-05,-2.2465468112908837e-05,-0.0005596095958996239
150100000000.0,-1,-0.14564836579999998,0.0271840338,0.03419578855,0.094787,-0.062462,-0.035998,0.23648736474999998,-2.1918843414999998,-9.55559976,0.024743,0.22541,2.89,9.99999999995449e-06,-9.999999999998899e-05,1.1111111111183902e-05,0.0001534051658462765,-0.00012352121869185773,-0.0008106947333693659
150100000000.0,-1,-0.09638956284999999,-0.02993970245,0.011581653649999999,0.072496,-0.010426,-0.033758,0.233006004,-2.2001219274999997,-9.553834562999999,0.024384,0.22628,2.8896,4.999999999921734e-06,-9.999999999998899e-05,1.1111111110961858e-05,0.0008442111867277835,-0.0005887424004835662,-0.000559633331893794
150100000000.0,-1,-0.0702548406,-0.05192621175,0.04706211335,0.043762,0.035169,-0.017707,0.23440835494999998,-2.2063981834999997,-9.552363565499999,0.024534,0.22693,2.8894,5.000000000032756e-06,-0.00019999999999997797,1.1111111111183902e-05,0.0017511521922039253,-0.001098162070187536,-0.0006148009333908355
150100000000.0,-1,-0.0122779258,-0.0469934668,0.0774333084,0.013944,0.070188,-0.004872,0.24032176489999998,-2.2097324444999997,-9.551480967,0.025156,0.22728,2.8894,1.0000000000065512e-05,-0.00019999999999997797,1.1111111111183902e-05,0.0010627814819797465,-0.0011629103449584122,-0.000325466891336057
150100000000.0,-1,-0.020780291349999997,-0.047179793149999996,0.0772567887,-0.006296,0.095616,0.009008,0.24882413045,-2.2095363115,-9.551284834,0.026046,0.22726,2.8894,9.99999999995449e-06,-9.999999999998899e-05,1.1111111110961858e-05,0.0011557154055306107,-0.0015601831998004467,-5.338220331496668e-05
150100000000.0,-1,0.017995202749999998,-0.0052857843499999994,0.08411163705,-0.016976,0.098768,0.018586,0.25868962035,-2.209830511,-9.550892568,0.027079,0.22729,2.8896,1.4999999999987246e-05,-9.999999999998899e-05,1.1111111111183902e-05,0.0006485220115779455,-0.0017201399297308573,0.00021150935579572483
150100000000.0,-1,0.0100812362,-0.006766588499999999,0.08422931684999999,-0.013814,0.081788,0.018548,0.26659378024999997,-2.2083595135,-9.551088701,0.027906,0.22713,2.8898,1.4999999999987246e-05,-9.999999999998899e-05,1.1111111111183902e-05,-5.72429933878571e-05,-0.0005910232862849085,0.0001053127733285919
150100000000.0,-1,0.0048052584999999995,-0.00754131385,0.0842587368,-0.006399,0.048964,0.007839,0.27187956459999996,-2.2075749815,-9.551088701,0.028458,0.22705,2.8899,6.0000000000060005e-05,-5.0000000000105516e-05,1.1111111110961858e-05,6.954132647701838e-06,-0.00108736412141619,0.0001688779588917555
150100000000.0,-1,-0.11210962279999999,0.030714427799999996,0.11604208945,0.006375,0.020414,-0.010304,0.27206589095,-2.2079672474999996,-9.5509906345,0.028478,0.22709,2.8899,4.999999999999449e-05,-4.999999999988347e-05,1.1111111111183902e-05,-0.0003938821644630941,0.000439291486498794,-3.0299818440937543e-06
150100000000.0,-1,-0.11415921265,0.0323227184,0.11561059685,0.021355,0.017319,-0.029486,0.27412528745,-2.2095363115,-9.5505983685,0.028695,0.22726,2.8896,4.999999999999449e-05,-9.999999999998899e-05,-5.0000000000105516e-05,-2.304983225190349e-05,0.00037715698648277396,-0.0004324503871013796
150100000000.0,-1,-0.10180283365,0.024634304799999996,0.08916206179999998,0.033171,0.039654,-0.044324,0.27613565069999996,-2.21238024,-9.549813836499998,0.028907,0.22756,2.8892,7.00000000000145e-05,-9.999999999998899e-05,-4.999999999988347e-05,-0.00018549774945475495,0.0008638649515158026,-0.00039644062333310526
150100000000.0,-1,-0.10103791494999999,0.023545766649999997,0.0683131239,0.039618,0.062934,-0.041079,0.2806074831,-2.2159106339999997,-9.548931238,0.029378,0.22793,2.8888,3.999999999992898e-05,-9.999999999998899e-05,4.999999999988347e-05,-0.0009152740539331294,-9.659274224516068e-05,-0.0007060339394787674
150100000000.0,-1,-0.06515538259999999,0.0346174745,0.028115665550000002,0.034281,0.069253,-0.032556,0.28661895955,-2.2187545625,-9.5480486395,0.030009,0.22822,2.8885,4.0000000000040004e-05,-9.999999999998899e-05,5.0000000000105516e-05,-0.0008052325807967053,-0.0005373846327287879,-0.0003499424536214102
150100000000.0,-1,-0.07248095015,0.0368926173,0.02737036015,0.022533,0.069252,-0.026177,0.29394452709999996,-2.2210100919999998,-9.5472641075,0.030778,0.22846,2.8882,4.0000000000040004e-05,-0.00010000000000021103,-9.999999999998899e-05,0.00018066418011819518,-0.00042709745244384756,-0.0002669316902675911
150100000000.0,-1,-0.014866881399999999,0.07658012985,0.13734213325,0.017162,0.053366,-0.026214,0.29902437179999997,-2.221598491,-9.546969908,0.031311,0.22853,2.888,4.999999999999449e-05,-0.00019999999999997797,-2.4999999999941735e-05,5.46326838716249e-05,-0.000513741696804626,-0.0001953699379726448
150100000000.0,-1,0.0165732385,0.0394423463,0.13926423664999998,0.017094,0.021568,-0.028414,0.30305490495,-2.2230694884999997,-9.546577641999999,0.031734,0.22868,2.8877,7.00000000000145e-05,-0.00019999999999997797,-2.4999999999941735e-05,-0.0008111519332890393,0.0008300528063944768,-0.00027813496359851975
150100000000.0,-1,0.0164359454,0.0407172108,0.13897003714999998,0.012756,-0.013378,-0.032748,0.30319219805,-2.2243443529999998,-9.5462834425,0.031749,0.22881,2.8873,8.999999999992347e-05,-0.00019999999999997797,-2.500000000016378e-05,-0.0005324865898877207,-0.00022074950714623398,9.705036359552999e-06
150100000000.0,-1,0.01660265845,0.01630845895,0.16648749705,-0.00431,-0.022758,-0.045538,0.30272147885,-2.224540486,-9.546185375999999,0.031701,0.22883,2.8869,0.0001300000000000745,-0.00019999999999997797,-2.4999999999941735e-05,0.00031784135805107416,8.572473557544313e-05,-0.00011320791574986888
150100000000.0,-1,-0.008688691899999998,-0.0097085835,0.12104348094999999,-0.028786,-0.008763,-0.060405,0.30257437909999996,-2.2230694884999997,-9.546577641999999,0.031684,0.22867,2.8863,0.00012000000000000899,-0.00029999999999996696,-9.999999999998899e-05,0.0006875559759869365,0.00021939571164630856,-0.00037438218043328586
150100000000.0,-1,-0.0115914603,-0.01493552795,0.1221712457,-0.059636,0.025344,-0.066718,0.3054771475,-2.2177738975,-9.547656373499999,0.031984,0.22813,2.8857,0.00013999999999991797,-0.00029999999999996696,-9.999999999998899e-05,0.0004600628475241175,0.0002905993204660451,-9.043291531107833e-05
150100000000.0,-1,-0.0080610663,0.0183188222,0.10760837044999999,-0.080869,0.073134,-0.064488,0.31196914979999996,-2.210615043,-9.549127370999999,0.032659,0.22738,2.885,0.00017000000000000348,-0.00029999999999996696,-9.999999999998899e-05,0.0011144902574413418,0.0005039532199908603,-0.0003662269163076104
150100000000.0,-1,0.010855961549999998,0.0572512227,0.0842979634,-0.089342,0.1081,-0.055901,0.3232860239,-2.2011025925,-9.5509906345,0.033835,0.22638,2.8844,0.000160000000000049,-0.000300000000000189,-9.999999999998899e-05,0.00103357668448803,0.00014994648466148952,-0.00015077659660445164
150100000000.0,-1,-0.0012650578499999998,0.0496020357,0.08563166779999999,-0.073356,0.11849,-0.035664,0.3354070433,-2.1934534055,-9.552265499,0.035098,0.22558,2.8841,9.999999999998899e-05,-0.00039999999999995595,-9.999999999998899e-05,0.000887203672506387,0.00011309658016034341,-0.00012941032635560568
150100000000.0,-1,0.0881617835,0.07006851425,0.13347831315,-0.039301,0.10437,-0.009095,0.34698869694999995,-2.1872752159999997,-9.553344230499999,0.036305,0.22493,2.8839,0.00012999999999996348,-0.00039999999999995595,-9.999999999998899e-05,0.0014456478368134185,-0.00044078928630120195,-0.0003213661953145319
150100000000.0,-1,0.1084027091,0.041639035899999996,0.11684623475,-0.004229,0.06377,0.012096,0.3566678605,-2.1858042185,-9.553246163999999,0.037318,0.22478,2.8839,0.0001100000000000545,-0.00029999999999996696,-9.999999999998899e-05,0.0006680837810984497,-0.00046120165990570783,-0.00038912389444945017
150100000000.0,-1,0.10692190495,0.0430315802,0.11647358205,0.018024,0.005282,0.021543,0.35814866464999995,-2.1871771495,-9.5529519645,0.037473,0.22492,2.8841,7.999999999996898e-05,-0.00039999999999995595,-0.00010000000000021103,0.00022694639705791997,-0.0006079320592011772,-0.0006488650279555808
150100000000.0,-1,0.0547407203,-0.0508376736,0.08348401144999999,0.021141,-0.044514,0.013957,0.35720722624999995,-2.1903152775,-9.552265499,0.037378,0.22525,2.8842,0.000140000000000029,-0.00039999999999995595,-4.999999999988347e-05,0.0017147612608138518,-0.0003464186180317519,-0.0003272571340643404
150100000000.0,-1,-0.0214177236,-0.03962867265,0.0940065469,0.013659,-0.069776,-0.007375,0.35047005769999995,-2.193159206,-9.551873233,0.036675,0.22554,2.8842,0.00014999999999998348,-0.000400000000000178,-5.0000000000105516e-05,0.0004168680385360779,-9.091572180452978e-05,-0.00018429715371759414
150100000000.0,-1,-0.1121684627,-0.03158721965,0.10615698624999999,0.004135,-0.057882,-0.032879,0.34245802464999997,-2.1948263365,-9.5517751665,0.035838,0.22573,2.884,0.00017000000000000348,-0.00029999999999996696,-9.999999999998899e-05,0.0008219953502714428,0.0001831635638778195,-0.00022587777369875717
150100000000.0,-1,-0.1317425361,-0.0689603628,0.12274003139999999,0.004229,-0.027041,-0.04451,0.33704475384999993,-2.1971799324999997,-9.5513829005,0.035273,0.22597,2.8836,0.00017999999999995797,-0.00019999999999997797,-4.999999999988347e-05,8.414584480770371e-05,0.00013839076795463257,-7.620647787920376e-06
150100000000.0,-1,-0.10654925224999999,-0.06859751675,0.16027008094999998,0.009609,-0.002713,-0.039135,0.33474999775,-2.200219994,-9.5507945015,0.035035,0.22628,2.8832,0.000160000000000049,-0.00029999999999996696,-5.0000000000105516e-05,-0.0007894285246375365,0.0017859121095342712,-0.0007620526548526296
150100000000.0,-1,-0.0829838723,-0.08044394995,0.17033170385,0.013912,0.016326,-0.034836,0.3349755507,-2.2039465209999998,-9.549911903,0.035062,0.22667,2.8829,0.00014999999999998348,-0.00029999999999996696,3.333333333332966e-05,-1.1903585694861274e-05,0.002041114875196204,-0.0007357193820687336
150100000000.0,-1,-0.046875787,-0.10723571775,0.17036112379999999,0.018186,0.02264,-0.030565,0.33686823415,-2.2087517795,-9.548735104999999,0.035265,0.22717,2.8826,9.00000000000345e-05,-0.00039999999999995595,3.333333333332966e-05,-0.0012473330290825313,0.0017640915003995783,-0.0008691453870353083
150100000000.0,-1,-0.024987344199999997,-0.1684390204,0.11246266220000001,0.003244,0.017413,-0.032708,0.338917824,-2.2134589714999997,-9.547558307,0.035483,0.22767,2.8823,8.999999999992347e-05,-0.00020000000000020002,3.333333333332966e-05,-0.0005742298667039958,0.0013747484439676771,-0.0008402205547476393
150100000000.0,-1,-0.0423255014,-0.20383122025,0.08952490784999999,-0.028778,0.008012,-0.034865,0.33981022915,-2.216106767,-9.546969908,0.035578,0.22795,2.8819,7.00000000000145e-05,-0.00039999999999995595,9.999999999998899e-05,-0.0003380878669020093,0.0010482226310242204,-0.0011137193033888826
150100000000.0,-1,-0.0423255014,-0.20383122025,0.08952490784999999,-0.028778,0.008012,-0.034865,0.33981022915,-2.216106767,-9.546969908,0.035578,0.22795,2.8819,0.00012000000000000899,-0.00019999999999997797,5.0000000000105516e-05,-0.0003571773994996974,0.00046453692841019745,-0.0008488943325306586
150100000000.0,-1,-0.0476995456,-0.21180402669999998,0.1173071473,-0.06292,0.007079,-0.033812,0.34024172174999995,-2.2156164345,-9.546969908,0.035623,0.2279,2.8816,0.0001300000000000745,-0.00019999999999997797,4.999999999988347e-05,-0.0002436586338561142,0.0007023629926505848,-0.00015931804105151492
150100000000.0,-1,-0.08470003605,-0.20652804899999996,0.13202692894999998,-0.098089,0.029433,-0.026325,0.3435661761,-2.2032600555,-9.549813836499998,0.035961,0.2266,2.8812,0.00014999999999998348,-9.999999999998899e-05,0.00010000000000021103,-0.000756739626020464,-6.391960610141467e-05,3.529085473874538e-05
150100000000.0,-1,-0.06622430745,-0.008433719,0.08971123419999999,-0.087393,0.034748,-0.033756,0.34559615265,-2.196885733,-9.551186767499999,0.036168,0.22594,2.8809,0.00010999999999994348,-0.00019999999999997797,0.00019999999999997797,-0.00029818796693922844,0.00014398962264738913,0.0001671115052501726
150100000000.0,-1,-0.0508965135,0.0026379888499999996,0.13762652609999998,-0.056432,0.034704,-0.044385,0.34883234714999994,-2.1910998095,-9.552363565499999,0.036501,0.22533,2.8806,4.0000000000040004e-05,-0.00029999999999996696,0.00019999999999997797,-0.0016350830602716304,-0.0004433469012576907,-0.00046549854281197067
150100000000.0,-1,-0.054672073749999994,-0.0004903325,0.13820511845,-0.024433,0.022983,-0.053976,0.3526079074,-2.1879616815,-9.5529519645,0.036894,0.225,2.8801,2.0000000000020002e-05,-0.00019999999999997797,0.00019999999999997797,-0.00047260681994160114,-0.0006768382170014853,-0.0003431946766888627
150100000000.0,-1,-0.06330192574999999,0.010542148749999999,-0.06686173969999999,-0.020214,0.000704,-0.055089,0.35359837904999997,-2.186098418,-9.553344230499999,0.036996,0.22481,2.8795,9.99999999995449e-06,-0.00029999999999996696,0.00019999999999997797,-0.0016111874383394342,-0.001196142006996359,-0.00020921283202168794
150100000000.0,-1,-0.0337152627,-0.011101127799999999,0.0498373953,-0.033041,-0.008812,-0.051951,0.3531963064,-2.1836467555,-9.5539326295,0.036952,0.22455,2.879,9.99999999995449e-06,-0.00020000000000020002,0.00019999999999997797,-2.055098313635817e-05,-0.0015675747881929158,-4.440338175504266e-05
150100000000.0,-1,-0.0345390213,-0.015700446649999998,0.05085728689999999,-0.051167,0.000765,-0.046616,0.35401025835,-2.17903763,-9.5549132945,0.037033,0.22407,2.8785,3.0000000000085514e-05,-0.00019999999999997797,0.00019999999999997797,0.00034967741156663457,-0.0016139944417814522,-9.752561817533145e-05
150100000000.0,-1,0.07673703625,0.07548178505,-0.032263878499999996,-0.07464,0.00821,-0.037032,0.35526550955,-2.1718787754999997,-9.556482358499998,0.037158,0.22332,2.8782,4.999999999999449e-05,-0.00019999999999997797,9.999999999998899e-05,0.00165069972610693,-0.0014000264375411131,-7.653097489968008e-05
150100000000.0,-1,0.1660265845,0.07948289824999999,0.00665871535,-0.086425,-0.000337,-0.022163,0.35995308825,-2.1618759924999997,-9.5586398215,0.037639,0.22227,2.8778,5.999999999994898e-05,-9.999999999998899e-05,9.999999999998899e-05,-0.0009182847002724426,-0.0013563231610391746,-0.0002087830968924287
150100000000.0,-1,0.1681840475,0.07179448465,0.008472945599999998,-0.07587,-0.034451,-0.004155,0.35779562524999997,-2.154128739,-9.5604050185,0.037407,0.22147,2.8778,2.999999999997449e-05,-9.999999999998899e-05,9.999999999998899e-05,-0.00024514617654669557,-0.0010957217366569516,-0.00019023903897708028
150100000000.0,-1,0.15979936175,0.2289068243,0.02246703515,-0.041832,-0.078073,-0.003181,0.3560010083,-2.145498887,-9.562464414999999,0.037212,0.22056,2.8777,3.0000000000085514e-05,-0.00019999999999997797,9.999999999998899e-05,-0.0003983752782096006,-0.0008198382556052763,-0.0005563007684755705
150100000000.0,-1,0.0659399146,0.17713751895,0.01754409685,0.011458,-0.11318,-0.017075,0.34766535579999996,-2.1414781605,-9.563641212999999,0.036336,0.22014,2.8775,3.999999999992898e-05,-9.999999999998899e-05,9.999999999998899e-05,-0.00018986392687936338,-0.0012895732518898306,-0.00014922647648341059
150100000000.0,-1,0.07726659535,0.1819525841,0.016867438,0.063739,-0.12809,-0.036241,0.3363288684,-2.146283419,-9.5629547475,0.035156,0.22064,2.8772,4.999999999999449e-05,-4.999999999988347e-05,9.999999999998899e-05,-0.0013529136671810993,-0.0012250083918352583,-3.741491583098e-05
150100000000.0,-1,-0.040246491599999996,0.06014418445,-0.1531406464,0.091533,-0.12273,-0.05856,0.3254631002,-2.1512848105,-9.562268282,0.034023,0.22117,2.8766,3.0000000000085514e-05,-5.0000000000105516e-05,9.999999999998899e-05,-0.0005398618616891948,-0.0009464235992342473,-9.612173992712414e-05
150100000000.0,-1,0.007727640199999999,0.02878251775,-0.2486574174,0.083031,-0.11731,-0.069186,0.31548973714999995,-2.1576591329999997,-9.561091484,0.032985,0.22184,2.8759,8.999999999992347e-05,1.999999999990898e-05,-5.0000000000105516e-05,1.8752855658388246e-05,-0.0008491014326867941,0.00018257346138184083
150100000000.0,-1,0.017622550049999998,0.034391921549999996,-0.24960866245,0.052062,-0.1173,-0.054303,0.3055948273,-2.1632489235,-9.5602088855,0.031955,0.22242,2.8753,9.999999999998899e-05,2.0000000000131024e-05,-4.999999999988347e-05,0.0011589657613073345,0.00032521047355360544,0.0001668971675102826
150100000000.0,-1,0.05839860075,0.0853374683,-0.1826194363,0.026426,-0.1068,-0.02663,0.29699439525,-2.1647199209999997,-9.560110818999998,0.031056,0.22257,2.8749,7.00000000000145e-05,1.999999999990898e-05,-0.00019999999999997797,3.0099500624158892e-05,0.0003032516653296291,-2.437750721184795e-05
150100000000.0,-1,0.1129529947,0.22273844145,-0.11583614979999998,0.02218,-0.079356,-0.007423,0.29136537815,-2.1612875935,-9.561091484,0.030465,0.22222,2.8747,7.00000000000145e-05,2.0000000000131024e-05,-9.999999999998899e-05,0.0008101136249744068,0.000841816053249067,-0.00039453020291790875
150100000000.0,-1,0.09235902969999998,0.27153633185,-0.043374812949999994,0.036154,-0.036951,-0.012642,0.28906081539999995,-2.1581494654999998,-9.561876016,0.030222,0.22189,2.8745,2.999999999997449e-05,1.999999999990898e-05,-0.00019999999999997797,0.0008523490077719242,0.0007734407714401481,-8.480896871532195e-05
150100000000.0,-1,0.07589366435,0.2647403234,-0.029194397049999998,0.068274,0.004368,-0.024241,0.29071813925,-2.1581494654999998,-9.5617779495,0.030394,0.22188,2.8743,-4.999999999921734e-06,4.999999999988347e-05,-9.999999999998899e-05,0.00031112097286906115,-7.74818894644369e-06,6.715345514607396e-05
150100000000.0,-1,0.0467973338,0.1741072641,0.016553625199999998,0.09608,0.031929,-0.038024,0.29513113175,-2.162954724,-9.5606011515,0.03086,0.22239,2.8738,-5.000000000032756e-06,5.0000000000105516e-05,-4.999999999988347e-05,9.057142995022582e-05,0.00020978080000766397,0.00013869134361865765
150100000000.0,-1,0.0419136221,0.18378642765,0.01420983585,0.10145,0.043613,-0.043314,0.30001484344999996,-2.1725652409999996,-9.5582475555,0.031377,0.2234,2.8734,-5.000000000032756e-06,9.999999999998899e-05,-5.0000000000105516e-05,-0.0007250738920605293,6.667378177604988e-05,0.0003352301895719334
150100000000.0,-1,-0.0194563936,-0.0014415775499999998,0.0346174745,0.078006,0.055372,-0.043294,0.30631071275,-2.1793318295,-9.556482358499998,0.032042,0.22411,2.8729,-4.999999999921734e-06,9.999999999998899e-05,-9.999999999998899e-05,1.0075244663981797e-05,0.0006160936553987195,0.00043009721613695984
150100000000.0,-1,-0.00805125965,0.011434553899999998,0.08511191534999998,0.043936,0.086262,-0.043233,0.3146561719,-2.1844312875,-9.5551094275,0.032919,0.22464,2.8724,1.999999999990898e-05,0.00019999999999997797,-4.999999999988347e-05,-0.00021529615356594145,9.43947005194179e-05,0.0008300449562591572
150100000000.0,-1,-0.0196525266,0.0126898051,0.08443525649999999,0.004538,0.11825,-0.045298,0.32625743884999997,-2.185706152,-9.554422962,0.034134,0.22477,2.872,-2.999999999997449e-05,9.999999999998899e-05,-5.0000000000105516e-05,-3.097146124583783e-05,0.0007308760585409413,0.0003985490649603962
150100000000.0,-1,0.1049703816,0.16733086894999996,0.05171046544999999,-0.027449,0.12266,-0.050615,0.3427424175,-2.17903763,-9.555305560499999,0.035854,0.22407,2.8714,-9.99999999995449e-06,9.999999999998899e-05,-5.0000000000105516e-05,-0.0003976929769092252,0.0006835811104706213,0.0004394927250936931
150100000000.0,-1,0.0916921775,0.2715069119,0.23012284889999998,-0.025325,0.1079,-0.063412,0.35706993314999996,-2.1712903765,-9.556580425,0.037347,0.22326,2.8708,-2.0000000000020002e-05,0.00019999999999997797,-4.999999999988347e-05,0.00036924596842524693,0.0012788491902142596,0.00034989852206845917
150100000000.0,-1,0.07973787114999999,0.27187956459999996,0.22958348315,0.019516,0.10995,-0.077224,0.36902423949999996,-2.1716826425,-9.5560900925,0.038598,0.2233,2.87,-7.00000000000145e-05,9.999999999998899e-05,9.999999999998899e-05,-0.001379481007205613,0.0007245736054841689,-4.6593454300469794e-05
150100000000.0,-1,0.15497448995,0.22163028999999998,0.26225924094999997,0.077107,0.1023,-0.077227,0.38776474764999996,-2.169427113,-9.555795892999999,0.040557,0.22307,2.869,-5.999999999994898e-05,0.00010000000000021103,3.333333333332966e-05,-0.0005486994026215886,0.0015284105228878797,3.53464307734086e-05
150100000000.0,-1,0.1519442351,0.16107422624999998,0.3463904913,0.11651,0.085037,-0.059174,0.40141560444999996,-2.1780569649999997,-9.553246163999999,0.041994,0.22397,2.8682,-6.0000000000060005e-05,9.999999999998899e-05,3.333333333332966e-05,-0.0002671427972376905,0.001261555064473674,-0.0002454866241748954
150100000000.0,-1,0.1432751565,0.17260684664999998,0.34338965639999997,0.12071,0.081615,-0.029397,0.41008468304999995,-2.1895307455,-9.550304168999999,0.042913,0.22517,2.8678,-9.999999999998899e-05,9.999999999998899e-05,3.333333333332966e-05,-0.0010341242876150403,0.00045937271266160984,-0.000312088393728982
150100000000.0,-1,0.17420533059999999,0.12005300929999999,0.24805921175,0.081163,0.07416,-0.003896,0.42539286369999996,-2.1958070015,-9.548146705999999,0.044522,0.22583,2.8674,-7.999999999996898e-05,4.999999999988347e-05,1.1111111111183902e-05,-0.0003991976554169885,9.852677600452608e-05,-0.0005705356597328626
150100000000.0,-1,0.18934679819999997,0.1254662801,0.12036682209999999,0.011736,0.049952,0.008795,0.4349445408,-2.1967876664999997,-9.547558307,0.045524,0.22592,2.8674,-6.0000000000060005e-05,5.0000000000105516e-05,1.1111111110961858e-05,-0.0007050978972428512,0.0005620107459078927,-0.00015379142839455628
150100000000.0,-1,0.1882484534,0.12127884054999999,0.12127884054999999,-0.06093,0.000376,0.011855,0.43603307895,-2.192570807,-9.5484409055,0.045634,0.22548,2.8675,-2.999999999997449e-05,9.999999999998899e-05,1.1111111111183902e-05,0.000348500348810149,0.00011656232249590559,-0.00042298656235439935
150100000000.0,-1,0.06141904895,0.2479513386,0.0048640984,-0.10691,-0.050278,0.003219,0.43627824519999997,-2.1748207705,-9.552461631999998,0.04564,0.22363,2.8675,-1.0000000000065512e-05,4.999999999988347e-05,1.1111111111183902e-05,0.00017505624614411186,0.0006377533591428453,-2.9229297337174387e-05
150100000000.0,-1,0.06141904895,0.2479513386,0.0048640984,-0.10691,-0.050278,0.003219,0.43627824519999997,-2.1748207705,-9.552461631999998,0.04564,0.22363,2.8675,-9.99999999995449e-06,5.0000000000105516e-05,1.1111111110961858e-05,0.00033026612561831703,0.0005237477370494403,-0.00012666546945849788
150100000000.0,-1,-0.085513988,0.2891981085,0.015053207749999999,-0.10587,-0.073534,-0.00747,0.42788375279999996,-2.158639798,-9.556580425,0.044744,0.22194,2.8676,-2.0000000000020002e-05,5.0000000000105516e-05,1.1111111111183902e-05,-9.249366215088872e-05,0.0003106341455474393,-0.00011791800937754893
150100000000.0,-1,-0.0985568325,0.11974900314999999,0.01081673495,-0.017266,-0.024046,-0.009484,0.41488994155,-2.140791695,-9.561091484,0.043366,0.22007,2.8675,-9.99999999995449e-06,4.999999999988347e-05,1.1111111111183902e-05,-0.0006208832833581035,0.00024263343454578035,-0.00020586657000443154
150100000000.0,-1,-0.0746678331,0.052759777,-0.09022118,0.020084,-0.001025,0.011851,0.41269325195,-2.1406936285,-9.561287617,0.043136,0.22006,2.8676,-2.999999999997449e-05,1.999999999990898e-05,1.1111111110961858e-05,0.0012037348457533958,-0.001336256375502387,0.00019636395887778768
150100000000.0,-1,-0.07428537375,0.055103566349999994,-0.09072131915,0.02218,0.003032,0.035262,0.41232059925,-2.1430472245,-9.5607972845,0.0431,0.2203,2.8678,-4.999999999999449e-05,2.0000000000131024e-05,1.1111111111183902e-05,-0.0001311182309418346,0.0003567290421266911,7.53498649975759e-05
150100000000.0,-1,-0.0315577997,0.024124358999999998,-0.0935946676,0.000809,0.005094,0.054408,0.4098395168,-2.1422626925,-9.560993417499999,0.04284,0.22022,2.8684,9.99999999995449e-06,1.999999999990898e-05,9.999999999998899e-05,-0.0001318868760079861,-0.00015736690178891344,0.00015526522670705756
150100000000.0,-1,-0.04362978585,0.058820286699999995,-0.13372347939999998,-0.028028,-0.000166,0.063962,0.4077016671,-2.1388303649999996,-9.561876016,0.042612,0.21986,2.8691,5.000000000032756e-06,2.0000000000131024e-05,9.999999999998899e-05,0.0006610914351328767,1.2362733992299368e-05,-0.00021290743926205558
150100000000.0,-1,-0.020848937899999996,0.05278919694999999,-0.07495222594999999,-0.046211,-0.018137,0.066044,0.40451450585,-2.1335347739999997,-9.563248947,0.042274,0.21931,2.8698,5.000000000032756e-06,1.999999999990898e-05,9.999999999998899e-05,0.00016223169599885456,0.0003541571430913937,-0.0001601061639194823
150100000000.0,-1,-0.0376967626,0.03562755945,-0.012493672099999999,-0.029197,-0.045754,0.062795,0.3986207091999999,-2.129612114,-9.5643276785,0.041654,0.21891,2.8705,9.99999999995449e-06,2.4999999999941735e-05,0.00019999999999997797,7.330553986439892e-06,0.00023238633964406397,-7.931446975151246e-05
150100000000.0,-1,-0.052867650149999994,0.0320873588,0.022908334399999997,0.013428,-0.073449,0.056361,0.38984375744999994,-2.1295140475,-9.5647199445,0.040736,0.2189,2.8711,-6.666666666710341e-06,2.500000000016378e-05,9.999999999998899e-05,-5.7757951371972815e-05,0.00048175030843045086,-0.0003554365762408196
150100000000.0,-1,-0.056025391449999996,-0.033666229449999995,0.050935740099999995,0.06035,-0.095795,0.041431,0.3789485693,-2.135299971,-9.563837346,0.039602,0.2195,2.8716,-6.666666666599319e-06,2.4999999999941735e-05,0.000300000000000189,-0.0010389731250452783,-0.0002673137295801098,-7.41450395064236e-05
150100000000.0,-1,-0.045306723,-0.0254384501,0.04951377585,0.092363,-0.10851,0.023328,0.36822009419999996,-2.1435375569999997,-9.562464414999999,0.038488,0.22036,2.8718,-6.666666666710341e-06,2.4999999999941735e-05,0.00019999999999997797,-0.0006927850419500836,-0.00042428571320685116,-3.0241428962796135e-05
150100000000.0,-1,-0.061144462749999996,-0.0853766949,0.0862396801,0.10415,-0.10416,0.002067,0.35622656125,-2.155305537,-9.5602088855,0.037244,0.22159,2.8719,2.999999999997449e-05,9.999999999998899e-05,0.00029999999999996696,-0.0020420302871396734,-0.00029265328985350614,5.227944471097867e-05
150100000000.0,-1,-0.0522890578,-0.07632515695,0.0845137097,0.089273,-0.092314,-0.013865,0.3473711563,-2.164327655,-9.558541755,0.036326,0.22253,2.8717,-1.999999999990898e-05,5.0000000000105516e-05,0.00029999999999996696,-0.0011168637766973966,-2.06448848949492e-06,4.631074493555154e-06
150100000000.0,-1,-0.040020938650000004,-0.1389602305,0.07401078755,0.058382,-0.079402,-0.022353,0.3379567723,-2.176487901,-9.5560900925,0.03535,0.22381,2.8715,1.999999999990898e-05,4.999999999988347e-05,0.00019999999999997797,-0.001702198170157071,0.00015258913078364245,0.0003233393223673886
150100000000.0,-1,0.0020593965,-0.1570829197,0.059261585949999994,0.026382,-0.069794,-0.01383,0.33148438329999996,-2.1830583564999997,-9.554815227999999,0.034679,0.2245,2.8714,2.0000000000020002e-05,4.999999999988347e-05,0.00029999999999996696,-0.0011842169373393052,-0.0001542019506484138,0.00019652122148028361
150100000000.0,-1,0.017465643649999998,-0.15291509344999998,0.069627215,0.002894,-0.065562,1e-06,0.32550232679999996,-2.187079083,-9.5541287625,0.034056,0.22492,2.8713,4.999999999999449e-05,5.0000000000105516e-05,0.00019999999999997797,-0.0007839442720761203,-0.00023301967064304208,0.0001476433933588206
150100000000.0,-1,0.0160044528,-0.07953193149999999,0.071000146,-0.006787,-0.061387,0.009575,0.31962814344999996,-2.1885500804999998,-9.5539326295,0.033443,0.22506,2.8714,2.999999999997449e-05,-9.999999999998899e-05,0.00019999999999997797,-0.0003734746027026503,-0.00010873274183986759,-0.0001572846402299044
150100000000.0,-1,0.0423843413,-0.0547407203,-0.01275845165,-0.014217,-0.048599,0.005347,0.31525437755,-2.1883539474999996,-9.5541287625,0.032984,0.22504,2.8715,2.0000000000020002e-05,-4.999999999988347e-05,9.999999999998899e-05,-0.0012260074690236822,-0.0005010086523593582,-0.0005238760824327615
150100000000.0,-1,0.04500271685,-0.056564757199999996,-0.0122583125,-0.020533,-0.020913,-0.006292,0.31263600199999997,-2.186490684,-9.5547171615,0.032709,0.22485,2.8714,6.0000000000060005e-05,-5.0000000000105516e-05,9.999999999998899e-05,-0.00011118114852737282,-0.00023886804991213317,-0.00034381195256949493
150100000000.0,-1,0.01207198615,-0.05053366744999999,-0.0336564228,-0.015108,0.016206,-0.009398,0.31353821379999997,-2.1863926175,-9.554619095,0.032803,0.22484,2.8713,5.999999999994898e-05,-9.999999999998899e-05,0.00010000000000021103,0.0017227392178097711,-0.0006196019190014557,-0.000293050318484811
150100000000.0,-1,0.07387349445,-0.09382022055,-0.1672622224,-0.011847,0.042705,-0.009337,0.31877496489999996,-2.1861964845,-9.5545210285,0.033351,0.22482,2.8712,7.00000000000145e-05,-9.999999999998899e-05,9.999999999998899e-05,0.0004077244326217422,-0.00030443519550305,-9.253222290039886e-05
150100000000.0,-1,0.06957818175,-0.09523237814999999,-0.1670857027,-0.015059,0.040573,-0.006152,0.32308008425,-2.1848235535,-9.5547171615,0.0338,0.22467,2.8711,7.00000000000145e-05,-5.0000000000105516e-05,9.999999999998899e-05,2.973263795943981e-05,-0.0002458920185173241,-0.00022524494945352913
150100000000.0,-1,0.10264620555,-0.04470851735,-0.13725387339999998,-0.017239,0.021479,-0.004069,0.32935634024999993,-2.1843332209999997,-9.554619095,0.034457,0.22462,2.871,9.999999999998899e-05,-4.999999999988347e-05,0.00019999999999997797,0.00020127644209552709,-7.217482736998626e-05,0.0001255580400582046
150100000000.0,-1,0.0668028998,-0.06714613254999999,-0.15487642345,-0.017294,-0.003964,-0.00519,0.33093521089999994,-2.1832544895,-9.554815227999999,0.034622,0.22451,2.8709,9.999999999998899e-05,-9.999999999998899e-05,9.999999999998899e-05,-0.00020484493651215518,-0.00016572359353261845,-9.63590255511626e-05
150100000000.0,-1,0.018907221199999998,-0.06883287635,-0.1413530531,-0.012007,-0.031502,-0.012697,0.32900330085,-2.182568024,-9.555011361,0.034418,0.22444,2.8708,6.0000000000060005e-05,-9.999999999998899e-05,9.999999999998899e-05,0.00040147386499847504,0.00018530134244332253,-0.000159428031540787
150100000000.0,-1,0.022418001899999998,-0.06906823594999999,-0.1411765334,0.002918,-0.041066,-0.018033,0.32548271349999996,-2.182371891,-9.555207494,0.034051,0.22442,2.8706,8.999999999992347e-05,-4.999999999988347e-05,9.999999999998899e-05,-0.000504491558518172,0.00026335512793274063,-0.0002518014948034164
150100000000.0,-1,-0.055270279400000004,-0.0105323421,-0.028605998049999998,0.028546,-0.031616,-0.019068,0.3220699993,-2.1846274205,-9.554815227999999,0.033695,0.22466,2.8704,8.000000000008001e-05,-5.0000000000105516e-05,9.999999999998899e-05,-0.0005467648150003224,0.0002488457774474373,-0.0005143836569593274
150100000000.0,-1,-0.08026743025,-0.02311427405,0.0293218835,0.060577,-0.017982,-0.015838,0.31864747844999997,-2.1903152775,-9.55363843,0.033341,0.22525,2.8703,4.999999999999449e-05,-9.999999999998899e-05,9.999999999998899e-05,-0.0010955261284237017,0.00011917027159524807,-0.0006159703092785129
150100000000.0,-1,-0.0539169617,-0.040795663999999995,0.07559946484999999,0.089418,0.004116,-0.008335,0.31757855360000004,-2.199435462,-9.5515790335,0.033237,0.2262,2.8702,5.999999999994898e-05,-9.999999999998899e-05,9.999999999998899e-05,-0.0006613872558159373,-0.0002018407087225338,-0.000572380719529364
150100000000.0,-1,-0.0518575652,-0.08594548059999998,0.10095946174999999,0.11289,0.014547,0.002332,0.31776487994999997,-2.211987974,-9.5486370385,0.033266,0.22752,2.8702,9.00000000000345e-05,-5.0000000000105516e-05,9.999999999998899e-05,-6.98482524025823e-05,-0.0001347983864765645,-0.00034537541027146457
150100000000.0,-1,-0.052759777,-0.07416769395,0.09819398644999999,0.12566,0.010174,0.012962,0.31866709175,-2.2238540204999997,-9.5458911765,0.03337,0.22876,2.8702,9.999999999998899e-05,-4.999999999988347e-05,3.333333333332966e-05,0.00020745513557135498,0.00011640076852525993,0.00010229340478928872
150100000000.0,-1,0.0030596748,-0.15211094815,0.1692235524,0.12671,0.00273,0.015073,0.31805907944999995,-2.2432711875,-9.541282051,0.033322,0.2308,2.8704,0.00012000000000000899,-0.00020000000000020002,3.333333333332966e-05,0.0014570461739352447,-0.0005784735460776513,0.00017141158638367404
150100000000.0,-1,-0.050062948249999996,-0.13665566775,0.16706608939999998,0.10744,-0.005664,0.006554,0.31656846864999993,-2.257686963,-9.53794779,0.033178,0.2323,2.8704,0.00012999999999996348,-5.0000000000105516e-05,3.333333333332966e-05,0.0002741907776661612,-0.00046500336328092473,0.00028269052502361003
150100000000.0,-1,-0.04957261574999999,-0.12871228124999998,0.1652028259,0.074394,-0.006464,-0.010475,0.31607813615,-2.2656303495,-9.5360845265,0.033133,0.23314,2.8703,9.00000000000345e-05,-4.999999999988347e-05,3.333333333332966e-05,-6.162521467689697e-05,-0.0006432593608016735,0.00027816288478610396
150100000000.0,-1,-0.029498403199999995,-0.1216809132,0.15062033735,0.040327,0.004453,-0.033861,0.31635272235,-2.2733776029999997,-9.534221263,0.033169,0.23395,2.8701,0.00012000000000000899,-9.999999999998899e-05,3.333333333332966e-05,0.000302216864481869,0.00014559852351747615,0.0001346795920393884
150100000000.0,-1,-0.011562040349999999,-0.0691564958,0.1826782762,0.012659,0.021651,-0.049784,0.31892206465,-2.277300263,-9.533240597999999,0.033441,0.23436,2.8696,9.999999999998899e-05,-5.0000000000105516e-05,3.333333333332966e-05,0.00044051162212224715,-0.00010784522530937757,0.0002009490958896354
150100000000.0,-1,-0.0160044528,-0.0694703086,0.182599823,-0.005445,0.038667,-0.046559,0.3233644771,-2.2770060635,-9.5331425315,0.033907,0.23433,2.8691,0.00010999999999994348,-4.999999999988347e-05,5.0000000000105516e-05,-0.0003116014176856585,-8.494214377674503e-05,1.1309862394837111e-05
150100000000.0,-1,0.017475450299999997,-0.02917478375,0.1562199345,-0.01721,0.03755,-0.032737,0.3293857602,-2.278869327,-9.5325541325,0.03454,0.23452,2.8687,6.0000000000060005e-05,-9.999999999998899e-05,4.999999999988347e-05,0.0003148831492497395,0.00018753798793103016,-0.00015133555153690192
150100000000.0,-1,0.013984282899999999,-0.03139108665,0.1566318138,-0.022599,0.030004,-0.013609,0.3328769276,-2.2766137975,-9.5329463985,0.034905,0.23429,2.8685,9.999999999998899e-05,-5.0000000000105516e-05,9.999999999998899e-05,-0.0002445856952928982,-7.585343444249659e-05,-0.00029761266279326737
150100000000.0,-1,0.014033316149999999,-0.00736479415,0.12689805099999998,-0.019438,0.023532,-0.000859,0.33581892259999996,-2.275338933,-9.5331425315,0.035212,0.23416,2.8684,5.999999999994898e-05,-4.999999999988347e-05,9.999999999998899e-05,-0.0005548063033420092,-0.00020536024794659546,-0.00023606239617313118
150100000000.0,-1,-0.01711260425,0.0498373953,0.15458222395,-0.0088,0.014966,0.004443,0.3371918536,-2.2738679354999998,-9.533436731,0.035354,0.234,2.8685,0.0001100000000000545,-9.999999999998899e-05,4.999999999988347e-05,0.0005313908889027219,-0.0002554058121542191,-0.00036991596311930497
150100000000.0,-1,-0.0186522483,0.06673425325,0.11868007829999999,0.013572,-0.002067,0.001219,0.33708398045,-2.2738679354999998,-9.533436731,0.035343,0.234,2.8685,0.00010999999999994348,-5.0000000000105516e-05,5.0000000000105516e-05,0.0005501677855044573,-4.0275616430607286e-05,0.00019043451441691506
150100000000.0,-1,-0.0163967188,0.069431082,0.11811129259999999,0.03379,-0.032838,-0.007354,0.33482845094999997,-2.2766137975,-9.532848332,0.035109,0.23428,2.8684,0.00012000000000000899,-4.999999999988347e-05,5.0000000000105516e-05,0.00038642641927089105,-0.00046302076383009094,0.0003536700556224792
150100000000.0,-1,-0.0163967188,0.069431082,0.11811129259999999,0.03379,-0.032838,-0.007354,0.33482845094999997,-2.2766137975,-9.532848332,0.035109,0.23428,2.8684,0.0001300000000000745,-9.999999999998899e-05,4.999999999988347e-05,0.00012800465624376867,-2.8981681553963412e-05,0.0005106141328077296
150100000000.0,-1,-0.06547900205,0.0819443674,0.16293748975,0.058285,-0.057279,-0.013785,0.3282481888,-2.27906546,-9.532456066,0.034421,0.23455,2.8684,0.00015999999999993797,-9.999999999998899e-05,4.999999999988347e-05,0.00032382961244428743,-1.9797436089374898e-05,0.0005365510930213091
150100000000.0,-1,-0.036304218299999996,0.0325384647,0.17197922105,0.085001,-0.047754,-0.025457,0.3177746866,-2.2946580334999997,-9.529121804999999,0.033335,0.23618,2.8678,0.00014999999999998348,-9.999999999998899e-05,5.0000000000105516e-05,0.0006888211044289716,-0.0005846552667456706,0.0005909878869179153
150100000000.0,-1,0.02203554255,-0.05886931994999999,0.07505029245,0.055173,-0.029599,-0.026488,0.31554857704999995,-2.3034840185,-9.527062408499999,0.033109,0.2371,2.8675,0.00017000000000000348,-9.999999999998899e-05,0.00010000000000021103,0.00044366117592961607,-0.00048525503822083316,0.0006541076123246503
150100000000.0,-1,0.022741621349999998,-0.0573885158,0.07471686635,0.002937,-0.00716,-0.021132,0.31484249825,-2.3049550159999996,-9.526768209,0.033036,0.23726,2.8673,0.000160000000000049,-9.999999999998899e-05,9.999999999998899e-05,-0.00019907316411241216,-0.0006159371288321225,0.0002011063330941143
150100000000.0,-1,0.00059820565,-0.0349705139,0.0979095936,-0.042887,0.026862,-0.008303,0.31693131469999997,-2.302797553,-9.527160475,0.033254,0.23704,2.8672,0.00017999999999995797,-9.999999999998899e-05,9.999999999998899e-05,-0.0004494635189555285,0.00046717948825514277,1.1104450250210007e-05
150100000000.0,-1,0.0136312435,-0.009129991149999999,0.1226811915,-0.067451,0.058647,0.002441,0.32230535889999995,-2.2974038955,-9.528337273,0.033813,0.23647,2.8672,0.000140000000000029,-0.00019999999999997797,0.00019999999999997797,-0.0005097093286353938,0.0004264275160732467,-0.00019248557397011368
150100000000.0,-1,0.0359511789,0.023143694,0.10402894319999999,-0.06421,0.080865,0.007811,0.3303664252,-2.291029573,-9.529514071,0.034653,0.2358,2.8673,0.00010999999999994348,-0.00029999999999996696,0.00029999999999996696,-0.0009820198353778509,0.0009698839211864652,-0.00042007606854155277
150100000000.0,-1,0.0291061372,0.01817172245,0.10498018824999998,-0.048234,0.070188,0.008854,0.33720166025,-2.2860281815,-9.530494736,0.035367,0.23528,2.8674,0.00012000000000000899,-0.00020000000000020002,0.00019999999999997797,-0.00014770724861351558,0.0007563072469383147,-0.000543437068042607
150100000000.0,-1,0.04927841625,0.05341682254999999,-0.0209666177,-0.02909,0.038346,0.002405,0.34426244824999996,-2.2804383909999997,-9.5315734675,0.036103,0.23469,2.8674,0.00019000000000002348,-0.00029999999999996696,0.00039999999999995595,0.0001554938705418396,0.0004794453781362673,-0.0003113656080274696
150100000000.0,-1,0.0482094914,0.05206350485,-0.02068222485,-0.008895,0.002233,-0.000863,0.3453313731,-2.2791635265,-9.531867666999998,0.036214,0.23455,2.8674,0.00012000000000000899,-0.00029999999999996696,0.00029999999999996696,0.0016801913905526433,0.0005753215660895261,-0.0011472434364175887
150100000000.0,-1,0.0117483667,0.04062895095,-0.039520799499999995,0.012369,-0.034929,-0.006259,0.3431935234,-2.2787712604999997,-9.5320638,0.035989,0.23451,2.8673,0.00012000000000000899,-0.00039999999999995595,0.000400000000000178,1.1155434833376443e-05,-0.0006083211245582199,-0.0010160565618025919
150100000000.0,-1,-0.03288169745,0.056907989949999994,0.0040403398,0.02942,-0.049788,-0.013734,0.33814309865,-2.280046125,-9.531867666999998,0.03546,0.23465,2.8672,-9.99999999995449e-06,-0.00029999999999996696,0.00039999999999995595,-0.0013642821751937428,-0.0012683823126988791,-0.0014011914872332776
150100000000.0,-1,-0.08470003605,0.04117812334999999,0.052651903849999994,0.043353,-0.03278,-0.026456,0.33324958029999996,-2.2833803859999997,-9.531279267999999,0.034949,0.23499,2.867,3.999999999992898e-05,-0.00029999999999996696,0.00039999999999995595,-0.0017952002415781154,-0.000796050213083932,-0.0006570481786554172
150100000000.0,-1,-0.0844548698,0.0448163905,0.051788918649999995,0.035962,-0.003017,-0.031709,0.33300441405,-2.2870088465,-9.5303966695,0.034926,0.23538,2.8667,7.00000000000145e-05,-0.00029999999999996696,0.00039999999999995595,9.70221437714136e-05,-0.0009581687422395291,-0.00031111867670052806
150100000000.0,-1,-0.025683616349999997,-0.09399674024999999,0.0357746592,0.009343,0.020411,-0.0306,0.33408314554999996,-2.291814105,-9.529219871499999,0.035045,0.23588,2.8664,9.999999999998899e-05,-0.00020000000000020002,0.0004999999999999449,-0.002430126548432776,-0.0008542087096783391,0.00022831555442726081
150100000000.0,-1,-0.029674922899999998,-0.09521276485,0.0359315656,-0.019442,0.041632,-0.016731,0.33808425875,-2.290637307,-9.5294160045,0.035463,0.23575,2.8661,0.0001100000000000545,-9.999999999998899e-05,0.000400000000000178,-0.001482006082688947,0.0002841480234083704,-7.511450665476094e-05
150100000000.0,-1,-0.0176911966,-0.0672343924,0.0223983886,-0.046096,0.059678,-0.004997,0.34330139655,-2.2881856445,-9.5298082705,0.036008,0.2355,2.8661,7.999999999996898e-05,-0.00029999999999996696,0.00039999999999995595,-0.002061915489778715,0.00020357547293214928,-5.333902930726442e-05
150100000000.0,-1,0.00661948875,-0.043884758749999996,0.0051190713,-0.065299,0.070272,0.006723,0.34996991855000004,-2.2830861865,-9.5307889355,0.036703,0.23497,2.8661,7.999999999996898e-05,-0.00019999999999997797,0.00029999999999996696,-0.0016774752329842824,-0.00020626616838614886,-0.00043697927661079383
150100000000.0,-1,0.0027458619999999995,-0.02923362365,-0.0283412185,-0.070654,0.073371,0.020556,0.35667766715,-2.2768099305,-9.5320638,0.037402,0.23431,2.8663,0.000140000000000029,-0.00029999999999996696,0.00029999999999996696,0.0005744097637546686,-0.000430433927347984,-0.0003674508488684669
150100000000.0,-1,-0.0029223816999999997,-0.034950900599999994,-0.0271840338,-0.055762,0.064731,0.033305,0.36234591085,-2.2711220735,-9.5331425315,0.037991,0.23371,2.8667,0.00017000000000000348,-9.999999999998899e-05,0.00019999999999997797,-0.0018192603286462106,0.0004658441804248348,-0.00035374068292526317
150100000000.0,-1,-0.05057289405,-0.24682357384999998,-0.17271471979999997,-0.030295,0.045421,0.041797,0.36436608075,-2.2742602014999997,-9.532357999499999,0.038205,0.23404,2.8672,0.00017999999999995797,-0.00029999999999996696,9.999999999998899e-05,0.0005905581450330044,-0.0002144324379080853,-0.0003950016842269033
150100000000.0,-1,-0.05119071299999999,-0.24788269205,-0.17248916685,-0.006915,0.006082,0.042778,0.3649838997,-2.27318147,-9.5325541325,0.038269,0.23393,2.8676,0.0002300000000000635,-9.999999999998899e-05,9.999999999998899e-05,0.0022545622286124223,-6.70443729111625e-05,-9.071812891336961e-06
150100000000.0,-1,-0.09778210715,-0.28910984865,-0.275370732,0.00902,-0.036306,0.029923,0.35934507595,-2.2781828615,-9.5315734675,0.037683,0.23446,2.868,0.00020999999999993246,-0.00019999999999997797,9.999999999998899e-05,0.00015720575662891978,-0.00014644537278862835,0.00014100774426251128
150100000000.0,-1,-0.1634180156,-0.2613864491,-0.27598855095,0.02502,-0.06057,0.004344,0.35016605155,-2.2840668515,-9.530494736,0.036726,0.23507,2.8682,0.00017000000000000348,-0.00019999999999997797,0.00019999999999997797,-0.0005199116632824685,-0.0007997421021945783,0.00032700747225344884
150100000000.0,-1,-0.22898527749999997,-0.19874156889999997,-0.20180124369999997,0.034684,-0.061431,-0.027566,0.33971216265,-2.2901469745,-9.5294160045,0.035634,0.23571,2.8681,0.00017000000000000348,-1.4285714285744433e-05,9.999999999998899e-05,-0.0008852793539482207,-0.00027993031893358555,0.000784802860788969
150100000000.0,-1,-0.22537643029999999,-0.19584860715,-0.2023700294,0.029439,-0.046355,-0.055189,0.33610331544999994,-2.2930889695,-9.5288276055,0.035258,0.23601,2.8676,0.000200000000000089,-1.4285714285744433e-05,0.00020000000000020002,-0.001320504260790334,-9.395998830918906e-05,0.0009380327973259606
150100000000.0,-1,-0.14593275865,-0.08775971084999999,-0.20989172994999997,0.013512,-0.031286,-0.076432,0.33119018380000004,-2.2952464325,-9.528533406,0.034743,0.23624,2.8669,0.00018999999999991246,-1.4285714285744433e-05,0.00019999999999997797,-0.00010055664120556251,-0.0003190169753466421,0.0006940962040211662
150100000000.0,-1,-0.0776490547,0.03313667035,-0.09523237814999999,0.00718,-0.011024,-0.088088,0.3299349326,-2.2946580334999997,-9.528729538999999,0.034612,0.23617,2.8661,0.000180000000000069,-1.4285714285744433e-05,0.00019999999999997797,-0.0010585502487702736,0.00030783654490185164,0.0005040732233676515
150100000000.0,-1,-0.025595356499999996,0.162986523,-0.0075707338,0.018978,0.013352,-0.092285,0.3323473685,-2.2925005705,-9.529121804999999,0.034863,0.23595,2.8652,0.00018999999999991246,-1.4285714285744433e-05,0.00029999999999996696,-0.0009357455519969915,0.0006776062031248475,0.0007207389750072402
150100000000.0,-1,0.02276123465,0.21240223235,0.05743754905,0.048892,0.033373,-0.091168,0.33786851244999994,-2.292010238,-9.5290237385,0.035441,0.23591,2.8642,0.0001500000000000945,-1.4285714285744433e-05,0.00019999999999997797,-0.001667988771683948,0.0006390822782571526,0.00022020493750740666
150100000000.0,-1,0.01652420525,0.22060059175,0.05523105279999999,0.1033,0.05104,-0.071968,0.34410554185,-2.300247824,-9.5268662755,0.036104,0.23677,2.8633,0.00013999999999991797,-1.4285714285744433e-05,0.00019999999999997797,-0.0015694138434835248,0.0005854774300362298,0.0003706016656092048
150100000000.0,-1,0.0989883251,0.1660265845,0.23862521444999998,0.1534,0.053839,-0.047484,0.35306881995,-2.3115254715,-9.523826214,0.037055,0.23795,2.8627,9.00000000000345e-05,-9.999999999998899e-05,0.00019999999999997797,-0.0010978985910923278,0.0005058306672944823,-3.975968576330757e-05
150100000000.0,-1,0.1178367064,0.1038524235,0.26263189365,0.18533,0.036584,-0.026242,0.3607082003,-2.327902577,-9.519511288,0.037873,0.23967,2.8622,7.00000000000145e-05,-9.999999999998899e-05,0.00019999999999997797,-0.000839321247042335,-0.0004787633543348324,0.00023693060891827322
150100000000.0,-1,0.19557402094999998,0.08462158284999999,0.32652221839999995,0.1895,0.006778,-0.013544,0.36242436404999995,-2.345946813,-9.515000229,0.038072,0.24156,2.862,9.999999999998899e-05,-9.999999999998899e-05,0.00019999999999997797,-0.0006295361959139933,-0.0006917852371972621,0.0004574243120554211
150100000000.0,-1,0.1968586921,0.10184206024999999,0.32230535889999995,0.17663,-0.023932,-0.012553,0.3611396929,-2.363206517,-9.510783369499999,0.037953,0.24337,2.8618,7.999999999996898e-05,-9.999999999998899e-05,9.999999999998899e-05,-0.00010611729505777268,-0.0007320172028610905,0.0007121859952956555
150100000000.0,-1,0.25766972875,0.02191786275,0.36852410035,0.14141,-0.037522,-0.020038,0.3582369245,-2.377524226,-9.507351042,0.037663,0.24488,2.8615,6.0000000000060005e-05,-9.999999999998899e-05,0.00020000000000020002,2.659736980803462e-05,-0.0005348458071090523,0.0004972374737111096
150100000000.0,-1,0.22087517795,0.03296015065,0.3167155684,0.087998,-0.037308,-0.026353,0.35522628294999997,-2.3870366764999997,-9.505095512499999,0.037355,0.24588,2.8612,7.00000000000145e-05,-5.0000000000105516e-05,9.999999999998899e-05,0.00017328645065700643,0.001158599522320447,0.000902338261286606
150100000000.0,-1,0.2225717284,0.03678474415,0.31581335660000004,0.026179,-0.022118,-0.039099,0.35353953914999997,-2.39086127,-9.504114847499999,0.037181,0.24629,2.8609,4.999999999999449e-05,-4.999999999988347e-05,0.00019999999999997797,-0.0008072151153051821,0.0010037857524736182,0.00026424156585769243
150100000000.0,-1,0.1183270389,0.0748639661,0.0618015083,-0.030293,0.002563,-0.047568,0.35721703289999995,-2.3876250755,-9.504801313,0.037565,0.24595,2.8603,9.99999999995449e-06,-9.999999999998899e-05,0.00019999999999997797,-0.0014259545229108883,0.0009272215903424197,-0.00016546720738674914
150100000000.0,-1,0.05333836935,0.1502182647,0.03190103245,-0.05053,0.025903,-0.037947,0.36010999464999993,-2.3829178835,-9.5058800445,0.037865,0.24545,2.8599,2.0000000000020002e-05,-9.999999999998899e-05,0.00019999999999997797,-0.0009101722316318672,0.0009234428174706988,-0.0002352002200518566
150100000000.0,-1,0.04861156404999999,0.1463740579,0.032685564449999996,-0.032397,0.05105,-0.007039,0.36483679994999996,-2.37909329,-9.506664576499999,0.038358,0.24505,2.8598,9.99999999995449e-06,-9.999999999998899e-05,9.999999999998899e-05,-0.0021435789635655955,0.0009253686434280706,-0.0003933148166512801
150100000000.0,-1,-0.01723028405,0.236732531,-0.008786758399999999,0.007033,0.063346,0.029165,0.37023045745,-2.3789952235,-9.506566509999999,0.038925,0.24503,2.86,2.0000000000020002e-05,-0.00019999999999997797,9.999999999998899e-05,-0.0005533549596320464,4.6943402502774845e-05,-0.00014035281288660162
150100000000.0,-1,4.903325e-05,0.23100544739999998,-0.036284605,0.05069,0.051291,0.057868,0.37433944379999995,-2.3829178835,-9.505389712,0.039362,0.24545,2.8605,4.999999999999449e-05,-0.00019999999999997797,-5.0000000000105516e-05,-0.0014810654251448119,0.0005686928991510687,-6.869431677825055e-05
150100000000.0,-1,-0.0009414384,0.2380073955,-0.03807922195,0.076189,0.019246,0.074821,0.37532991545,-2.3899786714999998,-9.503526448499999,0.039474,0.24619,2.8612,9.999999999998899e-05,-9.999999999998899e-05,-4.999999999988347e-05,0.0003880131043557111,0.000555127050476445,-0.00016683663864103249
150100000000.0,-1,-0.024820631149999998,0.1652224392,-0.05245577084999999,0.093165,-0.01797,0.078996,0.37182894139999995,-2.3946858635,-9.5025457835,0.03911,0.24668,2.862,0.00012000000000000899,-0.00019999999999997797,-9.999999999998899e-05,0.0012615927634646584,0.0006673364975928742,-0.0003927944498772762
150100000000.0,-1,-0.0207116448,0.11200174965,0.01899548105,0.10807,-0.039184,0.071506,0.3662195376,-2.4023350504999996,-9.5007805865,0.038527,0.24749,2.8627,0.000140000000000029,-0.00029999999999996696,-0.00019999999999997797,0.0017108930342695228,0.0005821844734079651,-0.0005180030681822823
150100000000.0,-1,-0.01422944915,0.1228969378,0.01648497865,0.11339,-0.057121,0.056576,0.3597471486,-2.4132204319999997,-9.4982308575,0.037857,0.24864,2.8633,0.00010999999999994348,-0.000300000000000189,-9.999999999998899e-05,0.0014631964328015168,-0.00019452686057319646,-0.0004594220327658327
150100000000.0,-1,-0.05461323385,0.048376204449999995,0.07287321615,0.11126,-0.065509,0.044856,0.35149975595,-2.42224255,-9.496269527499999,0.036997,0.24958,2.8638,9.00000000000345e-05,-0.00029999999999996696,-0.00019999999999997797,0.0016143411161469445,-0.0006428780323524119,-0.000403273299165785
150100000000.0,-1,-0.09672298894999999,0.053387402599999995,0.12358340329999999,0.098508,-0.051601,0.035311,0.34272280419999995,-2.4317550005,-9.494210130999999,0.036083,0.25058,2.8642,7.00000000000145e-05,-0.00029999999999996696,-0.00019999999999997797,0.0020079936098437723,0.00018255257241550638,-0.0004386246311952613
150100000000.0,-1,-0.0936142809,0.060830649949999996,0.12178878634999998,0.06766,-0.014337,0.032196,0.3396239028,-2.4392080545,-9.492444934,0.035763,0.25137,2.8645,2.0000000000020002e-05,-0.00029999999999996696,-0.00010000000000021103,0.0007361836141782652,-0.0005902928482393044,-0.0004622460384502425
150100000000.0,-1,-0.12241641194999998,0.0791200522,0.05034734109999999,0.029337,0.027142,0.036535,0.3374468265,-2.442051983,-9.4917584685,0.035536,0.25167,2.8649,-2.0000000000020002e-05,-0.00029999999999996696,5.0000000000105516e-05,0.0011166680800580031,-0.0010128929113337737,-0.00014786270343891683
150100000000.0,-1,-0.11268821514999999,0.08646523304999999,0.06418452424999999,0.005906,0.058929,0.052556,0.33849613804999995,-2.441659717,-9.4917584685,0.035647,0.25162,2.8655,-5.999999999994898e-05,-0.00029999999999996696,5.0000000000105516e-05,0.00020269030637870555,-0.0007922868120471271,-0.00033537240100767196
150100000000.0,-1,-0.1169344946,0.08705363205,0.06388051809999999,0.004801,0.059842,0.072768,0.3427424175,-2.442248116,-9.491464269,0.036095,0.25168,2.8662,-0.00017000000000000348,-0.000300000000000189,9.999999999998899e-05,-0.0007867098101258518,-0.0010794165935450462,-0.0006127624930554187
150100000000.0,-1,-0.0322442652,0.1484922943,0.0841018304,0.029134,0.02043,0.078079,0.34259531774999996,-2.4421500495,-9.4915623355,0.036079,0.25168,2.867,-0.000160000000000049,-0.00029999999999996696,0.00019999999999997797,-0.0008041773209778724,-0.0009656651811769112,-0.0006523283734469754
150100000000.0,-1,-0.0284000584,0.17295988604999998,0.1616332053,0.073831,-0.039047,0.066256,0.3379959988999999,-2.4450920445,-9.4909739365,0.035598,0.25199,2.8677,-0.00019999999999997797,-0.00029999999999996696,0.00019999999999997797,-0.0016501668804841385,-0.0006532837782082801,-0.0010231275481793478
