Time,placement_label,user_acc_x(m/s^2),user_acc_y(m/s^2),user_acc_z(m/s^2),rotation_rate_x(rad/s),rotation_rate_y(rad/s),rotation_rate_z(rad/s),gravity_x(m/s^2),gravity_y(m/s^2),gravity_z(m/s^2),attitude_roll(rad),attitude_pitch(rad),attitude_yaw(rad),target_delta_x,target_delta_y,target_delta_z,target_delta_roll,target_delta_pitch,target_delta_yaw
150000000000.0,-1,0.05608423135,0.15654355395,-0.0550741464,-0.008586,0.005683,-0.0001,-1.3121297699999999,-9.641211814499998,1.2232815209999999,-2.3212,1.3868,-1.5153,0.0,0.0,0.0,0.0,0.0,0.0
150000000000.0,-1,0.05628036435,0.1565337473,-0.05494665995,0.003126,-0.002863,0.002011,-1.3123259029999998,-9.641211814499998,1.2231834544999998,-2.321,1.3868,-1.5154,-9.99999999995449e-06,3.333333333332966e-05,4.0000000000040004e-05,-0.0005119384332212817,0.00040784242825053774,-0.0002710499489317897
150000000000.0,-1,0.03315628365,0.10886362164999999,-0.04254124769999999,-0.001163,-0.010286,0.00412,-1.3122278365,-9.641211814499998,1.222693122,-2.3209,1.3869,-1.5156,-2.999999999997449e-05,3.333333333332966e-05,-9.99999999995449e-06,0.0003690848874540187,-0.0003383602196080915,0.0001820701926793511
150000000000.0,-1,0.01581812645,0.11942538369999998,-0.0521321514,-0.007578,-0.013465,0.007302,-1.312718169,-9.641309881,1.221516324,-2.3202,1.3869,-1.5164,-5.000000000032756e-06,3.333333333332966e-05,-3.0000000000085514e-05,0.00024212185184890878,1.2629766412697307e-06,3.759422723748074e-05
150000000000.0,-1,0.01630845895,0.119444997,-0.05147510585,-0.008643,-0.013453,0.006238,-1.3132085015,-9.641309881,1.220927925,-2.3198,1.3869,-1.517,-5.000000000032756e-06,2.0000000000131024e-05,2.0000000000020002e-05,0.00042456890261322044,0.00012029357461851298,-0.0005864713714194281
150000000000.0,-1,-0.0385009079,0.1527679937,-0.05341682254999999,-0.006495,-0.010256,0.003055,-1.3147775654999998,-9.641309881,1.219554994,-2.3186,1.3869,-1.5183,-9.99999999995449e-06,1.999999999990898e-05,-4.999999999999449e-05,0.00018852197014829208,0.0014014976388312395,1.311942898141183e-05
150000000000.0,-1,-0.04509097669999999,0.1455502993,-0.051023999949999996,-0.005413,-0.007047,-0.001191,-1.3161504965,-9.641211814499998,1.218378196,-2.3176,1.3869,-1.5194,2.999999999997449e-05,2.0000000000131024e-05,4.999999999999449e-05,-0.00035585522443359885,0.00010843846521257916,-0.0001144700767659046
150000000000.0,-1,-0.045375369549999996,0.14566797909999998,-0.05035714775,-0.007526,0.000401,-0.003302,-1.3158562969999998,-9.6414079475,1.2176917305,-2.3175,1.3869,-1.5195,2.999999999997449e-05,1.999999999990898e-05,-2.0000000000020002e-05,-0.0001538818984652135,-9.081447495828954e-05,0.00012086393689969555
150000000000.0,-1,-0.0310870805,0.15925018935,-0.0159259996,-0.006445,0.005707,-0.004353,-1.3167388955,-9.641309881,1.2171033315,-2.3169,1.3869,-1.5201,1.0000000000065512e-05,2.0000000000131024e-05,-1.4999999999987246e-05,6.365277460873564e-05,7.977638103007223e-05,0.00019090318861270106
150000000000.0,-1,-0.020750871399999996,0.15910308959999997,-0.01844630865,-0.004302,0.00994,-0.004343,-1.3173272945,-9.641309881,1.2164168659999999,-2.3164,1.3869,-1.5204,-7.00000000000145e-05,-3.7037037037279674e-06,-1.4999999999987246e-05,0.00013434016184521447,-0.0003794969927179981,-8.473539335884794e-05
150000000000.0,-1,-0.02103526425,0.15915212285,-0.01830901555,0.001035,0.010979,-0.004339,-1.317033095,-9.6414079475,1.2163187995,-2.3165,1.387,-1.5203,2.999999999997449e-05,-3.7037037037279674e-06,-9.99999999995449e-06,0.00010544683695301593,0.00020742518539695887,0.00013343248116459705
150000000000.0,-1,-0.0182795956,0.13676354089999998,-0.0436003659,0.007423,0.008801,-8.7e-05,-1.317817627,-9.641309881,1.2161226664999998,-2.3161,1.3869,-1.5205,-9.99999999995449e-06,-3.7037037037279674e-06,2.999999999997449e-05,-0.0005482533705285508,-0.0003117004898967046,-0.0002122349188473649
150000000000.0,-1,0.0045502856,0.13214460875,-0.0349705139,0.010612,0.005591,0.002034,-1.318406026,-9.641211814499998,1.2166129989999999,-2.3161,1.3868,-1.5205,2.0000000000020002e-05,-3.7037037037279674e-06,-2.0000000000020002e-05,0.00041491943992078006,0.00012806875215409796,7.873543862046972e-05
150000000000.0,-1,0.00467777205,0.13202692894999998,-0.03574523925,0.008487,0.007736,-8.9e-05,-1.3185040924999998,-9.641015681499999,1.217397531,-2.3164,1.3868,-1.5201,1.999999999990898e-05,-3.7037037037279674e-06,6.0000000000060005e-05,0.00012012148221351993,0.00023471167928601488,0.00011142489739146555
150000000000.0,-1,0.011993532949999998,0.13100703735,-0.0452282698,-4.8e-05,0.00777,-9.1e-05,-1.3187982919999999,-9.641113747999999,1.2169071985,-2.316,1.3868,-1.5204,2.0000000000020002e-05,-3.7037037037279674e-06,9.99999999995449e-06,-0.0004547362030606905,0.0002649097705542669,-0.0001674623826675159
150000000000.0,-1,0.0008237585999999999,0.13242900159999998,-0.0381674818,-0.004322,0.004617,-0.001132,-1.3190924914999997,-9.641113747999999,1.2159265335,-2.3155,1.3868,-1.5208,-9.99999999995449e-06,-3.703703703505923e-06,-2.999999999997449e-05,4.072343487271368e-05,-0.0004715873817289218,0.0001587175105650651
150000000000.0,-1,0.0007158854499999999,0.13251726145,-0.0375790828,-0.005387,0.005682,-0.00113,-1.318994425,-9.641211814499998,1.2153381344999998,-2.3153,1.3869,-1.521,9.99999999995449e-06,-3.7037037037279674e-06,9.99999999995449e-06,0.00019579882882725386,0.00029778787201295565,0.0002678611528161845
150000000000.0,-1,0.0111207411,0.12954584649999998,-0.0027360553499999997,-0.004313,0.008859,-0.001122,-1.3190924914999997,-9.641211814499998,1.2151420015,-2.3152,1.3869,-1.5211,5.000000000032756e-06,-3.7037037037279674e-06,1.0000000000065512e-05,-0.00026933872854750796,6.864246368931681e-05,-3.845221238929497e-05
150000000000.0,-1,-0.0037951735499999993,0.14868842729999998,-0.019917306149999998,-0.003244,0.008863,-0.002185,-1.319582824,-9.641211814499998,1.214651669,-2.3148,1.3869,-1.5213,5.000000000032756e-06,-3.7037037037279674e-06,-1.0000000000065512e-05,0.00011253880247541481,1.3939985168187619e-05,-2.2796269633307276e-05
150000000000.0,-1,-0.0037657536,0.1487276539,-0.0196133,-0.001107,0.010967,-0.001116,-1.319582824,-9.641309881,1.2143574695,-2.3147,1.3869,-1.5214,-1.0000000000065512e-05,-3.7037037037279674e-06,2.0000000000020002e-05,-0.00023637620022642913,3.66486096075036e-05,0.00012999176457073602
150000000000.0,-1,0.0011081514499999999,0.13469433775,-0.042207821599999994,0.001034,0.01414,-0.001108,-1.3204654224999999,-9.641211814499998,1.2143574695,-2.3143,1.3868,-1.5215,-2.0000000000020002e-05,-3.7037037037279674e-06,-9.99999999995449e-06,0.00031712996692179196,-0.0003689408160234553,-0.00014234688061343093
150000000000.0,-1,0.00130428445,0.13466491779999998,-0.04219801495,0.002089,0.010938,0.001012,-1.3206615555,-9.641113747999999,1.2143574695,-2.3143,1.3868,-1.5215,-1.999999999990898e-05,-3.7037037037279674e-06,3.999999999992898e-05,-0.0001077858705293977,0.0003798770667939877,2.768822378307334e-05
150000000000.0,-1,0.0352058735,0.11595382959999999,-0.0519164051,-5.2e-05,0.007765,0.001004,-1.3204654224999999,-9.641309881,1.2133768045,-2.314,1.3869,-1.5217,1.999999999990898e-05,-3.7037037037279674e-06,-9.99999999995449e-06,3.086409862995687e-05,-0.00014261826006278788,0.00015717508233681343
150000000000.0,-1,0.053387402599999995,0.1082065761,-0.05420135455,0.001003,0.004564,0.003124,-1.3198770234999997,-9.641506013999999,1.2125922724999998,-2.3138,1.387,-1.5218,-4.999999999999449e-05,-3.7037037037279674e-06,6.666666666710341e-06,0.0004857442827324032,-1.871886489657193e-05,0.00013234701377839997
150000000000.0,-1,0.0283608318,0.129643913,-0.026674088000000002,-0.001129,0.003528,0.000994,-1.3198770234999997,-9.641506013999999,1.212298073,-2.3137,1.387,-1.5219,2.0000000000020002e-05,-3.7037037037279674e-06,6.666666666599319e-06,1.1335893603359182e-05,0.0007804748048896304,1.6582731768188808e-05
150000000000.0,-1,0.0196721399,0.1351160237,-0.032038325549999996,-0.003254,0.005673,-0.001129,-1.3198770234999997,-9.641604080499999,1.2116116074999999,-2.3135,1.3871,-1.5221,4.999999999999449e-05,-3.7037037037279674e-06,6.666666666710341e-06,-0.0001770046853351026,0.00032889463642726824,7.093061926921607e-05
150000000000.0,-1,0.0197113665,0.13514544365,-0.031724512749999996,-0.002182,0.008842,-5.8e-05,-1.3198770234999997,-9.641604080499999,1.211317408,-2.3133,1.3871,-1.5221,-9.99999999995449e-06,-3.7037037037279674e-06,2.0000000000020002e-05,4.8673399293708286e-05,-7.962771651159883e-06,-0.00024541128053057193
150000000000.0,-1,6.864654999999999e-05,0.13890139059999998,-0.0194956202,-0.002171,0.010987,-0.003244,-1.3201712229999998,-9.641604080499999,1.210925142,-2.3131,1.3871,-1.5223,-1.0000000000065512e-05,-3.7037037037279674e-06,-1.0000000000065512e-05,-4.329119494883571e-05,-1.9593535773854143e-06,0.00042169028629679417
150000000000.0,-1,-0.0050308114499999996,0.144550021,-0.01754409685,-2.7e-05,0.016273,-0.002168,-1.320759622,-9.641604080499999,1.2106309425,-2.3127,1.3871,-1.5225,-2.999999999997449e-05,-3.7037037037279674e-06,1.0000000000065512e-05,-0.0001476724221518566,0.0002469408638154924,0.00014512023248069994
150000000000.0,-1,0.0008825985,0.14110788685,-0.03180296595,-2.9e-05,0.016265,-0.001104,-1.3212499544999998,-9.641604080499999,1.2100425435,-2.3123,1.3871,-1.5227,5.000000000032756e-06,-3.703703703505923e-06,2.999999999997449e-05,0.00036155879946342395,-0.0003922686623496485,-3.373503751635809e-05
150000000000.0,-1,0.00967916355,0.13616533525,-0.0226533615,-3.1e-05,0.01731,0.001026,-1.3217402870000001,-9.641604080499999,1.2095522109999999,-2.3119,1.3871,-1.5229,5.000000000032756e-06,-3.7037037037279674e-06,2.0000000000020002e-05,-0.0004823707725898352,0.00039313655650841106,0.0002596556476333056
150000000000.0,-1,0.0101793027,0.1361359153,-0.022388581949999996,-0.001107,0.016229,0.004214,-1.3222306195,-9.641604080499999,1.209356078,-2.3116,1.387,-1.5231,1.999999999990898e-05,-3.7037037037279674e-06,2.5000000000052758e-05,0.00033497333334508994,-0.00033924948620578377,-6.487743294592008e-06
150000000000.0,-1,-0.0027556686499999998,0.11529678404999999,-0.02774301285,-0.004314,0.014122,0.004241,-1.3232112845,-9.641506013999999,1.208571546,-2.3109,1.387,-1.5236,3.0000000000085514e-05,-3.7037037037279674e-06,2.4999999999941735e-05,-0.00016173329260960045,0.00031384815438117997,0.00013680588944309235
150000000000.0,-1,-0.03274440435,0.10893226819999999,-0.03303860385,-0.006443,0.015199,0.003179,-1.3247803484999998,-9.6414079475,1.2073947479999998,-2.3099,1.387,-1.5245,1.999999999990898e-05,-3.7037037037279674e-06,2.999999999997449e-05,-0.0007125940601397929,7.780356198727745e-05,0.00028782876470767604
150000000000.0,-1,-0.00101008495,0.1370577404,-0.027321326899999998,-0.0011,0.017314,0.001058,-1.3255648805,-9.6414079475,1.2066102159999998,-2.3093,1.387,-1.5249,-1.999999999990898e-05,-3.7037037037279674e-06,-2.0000000000020002e-05,0.0004408859280038424,-0.0005028719565816075,0.00027976312125677083
150000000000.0,-1,-0.00426589275,0.13222306195,-0.028635417999999996,0.003179,0.019442,-0.002127,-1.3261532794999997,-9.6414079475,1.2063160165,-2.3089,1.387,-1.5251,6.999999999990347e-05,-3.7037037037279674e-06,4.0000000000040004e-05,-0.0002249929258948402,0.0004603162076886047,-0.0001572927014144021
150000000000.0,-1,0.02189824945,0.14906107999999998,-0.041217349949999996,0.004256,0.021583,-0.005313,-1.3259571465,-9.641506013999999,1.205825684,-2.3088,1.387,-1.525,-1.999999999990898e-05,-1.999999999990898e-05,2.999999999997449e-05,-0.0003906379777709468,-0.0001052880855509919,0.0002633173261652466
150000000000.0,-1,0.03127340685,0.16258445035,-0.0206920315,0.003192,0.022648,-0.005311,-1.3254668139999999,-9.641506013999999,1.2059237504999998,-2.309,1.387,-1.5246,4.999999999999449e-05,-2.0000000000131024e-05,9.99999999995449e-06,0.00015542827605674603,0.00019591306759680904,0.0003445473841328095
150000000000.0,-1,0.0014219642499999998,0.1666149835,-0.023379053599999998,0.003194,0.022656,-0.006374,-1.3255648805,-9.641506013999999,1.2060218169999999,-2.309,1.387,-1.5243,-3.0000000000085514e-05,-1.999999999990898e-05,2.0000000000020002e-05,-0.0004826119342791202,-0.00047330053165017816,0.000232942848795048
150000000000.0,-1,0.0020103632499999997,0.13983302235,-0.02109410415,0.004263,0.023712,-0.006371,-1.3255648805,-9.641506013999999,1.2059237504999998,-2.309,1.387,-1.5241,1.0000000000065512e-05,-2.0000000000131024e-05,3.3333333333551707e-06,0.0012096250472839465,0.00031056014187580416,-1.7514259911255436e-05
150000000000.0,-1,-0.00138273765,0.12188685285,-0.033548549649999995,0.005325,0.021587,-0.006376,-1.3255648805,-9.641506013999999,1.205825684,-2.3089,1.387,-1.5239,4.0000000000040004e-05,-1.999999999990898e-05,3.3333333333551707e-06,-0.0009532370455260786,-0.00010012392077185517,-8.064340258373548e-05
150000000000.0,-1,0.00542307745,0.13390980575,-0.006717555249999999,0.008524,0.022618,-0.004245,-1.3256629469999999,-9.6414079475,1.2065121495,-2.3092,1.387,-1.5235,1.999999999990898e-05,2.4999999999941735e-05,3.3333333333551707e-06,-6.19408094162388e-05,0.00019159096704424172,0.0006718277922921345
150000000000.0,-1,0.004971971549999999,0.13216422204999997,-0.01764216335,0.00745,0.021546,-0.00212,-1.3259571465,-9.641309881,1.2070024819999998,-2.3092,1.3869,-1.5232,1.0000000000065512e-05,2.500000000016378e-05,1.999999999990898e-05,-0.00017639253212409223,4.7271982976937466e-05,-0.00021713233900833018
150000000000.0,-1,0.007433440699999999,0.14237294469999998,-0.00267721545,0.00425,0.022611,-0.001055,-1.3263494125,-9.641211814499998,1.207590881,-2.3094,1.3869,-1.5228,9.99999999995449e-06,2.4999999999941735e-05,4.0000000000040004e-05,-0.00016833369357516226,0.00015619259959009923,-2.0728538834724475e-05
150000000000.0,-1,0.04466929075,0.1374500064,0.0009708583499999999,0.002121,0.023688,-0.002117,-1.3258590799999999,-9.641211814499998,1.207983147,-2.3097,1.3869,-1.5222,-2.999999999997449e-05,2.4999999999941735e-05,2.999999999997449e-05,-0.00019830136226506312,-8.72384262606829e-06,-1.1329141419658129e-05
150000000000.0,-1,0.037853669,0.1152281375,0.05296571665,-0.002141,0.025826,-0.002113,-1.3254668139999999,-9.641211814499998,1.208963812,-2.3102,1.3868,-1.5215,-2.0000000000020002e-05,1.6666666666775853e-05,-2.0000000000020002e-05,0.00036243795355184183,-0.0003133941623674197,0.00043721276013508614
150000000000.0,-1,0.038157675149999994,0.11523794414999998,0.05339720925,-1.6e-05,0.023681,1e-05,-1.3257610135,-9.641211814499998,1.2084734795,-2.3099,1.3868,-1.5215,-2.0000000000020002e-05,1.666666666655381e-05,1.0000000000065512e-05,0.0003004465550868751,7.436377434211217e-05,5.263142733857862e-05
150000000000.0,-1,0.021682503149999997,0.12416199565,0.0229867876,-0.0011,0.019409,0.004282,-1.3257610135,-9.641015681499999,1.2101406099999998,-2.3106,1.3867,-1.5206,4.0000000000040004e-05,1.6666666666775853e-05,-5.000000000032756e-06,0.0006061402095935975,0.0016255974446812704,-1.4940040298228041e-05
150000000000.0,-1,0.021682503149999997,0.12416199565,0.0229867876,-0.0011,0.019409,0.004282,-1.3257610135,-9.641015681499999,1.2101406099999998,-2.3106,1.3867,-1.5206,-7.999999999996898e-05,1.6666666666775853e-05,-5.000000000032756e-06,-0.0004013413418595402,-0.0002935011221756323,2.9573527998927318e-05
150000000000.0,-1,0.05484859345,0.12182801295,0.0357354326,-0.004316,0.017261,0.009594,-1.326055213,-9.640917615,1.2106309425,-2.3107,1.3867,-1.5204,-1.0000000000065512e-05,1.666666666655381e-05,-1.4999999999987246e-05,0.00043383245381600766,6.920048750469476e-06,0.0002558022172474139
150000000000.0,-1,0.0432865531,0.1592207694,0.022319935399999997,-0.008606,0.009831,0.012767,-1.328212676,-9.640721481999998,1.2094541444999998,-2.3094,1.3866,-1.5215,1.0000000000065512e-05,1.6666666666775853e-05,-1.4999999999987246e-05,0.00017623896310436926,0.00012799503222504782,-0.0003243866944204754
150000000000.0,-1,0.0401484251,0.21738401054999998,-0.0159456129,-0.006473,0.006665,0.009569,-1.3290952745,-9.640623415499999,1.2088657455,-2.3088,1.3865,-1.522,2.999999999997449e-05,4.999999999988347e-05,1.0000000000065512e-05,-0.0008708425904304651,7.129440232023221e-05,-0.00024168607241303874
150000000000.0,-1,0.03539219984999999,0.20151685085,-0.03541181315,-0.004347,0.002422,0.008496,-1.3298798065,-9.640623415499999,1.2080812134999999,-2.3082,1.3865,-1.5226,-9.00000000000345e-05,5.0000000000105516e-05,-2.0000000000020002e-05,0.0007763422875166626,-0.0004256560378623764,0.00012958062197565567
150000000000.0,-1,0.02495792425,0.15666123375,-0.00561921045,-0.001149,-0.000756,0.006363,-1.3305662719999998,-9.640525349,1.2082773464999998,-2.3081,1.3865,-1.5228,2.0000000000020002e-05,3.333333333332966e-05,4.999999999999449e-05,-0.00029944825411298837,0.00020916942375470704,-0.00017218923868256297
150000000000.0,-1,0.02495792425,0.15666123375,-0.00561921045,-0.001149,-0.000756,0.006363,-1.3305662719999998,-9.640525349,1.2082773464999998,-2.3081,1.3865,-1.5228,-2.999999999997449e-05,3.333333333332966e-05,9.99999999995449e-06,3.7211960966843094e-05,-0.0002667444102129046,-4.370936052211505e-05
150000000000.0,-1,0.01538663385,0.12484846114999998,0.01013026945,-7.2e-05,-0.001773,-2.1e-05,-1.3306643384999999,-9.6404272825,1.2088657455,-2.3082,1.3864,-1.5226,3.999999999992898e-05,3.333333333332966e-05,9.99999999995449e-06,-0.0004314696354241754,-0.0001351379248282214,-0.00011523970759652613
150000000000.0,-1,0.0025105023999999997,0.11490451804999999,0.00980665,0.002073,-0.001742,-0.005339,-1.330370139,-9.640329216,1.2097483439999999,-2.3087,1.3864,-1.5222,-9.999999999998899e-05,9.999999999998899e-05,1.0000000000065512e-05,0.00013681911647789313,-0.0004331553110881181,4.1471473722243246e-05
150000000000.0,-1,-0.0037951735499999993,0.10061622899999999,0.011915079749999998,0.00314,-0.001746,-0.005339,-1.330174006,-9.640329216,1.2104348095,-2.3091,1.3864,-1.5218,1.0000000000065512e-05,5.0000000000105516e-05,9.99999999995449e-06,-0.0003663184679485454,5.1721389113135174e-05,5.4932822387776525e-05
150000000000.0,-1,0.0136704701,0.10194012674999998,0.016279039,0.001004,-0.001745,-0.004276,-1.3296836734999997,-9.640329216,1.2112193414999999,-2.3096,1.3863,-1.5213,-9.999999999998899e-05,4.999999999988347e-05,4.0000000000040004e-05,-0.00011371903468648803,-0.0007118592586747852,-0.0005841640741102161
150000000000.0,-1,0.0597421118,0.09968459724999999,0.04765051234999999,0.004194,-0.006008,-0.003221,-1.328408809,-9.640231149499998,1.2127884055,-2.3107,1.3863,-1.5203,-4.0000000000040004e-05,4.999999999988347e-05,6.0000000000060005e-05,0.0005590616512061164,0.00022200128188210044,-0.0003615346364269634
150000000000.0,-1,0.09277090899999998,0.08317019865,0.009532063799999999,0.010577,-0.012413,-0.001107,-1.3263494125,-9.640329216,1.2141613365,-2.3121,1.3864,-1.519,-7.999999999996898e-05,5.0000000000105516e-05,8.999999999992347e-05,6.170655773574119e-05,2.5117045005407235e-05,-0.0007943052534091777
150000000000.0,-1,0.09267284249999999,0.0830230989,0.00828661925,0.009493,-0.017727,0.001008,-1.3262513459999998,-9.640231149499998,1.215436201,-2.3126,1.3863,-1.5186,-0.00012000000000000899,9.999999999998899e-05,4.0000000000040004e-05,0.0003434367357031398,-0.0002684339821394932,-0.00024841203065273376
150000000000.0,-1,0.0903976997,0.1021460664,0.01634768555,-0.000117,-0.020878,0.002061,-1.3228190185,-9.640525349,1.2171033315,-2.3146,1.3865,-1.5169,-9.00000000000345e-05,9.999999999998899e-05,9.99999999995449e-06,-3.6616686943435894e-05,-0.0002545217756377838,-0.00013591186060102345
150000000000.0,-1,0.08392531069999999,0.12058256839999999,0.020123245799999998,-0.012928,-0.02403,0.004202,-1.3214460875,-9.640721481999998,1.2172013979999998,-2.3152,1.3866,-1.5166,-7.999999999996898e-05,9.999999999998899e-05,7.00000000000145e-05,0.0007513870961974867,-0.0003266075194687801,0.00017440172442784174
150000000000.0,-1,0.08420970354999999,0.12076889475,0.021937476049999998,-0.023611,-0.028245,0.006317,-1.3217402870000001,-9.6408195485,1.215436201,-2.3143,1.3867,-1.5177,-0.00012000000000000899,9.999999999998899e-05,4.999999999999449e-05,-0.00033375276232683326,-0.00019442549599224535,-0.0006371411467678278
150000000000.0,-1,0.07967903125,0.1468840037,-0.00583495675,-0.027885,-0.030357,0.007374,-1.320759622,-9.641211814499998,1.2133768045,-2.3139,1.3869,-1.5185,-6.0000000000060005e-05,9.999999999998899e-05,2.0000000000020002e-05,0.0002716595056992954,7.98982425391781e-05,3.7331814794150375e-05
150000000000.0,-1,0.044100505049999995,0.12967333295,-0.02138830365,-0.025756,-0.031434,0.008436,-1.3206615555,-9.641506013999999,1.211121275,-2.313,1.387,-1.5197,-0.00012999999999996348,4.999999999988347e-05,2.999999999997449e-05,0.00023479484878397017,7.969266073071246e-05,-0.000239084567525083
150000000000.0,-1,0.02019189235,0.11898408444999999,0.00640374245,-0.019363,-0.033597,0.01056,-1.321151888,-9.641604080499999,1.2100425435,-2.3123,1.3871,-1.5207,-7.999999999996898e-05,5.0000000000105516e-05,6.0000000000060005e-05,0.0004513635160099394,3.891623052787452e-05,-9.453920500757107e-05
150000000000.0,-1,0.010424468949999998,0.1156204035,0.0126309652,-0.012955,-0.029388,0.011635,-1.3220344865,-9.641506013999999,1.2096502775,-2.3118,1.387,-1.5216,-9.00000000000345e-05,0.00019999999999997797,5.999999999994898e-05,0.0001545775747697764,0.00012653401701534506,-0.00011563473812881142
150000000000.0,-1,0.010424468949999998,0.1156204035,0.0126309652,-0.012955,-0.029388,0.011635,-1.3220344865,-9.641506013999999,1.2096502775,-2.3118,1.387,-1.5216,-0.00012999999999996348,9.999999999998899e-05,6.0000000000060005e-05,-0.0011033475869557385,-0.0012973072084936366,-0.0007416740687484769
150000000000.0,-1,0.0150826277,0.09671318229999999,0.01513166095,-0.01615,-0.02515,0.013771,-1.3229170849999998,-9.641506013999999,1.2090618784999998,-2.3113,1.387,-1.5224,-4.0000000000040004e-05,0.00019999999999997797,5.999999999994898e-05,-0.00020597218697337993,-0.0004003955514100266,-6.845098433538865e-05
150000000000.0,-1,-0.022927947699999996,0.09970421055,0.03243059155,-0.027866,-0.016619,0.013788,-1.3257610135,-9.641506013999999,1.2060218169999999,-2.3089,1.387,-1.5252,-7.999999999996898e-05,9.999999999998899e-05,-1.4999999999987246e-05,0.0002050268399784727,4.254266479208901e-05,0.0002168206493955438
150000000000.0,-1,-0.0157494799,0.13340966659999998,0.0035892338999999997,-0.031057,-0.012364,0.013797,-1.3277223435,-9.641506013999999,1.2035701545,-2.3072,1.387,-1.5271,2.0000000000020002e-05,0.00019999999999997797,-1.4999999999987246e-05,0.00022656422830369394,-0.0003600035264279544,0.00014696563652183414
150000000000.0,-1,-0.01460210185,0.1335861863,0.006325289249999999,-0.029985,-0.010248,0.013802,-1.328801075,-9.641702147,1.2008242925,-2.3056,1.3871,-1.5288,-2.999999999997449e-05,0.00020000000000020002,-4.0000000000040004e-05,0.0004575957532257924,-4.808430488512094e-05,0.0006483477808187921
150000000000.0,-1,-0.052622483899999996,0.19842775609999996,-0.05084748025,-0.022506,-0.00708,0.011684,-1.3327237349999999,-9.641604080499999,1.197391965,-2.3027,1.3871,-1.5318,-0.00010000000000010001,9.999999999998899e-05,-9.99999999995449e-06,-0.0002576038936670244,0.00013517188656919643,-0.00012677445515318908
150000000000.0,-1,-0.06100716965,0.19023920335,-0.059457718949999995,-0.015036,-0.006049,0.011689,-1.3355676635,-9.641506013999999,1.195038369,-2.3007,1.387,-1.5338,-1.999999999990898e-05,9.999999999998899e-05,-2.0000000000020002e-05,0.0004547787376396606,0.00024336607397668075,-8.946530498965544e-05
150000000000.0,-1,-0.06026186425,0.19026862329999997,-0.05833976085,-0.011829,-0.007091,0.007433,-1.3363521955,-9.641506013999999,1.1939596375,-2.3,1.387,-1.5347,-6.0000000000060005e-05,0.00019999999999997797,-1.4999999999987246e-05,0.0007460988501220012,0.0002360637616589667,-0.0002871366815826448
150000000000.0,-1,-0.0529166834,0.19064127599999997,-0.028331411849999998,-0.013953,-0.003893,0.006376,-1.3369405945,-9.641604080499999,1.192684773,-2.2992,1.3871,-1.5355,-7.00000000000145e-05,9.999999999998899e-05,-1.4999999999987246e-05,0.0003860103685682237,0.00035727914698879815,-5.780377522324187e-05
150000000000.0,-1,-0.0221826423,0.16572257835,0.0446987107,-0.013946,-0.001764,0.005318,-1.3385096585,-9.6414079475,1.1927828395,-2.2987,1.3869,-1.536,-4.999999999999449e-05,9.999999999998899e-05,-2.0000000000020002e-05,0.0003512120643354155,0.00018489022648959796,-0.00018346746593511654
150000000000.0,-1,-0.021682503149999997,0.1657912249,0.045816668799999995,-0.010741,-0.000708,0.004257,-1.338999991,-9.6414079475,1.191704108,-2.2981,1.387,-1.5367,-3.999999999992898e-05,9.999999999998899e-05,2.999999999997449e-05,0.0003683958243339003,0.0006490940141128387,-0.00028689097063416824
150000000000.0,-1,-0.02064299825,0.17692177265,-0.00748247395,-0.008595,-0.000703,0.00109,-1.340176789,-9.641309881,1.191115709,-2.2974,1.3869,-1.5374,-3.0000000000085514e-05,9.999999999998899e-05,-3.999999999992898e-05,0.0005522008973002368,0.00013618045822516578,0.0003743017157722406
150000000000.0,-1,0.034303661699999995,0.18806212704999997,-0.057663101999999994,-0.003245,0.002489,-0.003156,-1.3397845229999998,-9.641604080499999,1.1898408445,-2.297,1.387,-1.5378,-5.999999999994898e-05,9.999999999998899e-05,-3.3333333333551707e-06,0.00025010728232754964,0.00022826666827246989,-0.0002473921250567557
150000000000.0,-1,0.03362700285,0.18814058025,-0.05777097515,0.003167,0.002504,-0.008473,-1.3390980575,-9.641604080499999,1.189938911,-2.2973,1.3871,-1.5374,-2.999999999997449e-05,9.999999999998899e-05,-3.3333333333551707e-06,0.0003623603013265253,0.0015073100054210364,-0.00040970820094177185
150000000000.0,-1,0.013278204099999998,0.19090605555,-0.0311459204,0.005293,-0.002791,-0.010612,-1.3383135255,-9.641702147,1.1902331105,-2.2977,1.3871,-1.537,-9.00000000000345e-05,9.999999999998899e-05,-3.3333333333551707e-06,0.0004353307050903865,2.692521642311263e-06,-0.00010966177539906141
150000000000.0,-1,0.0066685220000000005,0.13310566045,-0.034833220799999995,0.00208,-0.007028,-0.009558,-1.3375289935,-9.6418002135,1.1902331105,-2.298,1.3872,-1.5368,-9.99999999995449e-06,9.999999999998899e-05,-9.99999999995449e-06,-0.00037660154886998143,-5.460018130065691e-06,-0.00028524131974583256
150000000000.0,-1,0.00579573015,0.1332135336,-0.03494109395,-0.001143,-0.014463,-0.006385,-1.336646395,-9.64189828,1.190331177,-2.2983,1.3873,-1.5366,-6.0000000000060005e-05,9.999999999998899e-05,2.0000000000020002e-05,-3.8603366707690157e-05,4.851323236243488e-05,0.00011963668716497011
150000000000.0,-1,-0.018210949049999998,0.12311268409999998,-0.05484859345,-9.3e-05,-0.020838,-0.005335,-1.3367444614999997,-9.6419963465,1.189546645,-2.298,1.3873,-1.5371,-7.999999999996898e-05,9.999999999998899e-05,1.999999999990898e-05,0.00016138999894099726,0.0008409833001519207,-0.0006380606043787651
150000000000.0,-1,-0.0315577997,0.13970553589999998,-0.05875164014999999,0.003098,-0.022987,-0.003211,-1.3373328604999999,-9.6419963465,1.189154379,-2.2976,1.3873,-1.5377,-7.00000000000145e-05,9.999999999998899e-05,4.0000000000040004e-05,0.0002722373672063849,-0.0005451247785877023,-0.0001223722790233417
150000000000.0,-1,-0.0322050386,0.13968592259999998,-0.059575398749999994,0.005231,-0.022996,-0.003211,-1.336646395,-9.6419963465,1.189938911,-2.2982,1.3873,-1.5373,-6.0000000000060005e-05,0.00019999999999997797,-2.0000000000020002e-05,-9.307451874640549e-05,-0.0005733454788434678,-0.00046541121823029385
150000000000.0,-1,-0.0083552658,0.1272314771,-0.03603943875,0.004172,-0.01981,-0.003204,-1.3367444614999997,-9.64189828,1.1902331105,-2.2983,1.3873,-1.5374,-2.999999999997449e-05,9.999999999998899e-05,2.0000000000020002e-05,-0.00040644229487996064,-0.00024005088399681185,0.00023680062911157762
150000000000.0,-1,-0.01591619295,0.13385096584999998,0.00034323274999999994,-8.9e-05,-0.016612,-0.003198,-1.3362541289999998,-9.6419963465,1.1905273099999998,-2.2986,1.3873,-1.5373,-5.999999999994898e-05,0.00010000000000021103,2.999999999997449e-05,0.0005890358213553881,0.00035844292391318255,-0.00034805758638611906
150000000000.0,-1,0.0073353742,0.16530089239999998,-0.01675956485,-0.005425,-0.016598,-0.002135,-1.3361560625,-9.6419963465,1.190331177,-2.2986,1.3873,-1.5375,-9.00000000000345e-05,9.999999999998899e-05,2.999999999997449e-05,0.00012379437460685594,6.15959722241044e-05,-0.00015682724983490104
150000000000.0,-1,0.01026756255,0.14840403445,-0.06024225095,-0.006503,-0.018739,0.001051,-1.3361560625,-9.6421924795,1.1889582459999999,-2.2979,1.3874,-1.5383,-2.999999999997449e-05,9.999999999998899e-05,-9.99999999995449e-06,-0.00015157734877568885,0.00027101944555640856,-0.0008551248712249659
150000000000.0,-1,0.0263798885,0.1364693414,-0.0848471358,-0.005448,-0.021941,0.003171,-1.3361560625,-9.6421924795,1.188762113,-2.2979,1.3874,-1.5386,-1.0000000000065512e-05,9.999999999998899e-05,-7.00000000000145e-05,-4.1672175926876776e-05,-0.00012601051188321222,0.0005169023816495866
150000000000.0,-1,0.027076160649999997,0.16095654645,-0.10134192109999998,-0.003317,-0.02301,0.003169,-1.3361560625,-9.6423886125,1.186800783,-2.2971,1.3875,-1.5396,-1.999999999990898e-05,9.999999999998899e-05,2.0000000000020002e-05,-0.0003568843668078081,-0.0003120373900731277,-0.0004196827309583817
150000000000.0,-1,0.013856796449999998,0.119837263,-0.06686173969999999,-0.00545,-0.024046,0.001039,-1.3360579959999999,-9.642584745499999,1.185427852,-2.2965,1.3876,-1.5404,-3.0000000000085514e-05,9.999999999998899e-05,4.0000000000040004e-05,-0.00034374202262421605,-0.000780812298723621,-0.0002778174072051165
150000000000.0,-1,-0.00608992965,0.13981340905,-0.0999886034,-0.006507,-0.025102,-0.00107,-1.3356657299999999,-9.642682812,1.1851336525,-2.2965,1.3877,-1.5406,-1.999999999990898e-05,5.0000000000105516e-05,-1.0000000000065512e-05,0.000651563472167549,-0.00041243218850328667,-0.000293639920088129
150000000000.0,-1,-0.02054493175,0.14681535715,-0.11397288629999999,-0.007577,-0.02721,-0.002139,-1.3362541289999998,-9.6429770115,1.1823877905,-2.2952,1.3878,-1.5422,-2.0000000000020002e-05,4.999999999988347e-05,-9.99999999995449e-06,-0.00023985751097099772,0.00017010747412760097,-3.774329282268951e-05
150000000000.0,-1,-0.04690520694999999,0.13592997564999998,-0.115522337,-0.003311,-0.029332,-0.004269,-1.3371367275,-9.6431731445,1.1799361279999998,-2.2938,1.3879,-1.5438,2.999999999997449e-05,4.999999999988347e-05,3.999999999992898e-05,-0.0007558809103409558,-0.00013091347732951952,-9.397687206025296e-05
150000000000.0,-1,-0.08546495475,0.14332418975,-0.12282829124999999,0.005233,-0.028282,-0.007456,-1.3360579959999999,-9.6431731445,1.180524527,-2.2944,1.388,-1.5435,2.0000000000020002e-05,5.0000000000105516e-05,-9.99999999995449e-06,0.00033322561840365417,3.036972411996075e-06,-0.0002380624892857064
150000000000.0,-1,-0.09085861225,0.15655336059999997,-0.10784373004999999,0.009513,-0.024041,-0.009571,-1.3377251264999999,-9.6431731445,1.1794457955,-2.2934,1.3879,-1.5448,3.999999999992898e-05,9.999999999998899e-05,9.99999999995449e-06,-0.0001579423261375279,-0.0016050135135650123,0.0005418680691691158
150000000000.0,-1,-0.0691172692,0.16909606595,-0.06134059575,0.009538,-0.015533,-0.012742,-1.341353587,-9.6427808785,1.177974798,-2.2914,1.3877,-1.5469,1.0000000000065512e-05,2.4999999999941735e-05,-3.999999999992898e-05,-0.0006394408809511365,-0.00010592371881057439,3.843197165398493e-06
150000000000.0,-1,-0.07071575315,0.16917451914999998,-0.0625075871,0.010628,-0.00809,-0.015915,-1.3397845229999998,-9.642878945,1.1790535295,-2.2925,1.3878,-1.5459,2.999999999997449e-05,2.4999999999941735e-05,2.999999999997449e-05,-7.030768721527636e-05,-0.0003402263522347404,0.00013804489795532504
150000000000.0,-1,-0.03590214565,0.1605348605,-0.0522498312,0.007453,0.002536,-0.016956,-1.3395883899999999,-9.642878945,1.1790535295,-2.2925,1.3878,-1.5458,1.0000000000065512e-05,2.500000000016378e-05,-2.999999999997449e-05,0.0005620949288633881,0.00046882497509348475,0.0001274305721903346
150000000000.0,-1,0.0159063863,0.12031778885,-0.06306656615,0.009605,0.009959,-0.018002,-1.338411592,-9.643271211,1.177582532,-2.2924,1.388,-1.5458,5.999999999994898e-05,2.4999999999941735e-05,-1.0000000000065512e-05,-0.0005973295825110192,-0.00021225840909022686,1.7808081335335402e-05
150000000000.0,-1,0.0145334553,0.12041585534999999,-0.06383148485,0.010671,0.012051,-0.014806,-1.3370386609999998,-9.6433692775,1.178367064,-2.2932,1.3881,-1.5449,-4.0000000000040004e-05,-1.666666666655381e-05,-5.000000000032756e-06,-6.998130075075437e-05,1.8901892731459924e-05,-6.33271661456547e-05
150000000000.0,-1,0.0268898343,0.09522257149999999,-0.07765886135,0.013862,0.010954,-0.011616,-1.3356657299999999,-9.643565410499999,1.177974798,-2.2935,1.3882,-1.5444,1.0000000000065512e-05,-1.6666666666775853e-05,-4.999999999921734e-06,-0.00017121038043210746,-0.00013033717618382568,0.00010619901479280713
150000000000.0,-1,0.06561629514999999,0.11561059685,-0.0384224547,0.0117,0.005604,-0.004184,-1.3332140674999997,-9.644055743,1.1766999335,-2.2939,1.3885,-1.5439,9.99999999995449e-06,-1.6666666666775853e-05,-9.99999999995449e-06,2.4826978020975332e-05,0.00032670697117676006,-0.0002593875655696465
150000000000.0,-1,0.0656457151,0.11549291704999999,-0.039324666499999994,0.008482,0.001343,6e-05,-1.3332140674999997,-9.6439576765,1.177582532,-2.2943,1.3884,-1.5435,-2.0000000000020002e-05,-1.666666666655381e-05,-1.0000000000065512e-05,0.00014328871579571967,-0.00028310149475996305,0.0001927052865875467
150000000000.0,-1,0.07050000684999999,0.1162676424,-0.049503969200000005,0.005269,-0.001841,0.002179,-1.332135336,-9.6441538095,1.1774844654999999,-2.2947,1.3885,-1.5432,-4.999999999999449e-05,-1.666666666655381e-05,-6.666666666710341e-06,0.0004055672252394338,0.0002661343959831086,-0.00028144288749354374
150000000000.0,-1,0.0658418481,0.16138803905,-0.0979684335,-0.001138,-0.006042,4e-05,-1.330174006,-9.644840275,1.1741502045,-2.294,1.3889,-1.5439,-9.99999999995449e-06,-1.6666666666775853e-05,-6.666666666599319e-06,0.000126532454660655,-0.0005321095142125642,0.00013210302183530587
150000000000.0,-1,0.0655476486,0.16146649224999998,-0.09760558744999999,-0.006471,-0.008117,-0.003157,-1.3298798065,-9.6449383415,1.1737579384999999,-2.2939,1.3889,-1.544,-2.999999999997449e-05,-3.333333333332966e-05,-6.666666666710341e-06,0.0004054584994750421,-1.8534509182766e-05,-0.000149190326159232
150000000000.0,-1,0.0413448364,0.14732530295,-0.0665479269,-0.007533,-0.012357,-0.00634,-1.3287030085,-9.645232540999999,1.1720908079999999,-2.2937,1.3891,-1.5444,1.999999999990898e-05,-3.333333333332966e-05,-3.500000000000725e-05,5.163313741629594e-05,-0.00018491822675237302,-0.0005723449630865574
150000000000.0,-1,0.0413448364,0.14732530295,-0.0665479269,-0.007533,-0.012357,-0.00634,-1.3287030085,-9.645232540999999,1.1720908079999999,-2.2937,1.3891,-1.5444,-9.99999999995449e-06,-3.333333333332966e-05,-3.500000000000725e-05,0.0004979986588953267,0.0008195286944341351,-0.0002673127342571746
150000000000.0,-1,0.01834824215,0.1493160529,-0.0597421118,-0.006472,-0.016587,-0.008477,-1.327428144,-9.64582094,1.1694430125,-2.293,1.3894,-1.5452,9.99999999995449e-06,-9.999999999998899e-05,-4.999999999999449e-05,-0.0001316414949417144,0.0007467641247782542,4.393786596024185e-05
150000000000.0,-1,-0.00214765635,0.15346426584999998,-0.0822189536,0.006321,-0.018775,-0.006351,-1.326055213,-9.646017073,1.1688546135,-2.2933,1.3896,-1.5452,2.0000000000020002e-05,-9.999999999998899e-05,-2.999999999997449e-05,-0.0008405991296622783,-0.0001093935229385945,-0.00010452726445064897
150000000000.0,-1,-0.029537629799999996,0.162201991,-0.0923394164,0.012716,-0.019869,-0.005288,-1.3273300774999999,-9.646115139499999,1.1668932834999999,-2.2919,1.3896,-1.5467,1.0000000000065512e-05,-9.999999999998899e-05,-9.99999999995449e-06,0.00047619861600955993,-0.00021880801070373046,-9.282850152780853e-05
150000000000.0,-1,-0.0442672181,0.15318967965,-0.10707881135,0.015932,-0.016668,-0.009534,-1.3277223435,-9.646017073,1.1666971505,-2.2917,1.3896,-1.5471,5.999999999994898e-05,-9.999999999998899e-05,-4.999999999999449e-05,-0.00046354562000705535,-9.99353215027643e-05,0.0006404338302172796
150000000000.0,-1,-0.04557150255,0.15311122645,-0.1092264677,0.022356,-0.009247,-0.012706,-1.3264474789999998,-9.646017073,1.1688546135,-2.2931,1.3895,-1.5458,4.0000000000040004e-05,-9.999999999998899e-05,3.999999999992898e-05,0.0006514453555166444,0.00030737343581677123,-0.0001343789235330739
150000000000.0,-1,-0.054632847150000004,0.12939874675,-0.09671318229999999,0.02558,-0.003909,-0.019075,-1.3279184765,-9.6459190065,1.167775882,-2.2921,1.3895,-1.5467,9.999999999998899e-05,-4.999999999988347e-05,-3.999999999992898e-05,-0.0014370668853165292,-0.0006537319022177357,8.300625141588469e-05
150000000000.0,-1,-0.0566039838,0.1293497135,-0.09931194455,0.027733,0.002461,-0.021187,-1.3258590799999999,-9.64582094,1.1704236774999999,-2.294,1.3895,-1.5448,4.999999999999449e-05,-5.0000000000105516e-05,-4.0000000000040004e-05,0.00014003658863237511,3.8188849752929244e-05,0.0003788657974981291
150000000000.0,-1,-0.0438553388,0.12044527529999999,-0.11111915115,0.027753,0.008848,-0.024363,-1.324878415,-9.6459190065,1.1710120765,-2.2946,1.3895,-1.5441,4.0000000000040004e-05,-9.999999999998899e-05,-1.4999999999987246e-05,0.00010655680992543992,-0.0011257223450791276,0.00024115126044765844
150000000000.0,-1,-0.02485985775,0.1306834179,-0.06681270645,0.023496,0.012063,-0.026484,-1.3234074174999997,-9.646017073,1.1721888745,-2.2957,1.3895,-1.5429,3.999999999992898e-05,-0.00020000000000020002,-1.4999999999987246e-05,-0.00040000782308480254,-0.0004874677730994925,7.574596150750068e-05
150000000000.0,-1,-0.01303303785,0.1425690777,-0.07118647234999999,0.02029,0.013104,-0.022228,-1.3212499544999998,-9.646017073,1.174052138,-2.2972,1.3896,-1.5411,-2.0000000000020002e-05,-0.00019999999999997797,4.999999999999449e-05,0.0006744186482794401,2.162335479027888e-05,-0.00018775174132334982
150000000000.0,-1,0.03399965555,0.14463828085,-0.08441564319999999,0.019213,0.009919,-0.021172,-1.3188963585,-9.6463112725,1.1743463374999998,-2.2983,1.3897,-1.54,6.0000000000060005e-05,-9.999999999998899e-05,-4.0000000000040004e-05,-3.5282086835009e-05,-0.0005354906074108712,0.00046144666519731814
150000000000.0,-1,0.0413448364,0.13211518879999998,-0.07632515695,0.019196,0.005653,-0.017991,-1.3159543635,-9.646801605,1.1736598719999998,-2.2991,1.39,-1.5391,9.99999999995449e-06,-9.999999999998899e-05,2.0000000000020002e-05,-0.00015718572387313223,-2.358376523980965e-05,-0.0005277097985434409
150000000000.0,-1,0.03994248545,0.13211518879999998,-0.07795306084999999,0.017042,0.000327,-0.013749,-1.3145814325,-9.646801605,1.175228936,-2.3003,1.39,-1.5378,4.999999999999449e-05,-0.00019999999999997797,-2.999999999997449e-05,-0.0001757843007010873,0.00017616735344461176,0.00021163932789658446
150000000000.0,-1,0.05747677564999999,0.09929233124999999,-0.08866192265,0.014885,-0.003954,-0.007377,-1.3128162354999997,-9.6470958045,1.175228936,-2.3009,1.3901,-1.5372,-9.99999999995449e-06,-9.999999999998899e-05,-2.999999999997449e-05,-0.0003144695933452457,-0.0007354880264034414,0.0007296788666613097
150000000000.0,-1,0.02095681105,0.09941981769999998,-0.0564078508,0.011683,-0.007172,-0.005242,-1.310952972,-9.647390003999998,1.1749347365,-2.3015,1.3903,-1.5366,-1.0000000000065512e-05,-0.00019999999999997797,-2.0000000000020002e-05,0.00014938573737133254,-0.0007633586017687932,8.234758246139506e-05
150000000000.0,-1,0.0205351251,0.09935117114999999,-0.0574081291,0.008469,-0.011417,-0.003125,-1.310560706,-9.6472919375,1.1759154015,-2.3021,1.3903,-1.5361,3.0000000000085514e-05,-0.00019999999999997797,9.99999999995449e-06,-5.9967244995906555e-05,0.00010614029390154656,-0.00045613481615580653
150000000000.0,-1,0.04533614295,0.1266823047,-0.0354804597,0.006337,-0.011401,-0.00419,-1.3094819745,-9.647390003999998,1.1763076675,-2.3027,1.3903,-1.5357,2.999999999997449e-05,-0.00019999999999997797,-9.99999999995449e-06,-9.210930686043284e-05,-0.0003572320650855332,0.00020354741775330254
150000000000.0,-1,0.04533614295,0.1266823047,-0.0354804597,0.006337,-0.011401,-0.00419,-1.3094819745,-9.647390003999998,1.1763076675,-2.3027,1.3903,-1.5357,-9.99999999995449e-06,-0.00019999999999997797,-2.999999999997449e-05,0.00010443916151814392,0.00015180910068246511,-0.00037167738632870595
150000000000.0,-1,0.019858466249999998,0.14826674135,-0.05161239895,0.006329,-0.014582,-0.004197,-1.3086974425,-9.647586137,1.1757192685,-2.3027,1.3904,-1.5358,5.999999999994898e-05,-0.00029999999999996696,-4.0000000000040004e-05,-0.00038260838813775067,0.0016415277932277927,-0.0002209883066837115
150000000000.0,-1,0.020397831999999998,0.18234485009999998,-0.0565255306,0.005271,-0.014546,-0.008452,-1.3071283784999999,-9.6476842035,1.176601867,-2.3037,1.3905,-1.5351,6.666666666710341e-06,-0.000300000000000189,-9.99999999995449e-06,-0.00012549873959910585,-9.597015469320347e-05,0.00012673192394307975
150000000000.0,-1,-0.033960428949999996,0.1987807955,-0.07881604605,0.008464,-0.016687,-0.007392,-1.308010977,-9.6476842035,1.175817335,-2.303,1.3905,-1.5359,6.666666666599319e-06,-0.00029999999999996696,-2.0000000000020002e-05,5.36308060175017e-05,-6.060828825771303e-05,-6.931554165756637e-05
150000000000.0,-1,-0.0348920607,0.19870234229999997,-0.08043414329999998,0.015925,-0.019899,-0.007397,-1.307030312,-9.647586137,1.177386399,-2.3041,1.3904,-1.535,6.666666666710341e-06,-0.00029999999999996696,-3.0000000000085514e-05,-0.0002485402239713608,0.00032432328646314623,-0.00040487663493760095
150000000000.0,-1,-0.030233901949999996,0.19937900114999998,-0.0751581656,0.025521,-0.021005,-0.006333,-1.307422578,-9.647390003999998,1.1788573965,-2.3046,1.3903,-1.5347,7.999999999996898e-05,-0.00029999999999996696,2.0000000000020002e-05,-0.00013573022605606333,0.0005491330701845598,-0.0005073658458938368
150000000000.0,-1,-0.04766031899999999,0.1913473548,-0.06260565359999999,0.032987,-0.022096,-0.006333,-1.3081090435,-9.646997738,1.1814071254999998,-2.3054,1.3901,-1.534,4.999999999999449e-05,-0.00019999999999997797,-5.999999999994898e-05,-0.0003180497829118334,-0.0010326903627186912,0.0002189041129039282
150000000000.0,-1,-0.04630700129999999,0.20507666479999997,-0.05555467224999999,0.040461,-0.021049,-0.008455,-1.3085013094999998,-9.6465074055,1.184839453,-2.3066,1.3898,-1.5329,2.999999999997449e-05,-0.00019999999999997797,-0.0001100000000000545,-8.524452130420634e-05,-0.00039026399677943857,0.00026946349429657346
150000000000.0,-1,-0.01823056235,0.18525742515000002,-0.0122779258,0.044742,-0.018913,-0.012704,-1.308010977,-9.6459190065,1.1896447115,-2.3088,1.3895,-1.5309,8.000000000008001e-05,-9.999999999998899e-05,1.0000000000065512e-05,-0.0001997584352284587,-0.0003223580945144189,-2.651595432467957e-05
150000000000.0,-1,-0.01823056235,0.18525742515000002,-0.0122779258,0.044742,-0.018913,-0.012704,-1.308010977,-9.6459190065,1.1896447115,-2.3088,1.3895,-1.5309,3.999999999992898e-05,-0.00029999999999996696,-1.0000000000065512e-05,-0.00029899201659433494,-0.001009308106846074,0.0003671453185063456
150000000000.0,-1,0.03182257925,0.10595104659999999,0.03229329845,0.043694,-0.014635,-0.016949,-1.3059515805,-9.6455267405,1.1955287015,-2.312,1.3893,-1.5278,9.00000000000345e-05,-0.00010000000000021103,-0.00010999999999994348,0.00021984608162495256,0.0007441711804563322,-0.0005646330137469846
150000000000.0,-1,0.0240655191,0.06950953519999999,0.026909447599999997,0.030907,-0.012423,-0.022266,-1.3012443885,-9.645134474499999,1.203668221,-2.3173,1.389,-1.5227,4.999999999999449e-05,-0.00019999999999997797,-2.0000000000020002e-05,-0.00016791049181197337,-0.00016291416183045193,0.00013141343488953794
150000000000.0,-1,0.0474837993,0.0569374099,0.0091790244,0.025581,-0.013508,-0.020133,-1.2975178615,-9.645134474499999,1.2076889474999999,-2.3203,1.389,-1.5198,4.999999999999449e-05,-0.00029999999999996696,-2.0000000000020002e-05,-0.0005918479111099995,2.137273027802422e-05,-0.0003648374234179741
150000000000.0,-1,0.045787248850000004,0.05686876335,0.0068450417,0.020233,-0.014587,-0.014818,-1.295850731,-9.645036408,1.2100425435,-2.322,1.389,-1.5183,0.00034999999999996145,-0.0013999999999998458,0.0009100000000000774,0.022674696735831557,-0.007393265545472927,0.016079957618278407
150000000000.0,-1,0.014572681899999999,0.09315336835,-0.012062179499999999,0.018082,-0.0178,-0.009507,-1.2945758664999998,-9.6449383415,1.2120038735,-2.3233,1.389,-1.5171,1.0000000000065512e-05,-0.00010000000000021103,-4.0000000000040004e-05,-0.0018104492299453323,0.0008181782264600201,-0.0017284628532872048
150000000000.0,-1,0.0216138566,0.18884665904999998,0.02689964095,0.01914,-0.020994,-0.008451,-1.293693268,-9.644742208499999,1.214847802,-2.3248,1.3888,-1.5158,2.999999999997449e-05,-0.00019999999999997797,-4.999999999999449e-05,-0.0006852139538628954,-0.0005735523839158763,-0.0003357673005592865
150000000000.0,-1,0.0173381572,0.1795597615,0.04106044354999999,0.021274,-0.021002,-0.00845,-1.2927126029999998,-9.644448009,1.2182801294999999,-2.3266,1.3887,-1.5142,-5.999999999994898e-05,-0.00029999999999996696,-1.0000000000065512e-05,-0.0005473787488914361,0.0002985042991379139,-0.0011696447174309732
150000000000.0,-1,0.0162594257,0.17939304844999998,0.038638201,0.023419,-0.016761,-0.009504,-1.2916338714999998,-9.644251875999998,1.2207317919999998,-2.328,1.3886,-1.513,4.999999999999449e-05,-9.999999999998899e-05,-9.99999999995449e-06,-0.0007693964173043355,0.00013477599091071824,0.00028591350430939855
150000000000.0,-1,0.059222359349999996,0.18401198059999999,0.07078439969999999,0.022368,-0.012499,-0.011622,-1.289378342,-9.64385961,1.2267138485,-2.3313,1.3883,-1.5098,-6.0000000000060005e-05,-0.00019999999999997797,-0.00012999999999996348,-0.0012616276981447516,0.0003446025786248974,-0.0008561129421735814
150000000000.0,-1,0.05783962169999999,0.1839531407,0.06886229629999999,0.017052,-0.007152,-0.014802,-1.288005411,-9.6437615435,1.2286751785,-2.3326,1.3883,-1.5086,4.0000000000040004e-05,-9.999999999998899e-05,-0.0001100000000000545,-0.00014469644926595748,-0.00018293174906802712,-0.0005702690490334561
150000000000.0,-1,0.05531931265,0.17725519875,0.0718631312,0.01493,-0.003946,-0.016923,-1.2856518149999998,-9.643663477,1.232107506,-2.3349,1.3882,-1.5063,0.00027999999999994696,-0.0004999999999999449,0.00029000000000001247,0.003452349577047764,-0.002725483783412974,0.0031374231759819793
150000000000.0,-1,0.04666984735,0.17369538479999996,0.05416212795,0.018141,-0.000769,-0.017979,-1.2833962854999998,-9.643565410499999,1.2352456339999998,-2.3371,1.3881,-1.5041,-0.00017999999999995797,-0.00019999999999997797,7.999999999996898e-05,-0.0005907387916526119,-0.0003748443209734553,0.0011107855842826808
150000000000.0,-1,0.0442672181,0.1705768701,0.041442902899999995,0.021341,-0.001835,-0.019044,-1.2811407559999999,-9.6433692775,1.238579895,-2.3393,1.3881,-1.5019,-0.00017999999999995797,0.0009999999999998899,-0.0011299999999999644,-0.021149369727810008,0.009377399163567945,-0.016723148908358798
150000000000.0,-1,0.0296553096,0.14063716764999998,0.03658861115,0.023471,-0.002912,-0.017983,-1.279179426,-9.643271211,1.241914156,-2.3414,1.388,-1.4998,5.999999999994898e-05,-0.00019999999999997797,-7.00000000000145e-05,-0.0008334471330639914,-0.00016157099279645593,0.0006772577802252044
150000000000.0,-1,0.019436780299999998,0.12867305465,0.057221802749999995,0.026661,-0.006122,-0.015862,-1.277414229,-9.642878945,1.2459348824999998,-2.3437,1.3878,-1.4975,-9.99999999995449e-06,-0.00019999999999997797,-2.0000000000020002e-05,-0.00026504383846837065,-0.00019169140785635363,-0.0002881801326997113
150000000000.0,-1,0.01758332345,0.1101482928,0.07440305355,0.027715,-0.007227,-0.010546,-1.2761393644999999,-9.642486679,1.2504459415,-2.346,1.3876,-1.4953,9.99999999995449e-06,-9.999999999998899e-05,1.0000000000065512e-05,0.0004607029935537188,-0.0001463544352788837,0.00031452709488100083
150000000000.0,-1,-0.01267999845,0.1285259549,0.09438900624999999,0.029843,-0.00726,-0.007354,-1.2758451649999998,-9.64189828,1.2556434659999998,-2.3482,1.3872,-1.4932,5.999999999994898e-05,-0.00019999999999997797,-1.0000000000065512e-05,-0.0006728093455481421,0.00017874629407987896,-0.0003086456183791775
150000000000.0,-1,-0.0303417751,0.15386633849999998,0.0965562759,0.029856,-0.004062,-0.009474,-1.2758451649999998,-9.641211814499998,1.2609390569999999,-2.3503,1.3868,-1.4911,7.00000000000145e-05,-9.999999999998899e-05,-4.999999999999449e-05,-0.00014694090956024475,-0.00030797200514443013,0.0004668451008140728
150000000000.0,-1,-0.02941995,0.19007249029999998,0.042953127,0.023505,0.003404,-0.014768,-1.2755509655,-9.640721481999998,1.2647636505,-2.3519,1.3866,-1.4894,4.999999999999449e-05,-9.999999999998899e-05,-3.999999999992898e-05,0.0007984118888499925,-0.001249060459760809,0.0006879503948682419
150000000000.0,-1,0.017416610399999997,0.19253395945,-0.0079826131,0.023544,0.013013,-0.023256,-1.2737857685,-9.640623415499999,1.267215313,-2.3536,1.3865,-1.4876,4.999999999999449e-05,-0.00019999999999997797,-4.0000000000040004e-05,-0.0003542176708939415,-1.4118283588882008e-06,4.9215854877271425e-05
150000000000.0,-1,-0.0218688295,0.1920926602,0.00565843705,0.025693,0.014112,-0.029635,-1.2720205715,-9.640525349,1.269961175,-2.3554,1.3865,-1.4857,6.0000000000060005e-05,-0.00019999999999997797,-7.00000000000145e-05,-0.0005936298917839089,5.820341496098891e-06,4.2898038293603946e-05
150000000000.0,-1,-0.027233067049999997,0.1962114532,-0.03521568015,0.029969,0.01518,-0.032822,-1.270157308,-9.6404272825,1.2724128375,-2.3571,1.3864,-1.4838,9.999999999998899e-05,-0.00010000000000021103,-2.999999999997449e-05,-0.000556572605771688,-8.695831381189123e-06,0.0003664042177402571
150000000000.0,-1,-0.07050000684999999,0.1619862447,-0.021780569649999998,0.032094,0.015139,-0.028566,-1.269176643,-9.640231149499998,1.2752567659999998,-2.3586,1.3863,-1.4821,9.00000000000345e-05,-0.00019999999999997797,-9.00000000000345e-05,-0.00044167538981998433,0.00016534581244198598,-0.0001301653477003839
150000000000.0,-1,-0.07871797954999998,0.21143137399999998,-0.020927391099999998,0.035286,0.01299,-0.026442,-1.2687843769999998,-9.6398388835,1.2785910269999998,-2.3601,1.3861,-1.4804,0.00013999999999991797,-0.00019999999999997797,-9.999999999998899e-05,-0.0012020324545582994,0.0007440711433246427,-0.00026762354272680255
150000000000.0,-1,-0.08234644005,0.19673120565,-0.0015494506999999998,0.035287,0.016147,-0.023243,-1.2686863105000001,-9.639348551,1.2823175539999998,-2.3615,1.3858,-1.4787,0.00038000000000004697,-0.0013999999999998458,0.0009099999999999664,0.021813263995863696,-0.00975614043411177,0.01638174247868518
150000000000.0,-1,-0.05033753445,0.19739805785,0.017475450299999997,0.041686,0.017166,-0.021111,-1.2682940445,-9.638760152,1.2867305464999998,-2.3634,1.3855,-1.4766,0.00022999999999995246,-9.999999999998899e-05,5.000000000032756e-06,0.000945016478053784,0.00042308990284745107,0.0006946945841765917
150000000000.0,-1,-0.047209213099999994,0.16952755854999998,0.013778343249999998,0.048086,0.019238,-0.017913,-1.2679017784999997,-9.638171753,1.2918300045,-2.3655,1.3852,-1.4743,6.0000000000060005e-05,-0.00020000000000020002,5.000000000032756e-06,0.0009185855015600985,0.0004917002297404327,0.0006933003445470654
150000000000.0,-1,-0.01928968055,0.11657164854999999,0.014945334599999999,0.049161,0.022415,-0.017906,-1.2671172464999998,-9.637583353999998,1.2969294625,-2.3678,1.3848,-1.4717,2.999999999997449e-05,-9.999999999998899e-05,2.0000000000020002e-05,-0.000926332736431501,0.00033646316812552257,-0.0005499273597684429
150000000000.0,-1,0.00093163175,0.115914603,0.03323473685,0.041702,0.025634,-0.018964,-1.2659404485,-9.637093021499998,1.3018327875,-2.3702,1.3846,-1.4691,0.00012999999999996348,-9.999999999998899e-05,-9.999999999998899e-05,-0.0005980979013346932,-0.0002468343177710608,9.918303540290552e-05
150000000000.0,-1,0.01405292945,0.09456552594999999,0.0192602606,0.029978,0.028878,-0.021087,-1.264273318,-9.636798822,1.3053631815,-2.3722,1.3844,-1.4668,-2.999999999997449e-05,-9.999999999998899e-05,-0.0001500000000000945,-0.0027257775593110267,0.0009932268222163643,-0.0011857716604186663
150000000000.0,-1,-0.0233202137,0.08668097934999999,0.0389520138,0.022516,0.031029,-0.021084,-1.263292653,-9.6365046225,1.30820711,-2.3737,1.3843,-1.4649,0.00021999999999999797,-9.999999999998899e-05,0.00019000000000002348,0.002444943350680351,-0.0008733479016809209,0.002386323611332397
150000000000.0,-1,-0.01893664115,0.0676462717,0.034313468349999994,0.020382,0.031037,-0.021084,-1.262115855,-9.636406555999999,1.3106587724999998,-2.3751,1.3842,-1.4632,0.00031000000000003247,-0.00019999999999997797,0.000140000000000029,0.0027010880924738245,-0.0001929091982093567,0.0018542144822699669
150000000000.0,-1,-0.02737036015,0.0848667491,0.0013925443,0.018235,0.028893,-0.016834,-1.2614293895,-9.636210423,1.3122278365,-2.3759,1.3841,-1.462,0.00017000000000000348,-9.999999999998899e-05,9.99999999995449e-06,-0.0002385197192809052,-0.0003935615651411428,0.0011244114407795713
150000000000.0,-1,0.0031283213499999998,0.11185464989999999,0.005315204299999999,0.011826,0.029939,-0.011515,-1.2608409904999998,-9.6361123565,1.3136007675,-2.3767,1.384,-1.461,0.00012000000000000899,-9.999999999998899e-05,3.0000000000085514e-05,-0.0004524626595021619,-0.0006602043188850271,0.00010779869831312183
150000000000.0,-1,0.0027752819499999998,0.1083438692,-0.0030400615,0.009676,0.025682,-0.008334,-1.2604487245,-9.63601429,1.314483366,-2.3772,1.384,-1.4602,5.999999999994898e-05,-9.999999999998899e-05,-4.0000000000040004e-05,0.00035635400920130955,0.0006128354603824882,0.0007143256673556309
150000000000.0,-1,0.02852754485,0.15686717339999998,-0.0020005566,0.013957,0.024568,-0.005135,-1.2600564584999998,-9.635916223499999,1.3156601639999999,-2.3778,1.3839,-1.4593,3.0000000000085514e-05,-9.999999999998899e-05,-4.0000000000040004e-05,-0.001014426459334583,-1.2045918592828997e-05,0.00026381947476883383
150000000000.0,-1,0.06514557594999999,0.13834241155,0.00856120545,0.017151,0.022426,-0.004076,-1.2589777269999998,-9.635818157,1.3175234274999998,-2.3789,1.3839,-1.458,-0.000160000000000049,0.0005999999999999339,-5.999999999994898e-05,-0.0028821496979118955,-0.0006610330990166613,-0.0008545002474193986
150000000000.0,-1,0.11341390725,0.12334804369999999,0.01879934805,0.017154,0.023486,-0.004074,-1.2571144635,-9.635818157,1.319582824,-2.3804,1.3839,-1.4562,-0.00036000000000002697,0.000600000000000156,-0.0012499999999999734,-0.0242176458257628,0.010362596716327666,-0.01904929326257676
150000000000.0,-1,0.1257408663,0.13324295355,0.02538941685,0.013965,0.026696,-0.006196,-1.2549570005,-9.635818157,1.321544154,-2.382,1.3839,-1.4544,2.999999999997449e-05,-9.999999999998899e-05,1.999999999990898e-05,0.0001653252015367812,3.308646351496414e-05,0.00030208295001710184
150000000000.0,-1,0.1523561144,0.12382856954999999,-0.0128859381,0.007563,0.022512,-0.010463,-1.251720806,-9.6361123565,1.3222306195,-2.3836,1.384,-1.4526,3.0000000000085514e-05,-0.00010000000000021103,-4.999999999999449e-05,0.0003867207944603379,-0.0006887369969186263,2.7094203502997516e-07
150000000000.0,-1,0.15525888279999997,0.1091087879,-0.0586829936,0.001147,0.016174,-0.01048,-1.2483865449999998,-9.6367007555,1.3214460875,-2.3846,1.3843,-1.4514,9.99999999995449e-06,-4.999999999988347e-05,-1.999999999990898e-05,0.00017398478284658125,-0.0002557404627008264,0.00023825586787395991
150000000000.0,-1,0.15201288165,0.0910253253,-0.0684111904,-0.006357,0.003455,-0.007321,-1.2451503505,-9.6372891545,1.3199750899999998,-2.3854,1.3847,-1.4506,-2.0000000000020002e-05,-5.0000000000105516e-05,-4.0000000000040004e-05,0.0003822400832034223,0.00025773824020980385,-0.00013834752568975262
150000000000.0,-1,0.11389443309999998,0.11444360549999999,-0.05828092095,-0.009586,-0.006101,-0.004153,-1.2427967545,-9.6378775535,1.318406026,-2.3857,1.385,-1.4503,-9.99999999995449e-06,-9.999999999998899e-05,-1.4999999999987246e-05,6.457138085225189e-05,-0.00017229898441595282,-0.0001520994837034273
150000000000.0,-1,0.043551332649999996,0.15692601329999997,-0.0669794195,-0.005339,-0.012505,-0.000975,-1.2420122225,-9.638073686499999,1.317033095,-2.3855,1.3851,-1.4506,4.0000000000040004e-05,-0.00019999999999997797,-1.4999999999987246e-05,-0.0011083659799870915,-0.00015447939299151336,0.0005000477512053791
150000000000.0,-1,0.0077766734499999995,0.18962138439999998,-0.034725347649999995,0.009601,-0.011496,-0.002033,-1.2420122225,-9.638073686499999,1.3175234274999998,-2.3857,1.3851,-1.4505,3.999999999992898e-05,-9.999999999998899e-05,-2.0000000000020002e-05,0.00039623453542958487,-0.00018628038994195073,6.943408419601838e-05
150000000000.0,-1,0.007825706699999999,0.20009488659999997,-0.01711260425,0.023494,-0.004104,-0.005203,-1.241914156,-9.637779487,1.3198770234999997,-2.3866,1.3849,-1.4496,2.999999999997449e-05,-9.999999999998899e-05,-4.999999999999449e-05,-0.000284241117190831,-5.2848692528639774e-05,2.7019299643882277e-05
150000000000.0,-1,0.00687446165,0.19984972035,-0.019789819699999996,0.029946,0.011833,-0.012611,-1.240933491,-9.637485287499999,1.322524819,-2.388,1.3848,-1.4481,1.0000000000065512e-05,-0.00019999999999997797,-1.0000000000065512e-05,-0.0004957727251333477,-0.00030508494609748915,0.00014848082191809553
150000000000.0,-1,0.00012748645,0.18396294735,0.0024516625,0.031054,0.022498,-0.021097,-1.2394624935,-9.6372891545,1.3252706810000001,-2.3897,1.3847,-1.4462,2.0000000000020002e-05,-9.999999999998899e-05,-2.999999999997449e-05,-0.0006371068566857208,-0.00013401892919207015,0.00011187463630735195
150000000000.0,-1,0.07608979735,0.15630819434999998,-0.0272428737,0.034272,0.026759,-0.025341,-1.236226299,-9.637387221,1.328016543,-2.392,1.3847,-1.4436,-4.0000000000040004e-05,-0.00019999999999997797,-7.999999999996898e-05,-0.00023546313198874458,-0.00013331275075589843,-0.00026882350346202344
150000000000.0,-1,0.12041585534999999,0.16470268675,-0.06965663494999999,0.04494,0.022506,-0.029604,-1.2318133064999999,-9.637485287499999,1.330958538,-2.3949,1.3848,-1.4405,9.99999999995449e-06,-0.00019999999999997797,-7.500000000004725e-05,-0.00017521876040005324,-0.00035850978804941036,-7.542616116129608e-06
150000000000.0,-1,0.13620456185,0.17203806095,-0.10403874985,0.056655,0.013975,-0.029621,-1.2268119149999999,-9.6376814205,1.334488932,-2.3982,1.3849,-1.4369,1.0000000000065512e-05,-0.00019999999999997797,-7.499999999993623e-05,0.00023706117145216865,-0.0007411654064439777,0.0007696941441581728
150000000000.0,-1,0.11651280864999998,0.18641460985,-0.08226798685,0.068391,0.005442,-0.029623,-1.2222027895,-9.637485287499999,1.3396864565,-2.402,1.3848,-1.433,-4.0000000000040004e-05,-0.00019999999999997797,-8.000000000008001e-05,-0.0007469187146360579,-0.00039634080221495616,-0.000169287962574316
150000000000.0,-1,0.11391404639999998,0.18578698424999998,-0.08916206179999998,0.072638,-0.000962,-0.026445,-1.219554994,-9.636896888499999,1.3465511114999997,-2.4056,1.3845,-1.4293,-3.999999999992898e-05,-0.00019999999999997797,-6.999999999990347e-05,-0.00106944965450384,-0.00012719237092850832,0.00041303339028830877
150000000000.0,-1,0.076099604,0.1624569639,-0.08698498549999999,0.068369,-0.00305,-0.028579,-1.215632334,-9.636602689,1.352140902,-2.4093,1.3843,-1.4256,-3.0000000000085514e-05,-0.00020000000000020002,-4.999999999999449e-05,-0.0005557462796605961,-0.0006064571332473623,0.0002096666356372623
150000000000.0,-1,0.0692937889,0.12238699199999999,-0.05342662919999999,0.061968,-0.003025,-0.028581,-1.2116116074999999,-9.6363084895,1.357632626,-2.413,1.3842,-1.4219,-2.999999999997449e-05,-0.00019999999999997797,-9.00000000000345e-05,-0.0005381166671205584,0.00016704479520623927,-9.122847715081761e-05
150000000000.0,-1,0.0672147791,0.1034601575,-0.03329357675,0.054512,0.001255,-0.029637,-1.207590881,-9.6361123565,1.3628301505,-2.4165,1.384,-1.4183,-0.00012000000000000899,-0.00019999999999997797,-6.0000000000060005e-05,-0.0004704582323458162,-6.63461882326466e-05,-2.7915881120055275e-05
150000000000.0,-1,0.07566811139999999,0.12318133064999999,-0.03264633785,0.055599,0.007637,-0.032814,-1.2033740215,-9.635916223499999,1.3678315419999998,-2.4201,1.3839,-1.4146,-9.00000000000345e-05,-0.00019999999999997797,-1.999999999990898e-05,-0.0003533764914158688,-2.1642194601545484e-05,3.3295562250845734e-05
150000000000.0,-1,0.1034797708,0.09183927724999999,-0.040256298249999996,0.055606,0.010819,-0.032808,-1.19837263,-9.635916223499999,1.3726368005,-2.4239,1.3839,-1.4107,-0.00013999999999991797,-0.00019999999999997797,-4.0000000000040004e-05,-0.0008780339505543022,-0.00021849310661536947,0.00017112210024716745
150000000000.0,-1,0.1556119222,0.08531785499999998,-0.08107157555,0.052406,0.012936,-0.030677,-1.1924886399999999,-9.6361123565,1.3763633275,-2.4277,1.384,-1.4067,-0.00014999999999998348,-0.00019999999999997797,-2.0000000000020002e-05,-0.00033013431926787185,-0.0003114713305161221,2.0834603986941147e-05
150000000000.0,-1,0.16101538634999998,0.05971269184999999,-0.0831996186,0.04599,0.008704,-0.028563,-1.1866046499999998,-9.636406555999999,1.379403389,-2.4312,1.3842,-1.4031,-0.00024000000000001798,-0.00029999999999996696,9.99999999995449e-06,-0.0006993317003112232,0.0005110653130904197,7.72108714959252e-05
150000000000.0,-1,0.1630649762,0.08821081674999999,-0.1118154233,0.040621,-0.000867,-0.022205,-1.1812109924999998,-9.6367007555,1.3814627855,-2.4342,1.3844,-1.4,-0.00014999999999998348,-0.00019999999999997797,-7.999999999996898e-05,-0.0002702412254764752,-0.00043762158223925596,0.00022859012137566026
150000000000.0,-1,0.16121151934999997,0.08787739065,-0.11568905004999999,0.039529,-0.007265,-0.016901,-1.179347729,-9.636406555999999,1.3853854455,-2.4364,1.3842,-1.3979,-0.00021000000000004349,-0.00029999999999996696,-5.999999999994898e-05,-5.9517530197616964e-05,-0.00013454904471443818,-3.2394481663367e-05
150000000000.0,-1,0.14018606175,0.08881882905,-0.0995963374,0.041641,-0.013661,-0.013725,-1.175032803,-9.636602689,1.3876409749999998,-2.439,1.3843,-1.3954,-0.00031000000000003247,-0.000300000000000189,3.999999999992898e-05,-7.682427890998156e-05,0.0006231863136680893,-0.0011481672584681135
150000000000.0,-1,0.1338411592,0.1023421994,-0.0971054483,0.046965,-0.016872,-0.012668,-1.1710120765,-9.6367007555,1.3906810364999997,-2.4418,1.3843,-1.3927,-7.00000000000145e-05,-0.0013999999999998458,0.0008299999999999974,0.02071120908402091,-0.0069591620062416926,0.014996932044409217
150000000000.0,-1,0.13257610135,0.10178322034999998,-0.10202838659999999,0.048012,-0.02221,-0.008425,-1.1697372119999998,-9.6361123565,1.395682428,-2.444,1.384,-1.3906,-0.00034999999999996145,-0.000500000000000167,0.000200000000000089,-3.26098360969862e-05,-0.002398895606598339,0.000300648539026227
150000000000.0,-1,0.12047469525,0.0961640099,-0.15552366235,0.038395,-0.025377,-0.005244,-1.166402951,-9.6363084895,1.3969572924999998,-2.4459,1.3841,-1.389,-0.00014999999999998348,-0.00029999999999996696,8.999999999992347e-05,0.0011024195589159902,-0.0010316542533381767,0.001001712937521937
150000000000.0,-1,0.12047469525,0.0961640099,-0.15552366235,0.038395,-0.025377,-0.005244,-1.166402951,-9.6363084895,1.3969572924999998,-2.4459,1.3841,-1.389,-7.999999999996898e-05,-0.00039999999999995595,0.00012000000000000899,0.0008858246544778403,-0.001318340622784131,0.0026383515583128236
150000000000.0,-1,0.11630686900000001,0.1050096082,-0.19874156889999997,0.027716,-0.03275,-0.005244,-1.1633628894999999,-9.636798822,1.396270827,-2.447,1.3844,-1.3882,-0.00034000000000000696,-0.00039999999999995595,-4.999999999999449e-05,-0.0015685644905376606,-0.0003525804808257593,-4.509807190000714e-05
150000000000.0,-1,0.12235757205,0.14199048535,-0.22073788485,0.024482,-0.046531,-0.004213,-1.1614015594999998,-9.636210423,1.4018606175,-2.4497,1.3841,-1.3862,-0.000280000000000058,-0.00029999999999996696,-0.00017999999999995797,-0.0005738550352960559,0.0003401262430555718,-0.0008334493274633203
150000000000.0,-1,0.0490528633,0.17815741054999998,-0.22612173569999997,0.03195,-0.048658,-0.007407,-1.1595382959999998,-9.636602689,1.4005857529999999,-2.4501,1.3843,-1.3863,-0.00019000000000002348,-0.00029999999999996696,-0.000260000000000038,-0.0006497120196362616,0.0010436239583364593,-0.0025391623082704484
150000000000.0,-1,0.0476407057,0.17772591794999998,-0.23028956195,0.039413,-0.050809,-0.00741,-1.1580672985,-9.636210423,1.4048026124999997,-2.4522,1.3841,-1.3847,-0.00035999999999991594,-0.000600000000000156,-5.500000000002725e-05,-0.0006834122987200431,-0.0006676299791179563,-0.0008563947595909838
150000000000.0,-1,0.013101684399999999,0.18907221199999996,-0.23745822309999998,0.038344,-0.050813,-0.006346,-1.156792434,-9.6357200905,1.4091175385,-2.4542,1.3838,-1.3831,-0.000140000000000029,-0.0004999999999999449,-5.499999999991623e-05,0.0015370257633531281,4.506085060351772e-05,0.0002656010885040416
150000000000.0,-1,0.0631744393,0.11853297855,-0.2525800774,0.036199,-0.052941,-0.004225,-1.154438838,-9.636210423,1.4073523415,-2.4546,1.3841,-1.3832,-0.00026999999999999247,-0.00039999999999995595,-6.0000000000060005e-05,-0.0008418676343127096,0.001125525425369256,-0.000799756748803393
150000000000.0,-1,0.0618015083,0.11815051919999998,-0.25633602434999997,0.032998,-0.055033,-0.006358,-1.153065907,-9.635818157,1.4110788684999997,-2.4565,1.3839,-1.3818,-0.00021000000000004349,-0.0005999999999999339,1.0000000000065512e-05,0.0003238467691253355,-0.00042045687491021333,0.0010631687580766602
150000000000.0,-1,0.0170831843,0.15126757624999998,-0.28093110255,0.036206,-0.052917,-0.007416,-1.1515949095,-9.635425890999999,1.4150015285,-2.4585,1.3837,-1.3803,-0.00030999999999992145,-0.000600000000000156,-7.00000000000145e-05,0.0019979112876797878,-3.0771175172583654e-05,0.0007553573976006867
150000000000.0,-1,-0.0215157901,0.13183079595,-0.25874846025,0.045816,-0.05081,-0.010599,-1.1510065105,-9.6357200905,1.413334398,-2.4581,1.3838,-1.3811,-0.0005800000000000249,-0.0005999999999999339,-0.00026999999999999247,-0.0038450947814556713,0.00028285424545160254,-0.002701529055369356
150000000000.0,-1,-0.0230848541,0.13122278365,-0.2641519244,0.052228,-0.044489,-0.008456,-1.1494374465,-9.6351316915,1.4187280555,-2.4607,1.3835,-1.379,-0.00031000000000003247,-0.0004999999999999449,-0.00029000000000001247,-0.002020706212607415,0.0011919681956511496,-0.001591918719990204
150000000000.0,-1,-0.024948117599999996,0.1295066199,-0.23197630574999997,0.055443,-0.038139,-0.008441,-1.1480645154999998,-9.634445225999999,1.4244159124999998,-2.4632,1.3831,-1.3768,-0.000260000000000038,-0.000700000000000145,0.00012999999999996348,-0.0010462891448121958,-0.00135662540310455,0.0007749769097178394
150000000000.0,-1,0.0101008495,0.11148199719999999,-0.1769511926,0.05758,-0.036026,-0.008435,-1.1468877174999998,-9.634445225999999,1.4257888435,-2.4642,1.3831,-1.3761,0.0005700000000000705,-0.0006999999999999229,-0.00043000000000004146,0.011991263228950277,0.009609269636680073,0.005278614390424874
150000000000.0,-1,0.0087671451,0.1107366918,-0.1830117023,0.059709,-0.037103,-0.007373,-1.1456128529999998,-9.633660694,1.4318689665,-2.4668,1.3827,-1.3738,-0.0005100000000000104,-0.0007999999999999119,-0.00014999999999998348,-0.0013620777849925325,-0.0004730752067492183,-0.0013692877785493884
150000000000.0,-1,0.0607620034,0.09391828705,-0.20479227194999997,0.061833,-0.040301,-0.006316,-1.144436055,-9.632876162,1.438243289,-2.4695,1.3823,-1.3715,-0.00026999999999999247,-0.000700000000000145,-2.999999999997449e-05,0.00041537076940301176,0.0004489625410466491,-0.0007956737220933263
150000000000.0,-1,0.21803124945,0.12573105965,-0.29242449634999995,0.060738,-0.049857,-0.004213,-1.1370810674999998,-9.63405296,1.4363800254999999,-2.472,1.3829,-1.3694,-0.0010999999999999899,-0.0005999999999999339,0.0005399999999999849,-0.010095344928711336,-0.011363213526575322,-0.002650825958553593
150000000000.0,-1,0.2170996177,0.12486807444999999,-0.29897533854999997,0.059627,-0.065792,6e-06,-1.136198469,-9.6331703615,1.4429504809999998,-2.4746,1.3824,-1.3674,0.00042999999999993044,-0.0007999999999999119,-0.0006399999999999739,0.010748680511166286,0.012224417615222416,0.0013968917406299575
150000000000.0,-1,0.26829033069999997,0.1143259257,-0.3158918098,0.06276,-0.083878,0.008508,-1.13561007,-9.6321896965,1.449815136,-2.4771,1.3819,-1.3656,-0.0007499999999999174,-0.0008000000000001339,-0.00019999999999997797,0.00017540215574407547,0.0009187482043711004,-0.0005620190047204154
150000000000.0,-1,0.29956373755,0.07755098819999999,-0.27354669509999996,0.066969,-0.10408,0.013779,-1.125999553,-9.6333664945,1.4491286705,-2.481,1.3826,-1.3627,-0.0009000000000000119,-0.0008999999999999009,-0.00019999999999997797,-0.003135732589643725,-0.0028773655274076937,-0.0028784495613485284
150000000000.0,-1,0.2997304506,0.0763545769,-0.2813920151,0.067987,-0.11899,0.021192,-1.126195686,-9.6321896965,1.4569739905,-2.4836,1.3819,-1.3613,-0.0012900000000000134,-0.001000000000000112,0.0006799999999999029,-0.010006938730291903,-0.011846214416363576,-0.005831428089508872
150000000000.0,-1,0.33589737579999995,0.030214288649999997,-0.28854106295,0.063678,-0.1328,0.026478,-1.126784085,-9.630914831999998,1.464721244,-2.4859,1.3812,-1.3603,-0.00036999999999998145,-0.0009999999999998899,0.000160000000000049,0.0012778172260690113,-0.00030959418607134914,-0.00038489468617974865
150000000000.0,-1,0.3779679043,0.017200864099999998,-0.3286600681,0.049769,-0.14445,0.031763,-1.1151141715,-9.632876162,1.460798584,-2.4896,1.3823,-1.358,-0.0010200000000000209,-0.0008000000000001339,-0.00043999999999999595,-0.0026715860969490635,0.0018576573709161437,-0.0034292341888750855
150000000000.0,-1,0.37919373554999997,0.01621039245,-0.33422043865,0.035848,-0.16141,0.038103,-1.1162909694999998,-9.631895497,1.4663883745,-2.4909,1.3817,-1.3582,-0.0010100000000000664,-0.0010999999999998789,-7.00000000000145e-05,-0.00018689774945768178,9.528297261574004e-05,-0.004586521727263371
150000000000.0,-1,0.39454114279999997,0.01460210185,-0.38687234249999997,0.022962,-0.19112,0.046542,-1.1178600335,-9.631110965,1.4708994335,-2.4917,1.3813,-1.3593,-0.0007800000000000029,-0.001100000000000101,-0.00022999999999995246,0.0008015640245750966,0.0016777106604091152,-0.002006112254426373
150000000000.0,-1,0.36039438749999997,0.07538371854999999,-0.48742973159999997,0.017516,-0.2283,0.058154,-1.1078572505,-9.63405296,1.4585430545,-2.492,1.3829,-1.3612,-8.999999999992347e-05,-0.0012999999999998568,-0.0004899999999999904,0.00971895963265168,0.010275404234134866,0.0029872608732075534
150000000000.0,-1,0.36317947609999995,0.07437363359999999,-0.4920192438,0.019554,-0.26021,0.069783,-1.1106031125,-9.633072295,1.4631521799999998,-2.4923,1.3824,-1.3635,-0.0017000000000000348,-0.0012000000000000899,0.0005699999999999594,-0.011500578528290673,-0.011253396606469623,-0.006481227574431259
150000000000.0,-1,0.34969533235,0.04892537685,-0.4765247368,0.023743,-0.28576,0.080363,-1.11403544,-9.631895497,1.4684477710000001,-2.4926,1.3817,-1.3661,-0.0009599999999999609,-0.0013000000000000789,-0.00031999999999998696,-0.00010329146610121853,0.001144087407023875,-0.0034950254637404754
150000000000.0,-1,0.2593858925,0.123956056,-0.464246811,0.030085,-0.30281,0.088834,-1.109524381,-9.633856826999999,1.4587391874999998,-2.4914,1.3828,-1.3703,0.00021999999999999797,-0.0010999999999998789,-0.0008700000000000374,0.013281497872236425,0.013559011559883594,0.0008519243510138885
150000000000.0,-1,0.2633281658,0.12245563855,-0.4711310793,0.038607,-0.31026,0.086692,-1.113447041,-9.6323858295,1.4656038425,-2.4919,1.382,-1.3729,-0.0009000000000000119,-0.0017000000000000348,-9.99999999995449e-06,-0.001346236411199797,-0.0012801700651707826,-0.00225334903644292
150000000000.0,-1,0.19064127599999997,0.20102651835,-0.3660037913,0.04822,-0.30918,0.079247,-1.1040326569999999,-9.63601429,1.4489325375,-2.4905,1.384,-1.3774,-0.0010100000000000664,-0.0013000000000000789,-0.000160000000000049,-0.00339346083869696,-0.0002635435361968419,-0.001752166200610361
150000000000.0,-1,0.14901204675,0.1997418472,-0.34600803195,0.057815,-0.31449,0.074982,-1.1027577924999998,-9.6363084895,1.44746154,-2.4905,1.3842,-1.3805,-0.0020199999999999108,0.000600000000000156,-0.0008699999999999264,-0.04435825397340576,-0.0005855376067127605,6.2489524975011035
150000000000.0,-1,0.15148332255,0.19795703689999997,-0.35593236175,0.069536,-0.32195,0.073904,-1.1053075215,-9.6345432925,1.457464323,-2.4927,1.3832,-1.3815,-0.000980000000000092,-0.0015000000000000568,-0.000260000000000038,-0.0018539997658639784,0.00012922305967455472,-0.00334066904437913
150000000000.0,-1,0.10511748134999999,0.18679706919999997,-0.31142978405,0.082318,-0.32522,0.079218,-1.105601721,-9.6341510265,1.4597198525,-2.4934,1.383,-1.3841,-0.0010099999999999554,-0.0016000000000000458,-0.00017000000000000348,-0.00290246287030671,0.0006647443173506407,-0.0034798237184676672
150000000000.0,-1,0.0033931009,0.17359731829999997,-0.34836162795,0.10252,-0.33172,0.087764,-1.1098185805,-9.633268428,1.4627599139999998,-2.4925,1.3825,-1.3882,-0.0010599999999999499,-0.0017000000000000348,-0.00014999999999998348,-0.003181596542741527,0.0007405983954575923,-0.0036317916071104683
150000000000.0,-1,0.007198081099999999,0.170831843,-0.3635717421,0.1249,-0.33821,0.093073,-1.113643174,-9.630424499499998,1.4779602215,-2.4959,1.381,-1.3882,-0.0009900000000000464,-0.0017000000000000348,-0.0003300000000000525,-0.0005437194333874906,-0.0004856745842880539,-0.002887836845105074
150000000000.0,-1,-0.020947004399999997,0.19189652719999997,-0.38964762444999995,0.14195,-0.33833,0.10052,-1.11991943,-9.628757368999999,1.484138411,-2.4952,1.3801,-1.3922,-0.0010599999999999499,-0.0017999999999998018,-0.00017000000000000348,-0.003258856347314154,0.0013555927288564362,-0.004248759990791218
150000000000.0,-1,-0.01344491715,0.17709829234999996,-0.37174068155,0.15369,-0.33626,0.10053,-1.1259014864999999,-9.6268941055,1.4920817975,-2.4952,1.379,-1.3955,-0.0009500000000000064,-0.0037000000000000366,0.0014600000000000168,0.024871299742369235,-0.012579308857985971,0.021852155321086197
150000000000.0,-1,-0.008865211599999999,0.173577705,-0.3908538424,0.16117,-0.33204,0.099479,-1.130510612,-9.6233637115,1.5112047649999998,-2.4993,1.3771,-1.3946,-0.0014200000000000879,-0.0017000000000000348,-0.0005999999999999339,-0.006940096433199816,-0.0013908049875626105,-0.007237506085456591
150000000000.0,-1,-0.010502922149999998,0.1634180156,-0.37590850779999996,0.16972,-0.32676,0.09843,-1.1362965354999999,-9.621108181999999,1.5209133485,-2.4999,1.376,-1.3972,-0.0007999999999999119,-0.0022999999999999687,3.999999999992898e-05,0.001736427581523703,-0.0004690153205195724,-0.0006285919459947387
150000000000.0,-1,0.00975761675,0.26461283695,-0.31703918784999996,0.18786,-0.31944,0.10271,-1.1420824589999998,-9.6182642535,1.5343484589999998,-2.5017,1.3745,-1.3986,-0.0010900000000000354,-0.0018000000000000238,-0.0005399999999999849,-0.0037913572796268724,0.0047791025899013295,-0.0029749585928486866
150000000000.0,-1,0.015102240999999999,0.26021945775,-0.34038882149999994,0.21134,-0.31108,0.10592,-1.14737805,-9.6139493275,1.557688286,-2.5067,1.3722,-1.3967,-0.0009400000000000519,-0.00039999999999995595,-0.0018399999999999528,-0.029669553508158586,0.01288985636646145,-0.026016082053198275
150000000000.0,-1,-0.010591182,0.23238818504999997,-0.3896182045,0.23053,-0.31121,0.11337,-1.1548311039999999,-9.610517,1.573378926,-2.5084,1.3704,-1.3979,-0.0008999999999999009,-0.0018000000000000238,-0.00043999999999999595,-0.0033047481545414037,-0.0001405096820772389,-0.0021457192237499534
150000000000.0,-1,-0.12571144635,0.24933407624999998,-0.2997304506,0.24439,-0.30707,0.11977,-1.1661087515,-9.6059078745,1.5930902925000001,-2.5097,1.3681,-1.3996,-0.0011100000000000554,-0.0023999999999999577,-0.000320000000000098,-0.002904718596989042,0.0011957373728881393,-0.0021051897184758417
150000000000.0,-1,-0.19026862329999997,0.33065081804999996,-0.19427954314999998,0.25509,-0.2944,0.12087,-1.1796419285,-9.600121951,1.6176069175,-2.5115,1.3652,-1.4007,-0.0009400000000000519,-0.0020000000000000018,-0.00046999999999997044,-0.003125833456831817,0.0009559080531320596,-0.002095177537218884
150000000000.0,-1,-0.233006004,0.2829610791,-0.15470971039999998,0.2594,-0.27635,0.11665,-1.1940577039999998,-9.594041828,1.6430061409999999,-2.5131,1.3622,-1.4017,-0.0010000000000000009,-0.0026000000000001577,-0.00032999999999994145,-0.0025527287443098956,7.168379162370009e-05,-0.0018309346416982564
150000000000.0,-1,-0.32969957299999997,0.2604842373,-0.17684331944999998,0.26372,-0.25622,0.1167,-1.2008242925,-9.588255904499999,1.6712492929999998,-2.5186,1.3594,-1.3989,-0.0008999999999999009,-0.0020999999999999908,-0.00036000000000002697,-0.003964236828575718,0.001165865727959181,-0.0013029211015926911
150000000000.0,-1,-0.322246519,0.25443353425,-0.20589061674999998,0.2787,-0.2298,0.12102,-1.2082773464999998,-9.582273848,1.7003750434999998,-2.5238,1.3565,-1.3959,-0.0008500000000000174,-0.0024999999999999467,-0.00041000000000002146,-0.0062201649108470924,0.0019238164896786536,-0.0015481845201077427
150000000000.0,-1,-0.31739222724999994,0.16284922989999998,-0.23309426384999998,0.30326,-0.20552,0.12431,-1.2165149324999998,-9.5757033925,1.731265991,-2.5291,1.3533,-1.3927,-0.0007099999999999884,-0.0022999999999999687,-0.00043999999999999595,-0.0011620758278545473,-2.5363945844292246e-05,-0.0010646930034412527
150000000000.0,-1,-0.31739222724999994,0.16284922989999998,-0.23309426384999998,0.30326,-0.20552,0.12431,-1.2165149324999998,-9.5757033925,1.731265991,-2.5291,1.3533,-1.3927,-0.0009000000000000119,-0.0024999999999999467,-0.00029000000000001247,-0.004919467222306073,0.0009259981639491155,0.00019046508382114524
150000000000.0,-1,-0.36401304134999996,0.1803835201,-0.1212886472,0.33211,-0.18968,0.11798,-1.224654452,-9.568544538,1.764804734,-2.5349,1.35,-1.3887,-0.0006099999999999994,-0.002200000000000202,-0.0005300000000000304,-0.0017901092063214996,0.0006004313457728117,-0.0020403437037659344
150000000000.0,-1,-0.3414871663,0.1903078499,-0.07247114349999999,0.36536,-0.11344,0.11497,-1.2536821360000001,-9.551284834,1.8359029464999999,-2.5425,1.3421,-1.3835,-0.0006800000000000139,-0.0025999999999999357,-0.00025999999999992696,-0.005219636421837537,0.0010934464397656107,7.072257590667874e-06
150000000000.0,-1,-0.6444734246999999,0.27352708179999996,0.1340765188,0.34933,-0.12295,0.1192,-1.262704254,-9.543243381,1.8714030195,-2.548,1.3385,-1.379,-0.0005699999999999594,-0.0021999999999999797,-0.00043000000000004146,-0.0004205542265336426,0.00115309661553753,-0.0006003480587355448
150000000000.0,-1,-0.6351865271499999,0.26572098839999997,0.10090062184999998,0.32587,-0.11544,0.12027,-1.271922505,-9.5354961275,1.9045494964999998,-2.5528,1.3351,-1.3754,-0.00042000000000008697,-0.0024999999999999467,-0.00041000000000002146,-0.0047903127220172426,6.764282941262856e-05,0.000620975244826738
150000000000.0,-1,-0.7061376399,0.2647991633,0.19294583875000001,0.30145,-0.072834,0.10866,-1.2812388224999998,-9.528141139999999,1.9349501115,-2.5567,1.3319,-1.3722,-0.00042999999999993044,-0.0023999999999999577,-0.0005199999999999649,-0.0013533182878688876,0.0002608848913534523,0.00026406558675340364
150000000000.0,-1,-0.6194566605499999,0.3986010959,0.09744868104999999,0.29201,-0.02698,0.080042,-1.2888880095,-9.521276485,1.9633893964999998,-2.5607,1.329,-1.3685,-0.00042000000000008697,-0.0024000000000001798,-0.00036000000000002697,-0.003898046346559214,0.0009723945327120287,0.0006681374734980317
150000000000.0,-1,-0.61376880355,0.39217774014999995,0.0702352273,0.28469,0.014616,0.052479,-1.2945758664999998,-9.514804095999999,1.990553817,-2.565,1.3262,-1.364,-0.00030999999999992145,-0.0023999999999999577,-0.0006599999999999939,-0.0013373254306641158,0.0007172059370126327,-2.785784081371645e-05
150000000000.0,-1,-0.5089161017499999,0.51264262875,-0.0586829936,0.27515,0.030657,0.039748,-1.2991849919999998,-9.508723973,2.0166395059999997,-2.5693,1.3237,-1.3593,-0.00043000000000004146,-0.0024999999999999467,-0.0005199999999999649,-0.001867997940939059,0.00034876079927403936,0.0006332862941964557
150000000000.0,-1,-0.2686237568,0.42904093749999994,-0.131016844,0.26449,0.033857,0.042944,-1.3037941175,-9.5027419165,2.0416464635,-2.5733,1.3212,-1.3548,-0.00027999999999994696,-0.0022999999999999687,-0.00046999999999997044,-0.003944653747025573,0.0008985392546794202,-0.002019003630147065
150000000000.0,-1,-0.26335758575,0.42316675415,-0.1548077769,0.25165,0.026413,0.052497,-1.3089916419999998,-9.496857926499999,2.0653785565,-2.5767,1.3188,-1.351,-0.000300000000000078,-0.0023999999999999577,-0.0005100000000000104,-0.001061921428393564,0.0009578915149566214,-0.0015189075713650801
150000000000.0,-1,-0.2996323841,0.38745093485,-0.13698909385,0.24088,0.001921,0.071585,-1.3155620974999997,-9.4909739365,2.088424184,-2.5795,1.3164,-1.348,-0.00010999999999994348,-0.0025000000000001688,-0.0005700000000000705,-0.003600172165480142,0.00015736293169488214,0.0004080557432044607
150000000000.0,-1,-0.6278413462999999,0.25749320904999995,0.2039587067,0.22792,-0.051227,0.094863,-1.323309351,-9.4848938135,2.110979479,-2.5816,1.3139,-1.3461,-0.00017000000000000348,-0.0025999999999999357,-0.00029000000000001247,-0.0011215635548842418,0.0017446999701280497,-0.004145218231443426
150000000000.0,-1,-0.6199273797499999,0.2515405725,0.1822860102,0.21069,-0.10641,0.10856,-1.331154671,-9.478911756999999,2.1325541089999995,-2.5836,1.3115,-1.3451,0.00019999999999997797,-0.0022999999999999687,-0.0005899999999999794,-0.0027353771003346683,-0.0017009385588280246,0.0022056259207285933
150000000000.0,-1,-0.8023114564499999,0.23838985485,0.16348666214999996,0.19887,-0.1414,0.11486,-1.3391961239999999,-9.4731258335,2.153344207,-2.5852,1.3092,-1.3448,0.00021000000000004349,-0.0023999999999999577,-0.00044999999999995044,-0.0022169751815832583,4.1140604048583995e-05,-0.0018093619240691083
150000000000.0,-1,-0.94999960545,0.3627087569,0.26057249714999997,0.20638,-0.14232,0.09146,-1.34547238,-9.4674379765,2.1744285045,-2.5875,1.307,-1.3439,0.00026999999999999247,-0.0025999999999999357,-0.00046000000000001595,-0.0019937382162209527,6.0240206901429616e-05,0.0001010110971746414
150000000000.0,-1,-0.94746948975,0.35700128659999997,0.2374386098,0.23863,-0.084758,0.035223,-1.3479240424999999,-9.4617501195,2.1975721985,-2.5914,1.3048,-1.341,0.00046999999999997044,-0.0024000000000001798,-0.00043999999999999595,-0.0027125967307772836,5.0208192612588576e-05,-0.0010760799452165237
150000000000.0,-1,-1.166795217,0.5775528450999999,0.4199893995499999,0.25161,-0.039958,-0.006156,-1.3471395105,-9.456160329,2.2218926905,-2.5965,1.3026,-1.3361,0.00048000000000003595,-0.0024999999999999467,-0.000500000000000056,-0.0033344856052912597,-0.00035099164940399774,-0.0006068204129880961
150000000000.0,-1,-1.166795217,0.5775528450999999,0.4199893995499999,0.25161,-0.039958,-0.006156,-1.3471395105,-9.456160329,2.2218926905,-2.5965,1.3026,-1.3361,0.0005499999999999394,-0.0025999999999999357,-0.0005199999999999649,-0.0038520957212981877,0.0007573044901798553,-0.0026476249664582063
150000000000.0,-1,-1.1521833085,0.29041413309999997,0.008208166049999998,0.24199,-0.049471,-0.005116,-1.34547238,-9.450766671499998,2.2456247835,-2.6018,1.3006,-1.3311,0.0005800000000000249,-0.0025999999999999357,-0.0005100000000000104,-0.0032466057214091126,-0.0003504430828409344,-0.0008485668005300262
150000000000.0,-1,-1.0465656879999998,0.39329569825,-0.0588399,0.25664,-0.14418,0.029775,-1.3440013825,-9.4391948245,2.2947561,-2.6118,1.2962,-1.323,0.0006800000000000139,-0.0026000000000001577,-0.0006699999999999484,-0.0026302272036871077,-0.002116516724674611,-0.003338578324748376
150000000000.0,-1,-0.6836215714999999,0.38780397424999996,-0.011836626549999998,0.28431,-0.17294,0.032908,-1.3432168505,-9.432330169499998,2.3230973185,-2.6174,1.2936,-1.3189,0.0006599999999999939,-0.0024999999999999467,-0.000500000000000056,-0.0029060472170434615,-0.00047769500381988905,-0.0010417079855638
150000000000.0,-1,-0.68502392245,0.38026266039999995,-0.04302177355,0.3088,-0.19424,0.030739,-1.3418439195,-9.424779049,2.3542824655,-2.6236,1.2908,-1.3144,0.0007500000000000284,-0.0025999999999999357,-0.0005399999999999849,-0.0036823884934342743,-6.1435246665464405e-06,-0.0038107082523755054
150000000000.0,-1,-0.58315244225,0.41641977895,-0.05661379045,0.31405,-0.23454,0.028522,-1.3391961239999999,-9.416933729,2.38693861,-2.6303,1.2879,-1.3098,0.0007800000000000029,-0.0026000000000001577,-0.0006199999999999539,-0.003616953948601065,-2.819536085274521e-06,-0.0025000646944608462
150000000000.0,-1,-0.32833644864999995,0.47146450539999996,0.09948846424999999,0.30655,-0.25463,0.024224,-1.3498853725,-9.405165749,2.4273420079999997,-2.6341,1.2837,-1.3082,0.0007599999999999829,-0.0025999999999999357,-0.0006500000000000394,-0.0018696317563393627,-0.0016564669626142337,-0.004021582662574463
150000000000.0,-1,-0.33329861355,0.46408009794999994,0.0683131239,0.2884,-0.26824,0.011425,-1.344883981,-9.397712695,2.4584290885,-2.641,1.281,-1.3037,0.0008199999999999319,-0.0026999999999999247,-0.0005300000000000304,-0.0016686816805437932,-0.0002746912982387606,-0.0030049011718142893
150000000000.0,-1,-0.31884361145,0.45113531995,-0.11321777424999999,0.25099,-0.30938,0.001749,-1.337823193,-9.391240306,2.4870645065,-2.6481,1.2787,-1.2995,0.0008000000000000229,-0.0025999999999999357,-0.0007599999999999829,-0.003923045204536235,-0.001271265314542136,-0.0042748339288882775
150000000000.0,-1,-0.2535411291,0.28695238565,-0.20662611549999998,0.21037,-0.3379,0.008056,-1.3300759395,-9.3856505155,2.512071464,-2.6546,1.2767,-1.2961,0.0010100000000000664,-0.0026000000000001577,-0.0007099999999999884,-0.002352961971575418,-0.0005770495157404465,-0.004473091063521117
150000000000.0,-1,-0.2612099294,0.28190196089999997,-0.2294167701,0.18572,-0.37819,0.019659,-1.3224267525,-9.380649124,2.5349209585,-2.6607,1.275,-1.2935,0.0008799999999999919,-0.0027999999999999137,-0.0006699999999999484,-0.0035949133165900093,-0.0007544699811341538,-0.004686627713317293
150000000000.0,-1,-0.5052091880499999,0.43554274644999996,-0.15076743709999998,0.17174,-0.41534,0.031278,-1.3342927989999998,-9.373392203,2.5553187905,-2.6604,1.2724,-1.2976,0.0010999999999999899,-0.0028000000000001357,-0.0007600000000000939,-0.002993244902108616,-0.0006077690515808865,-0.0026781867537923887
150000000000.0,-1,-0.61849560885,0.46180495515,-0.1222104723,0.17913,-0.44617,0.038656,-1.3265455455,-9.3683908115,2.577579886,-2.6663,1.2707,-1.296,0.0011400000000000299,-0.0027999999999999137,-0.0008799999999999919,-0.002162237255000532,-0.0017625825037557163,-0.004073825515295226
150000000000.0,-1,-0.6266841616,0.45628381119999994,-0.1463936712,0.20046,-0.44943,0.036527,-1.3183079594999998,-9.362899087499999,2.6018023114999997,-2.6726,1.2688,-1.2941,0.0012399999999999078,-0.0028999999999999027,-0.0008299999999999974,-0.0024055372419151677,-0.001497063173493629,-0.004520879380815579
150000000000.0,-1,-0.8484615513499999,0.5704430238499999,-0.16138803905,0.22719,-0.43355,0.026996,-1.3095800409999998,-9.356720897999999,2.6281822,-2.6793,1.2667,-1.2917,0.0012600000000000389,-0.0030000000000001137,-0.0007999999999999119,-0.0035924355165415367,-0.0008143265273288236,-0.0019538326488595104
150000000000.0,-1,-0.8321530923999999,0.6346275480999999,-0.24149856289999996,0.25605,-0.41031,0.022809,-1.3262513459999998,-9.3468161815,2.654856288,-2.6783,1.2634,-1.2963,0.0014600000000000168,-0.0030999999999998806,-0.0009700000000000264,-0.00459797311049126,-1.3199001065444804e-06,-0.005002877881738144
150000000000.0,-1,-0.8409104308500001,0.62704700765,-0.2723698971,0.28065,-0.38915,0.017544,-1.3174253609999997,-9.339265060999999,2.6857472355,-2.6855,1.2608,-1.2929,0.0015399999999999858,-0.0031000000000001027,-0.0009799999999999809,-0.002016158997517614,-0.0010909298366459375,-0.00494411854508936
150000000000.0,-1,-0.84575491595,0.5592340229,-0.6337057229999999,0.27852,-0.39018,0.01435,-1.308403243,-9.331419741,2.7171285155,-2.6928,1.2582,-1.2893,0.0014999999999999458,-0.0032000000000000917,-0.0010000000000000009,-0.004949057181923955,-0.0009090595009593194,-0.0031479842784820633
150000000000.0,-1,-0.86122980965,0.43850435474999994,-0.7535037593999999,0.2646,-0.40819,0.018561,-1.2988907925,-9.323868620499999,2.7475291305,-2.7,1.2557,-1.286,0.0016599999999999948,-0.0034999999999998366,-0.0009200000000000319,-0.0029397832779811672,-0.000775961216068044,-0.004901697084866985
150000000000.0,-1,-0.8706049670499999,0.4312768537,-0.7823058904499999,0.24856,-0.41984,0.024913,-1.289574475,-9.3166116995,2.7763606814999995,-2.7068,1.2533,-1.2833,0.0018700000000000383,-0.0033000000000000806,-0.0011999999999999789,-0.003281882177528672,-0.0011036040482339526,-0.005556196673725644
150000000000.0,-1,-0.99047165,0.3345440581,-0.6644986039999999,0.25701,-0.44856,0.032304,-1.3094819745,-9.31043351,2.7878344619999997,-2.7025,1.2513,-1.2913,0.0018599999999999728,-0.0037000000000000366,-0.0009900000000000464,-0.004984983407683163,-0.00098074273438864,-0.0051800891788089665
150000000000.0,-1,-0.99047165,0.3345440581,-0.6644986039999999,0.25701,-0.44856,0.032304,-1.3094819745,-9.31043351,2.7878344619999997,-2.7025,1.2513,-1.2913,0.0020400000000000418,-0.0036000000000000476,-0.0010700000000000154,-0.0044659968147162665,-0.0006502796475271744,-0.005609180765334454
150000000000.0,-1,-1.1151141715,0.35418677805,-0.6633316126500001,0.28464,-0.48377,0.046059,-1.3000675904999999,-9.3020978575,2.8199022074999998,-2.7096,1.2486,-1.2888,0.0022900000000000142,-0.0035999999999998256,-0.0010999999999999899,-0.0032396748008505227,-0.002047027404371571,-0.0057177547875273405
150000000000.0,-1,-1.153065907,0.18782676745,-0.5589005967999999,0.32614,-0.53165,0.044907,-1.3122278365,-9.2824845575,2.8781537084999997,-2.7138,1.2424,-1.2941,0.0021499999999999853,-0.0040000000000000036,-0.0009000000000000119,-0.0031999134207034707,-0.0012177779446620463,-0.004643728619738052
150000000000.0,-1,-1.1610092934999998,0.15247379419999998,-0.58087729945,0.324,-0.54003,0.033187,-1.3000675904999999,-9.272579841,2.9154189785,-2.7221,1.2393,-1.291,0.0024699999999999722,-0.0039000000000000146,-0.0011599999999999389,-0.0018696771862791728,-0.002914235365963025,-0.004328467443329931
150000000000.0,-1,-1.17483667,0.14320650994999998,-0.6162302727,0.29842,-0.54301,0.019346,-1.2863382805,-9.263361589999999,2.9507229185,-2.7305,1.2364,-1.2878,0.0025399999999999867,-0.0040000000000000036,-0.0010999999999999899,-0.0033991378399362837,-0.0008621827040853347,-0.005671263273038907
150000000000.0,-1,-1.2278906465,0.14926701965,-0.7636634487999999,0.26427,-0.55238,0.015061,-1.271334106,-9.2550259375,2.9830848635,-2.7387,1.2338,-1.285,0.002850000000000019,-0.0040999999999999925,-0.0013100000000000334,-0.0023553110595391225,-0.002044571866335998,-0.004399453813272114
150000000000.0,-1,-1.2696669754999999,0.29652367604999996,-0.8469219072999999,0.23761,-0.55116,0.007618,-1.2816310885,-9.248553548499999,2.9985793705,-2.7377,1.2318,-1.2909,0.0027599999999999847,-0.0043999999999999595,-0.0009299999999999864,-0.004211542729500639,-0.0016001907637450685,-0.003673818964278208
150000000000.0,-1,-1.286044081,0.2897668942,-0.8745570469999999,0.21951,-0.54253,-0.00194,-1.2652539829999998,-9.241885026499999,3.0262341234999997,-2.7456,1.2298,-1.2883,0.0031600000000000517,-0.0044000000000001815,-0.0013600000000000279,-0.0016750103901155278,-0.0026507805707953747,-0.004640678939026532
150000000000.0,-1,-1.3861699775,0.38494043245,-0.9822340639999999,0.20892,-0.51906,-0.014654,-1.2482884784999997,-9.235510704,3.0523198125,-2.7534,1.2278,-1.2856,0.003090000000000037,-0.0046999999999999265,-0.0010799999999999699,-0.0036562709971814655,-0.0015245226719722282,-0.003822219063034815
150000000000.0,-1,-1.575144123,0.57252203365,-0.9435860563499999,0.20048,-0.49134,-0.030549,-1.230538442,-9.229626714,3.0772287035,-2.7612,1.2261,-1.2826,0.003569999999999962,-0.0046999999999999265,-0.0013900000000000023,-0.0019732207166813787,-0.002085461020862045,-0.0040698179592957295
150000000000.0,-1,-1.5940709574999998,0.5670401163,-0.9674162158499999,0.19523,-0.47101,-0.050714,-1.211709674,-9.22413499,3.101058863,-2.7691,1.2244,-1.2792,0.003669999999999951,-0.0052000000000000934,-0.0011499999999999844,-0.0018408365705642193,-0.0008523494886896188,-0.002996430886787138
150000000000.0,-1,-1.6878225315,0.48658635969999997,-0.9221977526999999,0.19956,-0.46133,-0.071965,-1.191115709,-9.218839399,3.1248890224999997,-2.7774,1.2228,-1.2753,0.0037800000000000056,-0.004999999999999893,-0.0013000000000000789,-0.00043614499184485567,-0.001334100262313287,-0.0027173682240242414
150000000000.0,-1,-1.771865522,0.3927367192,-0.9813514655,0.21241,-0.46961,-0.10602,-1.1674816825,-9.2134457415,3.1496017805,-2.7866,1.2212,-1.2705,0.0035600000000000076,-0.0050000000000001155,-0.0010299999999999754,-0.007876140196170889,-0.0034523284204963645,-0.004665292056384551
150000000000.0,-1,-1.7911846224999999,0.17724539209999998,-0.9494798529999999,0.23484,-0.47804,-0.12411,-1.1412979269999999,-9.2075617515,3.1762758685,-2.7966,1.2195,-1.2649,0.0038599999999999746,-0.00529999999999986,-0.0011599999999999389,0.0014418176433892427,-0.001612951418233921,-0.001300083967167076
150000000000.0,-1,-1.544351242,-0.04692482025,-0.66233133435,0.25729,-0.44425,-0.11657,-1.167775882,-9.2018738945,3.1831405234999997,-2.79,1.2178,-1.2747,0.004310000000000036,-0.0050000000000001155,-0.0009299999999999864,-0.002886467021154804,-0.0030241475719672284,-0.006518605578785586
150000000000.0,-1,-1.163460956,-0.279685658,-0.2535803557,0.25952,-0.37451,-0.08344,-1.1466915845,-9.1946169735,3.2115798085,-2.7987,1.2156,-1.2696,0.0042600000000000415,-0.00550000000000006,-0.0006700000000000594,-0.00028836956230726685,-0.0018216073451602366,-0.005604274019794353
150000000000.0,-1,-1.1996474945,-0.5352273437,-0.14759988915,0.2243,-0.35971,-0.058951,-1.129137681,-9.1877523185,3.2372732315,-2.806,1.2136,-1.2657,0.0046800000000000175,-0.005699999999999816,-0.0006599999999999939,0.0010711589011531686,-0.0032480292415024703,-0.00454274210547112
150000000000.0,-1,-1.692823923,-0.7920438939,-0.44123060345,0.14413,-0.42202,-0.051667,-1.1113876445,-9.18294706,3.2570826644999995,-2.8128,1.2122,-1.2627,0.004830000000000001,-0.005700000000000038,-0.00038000000000004697,-0.0018367043090101731,-0.002855235264487943,-0.008172478947860107
150000000000.0,-1,-2.4465630419999997,-1.2008242925,-1.0313653805,0.047821,-0.56361,-0.069031,-1.088342017,-9.181279929499999,3.2695371099999995,-2.8202,1.2117,-1.2603,0.005170000000000008,-0.006199999999999983,-0.00044999999999995044,0.0070263543613777735,-0.0014829698107197142,-0.0030533163248942508
150000000000.0,-1,-2.8791343735,-1.453149397,-1.4144131295,-0.044148,-0.6629,-0.07247,-1.060491131,-9.182848993499999,3.2743423685,-2.8284,1.2122,-1.2585,0.005209999999999937,-0.006199999999999983,0.00029999999999996696,-0.005934856337776573,-0.002269183300454447,-0.008088749342732626
150000000000.0,-1,-2.9762202084999996,-1.601229812,-1.2207317919999998,-0.1114,-0.66279,-0.051213,-1.0333267105,-9.1865755205,3.272479105,-2.8357,1.2133,-1.2578,0.005610000000000004,-0.006400000000000183,-0.00039999999999995595,0.006219622314523665,-4.891305524457046e-05,-0.0022313956470223495
150000000000.0,-1,-3.0140738775,-1.5868140365,-1.0430352939999998,-0.15725,-0.6257,-0.023485,-1.009888817,-9.191674978499998,3.265418317,-2.8417,1.2148,-1.2583,0.005800000000000027,-0.006599999999999939,0.00027999999999994696,0.0021245249305854585,0.0006920363874940438,-0.0043820536649556985
150000000000.0,-1,-3.0368253055,-1.3915636349999998,-1.0550974735,-0.21051,-0.5663,0.003227,-0.99047165,-9.198147367499999,3.2532580709999994,-2.846,1.2167,-1.2598,0.006369999999999987,-0.006999999999999895,4.999999999999449e-05,0.007066304061043027,-0.00022648174070960536,-0.0016104818150175504
150000000000.0,-1,-3.0251553919999994,-1.2262235160000001,-0.95678580725,-0.28165,-0.37758,0.047246,-0.9800471810499999,-9.206286887,3.233252505,-2.8473,1.2191,-1.263,0.006700000000000039,-0.007200000000000095,0.0004900000000001015,0.0014992093674988105,-0.0005310156574860336,-0.004323774480777143
150000000000.0,-1,-3.0264302565,-1.2160246,-0.92771889665,-0.36361,-0.25244,0.091119,-0.9787821231999999,-9.2165838695,3.2041267545,-2.8451,1.2221,-1.2682,0.007019999999999915,-0.007500000000000062,0.0005099999999998994,0.006282024356043081,0.001491444065284675,-0.0010924789880375485
150000000000.0,-1,-3.9993480029999997,-1.191507975,-1.2694708425,-0.43187,-0.24897,0.087918,-0.9793901355,-9.228940248499999,3.1682344155,-2.8418,1.2258,-1.2744,0.007260000000000044,-0.007900000000000018,0.0006700000000000594,0.002987655960790425,0.0008919851931843414,-0.0006028791957062296
150000000000.0,-1,-4.7212155095,-1.475508559,-0.9297194532499999,-0.46069,-0.26887,0.070847,-0.9778406847999999,-9.242571492,3.1288116825,-2.8387,1.23,-1.2805,0.007369999999999988,-0.007899999999999796,0.0009500000000000064,0.002893323231328848,0.002826595153827993,-0.0008778269945257655
150000000000.0,-1,-4.7208232435,-1.4625637809999998,-0.8910518323,-0.43285,-0.20974,0.090134,-0.9782721773999999,-9.25551627,3.0901734815,-2.835,1.2339,-1.2869,0.007299999999999973,-0.008100000000000218,0.0012099999999999334,0.005729467183902992,0.0021369244853077785,0.0029831826648440973
150000000000.0,-1,-3.813610052,-1.7054745015,-0.8013209848,-0.38574,-0.099934,0.12975,-0.9852741254999999,-9.2665977845,3.0545753419999997,-2.8296,1.2374,-1.294,0.007469999999999977,-0.008099999999999996,0.0013200000000000989,0.004688727404223547,0.0041607071450164845,0.00512028090170924
150000000000.0,-1,-1.743818503,-2.4054731785,0.10708861799999998,-0.33864,0.006658,0.17361,-0.9997879675,-9.275521836,3.0224095299999996,-2.8221,1.2402,-1.302,0.007470000000000088,-0.007899999999999796,0.0016299999999999093,0.004789443379492386,0.00404141234916322,0.005535435921399934
150000000000.0,-1,-1.7225380725,-2.397922058,0.13763633275,-0.31274,0.15804,0.19524,-1.021068398,-9.283171023,2.9919108484999994,-2.8127,1.2426,-1.3108,0.007409999999999917,-0.00770000000000004,0.002080000000000082,0.0025863535725427766,0.005419783825430624,0.005855373959368748
150000000000.0,-1,-0.8423520083999999,-2.2184603629999997,1.100109997,-0.33359,0.37446,0.19678,-1.0488212175,-9.290722143499998,2.9583721054999996,-2.8009,1.245,-1.3199,0.007610000000000006,-0.007500000000000062,0.0018399999999999528,0.009727400732180591,0.009695806879375324,0.0054562471055561446
150000000000.0,-1,-0.3679258947,-1.74362237,1.986042758,-0.38862,0.58455,0.21107,-1.0835367585,-9.2995481285,2.917870641,-2.786,1.2478,-1.3299,0.007240000000000024,-0.007200000000000095,0.0022400000000000198,0.006899165296324394,0.007091451436584073,0.008033757627535554
150000000000.0,-1,-0.32300163105,-1.7343060525,2.0332127444999997,-0.43434,0.7241,0.29328,-1.1284512155,-9.308864446,2.8707006545,-2.767,1.2508,-1.3426,0.006680000000000019,-0.006999999999999895,0.0022999999999999687,0.005321213926401391,0.008244908627507375,0.004273942885281379
150000000000.0,-1,-0.22810267899999997,-1.4210816515,2.448720505,-0.48028,0.80713,0.41684,-1.1867027165,-9.3177884975,2.818038944,-2.743,1.2537,-1.3596,0.006630000000000025,-0.006399999999999961,0.0022600000000000398,0.011413366642937905,0.007802737746322785,0.004476200747899117
150000000000.0,-1,1.4002915535,-0.9204717822999999,1.7349925179999999,-0.57001,0.86066,0.5382,-1.257800929,-9.326712549,2.7569435144999996,-2.7136,1.2566,-1.3817,0.006209999999999938,-0.00649999999999995,0.0022999999999999687,0.01296158127183289,0.008138109872348753,0.004277974586123889
150000000000.0,-1,1.482177081,-0.9102140263999999,1.809326925,-0.71313,0.88481,0.64672,-1.3396864565,-9.3370095315,2.6826091075,-2.6784,1.2601,-1.4093,0.005979999999999985,-0.006300000000000194,0.0021799999999999597,0.014943843609604768,0.008844244774983245,0.002638264406822355
150000000000.0,-1,2.5658119059999995,-0.73115440405,1.0666693205,-0.90538,0.86374,0.72959,-1.429221171,-9.34966011,2.5908188634999996,-2.6375,1.2643,-1.4432,0.005510000000000015,-0.006199999999999983,0.0023500000000000743,0.017290884274352436,0.007432929453895287,0.00045591661297006425
150000000000.0,-1,2.5658119059999995,-0.73115440405,1.0666693205,-0.90538,0.86374,0.72959,-1.429221171,-9.34966011,2.5908188634999996,-2.6375,1.2643,-1.4432,0.005260000000000042,-0.005800000000000027,0.0021700000000000053,0.017392201769356852,0.006697641203094129,-0.0010902606835774264
150000000000.0,-1,3.8103738574999997,-0.1058333668,-0.04408089175,-1.1264,0.79546,0.76022,-1.5206191489999998,-9.3656449495,2.478532721,-2.5913,1.2698,-1.483,0.004850000000000021,-0.005899999999999794,0.0022799999999999487,0.016478993991426716,0.006524087414352175,-0.004160262378923196
150000000000.0,-1,4.0733882105,-0.18180548435,-0.0673716855,-1.5315,0.49277,0.75305,-1.6925297234999999,-9.406048347499999,2.1980625309999997,-2.4854,1.284,-1.5806,0.0047199999999999465,-0.005800000000000027,0.0020900000000000363,0.015685393264592173,0.0049665401195759795,-0.005615021572744183
150000000000.0,-1,4.0023880645,0.08026743025,0.04381611219999999,-1.6781,0.24227,0.71947,-1.767746729,-9.428309443,2.0379199365,-2.4271,1.2921,-1.6381,0.0045200000000000795,-0.005600000000000049,0.0020799999999999708,0.015543627357623935,0.003858699574290192,-0.0050021685640406766
150000000000.0,-1,4.0694655504999995,0.1016753472,0.20894048489999997,-1.7458,0.021141,0.68704,-1.8348242149999998,-9.449687939999999,1.872874017,-2.3665,1.3002,-1.7003,0.004349999999999965,-0.005800000000000027,0.0022999999999999687,0.015543430069129283,0.0025211402010258954,-0.004978014136300946
150000000000.0,-1,3.7515339575,0.1489434002,0.6906823595,-1.7461,-0.18629,0.6302,-1.8935660485,-9.4690070405,1.7097894274999998,-2.3053,1.3076,-1.7652,0.004689999999999972,-0.00550000000000006,0.0018600000000000838,0.015410758157951232,0.002387931211328853,-0.005947410213234416
150000000000.0,-1,2.4328337319999997,0.1058529801,0.6895840147,-1.7132,-0.34165,0.54263,-1.9422070324999998,-9.486168677999999,1.5525888279999998,-2.2452,1.3144,-1.8305,0.004489999999999994,-0.005700000000000038,0.0022599999999999287,0.01500608688862659,0.002456097100831389,-0.0034722663988269176
150000000000.0,-1,2.4721583984999995,0.12163187995000001,0.8433032534499999,-1.6961,-0.39619,0.4521,-1.9814336325,-9.501957384499999,1.3988205559999998,-2.1855,1.3209,-1.8962,0.00490999999999997,-0.005599999999999827,0.0019400000000000528,0.016577009554813227,0.0007268915700990863,0.0013269410444691765
150000000000.0,-1,2.5043242104999996,0.13616533525,0.9963556399999999,-1.682,-0.34895,0.36818,-2.0135994445,-9.5164712265,1.2458368159999997,-2.1248,1.3269,-1.9625,0.004930000000000101,-0.005900000000000016,0.0021799999999999597,0.013527405270282289,0.00030513139729171357,0.0014156022062277174
150000000000.0,-1,0.64093322405,0.041619422600000004,0.7351064839999999,-1.6378,-0.26239,0.2567,-2.037625737,-9.5300044035,1.0943240735,-2.0637,1.3327,-2.0284,0.003449999999999953,-0.008800000000000141,0.005090000000000039,0.032053627421615216,-0.0172036825224553,0.02828495304206058
150000000000.0,-1,-0.11417882594999999,0.15793609825,0.9920407139999999,-1.5538,-0.043346,0.13489,-2.052139579,-9.5427530485,0.94603771885,-2.0028,1.3383,-2.0922,0.00656000000000001,-0.0031999999999998696,-0.0008000000000000229,-0.005107524252343287,0.017247455366992348,-0.0184677393424586
150000000000.0,-1,-0.97041705075,0.3927367192,1.3013424550000001,-1.4431,0.24546,0.029207,-2.059004234,-9.554422962,0.8021251301,-1.9423,1.3435,-2.1525,0.005009999999999959,-0.006000000000000005,0.0020499999999999963,0.01511565230171219,0.0010647266936605337,0.0037252284252180523
150000000000.0,-1,-0.85397288865,0.07365774815,0.1709887494,-1.3508,0.42809,-0.049069,-2.0587100345,-9.565210277,0.6629393466499999,-1.8823,1.3484,-2.21,0.004809999999999981,-0.006199999999999983,0.0022100000000000453,0.014305507841701592,0.0018301467394725712,0.004237307065163787
150000000000.0,-1,-0.41526259425,-0.06569474835,-0.18367855449999998,-1.2941,0.50416,-0.041436,-2.0569448374999997,-9.573938195499998,0.52799984265,-1.8221,1.3525,-2.2668,0.005110000000000059,-0.006000000000000005,0.0018499999999999073,0.012843681826453013,0.0029445567282671004,0.003127033212597663
150000000000.0,-1,-0.4109770882,-0.06016379775,-0.049778555399999994,-1.2878,0.51833,0.044756,-2.0611616969999997,-9.579527986,0.39409984355,-1.7597,1.3551,-2.3253,0.0049599999999999644,-0.006299999999999972,0.0018600000000000838,0.012300644313696374,0.0019470578145659445,0.004595585649834533
150000000000.0,-1,0.13408632545,0.17936362849999998,-0.32310950419999995,-1.2923,0.51232,0.14154,-2.074302608,-9.5811951165,0.25981738509999996,-1.6954,1.356,-2.3859,0.0040000000000000036,-0.007300000000000084,0.00270999999999999,0.014623598588000775,-0.0034332667041063747,0.010677580110999507
150000000000.0,-1,0.1530425799,0.17792205095,-0.19046475629999998,-1.2658,0.49056,0.20106,-2.0932294424999998,-9.5798221855,0.1271726372,-1.6315,1.3553,-2.4462,0.005620000000000069,-0.005800000000000027,0.0008899999999999464,0.003733364576159026,0.007368933285153867,-0.0025277407966148857
150000000000.0,-1,0.20304668825,0.66237056095,-0.00942419065,-1.1656,0.46252,0.20953,-2.113725341,-9.5760956585,0.0029910282499999996,-1.5722,1.3535,-2.5021,0.0049799999999999844,-0.006599999999999939,0.0014100000000000223,0.008752034988643853,0.0017072137773819218,0.004620210547229053
150000000000.0,-1,0.21994354619999998,1.1680700814999998,0.13080109769999998,-1.0322,0.46954,0.19256,-2.1322599095,-9.5713884665,-0.10909898124999999,-1.5197,1.3513,-2.5511,0.0038399999999999546,-0.00770000000000004,0.0024199999999999777,0.013668123253582909,-0.006724125353121169,0.013387370962605782
150000000000.0,-1,0.1468055505,1.4465789414999999,0.34774380899999996,-0.88808,0.49337,0.19053,-2.1497157464999996,-9.5658967425,-0.20783233345,-1.4744,1.3487,-2.5925,0.005909999999999971,-0.005700000000000038,0.000200000000000089,0.002258988422619179,0.007594907527086248,-0.0013643793838089557
150000000000.0,-1,0.36205171134999997,1.4522667985,0.2470687401,-0.77172,0.52051,0.18636,-2.1663870514999997,-9.5598166195,-0.2952586182,-1.4353,1.346,-2.6273,0.004650000000000043,-0.006799999999999917,0.0013099999999999223,0.0069817568867929225,-0.0008387652314261196,0.007307376824948086
150000000000.0,-1,0.36205171134999997,1.4522667985,0.2470687401,-0.77172,0.52051,0.18636,-2.1663870514999997,-9.5598166195,-0.2952586182,-1.4353,1.346,-2.6273,0.0050400000000000444,-0.00649999999999995,0.0006599999999999939,0.006564847164510557,-0.0008367026184548099,0.007179140858986077
150000000000.0,-1,0.744324735,1.6844882705,0.5678834882,-0.70017,0.55646,0.1642,-2.1809989599999997,-9.55363843,-0.3754574019,-1.4003,1.3432,-2.6577,0.0041399999999999215,-0.007200000000000095,0.0014800000000000368,0.014291307933507191,-0.008452346113455134,0.014825176928959571
150000000000.0,-1,0.75688705365,1.6743874209999998,0.72181847325,-0.64415,0.69709,0.048587,-2.193551472,-9.543537580499999,-0.5293825803,-1.334,1.3386,-2.7126,0.00499000000000005,-0.006299999999999972,0.00024999999999997247,0.004885584239042284,-0.0016759058727091602,0.006095797898278743
150000000000.0,-1,1.2023933564999998,1.8264885624999998,1.0825560935,-0.62143,0.7655,-0.03422,-2.1881578145,-9.5402033195,-0.6056979306,-1.3008,1.3372,-2.7391,0.0040399999999999325,-0.007200000000000095,0.0008900000000000574,0.010412944882779662,-0.007802655153075211,0.009903654315436938
150000000000.0,-1,1.646144269,1.9292622544999998,1.0472521535,-0.58591,0.82121,-0.12875,-2.1730555735,-9.5386342555,-0.6802186639499999,-1.2674,1.3365,-2.765,0.004870000000000041,-0.006000000000000005,-0.00041000000000002146,0.003566793753988051,-0.0015497576496517063,0.003885490058457286
150000000000.0,-1,1.620843112,1.9296545205,1.1190368314999999,-0.55472,0.8462,-0.22548,-2.1477544164999998,-9.539026521499999,-0.7519935352999999,-1.234,1.3366,-2.7907,0.004330000000000056,-0.006699999999999928,-0.000160000000000049,0.0029374847762517753,-0.004329973695607503,0.00353033733672925
150000000000.0,-1,2.419888954,1.8106017894999997,0.34812626835,-0.52787,0.83412,-0.32549,-2.112548543,-9.5411839845,-0.8209833180499999,-1.2001,1.3376,-2.8169,0.0033199999999999896,-0.007500000000000062,0.0005300000000000304,0.006220825537042174,-0.010079178897285157,0.009243784390013055
150000000000.0,-1,2.616021954,1.8389430079999998,0.15291509344999998,-0.47663,0.77413,-0.41284,-2.0683205515,-9.545204710999998,-0.8844911834499999,-1.1667,1.3394,-2.8431,0.004249999999999976,-0.006699999999999928,-0.0009200000000000319,0.0005552967896749195,-0.0010371554168124852,-0.0006608003052352984
150000000000.0,-1,2.5661061055,1.8445327985,0.20696934824999996,-0.39352,0.67981,-0.46621,-2.018404703,-9.550696434999999,-0.9385454382499999,-1.1355,1.3418,-2.8679,0.0035399999999999876,-0.007400000000000073,-0.0005999999999999339,-0.0007443546334364726,-0.004708122436172024,0.002023676104910166
150000000000.0,-1,2.440482919,1.8005990065,-0.19495620199999997,-0.28176,0.55432,-0.47817,-1.9671159234999998,-9.5572668905,-0.9799981478,-1.1086,1.3448,-2.8895,0.004430000000000045,-0.006699999999999928,-0.0015800000000000258,-0.007359191870564885,0.004833783416096082,-0.00576938776146374
150000000000.0,-1,2.0622404285,1.7811818395,-0.47123895244999997,-0.14772,0.40511,-0.45081,-1.918769139,-9.5643276785,-1.00616229,-1.0878,1.348,-2.9063,0.0012999999999999678,-0.010099999999999998,0.0015699999999999603,0.018237547430550727,-0.022360032092611615,0.022673075521745467
150000000000.0,-1,2.020562166,1.7885368269999997,-0.4617559219,-0.00738,0.24606,-0.38838,-1.8769928099999997,-9.5715845995,-1.0155766739999998,-1.0748,1.3514,-2.9167,0.003630000000000022,-0.007600000000000051,-0.0012699999999999934,-0.004176157776891509,-0.0008139155548358978,-0.0019541436745202923
150000000000.0,-1,1.6079964005,1.7486237614999998,-0.8050082851999999,0.13941,0.12501,-0.30458,-1.8443366654999998,-9.578743454,-1.0086139525,-1.0704,1.3548,-2.9197,0.005549999999999944,-0.005800000000000027,-0.003669999999999951,-0.022602748300846187,0.01901368570648021,-0.02093295968285247
150000000000.0,-1,0.47762308159999994,1.7148888855,-1.089911081,0.2436,0.039131,-0.22178,-1.8205065059999999,-9.5853139095,-0.9886083864999999,-1.0733,1.358,-2.9161,0.003469999999999973,-0.008199999999999985,-0.0013199999999999878,-0.0030664767203043564,-0.0012251170421986313,0.0007933622483498048
150000000000.0,-1,0.13247803484999998,1.7219496735,-1.2531918034999998,0.29564,-0.006112,-0.15592,-1.804031334,-9.5911978995,-0.96115957315,-1.0813,1.3608,-2.9079,0.0036599999999999966,-0.008399999999999963,-0.0016700000000000603,-0.00255806573225259,-6.41006824222412e-05,0.0004779814095816626
150000000000.0,-1,-0.0957913572,1.8870936594999999,-1.3033037849999998,0.3073,-0.011701,-0.12402,-1.7917730215,-9.5964934905,-0.9315532967999999,-1.0913,1.3634,-2.8977,0.003650000000000042,-0.00869999999999993,-0.0016999999999999238,-0.0031014682225383172,-0.0010562160850553504,0.0008928075554264225
150000000000.0,-1,-0.31325382095,1.988004088,-1.3136007675,0.29559,0.010511,-0.11015,-1.7807895735,-9.601298749,-0.9028786522,-1.1016,1.3658,-2.8873,0.0037800000000000056,-0.00890000000000013,-0.0019000000000000128,-0.00500096794795124,0.0005476035088929354,0.0012398088410976449
150000000000.0,-1,-0.53668853455,1.945443227,-1.3901907039999999,0.286,0.037922,-0.083495,-1.7717674554999998,-9.605417542,-0.8758024915499999,-1.1117,1.3679,-2.8766,0.0038000000000000256,-0.009299999999999864,-0.001960000000000073,-0.00560734214167935,-0.00029547006896502026,0.0011027676698405209
150000000000.0,-1,-0.64095283735,1.9063146935,-1.5566095545,0.31264,0.054536,-0.050477,-1.7657853989999999,-9.6090460025,-0.8474906929999999,-1.1233,1.3697,-2.8642,0.003889999999999949,-0.009700000000000042,-0.0018899999999999473,-0.005485493212921355,-0.0008931958836866372,0.0020160425942732374
150000000000.0,-1,-0.60103977185,1.6585987144999998,-1.787360029,0.37984,0.061579,-0.035552,-1.7615685395,-9.612772529499999,-0.8137852369499999,-1.138,1.3716,-2.8486,0.004010000000000069,-0.00990000000000002,-0.0018799999999999928,-0.0057908994740032416,-0.0012687937543898187,0.0032179015799007615
150000000000.0,-1,-0.6703629807,1.4761950245,-2.1606991945,0.46523,0.086625,-0.026964,-1.7582342785,-9.616793256,-0.7726267268999999,-1.1568,1.3737,-2.8287,0.0041399999999999215,-0.010000000000000009,-0.0018500000000000183,-0.005840065730279287,-0.0007620056370791772,0.004372243324060943
150000000000.0,-1,-0.7197983033500001,1.0272465874999999,-2.1240223234999998,0.56135,0.11081,-0.050285,-1.7534290199999998,-9.621500447999999,-0.72270107175,-1.1798,1.3762,-2.8041,0.004149999999999987,-0.010299999999999976,-0.0015699999999999603,-0.003911249209408663,-0.0016576816583131482,0.005821174102296656
150000000000.0,-1,-0.8573757962,0.3440957352,-1.8458076629999998,0.63308,0.19137,-0.084123,-1.744799168,-9.627188304999999,-0.66611670125,-1.2061,1.3792,-2.7756,0.0042400000000000215,-0.010299999999999976,-0.0013400000000000079,-0.0030478042861115107,-0.001445466483302793,0.0065104709046797105
150000000000.0,-1,-1.047938619,-0.40306312164999997,-1.714986952,0.65153,0.32707,-0.087002,-1.7345021854999998,-9.632876162,-0.60857127905,-1.2334,1.3822,-2.7449,0.004090000000000038,-0.010399999999999965,-0.0009299999999999864,-0.002035175796073263,7.661953382176456e-05,0.006209271694370688
150000000000.0,-1,-0.95996316185,-1.186800783,-1.7671583299999998,0.62197,0.46293,-0.087767,-1.723616804,-9.637975619999999,-0.55502697005,-1.2593,1.3851,-2.7142,0.004129999999999967,-0.010700000000000154,-0.0007000000000000339,0.001587283758950342,-0.00023712283933252642,0.006065210001119148
150000000000.0,-1,-0.77412714435,-1.892487317,-1.9554460099999997,0.52409,0.57369,-0.097115,-1.7116526909999998,-9.642584745499999,-0.51117163125,-1.2806,1.3876,-2.6869,0.004210000000000047,-0.01079999999999992,-0.0004899999999999904,0.0022504914041265867,8.411016869258603e-05,0.005066018952222695
150000000000.0,-1,-0.78697385585,-1.8888588565,-1.983100763,0.34388,0.61367,-0.10026,-1.6988059795,-9.6463112725,-0.48356591149999995,-1.2935,1.3897,-2.6676,0.0038399999999999546,-0.011600000000000055,2.999999999997449e-05,-0.0006315815390158797,0.001007101950448508,0.005421176118807214
150000000000.0,-1,-0.5425431046,-2.578952817,-2.301816888,0.14213,0.60037,-0.058861,-1.688901263,-9.648370668999998,-0.4755048452,-1.2963,1.3909,-2.6585,0.0042800000000000615,-0.011900000000000022,5.999999999994898e-05,-0.002532772968044439,0.002280692238046944,0.0019879079995783755
150000000000.0,-1,-0.7065004859499999,-3.4092818725,-3.006915023,0.028835,0.58848,0.031496,-1.6866457335,-9.648566802,-0.4808004362,-1.2931,1.391,-2.6558,0.0040399999999999325,-0.012599999999999945,0.00034000000000000696,-0.003696742598426228,0.0017311797483821056,0.00023232677680695701
150000000000.0,-1,-0.8164036125,-3.0372175715,-3.968947388,0.056287,0.53473,0.11435,-1.693216189,-9.6470958045,-0.4860960272,-1.2912,1.3902,-2.6521,0.003929999999999989,-0.013199999999999878,0.0007099999999999884,-0.005253004002362172,0.0011395216749987558,-0.00047988621131045406
150000000000.0,-1,-0.9434291499499999,-2.3528114679999996,-4.887438227,0.16573,0.37912,0.1587,-1.7055725679999998,-9.645232540999999,-0.48018261725,-1.2964,1.3891,-2.6426,0.004010000000000069,-0.013100000000000112,0.0007800000000000029,-0.006566235044430879,0.001769981463566106,-0.0021789028034011615
150000000000.0,-1,-0.8879038976499999,-1.9100412205,-4.9146026475,0.30284,0.16109,0.16994,-1.720870942,-9.643565410499999,-0.45802939489999994,-1.3107,1.3882,-2.6258,0.004089999999999927,-0.012899999999999912,0.0007700000000000484,-0.007481712874756852,0.0004305978143606115,-0.002778837388051514
150000000000.0,-1,-0.56565737865,-1.6111345284999998,-3.7183874804999997,0.4336,-0.042042,0.17697,-1.73773838,-9.6423886125,-0.41924409414999997,-1.3341,1.3875,-2.602,0.0035800000000000276,-0.012900000000000134,0.0014499999999999513,-0.006493626757181126,-0.0013627346251250394,-0.004958804462864563
150000000000.0,-1,0.019436780299999998,-1.3986244229999998,-1.9229859984999997,0.51541,-0.1919,0.17665,-1.7554884165,-9.641211814499998,-0.3683770006,-1.364,1.3868,-2.5732,0.0033400000000000096,-0.012299999999999978,0.0020200000000000218,-0.00637965897367998,-0.0036885572456841764,-0.006452351615259921
150000000000.0,-1,0.92101114805,-1.6078002675,-0.2852166086,0.51845,-0.30502,0.12853,-1.7703945245,-9.6404272825,-0.31303807464999994,-1.3958,1.3864,-2.5436,0.0029400000000000537,-0.011900000000000022,0.002630000000000021,-0.008668944014218471,-0.00620468339809932,-0.005533368095730129
150000000000.0,-1,0.9271108843499999,-1.6073099349999997,-0.33990829564999997,0.48206,-0.45147,0.020754,-1.7764746475,-9.640917615,-0.2583463876,-1.4264,1.3867,-2.5167,0.0025799999999999157,-0.011199999999999877,0.002990000000000048,-0.008286023408883958,-0.006183761536910692,-0.00427241422782787
150000000000.0,-1,3.6807299445,-5.1077936525,3.4411534849999996,0.50445,-0.62613,-0.17535,-1.7662757314999997,-9.6441538095,-0.2007617388,-1.4576,1.3885,-2.4909,0.0020700000000000163,-0.010900000000000132,0.003329999999999944,-0.0022933142120276084,-0.006252132603029148,-0.004754994365159693
150000000000.0,-1,5.0209067334999995,-6.938106808499999,5.3482527105,0.64036,-0.66823,-0.43176,-1.7316582569999999,-9.65170493,-0.13080109769999998,-1.4954,1.3928,-2.4592,0.0024199999999999777,-0.010099999999999998,0.002850000000000019,-0.000119703428269613,-0.0064453798833274956,-0.004551721850606594
150000000000.0,-1,4.967656624,-6.9279078924999995,5.268328513,0.72827,-0.61861,-0.58905,-1.678506214,-9.6618057795,-0.05086709354999999,-1.5405,1.3987,-2.4199,0.0023300000000000542,-0.009499999999999842,0.0026000000000000467,0.004326451033913159,-0.00383887255338089,-0.006026992004613874
150000000000.0,-1,5.24067376,-6.432377867999999,5.784060236499999,0.57398,-0.49554,-0.65582,-1.6165281859999998,-9.672495027999998,0.0187307015,-1.5824,1.4052,-2.3828,0.0022900000000000142,-0.009400000000000075,0.0021299999999999653,0.0016029107713848578,-2.127454662392836e-05,-0.0072230995013047306
150000000000.0,-1,1.6797810784999998,0.30772287034999996,2.7336036874999996,0.19223,-0.43444,-0.68025,-1.5507255644999998,-9.68308621,0.0546034272,-1.606,1.4119,-2.3633,0.0020799999999999708,-0.009100000000000108,0.0015699999999999603,0.0033124839947471507,0.0022854249340928945,-0.008277265957444158
150000000000.0,-1,-0.19984972035,2.5576723864999997,2.4194966879999997,-0.2124,-0.48859,-0.59857,-1.4895320685,-9.692696727,0.05031792115,-1.6046,1.4182,-2.3695,0.0021999999999999797,-0.008979999999999877,0.0008799999999999919,-0.0034849477132155027,0.006555130410558885,-0.006504899248508167
150000000000.0,-1,-1.279179426,4.171945043,2.8656992629999998,-0.42119,-0.59256,-0.34039,-1.4490306039999998,-9.698972982999999,0.0211627507,-1.5854,1.4225,-2.3947,0.0020100000000000673,-0.008950000000000014,0.00043000000000004146,-0.008704765986806917,0.008995852473306476,-0.006753071220954254
150000000000.0,-1,-1.4275540405,5.2611696585,3.764184536,-0.34955,-0.66039,0.039213,-1.4432446804999999,-9.6998555815,-0.006913688249999999,-1.566,1.4231,-2.4208,0.0019399999999999418,-0.009129999999999971,2.999999999997449e-05,-0.01247495693190026,0.00790655899685122,-0.006928623633482012
150000000000.0,-1,-1.396270827,5.2564624664999995,3.7672245975,-0.049496,-0.68879,0.41258,-1.4746259605,-9.6951483895,-0.010002783,-1.564,1.4199,-2.4297,0.0020600000000000618,-0.009099999999999997,-0.00019000000000002348,-0.016420051648175393,0.0063264086081831206,-0.005548071482407657
150000000000.0,-1,-0.84244026825,5.5228110804999995,4.2114658425,0.37555,-0.70443,0.71581,-1.537290454,-9.6853417395,0.026164142199999997,-1.5878,1.4134,-2.4127,0.0018399999999999528,-0.009280000000000066,-0.00012999999999996348,-0.01952427105457888,0.005251494543921265,-0.004019213373050334
150000000000.0,-1,0.45682317694999997,4.143407691499999,3.37937159,0.85632,-0.74039,0.87008,-1.618293383,-9.6716124295,0.10870671524999999,-1.6379,1.4046,-2.3694,0.0022799999999999487,-0.008879999999999999,-0.00043999999999999595,-0.02085449764847236,0.0013427808243433592,-0.001399036914846441
150000000000.0,-1,1.2720205715,2.6967306835,3.0485932854999995,1.329,-0.7178,0.85962,-1.7013557085,-9.655039190999998,0.23820352849999998,-1.7099,1.3947,-2.3037,0.0020100000000000673,-0.008680000000000021,-0.00031000000000003247,-0.015482399396455682,-0.0004852452278154562,-0.0017991769031153737
