Time,placement_label,user_acc_x(m/s^2),user_acc_y(m/s^2),user_acc_z(m/s^2),rotation_rate_x(rad/s),rotation_rate_y(rad/s),rotation_rate_z(rad/s),gravity_x(m/s^2),gravity_y(m/s^2),gravity_z(m/s^2),attitude_roll(rad),attitude_pitch(rad),attitude_yaw(rad),target_delta_x,target_delta_y,target_delta_z,target_delta_roll,target_delta_pitch,target_delta_yaw
150000000000.0,-1,-0.052534224049999995,0.13991147555,-0.01495514125,0.003732,0.008555,-0.015366,-0.0716669982,-9.707897034499998,1.3863661104999998,-3.0899,1.4288,-1.2441,0.0,0.0,0.0,0.0,0.0,0.0
150000000000.0,-1,-0.047944711849999995,0.1200137827,-0.016720338249999998,0.008934,-0.000977,-0.012754,-0.07236327035,-9.707700901499999,1.3874448419999998,-3.0895,1.4287,-1.2445,5.0000000000105516e-05,-3.333333333310762e-05,-2.999999999997449e-05,-0.0009355479630230867,0.0019028913071272857,-0.00022632216791018678
150000000000.0,-1,-0.02362421985,0.1119527164,-0.0350685804,0.008932,-0.000985,-0.011551,-0.0710982125,-9.707602835,1.388425507,-3.0904,1.4286,-1.2436,4.999999999988347e-05,-3.333333333355171e-05,-3.0000000000085514e-05,0.0005691108581675763,-0.0008797957054025307,5.764333123892129e-05
150000000000.0,-1,-0.00981645665,0.1093833741,-0.0391873734,0.001579,-0.001225,-0.009241,-0.06993122115,-9.707602835,1.38862164,-3.0913,1.4285,-1.2428,2.4999999999941735e-05,-3.333333333310762e-05,2.0000000000020002e-05,-9.631523732545055e-05,-0.000571892093807147,-0.00016482638342196765
150000000000.0,-1,0.017298930599999998,0.11080533834999999,-0.03221484525,-0.008225,-0.001548,-0.005759,-0.0695291485,-9.707700901499999,1.3881313075,-3.0915,1.4286,-1.2425,2.4999999999941735e-05,1.1111111111183902e-05,2.999999999997449e-05,0.00022795950666298914,-0.000352667897838721,1.0556966787422795e-05
150000000000.0,-1,0.0337544893,0.0946537858,0.00459931885,-0.010705,-0.000388,-0.009418,-0.0684700303,-9.707798968,1.387052576,-3.0923,1.4287,-1.2418,2.500000000016378e-05,1.1111111111183902e-05,-2.999999999997449e-05,0.00019602366318860476,0.00011069917389927575,-0.00014041397309938475
150000000000.0,-1,0.014288289049999998,0.11967054995,0.0355392996,-0.013041,-0.004094,-0.008194,-0.0677051116,-9.707995101,1.385875778,-3.0928,1.4288,-1.2413,2.4999999999941735e-05,1.1111111110739813e-05,-4.0000000000040004e-05,-0.000562549427414627,-2.792440521881545e-05,6.007004331065602e-05
150000000000.0,-1,0.022869107799999996,0.15073801715,0.03886375395,-0.00186,-0.008574,-0.010386,-0.0665675402,-9.7080931675,1.3851893124999999,-3.0936,1.4289,-1.2406,2.4999999999941735e-05,1.1111111111183902e-05,1.0000000000065512e-05,0.0004631060406246057,-0.0003386845230668456,-0.0001983812217223324
150000000000.0,-1,0.0050013915,0.1188173714,-0.0061193496,0.000662,-0.010933,-0.007914,-0.0654495821,-9.707995101,1.385679645,-3.0944,1.4289,-1.2399,2.500000000016378e-05,1.1111111111183902e-05,-4.0000000000040004e-05,-8.17805407440364e-05,0.00046850939205378417,-9.029301363883135e-05
150000000000.0,-1,0.00659987545,0.0973211946,-0.01301342455,-0.005638,-0.005026,-0.015301,-0.0636059319,-9.7080931675,1.3853854455,-3.0957,1.4289,-1.2386,2.4999999999941735e-05,1.1111111111183902e-05,9.999999999998899e-05,0.0005561901736796937,-0.001710484498930409,0.00030761700805026493
150000000000.0,-1,-0.00556037055,0.08625929339999999,-0.00958109705,-0.010773,0.002055,-0.013064,-0.062370294,-9.708289300499999,1.384306714,-3.0966,1.429,-1.2377,2.4999999999941735e-05,1.1111111110739813e-05,-3.999999999992898e-05,-0.0005218718493091856,0.00029888573712799626,1.398445314215735e-05
150000000000.0,-1,-0.01846592195,0.11029539255,0.0042168595,-0.014638,0.009205,-0.017595,-0.0617426684,-9.708387366999998,1.3837183149999999,-3.097,1.4291,-1.2372,2.4999999999941735e-05,1.1111111111183902e-05,-9.00000000000345e-05,0.0002594973624592267,0.00036883208438465154,-0.00044548333748828384
150000000000.0,-1,-0.01846592195,0.11029539255,0.0042168595,-0.014638,0.009205,-0.017595,-0.0617426684,-9.708387366999998,1.3837183149999999,-3.097,1.4291,-1.2372,2.4999999999941735e-05,1.1111111111183902e-05,-9.00000000000345e-05,-0.0010617097864409342,0.002207942270826324,0.0002467045482417163
150000000000.0,-1,-0.04200188195,0.11443379885,0.03709855695,-0.007538,0.016621,-0.010386,-0.0624487472,-9.708191234,1.385091246,-3.0965,1.4289,-1.2375,2.500000000016378e-05,-4.999999999988347e-05,2.0000000000020002e-05,-0.0003931359938080803,-0.00011847177630608385,0.0005364753809518064
150000000000.0,-1,-0.051465299199999995,0.14483441384999998,0.033009183899999996,-0.00249,0.011921,-0.007845,-0.0640570378,-9.707897034499998,1.3869545095,-3.0954,1.4287,-1.2384,2.4999999999941735e-05,-4.999999999988347e-05,-2.999999999997449e-05,0.0005739059858389517,8.895018293175738e-05,-0.0005275740726875533
150000000000.0,-1,-0.0842195102,0.12324997719999999,0.02017227905,0.00508,0.00487,-0.004034,-0.06347844544999999,-9.707798968,1.3871506424999998,-3.0959,1.4287,-1.2379,3.333333333332966e-05,-4.999999999988347e-05,-2.0000000000020002e-05,0.00021717508628960047,-0.0003763900145321575,0.00013252293135757043
150000000000.0,-1,-0.0802380103,0.12549570005,-0.0099047165,0.010136,0.000196,-0.005103,-0.06296849965,-9.707700901499999,1.3882293739999998,-3.0963,1.4286,-1.2375,3.333333333332966e-05,-5.000000000032756e-05,-5.999999999994898e-05,0.0001312021525350371,-0.0011313050612078435,-0.00016605453415996507
150000000000.0,-1,-0.049857008599999995,0.109638347,-0.05779058844999999,0.010066,0.002638,-0.008747,-0.06207609449999999,-9.7075047685,1.3893081054999998,-3.0969,1.4285,-1.2368,3.333333333332966e-05,-0.00010000000000021103,3.999999999992898e-05,0.001003757423894136,-0.00196567390110558,-0.0010918706502032194
150000000000.0,-1,-0.04617951484999999,0.12898686745,-0.0847686826,0.005246,7.5e-05,-0.008776,-0.061262142549999996,-9.707406702,1.3900926374999998,-3.0975,1.4284,-1.2362,4.999999999988347e-05,-9.999999999976694e-05,8.500000000000174e-05,-0.0002796463461813836,-0.0004387037547097794,0.00010995367247179644
150000000000.0,-1,-0.052171378,0.13795995219999999,-0.06659696015,-0.002256,0.004683,-0.008942,-0.06020302435,-9.707406702,1.3900926374999998,-3.0983,1.4284,-1.2353,5.0000000000105516e-05,-3.333333333355171e-05,8.500000000000174e-05,-0.0004191152165506917,-0.0022274590737356714,0.0008955980830025467
150000000000.0,-1,-0.03095959405,0.11902331105,-0.04637564784999999,-0.002112,-0.000183,-0.004059,-0.05971269184999999,-9.7075047685,1.3897003715,-3.0986,1.4285,-1.235,2.4999999999941735e-05,-3.333333333310762e-05,-4.999999999999449e-05,-0.00020874387451197407,0.0008671136747382402,0.00022961638757390546
150000000000.0,-1,-0.0023339827,0.1399801221,-0.03990325885,-0.01065,-0.001667,-0.001748,-0.059771531749999995,-9.707798968,1.3875429085,-3.0985,1.4287,-1.2351,2.500000000016378e-05,-3.333333333355171e-05,2.0000000000020002e-05,0.00023505167463566679,-0.000880761360669613,-0.0005496478565469864
150000000000.0,-1,0.0157298666,0.12510343405,0.00408937305,-0.017979,-0.003167,0.007799,-0.059575398749999994,-9.707897034499998,1.3869545095,-3.0987,1.4288,-1.235,2.4999999999941735e-05,-9.999999999976694e-05,2.999999999997449e-05,4.571553144216978e-05,-0.0005009280542420669,0.00015822741212545566
150000000000.0,-1,0.0148276548,0.1111681844,0.0075315072,-0.02039,-0.004449,0.007785,-0.0595655921,-9.707995101,1.386071911,-3.0986,1.4289,-1.2351,2.4999999999941735e-05,-2.0000000000131024e-05,-7.00000000000145e-05,-0.00034732240107082646,0.0003382069096558027,1.7152711246026797e-05
150000000000.0,-1,0.0009414384,0.08323884520000001,0.017857909649999996,-0.0166,-0.007961,0.007885,-0.06020302435,-9.7080931675,1.3855815784999999,-3.0982,1.4289,-1.2357,3.333333333332966e-05,-2.0000000000131024e-05,3.0000000000085514e-05,0.001166247040211621,-0.0005265509913530142,-0.00029660934083919344
150000000000.0,-1,0.004020726499999999,0.06810718425,0.024771597899999998,-0.014192,-0.006688,0.009103,-0.060732583449999995,-9.7080931675,1.385679645,-3.0978,1.4289,-1.2362,3.333333333332966e-05,-1.9999999999686935e-05,-6.0000000000060005e-05,-0.0011345333606065378,0.0016391490428917521,0.00027656777918805275
150000000000.0,-1,-0.0024026292499999997,0.06111504279999999,-0.009080957899999999,-0.009164,-0.010119,0.003203,-0.06119349599999999,-9.708289300499999,1.3844047804999997,-3.0974,1.429,-1.2366,3.333333333332966e-05,-2.0000000000131024e-05,1.0000000000065512e-05,0.0003508599753567765,-0.00015607730813105292,-0.00033867626116990124
150000000000.0,-1,-0.003726527,0.06949972855,-0.0261249156,-0.012786,-0.011394,-0.002843,-0.06091890979999999,-9.708387366999998,1.383326049,-3.0976,1.4291,-1.2366,1.666666666655381e-05,-2.0000000000131024e-05,2.999999999997449e-05,0.00014230160431738526,6.475641515080177e-05,-0.0004422300589825845
150000000000.0,-1,-0.003726527,0.06949972855,-0.0261249156,-0.012786,-0.011394,-0.002843,-0.06091890979999999,-9.708387366999998,1.383326049,-3.0976,1.4291,-1.2366,1.6666666666775853e-05,-0.0001499999999996504,2.999999999997449e-05,0.001092394093845872,-0.0008262633217790416,-0.00038712607168678304
150000000000.0,-1,-0.01273883835,0.0893974214,-0.0360492454,-0.007932,-0.008848,-0.00362,-0.060428577299999994,-9.7085835,1.382345384,-3.0979,1.4292,-1.2364,1.6666666666775853e-05,-0.0001500000000000945,-4.999999999999449e-05,0.000322584954093319,-0.0020305813339558387,-0.0018302282082287569
150000000000.0,-1,-0.01077750835,0.1297223662,-0.0268309944,-0.010543,-0.004117,-0.000113,-0.060742390099999995,-9.708779632999999,1.38077632,-3.0976,1.4294,-1.2367,1.666666666655381e-05,-4.999999999988347e-05,-4.0000000000040004e-05,-0.00035385528028419877,0.0005227986625915282,-6.857051750763787e-05
150000000000.0,-1,-0.0059624432,0.13789130565,-0.0311263071,0.001669,-0.002522,-0.002377,-0.06047761054999999,-9.708877699499999,1.3800898544999998,-3.0978,1.4295,-1.2365,1.666666666655381e-05,-5.000000000032756e-05,-0.00015999999999993797,0.0011657942483103145,0.0013315436519245605,-0.0008796314096044533
150000000000.0,-1,-0.0214177236,0.14325554319999997,-0.03187161249999999,0.00634,0.00489,-0.004825,-0.0608796832,-9.708877699499999,1.3802859874999998,-3.0975,1.4294,-1.2368,1.6666666666775853e-05,-4.999999999988347e-05,2.999999999997449e-05,0.00028626073106585714,-0.0006474815572525827,-4.97038698505925e-05
150000000000.0,-1,-0.04796432515,0.1629276831,-0.015317987299999999,0.010946,0.014753,-0.012121,-0.06232126075,-9.7085835,1.3818550515,-3.0965,1.4293,-1.2376,4.999999999988347e-05,-4.999999999988347e-05,-2.999999999997449e-05,0.00189682720180806,-7.834419957819527e-05,-0.0020889940413595376
150000000000.0,-1,-0.075315072,0.15562172885,-0.049739328799999996,0.006935,0.025547,-0.01714,-0.06100716965,-9.7084854335,1.3827376499999997,-3.0975,1.4292,-1.2364,5.0000000000105516e-05,-0.00019999999999997797,-9.00000000000345e-05,0.00301293979041084,-0.003670673247925027,-0.0019474533929058069
150000000000.0,-1,-0.10117520804999999,0.16998847109999998,0.031008627299999997,-0.001744,0.028938,-0.020914,-0.05938907239999999,-9.7084854335,1.3827376499999997,-3.0987,1.4292,-1.2349,0.00019999999999997797,9.999999999976694e-05,-9.99999999995449e-06,-0.0017251150041186492,0.0014744531339201394,0.002162340388960793
150000000000.0,-1,-0.12449542174999999,0.1557492153,0.03297976395,-0.00672,0.031205,-0.021013,-0.05761406875,-9.7085835,1.3819531179999998,-3.0999,1.4293,-1.2333,5.0000000000105516e-05,-9.999999999976694e-05,2.999999999997449e-05,0.00029634878500583994,-0.0012626062023035622,9.991701070077852e-05
150000000000.0,-1,-0.09022118,0.11665010174999998,0.036529771249999995,-0.011432,0.024992,-0.017379,-0.06016379775,-9.708387366999998,1.3832279825,-3.0981,1.4291,-1.2348,5.0000000000105516e-05,-5.000000000032756e-05,4.999999999999449e-05,8.175922496800325e-06,-0.00026520360297865864,0.0008861152077908052
150000000000.0,-1,-0.0417174891,0.09381041389999999,0.04425741144999999,-0.002752,0.021602,-0.013605,-0.060634516949999995,-9.708191234,1.384895113,-3.0978,1.429,-1.2348,9.999999999998899e-05,-4.999999999988347e-05,-4.999999999999449e-05,-0.0002387084153832042,0.0006506922508273671,-9.182675014907105e-05
150000000000.0,-1,0.0192406473,0.10379358359999999,0.041776328999999994,0.004925,0.010893,-0.004928,-0.05919293939999999,-9.707798968,1.3874448419999998,-3.099,1.4287,-1.2336,-0.0013000000000000789,-9.999999999976694e-05,-0.001040000000000041,-0.027522586461333987,0.003353964216474825,-0.06319284052978613
150000000000.0,-1,0.0294591766,0.09636014289999999,0.049768748749999994,0.013638,0.006277,0.001269,-0.058192661099999994,-9.7073086355,1.3912694355,-3.0998,1.4283,-1.2327,9.999999999998899e-05,-0.00010000000000021103,1.0000000000065512e-05,-6.929389885623749e-05,-0.00029722416863720014,0.00020093809129217988
150000000000.0,-1,0.045806862149999995,0.09204521689999999,0.039520799499999995,0.008715,0.007381,-0.004828,-0.05642746409999999,-9.706818303,1.3943094969999998,-3.1011,1.428,-1.2312,3.333333333332966e-05,-2.4999999999941735e-05,2.999999999997449e-05,-0.0003693002810514212,-4.29963461041627e-05,-0.0001905338454144534
150000000000.0,-1,0.033666229449999995,0.09452629935,0.00399130655,-0.003668,0.011894,-0.012278,-0.05416212795,-9.706818303,1.3947998295,-3.1028,1.428,-1.2295,3.333333333332966e-05,-2.4999999999941735e-05,-4.0000000000040004e-05,-0.00017367581168548085,9.249253078635888e-05,0.00010412365989687089
150000000000.0,-1,0.033666229449999995,0.09452629935,0.00399130655,-0.003668,0.011894,-0.012278,-0.05416212795,-9.706818303,1.3947998295,-3.1028,1.428,-1.2295,3.333333333332966e-05,-2.4999999999941735e-05,2.0000000000020002e-05,-0.0002176108823730427,-0.00023243528139560432,4.7171229264453274e-05
150000000000.0,-1,0.027811659399999997,0.10831444924999999,-0.04489484369999999,-0.013799,0.022512,-0.018581,-0.05174969204999999,-9.7071125025,1.3926423664999998,-3.1045,1.4282,-1.2276,0.0004499999999998394,-2.4999999999941735e-05,-2.0000000000020002e-05,-0.00021026392746259503,-0.0002596565892085678,4.8693284526724057e-05
150000000000.0,-1,0.017622550049999998,0.12185743289999999,-0.037912508899999996,-0.017619,0.027258,-0.022309,-0.04904305665,-9.7075047685,1.3901907039999999,-3.1063,1.4285,-1.2254,0.00045000000000006146,-0.001100000000000101,0.0011900000000000244,0.050855590663441363,-0.012822047225472977,0.04059895098289257
150000000000.0,-1,0.014494228699999999,0.1187389182,-0.02295736765,-0.011315,0.022582,-0.020591,-0.04726805299999999,-9.707700901499999,1.3890139059999997,-3.1076,1.4286,-1.2239,5.0000000000105516e-05,4.999999999988347e-05,2.999999999997449e-05,0.0007055038891936594,-3.331561962571783e-05,0.00014078908012260527
150000000000.0,-1,0.023280987099999997,0.1390386837,0.0154160538,-0.001347,0.016769,-0.010749,-0.04617951484999999,-9.707798968,1.3883274405,-3.1083,1.4287,-1.2229,5.0000000000105516e-05,4.999999999988347e-05,-2.0000000000020002e-05,0.000575352789968564,2.9622255342642845e-05,3.429552917699752e-05
150000000000.0,-1,0.016073099349999998,0.12477000795,0.05941849235,0.005035,0.008465,-0.005734,-0.04555188925,-9.707700901499999,1.388817773,-3.1088,1.4286,-1.2223,9.999999999998899e-05,-9.999999999976694e-05,2.0000000000020002e-05,-0.0005043672875484351,-0.00026698336419528346,0.00041829992524222703
150000000000.0,-1,0.0026576021499999996,0.1275845165,0.0731772223,-0.000944,0.003414,-0.00093,-0.04545382275,-9.707700901499999,1.3889158395,-3.1089,1.4286,-1.2222,9.999999999998899e-05,3.333333333310762e-05,-6.499999999998174e-05,0.0004044945591561433,-4.3640626679719574e-05,1.3985088463730477e-05
150000000000.0,-1,0.01979962635,0.12437774195,0.0518771785,-0.004579,0.002095,-0.000961,-0.0453851762,-9.707798968,1.388425507,-3.1089,1.4287,-1.2222,9.999999999998899e-05,3.333333333355171e-05,-6.499999999998174e-05,-0.0004754248591523069,0.0003531232886608837,-0.0001807782722038631
150000000000.0,-1,0.030949787399999998,0.10934414749999999,0.00189268345,-0.007012,0.002074,-0.008212,-0.04486542375,-9.707897034499998,1.387837108,-3.1093,1.4287,-1.2218,9.999999999998899e-05,3.333333333310762e-05,0.00017999999999995797,0.0009671185127304582,-0.0003314557053220035,0.00017794461593112487
150000000000.0,-1,0.03283266419999999,0.10297963164999999,-0.01468055505,-0.003407,0.004627,-0.01181,-0.040472044549999996,-9.7080931675,1.3863661104999998,-3.1124,1.4289,-1.2186,9.999999999998899e-05,0.001000000000000334,-0.00012999999999996348,-0.024520453234105677,0.00797940619672799,0.024199268240661542
150000000000.0,-1,0.028635417999999996,0.11504181114999999,0.023290793749999997,-0.002097,0.002275,-0.015369,-0.0376183094,-9.707897034499998,1.3879351744999997,-3.1145,1.4287,-1.2165,-4.999999999988347e-05,9.999999999976694e-05,4.0000000000040004e-05,7.1886494541484325e-06,0.0004820355081056604,0.00026084823347272135
150000000000.0,-1,0.02745862,0.11498297124999998,0.022810267899999997,0.006462,0.00249,-0.009241,-0.0364415114,-9.707798968,1.388425507,-3.1154,1.4287,-1.2156,-5.0000000000105516e-05,-3.333333333310762e-05,9.99999999995449e-06,7.270105633927493e-05,0.00038320351560150456,7.850064718706307e-06
150000000000.0,-1,0.00348136075,0.1238579895,0.01697531115,0.002802,0.002423,-0.015305,-0.03475476759999999,-9.7075047685,1.3901907039999999,-3.1166,1.4285,-1.2143,9.999999999998899e-05,-3.333333333355171e-05,-5.500000000002725e-05,0.00010615947778469526,-0.0010978572247795082,-0.00018036088173500886
150000000000.0,-1,-0.00783551335,0.13626340174999999,0.0049229383,-0.000808,-0.000147,-0.009302,-0.03405849545,-9.707406702,1.391367502,-3.1171,1.4284,-1.2138,-9.999999999998899e-05,-3.333333333310762e-05,-5.499999999991623e-05,-0.00047033087589043454,0.0005717409540266782,-0.0010560732912234805
150000000000.0,-1,-0.030979207349999996,0.1070690047,-0.035696206,-0.006765,-0.005128,-0.014124,-0.03560794615,-9.7075047685,1.3903868369999999,-3.116,1.4285,-1.2149,5.0000000000105516e-05,4.999999999988347e-05,1.999999999990898e-05,-6.741548969935174e-05,-0.0003824519365724921,9.780708981965702e-05
150000000000.0,-1,-0.0260660757,0.12644694509999999,-0.021564823349999998,-0.001808,-0.007457,-0.005602,-0.035882532349999996,-9.707602835,1.3897984380000001,-3.1158,1.4285,-1.2152,4.999999999988347e-05,4.999999999988347e-05,4.999999999999449e-05,-0.00041952858627336553,0.0008090700255620753,0.0016505353103148934
150000000000.0,-1,-0.0260660757,0.12644694509999999,-0.021564823349999998,-0.001808,-0.007457,-0.005602,-0.035882532349999996,-9.707602835,1.3897984380000001,-3.1158,1.4285,-1.2152,-9.999999999998899e-05,-4.999999999988347e-05,-2.999999999997449e-05,-0.0003689728221685229,-0.0001037663198586447,-0.0004946933667220321
150000000000.0,-1,-0.05151433245,0.10093004180000001,-0.0307732677,0.001907,-0.008545,-0.00674,-0.03677493749999999,-9.707700901499999,1.3893081054999998,-3.1151,1.4286,-1.2159,3.333333333332966e-05,-4.999999999988347e-05,4.999999999999449e-05,0.0013553881404713142,-0.002147233482209021,-0.0011372105778924002
150000000000.0,-1,-0.03064578125,0.10902052805,-0.02560516315,0.003231,-0.012184,0.000548,-0.0375986961,-9.707700901499999,1.3893081054999998,-3.1145,1.4286,-1.2166,3.333333333332966e-05,9.999999999976694e-05,-2.3333333333375172e-05,-0.0008113552406108226,0.0009124140379628276,0.0009541231489471613
150000000000.0,-1,-0.0651357693,0.1078535367,-0.02307504745,-0.000313,-0.015874,-0.005463,-0.0394619596,-9.707700901499999,1.3890139059999997,-3.1132,1.4286,-1.2181,3.333333333332966e-05,-2.0000000000131024e-05,-2.333333333326415e-05,9.721435856846483e-05,0.00023902178003454289,-0.00027758981599923516
150000000000.0,-1,-0.033342609999999995,0.09805669334999999,-0.03986403225,-0.010076,-0.016183,-0.006426,-0.0396777059,-9.707897034499998,1.3873467755,-3.113,1.4288,-1.2185,-9.999999999998899e-05,-1.9999999999686935e-05,-2.3333333333375172e-05,-0.00015703839514413787,0.0009632396534471344,-0.00031809559692552725
150000000000.0,-1,-0.01850514855,0.09825282634999999,-0.04437509125,-0.01162,-0.006594,-0.00177,-0.03925601994999999,-9.7080931675,1.386071911,-3.1133,1.4289,-1.2183,-1.4285714285744433e-05,-2.0000000000131024e-05,0.0001300000000000745,0.00033889428479128014,-0.0013200316237524934,0.00044209410606033117
150000000000.0,-1,-0.00877695175,0.1007927487,-0.02797837245,-0.006413,-0.016108,-0.001565,-0.03896182045,-9.708289300499999,1.385091246,-3.1135,1.429,-1.2182,-1.4285714285744433e-05,-1.9999999999686935e-05,-0.00012000000000000899,-0.00048729072812214724,0.0012162148607561818,-0.000588244639355473
150000000000.0,-1,-0.00832584585,0.10660809215,0.0004903325,0.001075,-0.02076,0.004617,-0.03896182045,-9.708289300499999,1.3851893124999999,-3.1135,1.429,-1.2184,-1.4285714285744433e-05,-2.0000000000131024e-05,9.99999999995449e-06,0.0004494709242139905,-0.00013130747126410824,-0.0003423465077325716
150000000000.0,-1,-0.0115914603,0.12747664335,0.023447700149999997,0.005096,-0.031519,0.004823,-0.03913834014999999,-9.708191234,1.385679645,-3.1134,1.429,-1.2189,-1.4285714285522388e-05,-1.2499999999970868e-05,-2.999999999997449e-05,-0.00016201923989234146,-0.00022120842614992142,-0.00012968352061681898
150000000000.0,-1,-0.009639936949999999,0.11630686900000001,-0.0046581587499999995,-0.004576,-0.035412,0.001139,-0.0385401345,-9.708191234,1.3853854455,-3.1138,1.429,-1.2188,-1.4285714285744433e-05,-1.2499999999970868e-05,5.999999999994898e-05,0.0007852547720419434,-0.00031467767554493875,-0.0003748750381684651
150000000000.0,-1,-0.0135135637,0.13169350285,-0.040011132,-0.009629,-0.030729,0.001004,-0.038255741649999994,-9.708387366999998,1.3845028469999998,-3.114,1.4291,-1.219,-1.4285714285744433e-05,-1.2499999999970868e-05,2.0000000000020002e-05,-5.282335408041128e-05,-0.00031423023692300767,-0.0001638168678281815
150000000000.0,-1,-0.025154057249999997,0.119248864,-0.08432738335000001,-0.008545,-0.025817,-0.005067,-0.038736267500000005,-9.708877699499999,1.3804821205,-3.1135,1.4295,-1.2197,-1.4285714285744433e-05,-1.2500000000414957e-05,-8.999999999992347e-05,-0.001126165912892274,0.0010471075398137408,-0.00035972228142444607
150000000000.0,-1,-0.042815833899999996,0.12992830585,-0.04678752715,-0.001419,-0.018313,-0.009889,-0.03933447314999999,-9.709171899,1.379011123,-3.1131,1.4297,-1.2203,-0.0012000000000000899,-1.2499999999970868e-05,-0.001080000000000081,-0.026591353960135455,0.0029319831564886822,-0.06460071390918865
150000000000.0,-1,-0.043551332649999996,0.12223989225,-0.011110934449999998,0.001033,-0.01823,-0.01106,-0.03994248545,-9.7090738325,1.379403389,-3.1126,1.4296,-1.2209,0.0012000000000000899,-1.2499999999970868e-05,0.0011300000000000754,0.025868262572195544,-0.0030451639573905176,0.06534515303953148
150000000000.0,-1,-0.06035993075,0.12942816669999999,0.0180246227,0.003472,-0.018191,-0.006215,-0.041246769899999994,-9.708779632999999,1.381364719,-3.1117,1.4294,-1.222,-2.4999999999941735e-05,-1.2499999999970868e-05,-2.0000000000020002e-05,-0.00031621103838386233,0.00013911364737539955,-0.00028942114634666893
150000000000.0,-1,-0.060605097,0.13704793375,0.0043737659,0.002209,-0.01702,-0.006248,-0.04294332035,-9.7085835,1.3824434505,-3.1105,1.4293,-1.2234,-2.4999999999941735e-05,-1.2499999999970868e-05,-2.0000000000020002e-05,0.0005197930236144899,-0.001016452993575001,-8.971754897402207e-05
150000000000.0,-1,-0.060605097,0.13704793375,0.0043737659,0.002209,-0.01702,-0.006248,-0.04294332035,-9.7085835,1.3824434505,-3.1105,1.4293,-1.2234,-2.500000000016378e-05,-9.999999999976694e-05,-2.0000000000020002e-05,0.0015380910081748134,3.2523547766949434e-05,-0.0019580745351217566
150000000000.0,-1,-0.05484859345,0.11841529875,-0.017857909649999996,0.008329,-0.016844,-0.004965,-0.044218184849999995,-9.7085835,1.3830318494999998,-3.1096,1.4292,-1.2244,-2.4999999999941735e-05,-0.00010000000000021103,0.000160000000000049,-0.0021501247955213465,-0.0012411374960756838,0.0008026655831891993
150000000000.0,-1,-0.034931287299999995,0.0998905369,-0.0046679654,0.008373,-0.018034,-0.007354,-0.04317867994999999,-9.708387366999998,1.3839144479999999,-3.1104,1.4291,-1.2239,-5.0000000000105516e-05,-2.0000000000131024e-05,-3.0000000000085514e-05,-0.0007017686926775735,0.0006083532793219604,9.493822316386513e-05
150000000000.0,-1,-0.03170489945,0.11425727914999999,-0.0226337482,0.010665,-0.013138,-0.006189,-0.0420705285,-9.708289300499999,1.384895113,-3.1112,1.429,-1.2232,-4.999999999988347e-05,-1.9999999999686935e-05,0.0001300000000000745,-0.0006023197406814784,0.0036140675223137464,-0.00020904932156851075
150000000000.0,-1,-0.04878808375,0.11997455609999999,-0.02246703515,0.007292,-0.022937,-0.002487,-0.041442902899999995,-9.708191234,1.3857777114999998,-3.1117,1.4289,-1.2229,2.4999999999941735e-05,-2.0000000000131024e-05,-7.00000000000145e-05,-0.00084002306109765,0.0008938062874128683,5.9368710937146574e-05
150000000000.0,-1,-0.054456327449999994,0.14279463064999998,-0.018632634999999998,0.00354,-0.019421,-0.00586,-0.04070740415,-9.7080931675,1.3862680440000001,-3.1122,1.4289,-1.2226,2.4999999999941735e-05,-1.9999999999686935e-05,5.999999999994898e-05,-0.003059906008085367,-2.068431175561436e-05,0.0027835207181454713
150000000000.0,-1,-0.1128941548,0.15869121029999997,-0.041639035899999996,-0.003753,-0.020798,-0.013157,-0.039285439899999997,-9.7080931675,1.3861699775,-3.1133,1.4289,-1.2218,2.500000000016378e-05,-2.0000000000131024e-05,-4.999999999999449e-05,-0.000829351482392493,-0.0004946710464601711,-7.284902191928566e-05
150000000000.0,-1,-0.1023029728,0.13496892394999999,-0.054985886549999995,0.001115,-0.019416,-0.016721,-0.042099948449999994,-9.708289300499999,1.3845028469999998,-3.1112,1.4291,-1.224,2.4999999999941735e-05,9.999999999976694e-05,-0.00012999999999996348,0.0026861478424866636,0.0017515078235093018,-0.001373551026332187
150000000000.0,-1,-0.07713910889999999,0.11775825319999998,-0.026909447599999997,-0.001364,-0.018256,-0.02038,-0.040020938650000004,-9.708387366999998,1.3846009135,-3.1127,1.4291,-1.2227,5.0000000000105516e-05,0.00010000000000021103,-0.00019999999999997797,-0.002239866255228984,0.004371577578538011,0.0004899128192628055
150000000000.0,-1,-0.0716669982,0.09440861954999999,0.0501904347,0.002235,-0.01572,-0.02157,-0.0374221764,-9.708289300499999,1.3846989799999998,-3.1146,1.4291,-1.221,4.999999999988347e-05,-0.00010000000000021103,0.000140000000000029,0.0018262134604172253,-0.0034442865739223727,-0.000839542715694197
150000000000.0,-1,-0.07742350174999998,0.07450112005,0.0595263655,0.015851,-0.020171,-0.017715,-0.035107807,-9.708191234,1.385875778,-3.1163,1.429,-1.2195,0.00019999999999997797,-0.00019999999999997797,-7.00000000000145e-05,0.0015834656121089807,-0.005353061004493398,7.01589784268819e-05
150000000000.0,-1,-0.07561907814999999,0.1125607287,0.06263507355,0.019386,-0.015176,-0.024956,-0.03256788465,-9.707897034499998,1.3876409749999998,-3.1181,1.4288,-1.2178,9.999999999998899e-05,-4.999999999988347e-05,-2.4999999999941735e-05,0.0005148457353820746,-0.0014364451934041345,-2.836211622181395e-05
150000000000.0,-1,-0.06345883214999999,0.1330762405,-0.0234182802,0.016907,-0.014015,-0.028615,-0.03276401765,-9.707602835,1.389602305,-3.118,1.4286,-1.218,5.0000000000105516e-05,-5.000000000032756e-05,-2.5000000000052758e-05,-0.000934468163119595,0.0009177976093175388,0.00010484560701273793
150000000000.0,-1,-0.05035714775,0.15399382495,-0.0549368533,0.016706,-0.008003,-0.025093,-0.0325384647,-9.707602835,1.3898965044999998,-3.1182,1.4286,-1.2179,4.999999999988347e-05,-0.00010000000000021103,-0.0001300000000000745,-0.0017795427884974568,0.0013070496920850605,0.0004794454345775634
150000000000.0,-1,-0.050906320149999996,0.13422361854999998,-0.021584436649999997,0.013879,0.004027,-0.028911,-0.031842192549999995,-9.707406702,1.3910733025,-3.1187,1.4284,-1.2174,4.999999999988347e-05,-9.999999999976694e-05,0.00039000000000000146,-0.0005249444822434945,-0.005609213880830577,0.0012495437838269119
150000000000.0,-1,-0.050906320149999996,0.13422361854999998,-0.021584436649999997,0.013879,0.004027,-0.028911,-0.031842192549999995,-9.707406702,1.3910733025,-3.1187,1.4284,-1.2174,5.0000000000105516e-05,-9.999999999976694e-05,-0.00015999999999993797,3.701449520665534e-05,0.0012139101116088735,-0.0009688692124667497
150000000000.0,-1,-0.06567513505,0.1404704546,0.0278901126,0.009845,0.014742,-0.0231,-0.0326365312,-9.7069163695,1.3944075635,-3.1182,1.4281,-1.2177,-9.999999999998899e-05,-0.00010000000000021103,-2.0000000000020002e-05,-0.0020744814784532384,0.005733881144070807,-0.0002402401681922406
150000000000.0,-1,-0.1157969232,0.14308883014999998,0.02654660155,0.015747,0.022209,-0.027938,-0.0351862602,-9.706426037,1.3980360239999998,-3.1164,1.4277,-1.2192,9.999999999998899e-05,-0.00010000000000021103,-9.999999999998899e-05,0.0001446139121001888,0.0007893099671789638,0.00018053745423340928
150000000000.0,-1,-0.1468840037,0.1308795509,0.017063571,0.019117,0.031999,-0.030436,-0.038971627099999996,-9.705837638,1.4016644845,-3.1138,1.4273,-1.2214,9.999999999998899e-05,-9.999999999976694e-05,-0.0001300000000000745,-0.002076489370865353,0.0006947223589839346,0.0006510969560205027
150000000000.0,-1,-0.13765594605,0.12416199565,0.0328915041,0.015292,0.036728,-0.031757,-0.0419136221,-9.7053473055,1.4055871445,-3.1118,1.4269,-1.223,0.00019999999999997797,-9.999999999976694e-05,0.00034000000000000696,0.002539649143702194,-0.0046876501014399,0.000740081270085291
150000000000.0,-1,-0.10709842465,0.13987224895,0.037481016299999996,0.005831,0.025519,-0.02571,-0.043884758749999996,-9.704856973,1.4086272059999998,-3.1105,1.4266,-1.224,9.999999999998899e-05,-0.00010000000000021103,-0.00039999999999995595,-0.0024295878424933637,0.0039186249598872624,0.00023760530413241554
150000000000.0,-1,-0.0823954733,0.151414676,0.0615269221,0.008696,0.012281,-0.021875,-0.04180574895,-9.704758906499999,1.409607871,-3.1119,1.4265,-1.2223,0.00019999999999997797,-4.999999999988347e-05,7.999999999996898e-05,0.0008727297007613544,-0.0016657944466687002,0.0005044407579308796
150000000000.0,-1,-0.043776885599999996,0.154356671,0.036421898099999996,0.00409,0.00363,-0.017896,-0.040020938650000004,-9.704660839999999,1.410000137,-3.1132,1.4265,-1.2209,9.999999999998899e-05,-4.999999999988347e-05,-0.00013999999999991797,0.0006563018927290276,-0.00012459285238541895,-0.0005226061668466286
150000000000.0,-1,0.0030302548499999997,0.11555175695,0.02944936995,0.003239,-0.008529,-0.01172,-0.0387951074,-9.704660839999999,1.410392403,-3.1141,1.4264,-1.2201,9.999999999998899e-05,-5.000000000032756e-05,-3.500000000000725e-05,-0.000824308172176158,0.0014574950705616985,0.0005853849343320228
150000000000.0,-1,0.036196345149999996,0.1040093299,0.021358883699999998,0.002163,-0.013414,-0.009259,-0.037392756449999995,-9.704660839999999,1.4104904695,-3.1151,1.4264,-1.2192,9.999999999998899e-05,-4.999999999988347e-05,-3.500000000000725e-05,0.0008288567934859881,-0.0001423200647856504,-0.00030821580943785065
150000000000.0,-1,0.0718631312,0.09584039045,-0.0059036033,-0.005377,-0.007598,-0.009443,-0.0364022848,-9.704660839999999,1.4100982035,-3.1158,1.4265,-1.2186,4.999999999988347e-05,-4.999999999988347e-05,-0.00014999999999998348,-0.0010527632483898763,0.0015158619183686106,-0.00013097621913971125
150000000000.0,-1,0.08562186114999999,0.10093984845,-0.04178613565,-0.011687,-0.001726,-0.012017,-0.035048967099999995,-9.704856973,1.409019472,-3.1167,1.4266,-1.2177,5.0000000000105516e-05,-4.999999999988347e-05,-6.0000000000060005e-05,-0.0001733432642627708,0.0001849916473437574,-0.0005536612339960278
150000000000.0,-1,0.04351210605,0.06818563744999999,-0.029831829299999998,-0.014524,0.010268,-0.011023,-0.0272036471,-9.7055434385,1.403920014,-3.1222,1.4271,-1.2122,5.0000000000105516e-05,-4.999999999988347e-05,9.999999999998899e-05,0.00018022945708562332,-7.199487314535347e-06,0.0003543452940908409
150000000000.0,-1,-0.00051975245,0.08018897705,-0.0293414968,-0.011083,0.017626,-0.011081,-0.026115108949999997,-9.7059357045,1.4016644845,-3.123,1.4273,-1.2113,4.999999999988347e-05,-5.000000000032756e-05,-0.00017000000000000348,0.0004715027024604357,0.0007481825319795021,-0.0007590011991509549
150000000000.0,-1,-0.0014121576,0.08026743025,-0.028831550999999997,-0.00247,0.016686,-0.012155,-0.025232510450000002,-9.706033771,1.401174152,-3.1236,1.4274,-1.2104,0.00010000000000021103,-4.999999999988347e-05,-0.00020999999999993246,0.0007243924842834648,0.002000373129150468,-0.0005768687456102484
150000000000.0,-1,-0.013533176999999999,0.10048874254999998,-0.015102240999999999,0.001181,0.018058,-0.019344,-0.02433029865,-9.706033771,1.4010760855,-3.1242,1.4274,-1.2096,9.999999999998899e-05,-4.999999999988347e-05,6.999999999990347e-05,0.000963214986480887,-0.001070443874530369,0.0001416157529421369
150000000000.0,-1,-0.013533176999999999,0.10048874254999998,-0.015102240999999999,0.001181,0.018058,-0.019344,-0.02433029865,-9.706033771,1.4010760855,-3.1242,1.4274,-1.2096,9.999999999998899e-05,-0.00010000000000021103,-0.00017000000000000348,-0.0013195006849779922,0.004477013911297956,4.344512457787886e-05
150000000000.0,-1,-0.0430904201,0.1434909028,-0.005246557749999999,0.010818,0.023167,-0.016879,-0.024693144699999996,-9.705739571499999,1.402743216,-3.124,1.4272,-1.2096,9.999999999998899e-05,-9.999999999976694e-05,6.0000000000060005e-05,0.002976129832515273,-0.0038164631155501727,-0.0014029397692265633
150000000000.0,-1,-0.05066115389999999,0.15364078555,-0.03382313585,0.0122,0.018382,-0.017996,-0.02311427405,-9.705641505,1.403920014,-3.1251,1.4271,-1.2082,9.999999999998899e-05,-0.00010000000000021103,-9.99999999995449e-06,-0.0012269812703382676,0.0016936744856406172,0.00103795829758635
150000000000.0,-1,-0.065116156,0.16089770655,-0.05231847775,0.014803,0.013625,-0.017894,-0.0216726965,-9.7053473055,1.405489078,-3.1262,1.427,-1.207,9.999999999998899e-05,-0.0001500000000000945,1.999999999990898e-05,-0.0010578830913516857,0.0009932083297230498,0.0015119346519685273
150000000000.0,-1,-0.0389127872,0.17280297965,-0.03603943875,0.013501,0.016004,-0.017945,-0.020044792599999996,-9.705151172499999,1.407058142,-3.1273,1.4268,-1.2056,9.999999999998899e-05,-0.0001500000000000945,-0.00010999999999994348,0.0004595108687805993,-0.0010461760120847874,-0.0010012142913207178
150000000000.0,-1,-0.0060310897499999995,0.1502182647,-0.0326561445,0.001205,0.016798,-0.012107,-0.018966061099999997,-9.705151172499999,1.4069600754999998,-3.1281,1.4268,-1.2047,0.00029999999999996696,-9.999999999976694e-05,3.999999999992898e-05,0.0030841941819634844,-0.007721662088242542,0.0011378087260451863
150000000000.0,-1,0.0073157609,0.13671450764999998,-0.046022608449999995,-0.00724,0.012951,-0.016979,-0.0173381572,-9.705445372,1.4051948785,-3.1293,1.427,-1.2034,-0.00029999999999996696,-0.00019999999999997797,-7.999999999996898e-05,-0.004309715002495107,0.00873003214183754,-0.0012706682595591268
150000000000.0,-1,0.043345393,0.11833684554999999,-0.014288289049999998,-0.010999,0.015229,-0.013453,-0.01611232595,-9.705641505,1.4040180804999998,-3.1301,1.4271,-1.2024,9.999999999998899e-05,-0.0001500000000000945,-5.999999999994898e-05,-0.0018650787178424721,0.0007121507949126027,0.0014813282362444724
150000000000.0,-1,0.0419332354,0.11196252305,-0.01030678915,-0.013206,0.00789,-0.013272,-0.01485707475,-9.705837638,1.402547083,-3.131,1.4273,-1.2014,0.00019999999999997797,-0.0001500000000000945,-2.999999999997449e-05,0.003229188152883866,-0.0061037140978641435,-0.0011843233439727818
150000000000.0,-1,0.048052584999999995,0.0852590151,0.0004609125499999999,-0.003214,0.002156,-0.014259,-0.0134939504,-9.7059357045,1.401958684,-3.132,1.4273,-1.2004,1.999999999990898e-05,-9.999999999976694e-05,1.999999999990898e-05,-8.177710360190993e-05,-0.00037411925177499583,0.0003711221011504229
150000000000.0,-1,0.052171378,0.07491299935,-0.006452775699999999,0.002991,-5.7e-05,-0.01655,-0.011915079749999998,-9.705837638,1.4021548169999998,-3.1331,1.4273,-1.1992,2.0000000000131024e-05,-0.00010000000000021103,9.999999999998899e-05,-0.0010996117040584785,-0.0012853602972249245,0.0006288464362573798
150000000000.0,-1,0.058173047799999995,0.0557213853,-0.012425025549999998,0.012914,-0.003349,-0.021183,-0.009688970199999999,-9.705739571499999,1.4034296814999998,-3.1347,1.4272,-1.1976,1.999999999990898e-05,-9.999999999976694e-05,-9.99999999995449e-06,0.00013835982022047943,0.0004782199401149878,-9.77324026099069e-05
150000000000.0,-1,0.0430708068,0.07755098819999999,-0.03379371589999999,0.010652,-0.009479,-0.01872,-0.00775706015,-9.7055434385,1.4046064795,-3.1361,1.4271,-1.1963,2.0000000000131024e-05,-0.00019999999999997797,9.999999999998899e-05,-0.00014997312334474877,-0.0021086014541253917,0.0001443776907974481
150000000000.0,-1,0.05928119925,0.07521700549999999,-0.0361865385,0.003236,-0.00726,-0.022461,-0.0054132708,-9.705445372,1.4051948785,-3.1377,1.427,-1.1947,1.999999999990898e-05,-0.00019999999999997797,2.0000000000020002e-05,0.0007281221096016033,-0.0027660186325006997,-0.00020416798847122664
150000000000.0,-1,0.0320873588,0.0872595717,-0.05714334954999999,-0.005454,-0.003904,-0.021422,-0.0030596748,-9.7055434385,1.4048026124999997,-3.1394,1.4271,-1.1931,-9.999999999998899e-05,-0.00010000000000021103,4.0000000000040004e-05,-0.0019211552159503764,0.002599518192923256,0.0004635629751881254
150000000000.0,-1,0.02478140455,0.14091175385,-0.03727507665,-0.003054,-0.002658,-0.016595,-0.00099047165,-9.7055434385,1.4042142135,-3.1409,1.4271,-1.1916,-0.0012000000000000899,-0.0004999999999997229,-0.0010700000000000154,-0.021122622757079768,-0.001706452761820021,-0.06611214207686888
150000000000.0,-1,0.02478140455,0.14091175385,-0.03727507665,-0.003054,-0.002658,-0.016595,-0.00099047165,-9.7055434385,1.4042142135,-3.1409,1.4271,-1.1916,-9.999999999998899e-05,-0.00020000000000042206,4.999999999999449e-05,-0.0009500895286009836,8.217858253001253e-05,6.490637467937432e-05
150000000000.0,-1,-0.005727083599999999,0.15976013514999998,-0.0171027976,-0.001671,-0.007442,-0.017713,0.0006374322499999999,-9.7055434385,1.4042142135,3.1411,1.4271,-1.1905,0.001000000000000112,-0.0010999999999996568,0.0010999999999999899,0.05112216870615316,-0.012675254408005543,0.03864757139979513
150000000000.0,-1,0.025565936549999998,0.14887475365,-0.010679441849999999,0.011562,0.000194,-0.015237,0.00436395925,-9.7053473055,1.406077477,3.1385,1.4269,-1.1878,-0.0006666666666665932,-0.0009999999999998899,0.00010999999999994348,0.0014945119505254123,-0.00020534769163638167,-0.00027094114393433344
150000000000.0,-1,0.025595356499999996,0.1268392111,-0.0068254284,0.026673,-0.012674,-0.011242,0.007472667299999999,-9.704856973,1.4094117379999997,3.1363,1.4266,-1.1857,-0.0006666666666668153,-0.001000000000000334,0.0003300000000000525,0.003548976741198917,-0.0010789393849726103,-0.00012518108866510502
150000000000.0,-1,0.027605719749999997,0.13530235005,-0.00089240515,0.031841,-0.02098,-0.011056,0.010551955399999998,-9.7041705075,1.413922797,3.1341,1.4261,-1.1838,-0.0006666666666665932,-0.0009999999999998899,-0.0024899999999999922,-0.06265683260715305,0.011412763937756587,0.002357799319530063
150000000000.0,-1,0.029772989399999998,0.13879351745,-0.0317343194,0.028284,-0.024714,-0.011051,0.013925443,-9.7037782415,1.416668659,3.1318,1.4258,-1.1817,0.0020000000000000018,0.0028999999999999027,0.0023699999999999832,0.06368901187183118,-0.011970355699326696,-0.0023841749450324023
150000000000.0,-1,0.062370294,0.1379403389,-0.05065134725,0.017461,-0.031068,-0.013514,0.019181807399999997,-9.703680175,1.417257058,3.1281,1.4258,-1.1783,-9.999999999998899e-05,-9.999999999976694e-05,9.00000000000345e-05,0.000781623045685631,-0.00021128329333186535,-0.0003024162842666378
150000000000.0,-1,0.07179448465,0.12508382075,-0.0473268929,0.009091,-0.03734,-0.017148,0.0253207703,-9.703680175,1.417060925,3.1237,1.4258,-1.1744,-9.999999999998899e-05,-0.00010000000000021103,4.999999999999449e-05,0.0014897631844603687,-0.000156377842198685,-0.0004534750216733663
150000000000.0,-1,0.056466690699999995,0.12815330219999999,-0.06112484945,0.003032,-0.039984,-0.011177,0.027174227149999997,-9.7035821085,1.4175512575,3.1224,1.4257,-1.1735,-9.999999999998899e-05,-0.00039999999999995595,-8.000000000008001e-05,-0.004693758183131003,-0.00015827807635870883,-8.22920234364588e-05
150000000000.0,-1,0.07012735415,0.12802581575,-0.07140221865,-0.000524,-0.04244,-0.023116,0.029831829299999998,-9.703680175,1.4173551244999998,3.1205,1.4257,-1.172,-0.00019999999999997797,-0.00019999999999997797,1.0000000000065512e-05,-0.00023677660719290117,0.00015800113868547072,-0.0005684214214891625
150000000000.0,-1,0.06759723845,0.09548735105,-0.02982202265,0.000392,-0.032741,-0.023242,0.0364022848,-9.703680175,1.416668659,3.1159,1.4258,-1.1678,-5.0000000000105516e-05,-4.999999999988347e-05,-1.0000000000065512e-05,0.0019957606677647455,-0.000749698163205581,-0.0005863654169755428
150000000000.0,-1,0.07508951905,0.0820620472,-0.02138830365,-0.000725,-0.036428,-0.019596,0.04298254694999999,-9.7037782415,1.4161783265,3.1113,1.4258,-1.1635,-4.999999999988347e-05,-5.000000000032756e-05,9.00000000000345e-05,0.001628911822598944,0.00013390090695586387,-0.0009426778525449819
150000000000.0,-1,0.05000410835,0.0644689171,-0.026007235799999997,0.001727,-0.036345,-0.020767,0.04830755789999999,-9.703876307999998,1.4155899275,3.1075,1.4259,-1.1601,-5.0000000000105516e-05,0.00010000000000021103,1.0000000000065512e-05,0.002910265341647733,-0.0005084834023856288,-0.0004612160482548866
150000000000.0,-1,0.00758054045,0.04872924385,-0.031116500449999997,0.001757,-0.037579,-0.01714,0.0510730332,-9.7039743745,1.4147073289999998,3.1055,1.4259,-1.1585,-5.0000000000105516e-05,-0.000300000000000189,-0.000260000000000038,-0.003029879408181557,0.0002488383728957988,-2.4769069775665287e-05
150000000000.0,-1,-0.033891782399999994,0.0478956786,-0.09682105545,0.005657,-0.044732,-0.01458,0.05184775855,-9.704464707,1.4110788684999997,3.1049,1.4263,-1.1583,-9.999999999998899e-05,-0.00019999999999997797,-0.00012999999999996348,-0.00251313210985904,1.2751439406377685e-05,0.00021883846927517325
150000000000.0,-1,-0.033891782399999994,0.0478956786,-0.09682105545,0.005657,-0.044732,-0.01458,0.05184775855,-9.704464707,1.4110788684999997,3.1049,1.4263,-1.1583,-0.00019999999999997797,-0.00019999999999997797,0.0005299999999999194,0.0017535874188978617,-0.0017772288571824557,0.00021988349809598517
150000000000.0,-1,-0.039971905399999993,0.0654299688,-0.10488212174999999,0.007959,-0.0398,-0.018228,0.05269113045,-9.7049550395,1.4077446075,3.1042,1.4266,-1.1581,-0.00019999999999997797,-0.0002999999999997449,-0.00044999999999995044,-0.0038242585243879468,0.0006585582156690695,-0.0003150560875613273
150000000000.0,-1,-0.026713314599999996,0.0827288994,-0.12479942789999998,0.012697,-0.034839,-0.015828,0.0549956932,-9.704758906499999,1.4091175385,3.1026,1.4265,-1.1568,-0.00019999999999997797,-0.000300000000000189,7.00000000000145e-05,-7.810315538026025e-05,-0.0007859873851028265,-0.0003976423912788185
150000000000.0,-1,-0.038442067999999996,0.12322055724999999,-0.12877112115,0.009042,-0.034888,-0.024299,0.0565451439,-9.705249238999999,1.405292945,3.1014,1.4269,-1.156,-0.0020999999999999908,-0.0030000000000001137,-0.002670000000000061,-0.061439805341402254,0.013489199319655532,0.0013720590813512956
150000000000.0,-1,-0.0342055952,0.1498063854,-0.12287732449999998,0.011508,-0.036092,-0.014623,0.057545422199999995,-9.705641505,1.402547083,3.1006,1.4272,-1.1555,0.0007999999999999119,0.0035000000000002807,0.0010000000000000009,0.007120339619748339,0.0011767374625584193,-0.041966593833846044
150000000000.0,-1,-0.030753654399999997,0.16716415589999997,-0.12614293894999998,0.008292,-0.050714,-0.012054,0.05842802069999999,-9.7061318375,1.399408955,3.0999,1.4275,-1.1553,0.0002500000000000835,9.999999999976694e-05,0.0006500000000000394,0.0010302846914529429,-0.00048528734371866555,-0.0028761811695416917
150000000000.0,-1,0.0177892631,0.1755586483,-0.10005724995,0.017195,-0.061377,-0.004565,0.06077181005,-9.7063279705,1.3981340905,3.0982,1.4276,-1.1542,0.0002500000000000835,-0.0015000000000000568,0.0006500000000000394,0.04957744296987876,-0.013219106831004357,0.042070446055078925
150000000000.0,-1,0.0424235679,0.1601818211,-0.11162909695,0.016276,-0.071085,-0.003237,0.06396877795,-9.706426037,1.3967611595,3.0958,1.4277,-1.1526,-0.00019999999999997797,-0.00019999999999997797,-0.00029000000000001247,-0.0008302453100106355,0.0008321940224818025,-0.0009382080144426652
150000000000.0,-1,0.0301848687,0.14656038424999998,-0.11923905734999998,0.008063,-0.082178,-0.008004,0.06573397495,-9.7063279705,1.3977418244999997,3.0946,1.4276,-1.1522,-0.0019000000000000128,-0.0026999999999999247,-0.0019900000000000473,-0.0502084916669614,0.009401811112640157,-0.0006824677541903412
150000000000.0,-1,0.047934905199999996,0.11011887285,-0.10474482864999998,0.003203,-0.083534,-0.00805,0.06789143795,-9.706229903999999,1.398232157,3.0931,1.4276,-1.1516,-9.999999999998899e-05,-0.0002999999999997449,-0.00048000000000003595,-0.0026547136425396634,0.00016562924946450508,-0.0003414253491285102
150000000000.0,-1,0.0841214437,0.09545793109999999,-0.10115559475,-4.5e-05,-0.096931,-0.007905,0.07030387384999999,-9.706229903999999,1.3980360239999998,3.0913,1.4276,-1.1509,0.00019999999999997797,0.0030999999999998806,0.0013100000000000334,0.0001930628158695047,0.0011592856521862593,-0.03889544311923521
150000000000.0,-1,0.08118925534999999,0.04839581775,-0.08668097934999999,-0.005811,-0.10803,-0.005318,0.0760799907,-9.706720236499999,1.394113364,3.0871,1.4279,-1.1477,-0.00039999999999995595,-0.00019999999999997797,2.0000000000020002e-05,-0.0008996835564742955,0.0007107700028856634,-0.0011935343457358805
150000000000.0,-1,0.10349938409999998,0.05023946795,-0.1047938619,-0.008047,-0.11541,0.003177,0.08189533415,-9.707406702,1.3893081054999998,3.0827,1.4284,-1.1446,-0.000300000000000189,-0.000300000000000189,-0.00021000000000004349,0.0018220914078266315,8.51361301084097e-05,0.0009446219438991044
150000000000.0,-1,0.1394897896,0.08622987345,-0.1585146906,-0.003968,-0.12865,0.011841,0.08271909274999999,-9.7075047685,1.3887197065,3.0821,1.4285,-1.1453,-0.00039999999999995595,-0.0002999999999997449,-1.999999999990898e-05,0.0010813820470738644,0.000406572647186465,-0.0011359783354274455
150000000000.0,-1,0.15711233965,0.07681548945,-0.15289548014999998,-0.009612,-0.14461,0.022818,0.08274851269999998,-9.707602835,1.3875429085,3.082,1.4286,-1.1468,-0.0004999999999999449,-0.000300000000000189,0.00022999999999995246,-0.0014442397542893115,-0.00041950841935300964,-0.0012265359370005058
150000000000.0,-1,0.1348022109,0.09780172044999999,-0.1484530677,-0.011735,-0.15563,0.03257,0.08202282059999999,-9.707798968,1.3862680440000001,3.0825,1.4287,-1.1489,0.0005999999999999339,-0.0011999999999998678,0.0011700000000000044,0.049487476745736725,-0.013598398599991679,0.03539313468404437
150000000000.0,-1,0.1348022109,0.09780172044999999,-0.1484530677,-0.011735,-0.15563,0.03257,0.08202282059999999,-9.707798968,1.3862680440000001,3.0825,1.4287,-1.1489,-0.0004999999999999449,-0.000300000000000189,-7.00000000000145e-05,0.0008071925453700945,-0.0002043516487406638,-0.001638097998012178
150000000000.0,-1,0.1437262624,0.0783747468,-0.15174810209999998,-0.021108,-0.17055,0.050702,0.07954173815,-9.708191234,1.3841105809999998,3.0842,1.4289,-1.1524,-0.00039999999999995595,-0.0002999999999997449,9.00000000000345e-05,-0.0008199920790463722,-0.00043175416772145425,-0.0012422336126416411
150000000000.0,-1,0.1868559091,0.08762241775,-0.1412942132,-0.025672,-0.18161,0.056812,0.0763545769,-9.7085835,1.381364719,3.0864,1.4293,-1.1566,-0.0004999999999999449,-0.00019999999999997797,-8.000000000008001e-05,0.0019081528959845606,0.0008442436622604355,-0.0022139216551466667
150000000000.0,-1,0.197898197,0.1035974506,-0.1685370869,-0.011846,-0.19204,0.053536,0.07354987499999999,-9.708877699499999,1.3796975885,3.0883,1.4294,-1.1606,-0.000600000000000156,-0.000300000000000189,-0.00027999999999994696,-0.0013082485315087933,0.0010296030378103005,-0.0018408573387067584
150000000000.0,-1,0.13787169235,0.1715771484,-0.20064405899999999,0.012718,-0.19373,0.055093,0.07820803374999999,-9.7100544975,1.3706754705,3.0846,1.4303,-1.159,-0.0005999999999999339,-0.000300000000000189,0.00024999999999997247,0.0016773538510015396,-0.0004113033994075366,-0.0011399880061992995
150000000000.0,-1,0.1490218534,0.1902882366,-0.2598958383,0.035947,-0.19181,0.054174,0.08291522575,-9.711329362,1.3618494854999998,3.0808,1.4312,-1.1574,-0.0006999999999999229,-0.00039999999999995595,0.00021000000000004349,-0.0007554599875128076,-0.002147466475195481,-0.0015348393720469033
150000000000.0,-1,0.08561205449999999,0.18011874055,-0.3258553662,0.051939,-0.19375,0.05562,0.0842195102,-9.7126042265,1.3520428354999998,3.0794,1.4322,-1.1581,-0.000600000000000156,-0.0005999999999999339,-0.0003500000000000725,-0.0030043737668488113,0.0019294205213171711,-0.0024635484184938328
150000000000.0,-1,0.013474337099999999,0.16066234695,-0.34080070079999997,0.05931,-0.19344,0.043683,0.08288580579999999,-9.713879090999999,1.34351105,3.08,1.4331,-1.1608,-0.0005999999999999339,-0.0002999999999997449,5.0000000000105516e-05,0.00392616051034933,-0.0006783081949832681,-0.0023190928778995534
150000000000.0,-1,-0.056241137749999996,0.1582989443,-0.35381412534999995,0.063955,-0.18478,0.035202,0.07899256575,-9.715055888999999,1.334881198,3.0825,1.434,-1.1653,-0.0006999999999999229,-0.0005999999999999339,-9.00000000000345e-05,-0.0014114817616859288,5.453221513707085e-05,-0.0013985787534251948
150000000000.0,-1,-0.1262704254,0.15354271905,-0.32184444635,0.065018,-0.17993,0.037554,0.07195139105,-9.716036553999999,1.3285068755,3.0875,1.4347,-1.1723,-0.0017000000000000348,0.0006999999999997009,-0.0010900000000000354,-0.05161591338572635,0.013044194437311418,-0.04347363730904874
150000000000.0,-1,-0.1574751857,0.17645105344999998,-0.33761353954999995,0.076762,-0.16252,0.01942,0.0718827445,-9.714957822499999,1.3359599294999998,3.0878,1.4339,-1.1744,-0.0008000000000001339,-0.0006999999999997009,-0.00017000000000000348,-0.001195002729611705,0.0010127662426602235,6.100457010349558e-05
150000000000.0,-1,-0.21603069284999998,0.17009634424999998,-0.36642547725,0.094703,-0.14869,0.020669,0.07193177775,-9.713682958,1.3451781804999998,3.0882,1.433,-1.1764,-0.0005999999999999339,-0.000800000000000356,-0.00019000000000002348,-0.0007556720180641463,-0.0005299480641804966,-0.0015786766404586317
150000000000.0,-1,-0.22503319754999998,0.19085702229999998,-0.34767516244999996,0.11148,-0.1361,0.018424,0.07210829745,-9.712113894,1.3562596949999999,3.0885,1.4319,-1.1782,-0.0007999999999999119,-0.0006999999999997009,-7.999999999996898e-05,-0.00019474143637321362,0.0007902814212752407,-0.0013545772162046887
150000000000.0,-1,-0.26995746119999997,0.16737009555,-0.32631627874999997,0.12812,-0.11989,0.019622,0.07198081099999999,-9.710348696999999,1.36900834,3.0891,1.4305,-1.1801,-0.00039999999999995595,-0.000700000000000145,-0.00031000000000003247,-0.0007171342376213197,-0.0009128198092245299,-0.002908464846162584
150000000000.0,-1,-0.2566204172,0.14916895315,-0.3234821569,0.14228,-0.10251,0.015958,0.07182390459999999,-9.708289300499999,1.383326049,3.0897,1.4291,-1.182,-0.0015000000000000568,-0.0017000000000000348,-0.00021999999999999797,-0.002554332451877084,0.0008776578597786688,-0.0023279648412555254
150000000000.0,-1,-0.29705323515,0.14056852109999998,-0.29321883499999996,0.14927,-0.09145,0.020709,0.07095111275,-9.7061318375,1.3986244229999998,3.0909,1.4275,-1.1842,-0.0003500000000000725,-0.0005500000000000504,-0.00012500000000004174,-0.0010736484624889187,0.00010849153803960121,-9.236828307290779e-05
150000000000.0,-1,-0.29705323515,0.14056852109999998,-0.29321883499999996,0.14927,-0.09145,0.020709,0.07095111275,-9.7061318375,1.3986244229999998,3.0909,1.4275,-1.1842,-0.0003500000000000725,-0.0005500000000000504,-0.00012499999999993072,-0.001073646855911381,0.00010839256164096867,-9.248416635232459e-05
150000000000.0,-1,-0.29416027339999995,0.15407227815,-0.28789382404999997,0.15596,-0.070696,0.020507,0.0530932031,-9.706033771,1.400193487,3.1037,1.4274,-1.1977,9.999999999998899e-05,-0.0020999999999999908,0.0012800000000000589,0.04926932987404142,-0.013775269406225643,0.03906801565027074
150000000000.0,-1,-0.24694125364999997,0.1289770608,-0.29281676235,0.16815,-0.067831,0.009804,0.03909911355,-9.705641505,1.4034296814999998,3.1137,1.4271,-1.2084,-0.0005999999999999339,-0.0008999999999996788,-0.00036000000000002697,0.0006247043159510746,0.00041754574201990913,-0.0004392092217155863
150000000000.0,-1,-0.19086682895,0.10409758974999998,-0.3135578271,0.18291,-0.068507,-0.002018,0.030155448749999997,-9.7049550395,1.408038807,3.1202,1.4267,-1.2154,-0.0006999999999999229,-0.001200000000000312,-0.00021000000000004349,-0.002765869689474121,0.00013319586183802024,-0.001004155085876146
150000000000.0,-1,-0.15335639269999998,0.10611775965,-0.32592401275,0.19081,-0.085149,-0.007691,0.024369525249999996,-9.704366640499998,1.4127459989999998,3.1243,1.4262,-1.2204,-0.0018000000000000238,0.00010000000000021103,-0.0011799999999999589,-0.05320283381846269,0.012994193763838036,-0.041965956962644047
150000000000.0,-1,-0.0817482344,0.11735618055,-0.30566347385,0.19501,-0.10196,-0.006194,0.0226337482,-9.703287909,1.4199048534999998,3.1256,1.4255,-1.2227,-0.001000000000000112,-0.0015000000000000568,-0.00040000000000006697,-0.002049616793924569,0.0013463358663194924,0.003885010831946367
150000000000.0,-1,-0.01697531115,0.13473356434999997,-0.3159114231,0.18315,-0.11442,-0.003771,0.0244577851,-9.702307244,1.4268675749999997,3.1245,1.4248,-1.2227,0.00020000000000020002,-0.002200000000000202,0.0011900000000000244,0.04872650963243541,-0.0154004497563196,0.03695363400868157
150000000000.0,-1,0.0554860257,0.17428378379999998,-0.38468545954999994,0.17005,-0.12696,0.003448,0.026370081849999998,-9.699561381999999,1.444715678,3.1233,1.4229,-1.2229,-0.0009000000000001229,-0.0011999999999998678,0.00045000000000006146,0.0020007274272411113,-0.002340747126913456,-0.0013554132091759818
150000000000.0,-1,0.09529121804999999,0.198878862,-0.3982676698,0.15926,-0.13586,0.019069,0.026968287499999997,-9.697109719499998,1.4612889165,3.1231,1.4212,-1.2242,-0.0007999999999999119,-0.0013000000000000789,-0.0008600000000000829,-0.004348840269730925,0.0019091453419963766,-0.0012360374683662023
150000000000.0,-1,0.1298204327,0.18290382915,-0.39192276724999997,0.15971,-0.15041,0.026499,0.026693701299999997,-9.694658057,1.477862155,3.1235,1.4195,-1.2261,-0.0020999999999999908,-0.00039999999999995595,-0.0015099999999999003,-0.05359542884282287,0.013560415146689708,-0.038773727881954656
150000000000.0,-1,0.16099577305,0.14614850494999998,-0.35543222259999996,0.16992,-0.16476,0.048496,0.024712757999999998,-9.6920102615,1.495121859,3.1251,1.4177,-1.2294,-0.001000000000000112,-0.0013999999999998458,-0.00029000000000001247,-0.0017734625100673806,0.00014820250992242379,-0.00030085368878518537
150000000000.0,-1,0.15983858835,0.09815475985,-0.35740335924999994,0.17878,-0.17423,0.058374,0.0216726965,-9.689166333,1.5131660949999999,3.1273,1.4159,-1.2335,-0.0005999999999999339,-0.0007999999999999119,0.00029000000000001247,-0.000590710209145362,-0.00429537080491782,-0.00852516140006676
150000000000.0,-1,0.18033448684999998,-0.00601147645,-0.32551213344999996,0.18876,-0.18,0.062198,0.028713871199999998,-9.6888721335,1.515127425,3.1226,1.4156,-1.2309,-0.001100000000000101,-0.00140000000000029,-0.00048000000000003595,-0.0005240296156669988,0.002009850371138544,-0.0016329962659553665
150000000000.0,-1,0.1876404411,0.014356935599999999,-0.32209941924999996,0.19661,-0.19552,0.065037,0.03501954715,-9.6880876015,1.5196384839999997,3.1186,1.4152,-1.229,-0.0018000000000000238,-0.0020999999999999908,-0.0004899999999999904,-0.0037788968739618234,0.003638362357571312,0.007092879536795049
150000000000.0,-1,0.2031349481,0.02346731345,-0.38122371209999995,0.21207,-0.21926,0.070392,0.04182536225,-9.6874992025,1.5234630774999998,3.1141,1.4148,-1.227,-0.0021999999999999797,-0.0026999999999999247,-0.00026999999999999247,-0.0047185904907913745,-0.003075332560341426,-0.009051714666565847
150000000000.0,-1,0.2031349481,0.02346731345,-0.38122371209999995,0.21207,-0.21926,0.070392,0.04182536225,-9.6874992025,1.5234630774999998,3.1141,1.4148,-1.227,-0.0017000000000000348,-0.0017000000000000348,-8.000000000008001e-05,-0.002247101754913494,0.0014612292455766784,0.0011964880233783504
150000000000.0,-1,0.27534131205,0.031773546,-0.4444766046,0.22251,-0.23954,0.076833,0.051769305349999996,-9.6871069365,1.5254244074999999,3.1077,1.4145,-1.2232,-0.0015999999999998238,-0.0017999999999998018,-0.0007999999999999119,-0.0028963565245465617,0.00268393407101164,0.0014413837114304329
150000000000.0,-1,0.324011716,0.11080533834999999,-0.47924117885,0.23287,-0.25738,0.079629,0.06325289249999999,-9.686616604,1.5286606019999998,3.1002,1.4141,-1.2187,-0.0014000000000000679,-0.00140000000000029,-0.0003700000000000925,-0.0022211648161047925,0.0006586924953910778,-0.005424636500839686
150000000000.0,-1,0.3675140154,0.15285625355,-0.4216271100999999,0.25266,-0.2628,0.076361,0.07675664955,-9.68504754,1.5374865869999998,3.0917,1.4132,-1.2132,-0.0015000000000000568,-0.0015999999999998238,-0.00010999999999994348,-0.0024365871202487455,-0.00298650365523212,-0.004153940604895823
150000000000.0,-1,0.39489418219999994,0.23036801515,-0.46596297475,0.26782,-0.27687,0.07917,0.07303012254999999,-9.680732614,1.564749074,3.095,1.4104,-1.2194,-0.0016999999999998128,-0.0016499999999997073,-0.00026999999999999247,-0.0028871177022660177,-0.00044284578409192754,-0.004279075735669657
150000000000.0,-1,0.39564929424999995,0.22817132554999997,-0.50479730875,0.29241,-0.27978,0.083152,0.0692741756,-9.676025421999999,1.5939728909999997,3.0982,1.4074,-1.2257,-0.0017000000000000348,-0.0016500000000001513,-0.00026999999999999247,-0.002885311152021508,-0.00045514547482428114,-0.004277955848992043
150000000000.0,-1,0.39276613915,0.2247095781,-0.5287843746499999,0.31673,-0.27426,0.09062,0.06483176315,-9.670729831,1.625746437,3.1017,1.4041,-1.2323,-0.0020500000000001073,-0.0019500000000003403,-0.0003750000000000142,-0.0028469408537814545,0.00119748351633997,-0.0005326831347094441
150000000000.0,-1,0.37453557679999994,0.19690772534999998,-0.56326455605,0.35068,-0.26367,0.10657,0.059114486200000003,-9.6647477745,1.661050377,3.106,1.4005,-1.2395,-0.0020499999999998852,-0.0019499999999998963,-0.0003750000000000142,-0.0028472849226426344,0.0011959709746880431,-0.0005360480234353204
150000000000.0,-1,0.36924979244999995,0.19025881665,-0.54727971655,0.38104,-0.25556,0.11529,0.051985051649999996,-9.658177318999998,1.699492445,3.111,1.3965,-1.2474,-0.0020499999999998852,-0.0018500000000001293,-0.00029999999999996696,-0.003991388106223237,-5.78687152668067e-05,-0.003338519439511245
150000000000.0,-1,0.342252085,0.16179991835,-0.49587325725,0.40408,-0.24893,0.13114,0.060418770649999995,-9.654352725499999,1.720478676,3.1065,1.3943,-1.2458,-0.0020500000000001073,-0.0018499999999996852,-0.000300000000000078,-0.003991157824866587,-7.114094195181941e-05,-0.0033382491865214803
150000000000.0,-1,0.34020249514999995,0.1446873141,-0.4999037904,0.40956,-0.26823,0.14833,0.050504247499999995,-9.646801605,1.7625492045,3.1129,1.39,-1.2552,-0.0024000000000001798,-0.002200000000000202,-0.0005999999999999339,-0.005301444285262802,0.001297612851747898,0.00041687670422385636
150000000000.0,-1,0.35092116360000003,0.1316640829,-0.47553426514999997,0.40309,-0.29761,0.17152,0.038883367249999995,-9.639152418,1.8041294005,3.12,1.3857,-1.2656,-0.0020999999999999908,-0.0017000000000000348,-0.00017000000000000348,-0.001272479258750181,-0.0013959642956644647,-0.006457502080764677
150000000000.0,-1,0.3278166962,0.11546349709999999,-0.476014791,0.40487,-0.31576,0.18142,0.026674088000000002,-9.631405164499999,1.84561153,3.1271,1.3814,-1.2762,-0.0024500000000000632,-0.0019999999999997797,-0.0003849999999999687,-0.004956916340941753,0.0006900494439523452,-0.003205504097006262
150000000000.0,-1,0.40133715125,0.03800076875,-0.49606939024999996,0.41748,-0.32885,0.20584,0.012866324799999999,-9.623167578499999,1.887976258,3.1348,1.3771,-1.2876,-0.002449999999999841,-0.002000000000000224,-0.0003850000000000797,-0.004958803498865461,0.0006742082314965536,-0.0032086991754796124
150000000000.0,-1,0.57134523565,0.0770606557,-0.40076836555,0.42789,-0.38796,0.23328,0.025252123749999997,-9.6176758545,1.9158271439999999,3.1284,1.3742,-1.2857,-0.0026999999999999247,-0.0020999999999999908,-0.0005399999999999849,-0.005410978571449121,-5.463912964032147e-05,-0.0019923832635386773
150000000000.0,-1,0.6539564552499999,0.09605613674999999,-0.39067732269999994,0.43937,-0.48095,0.26735,0.031234180249999997,-9.610811199499999,1.9500523525,3.1256,1.3706,-1.2882,-0.0028000000000001357,-0.0021999999999997577,-0.0009000000000000119,-0.004667090365401361,0.0032161431773187754,-0.002122456645633708
150000000000.0,-1,0.6539564552499999,0.09605613674999999,-0.39067732269999994,0.43937,-0.48095,0.26735,0.031234180249999997,-9.610811199499999,1.9500523525,3.1256,1.3706,-1.2882,-0.0028999999999999027,-0.0018000000000002458,-2.999999999997449e-05,-0.0035040783213577953,0.0007876831894626513,-0.006918040965680383
150000000000.0,-1,0.73745027335,0.0340094622,-0.4765247368,0.43038,-0.54668,0.29222,0.033931009,-9.6039465445,1.9833949625,3.1245,1.3671,-1.2934,-0.0031000000000001027,-0.0022999999999999687,-0.0008799999999999919,-0.005219371488479396,0.0024051918152345753,-0.0006812569112222278
150000000000.0,-1,0.78060934,-0.0019122967499999998,-0.5740224510999999,0.4144,-0.5834,0.28891,0.03372506935,-9.597376088999999,2.015070442,3.1249,1.3638,-1.3004,-0.0026999999999999247,-0.0015999999999998238,-9.999999999998899e-05,-0.002543823523023292,-0.0007980681640611387,-0.011499216387480082
150000000000.0,-1,0.71567951035,0.041246769899999994,-0.55031977805,0.4221,-0.55263,0.24527,0.019642719949999998,-9.588255904499999,2.0579255025,3.132,1.3594,-1.3139,-0.0030000000000001137,-0.002200000000000202,-0.0005500000000000504,-0.00582787966828846,-0.0001609579263608385,-0.0034390090061142686
150000000000.0,-1,0.4861744804,0.2578756684,-0.32663989819999995,0.42984,-0.48438,0.19872,0.00942419065,-9.5788415205,2.1016631615,3.1371,1.3548,-1.3246,-0.0027999999999999137,-0.0017999999999998018,-0.00047999999999992493,-0.004025328292685426,0.0013870369219666223,-0.006814350570431227
150000000000.0,-1,0.3278951494,0.44346651964999995,-0.1362143685,0.41707,-0.46777,0.18868,0.00055897905,-9.5692310035,2.1446162885,3.1413,1.3503,-1.334,-0.0032000000000000917,-0.002200000000000202,-0.0006900000000000794,-0.006781121428920844,0.002201912211643453,-0.0016383813778193534
150000000000.0,-1,0.1500221317,0.3023390195,-0.016337878899999998,0.38704,-0.4868,0.18734,-0.00516810455,-9.5598166195,2.1863926175,-3.1392,1.346,-1.3421,-0.0025999999999999357,-0.0019999999999997797,-0.0005299999999999194,-0.0038650532228059475,-0.00043404255083090426,-0.005918747835877092
150000000000.0,-1,0.02868445125,0.2544237276,0.018485535249999997,0.37046,-0.50417,0.18015,-0.01207198615,-9.5509906345,2.2247366189999997,-3.1362,1.3419,-1.3507,-0.0022999999999999687,-0.0019000000000000128,-0.0009700000000000264,-0.0029196433261566845,0.00034994675662636254,-0.006614123045654896
150000000000.0,-1,-0.112580342,0.5069841917,0.18282537594999998,0.36915,-0.49915,0.14878,-0.0162594257,-9.542066582999999,2.262394155,-3.1344,1.338,-1.358,-0.0026999999999999247,-0.002000000000000224,-0.00012000000000000899,-0.004083158840297418,-0.0011367566525821715,-0.004521188542546017
150000000000.0,-1,-0.49930558475,0.6750113328,0.43311069725,0.38302,-0.46938,0.10162,-0.0160436794,-9.532848332,2.301228489,-3.1346,1.3339,-1.3631,-0.0023000000000001908,-0.0019999999999997797,-0.0007500000000000284,-0.003844168799898018,0.0016493803654151762,-0.005249701888868419
150000000000.0,-1,-0.8853541686499999,0.5862611503,0.58446653335,0.41059,-0.40773,0.049388,-0.011875853149999999,-9.5227474825,2.3424164189999996,-3.1365,1.3296,-1.3658,-0.0022999999999999687,-0.0022999999999999687,-0.0008599999999999719,-0.005372140983725071,0.0014168538904504313,-0.0025244784740068305
150000000000.0,-1,-1.1296280134999999,0.49210750365,0.6000100736,0.43484,-0.31832,-0.009298,-0.0036873003999999994,-9.5119601675,2.385957945,-3.14,1.325,-1.3659,-0.0018000000000000238,-0.0019000000000000128,-0.00010999999999994348,-0.0029483965564205405,-0.0022374470030552818,-0.007785929733414854
150000000000.0,-1,-1.341941986,0.3295818932,0.6449833704999999,0.43722,-0.27573,-0.038743,0.007060788,-9.50068252,2.4303820695,3.1387,1.3204,-1.3644,-0.0017999999999998018,-0.0026999999999999247,-0.0009400000000000519,-0.004244698884816156,-0.0018361536516153798,0.0004425581688827229
150000000000.0,-1,-1.6083886664999998,0.36109065965,0.6473173532,0.44048,-0.22493,-0.029792,0.016553625199999998,-9.489110672999999,2.47519846,3.1349,1.3156,-1.3631,-0.0017000000000000348,-0.002500000000000391,-0.0005500000000000504,-0.004305817146892377,-0.0002469259371011834,-0.000594488378690361
150000000000.0,-1,-1.9292622544999998,0.20681244185,0.7069123652499999,0.4085,-0.22102,-0.035091,0.025713036300000002,-9.478029158499998,2.517170922,3.1314,1.3112,-1.3619,-0.0017000000000000348,-0.0024999999999999467,-0.00044999999999995044,-0.003562201146411148,-0.0004933019505481973,-0.001355411031956244
150000000000.0,-1,-1.9273989909999998,0.10876555515,0.7477570625,0.38612,-0.28956,-0.012768,0.03494109395,-9.4674379765,2.556789788,3.1279,1.307,-1.3613,-0.0016000000000000458,-0.0027999999999996916,-0.0004899999999999904,-0.0035066928821250176,-0.0003597829059280855,0.001982899615429634
150000000000.0,-1,-1.9273989909999998,0.10876555515,0.7477570625,0.38612,-0.28956,-0.012768,0.03494109395,-9.4674379765,2.556789788,3.1279,1.307,-1.3613,-0.0033000000000000806,-0.0039000000000002366,-0.0013800000000000479,-0.010004797406156118,0.01517149078615776,0.018775581843456735
150000000000.0,-1,-1.627119368,0.02746842665,0.68553386825,0.37681,-0.3844,0.025743,0.04331597305,-9.4570429275,2.59483959,3.1249,1.303,-1.3622,-0.0011999999999998678,-0.0025999999999997137,-0.00027999999999994696,-0.0030190546208468394,-0.0037476025133516,-0.003948072376574796
150000000000.0,-1,-1.508458903,0.3222661323,0.7117176237499999,0.37675,-0.50209,0.085154,0.049621649,-9.446549811999999,2.632497126,3.1227,1.299,-1.3651,-0.0016000000000000458,-0.002500000000000391,-0.00024999999999997247,-0.003374415183448498,-0.00043338705949813594,-0.003403404074614258
150000000000.0,-1,-1.3141891664999998,0.06359612525,0.77722604575,0.38673,-0.62802,0.15805,0.05247538415,-9.4356644305,2.671135327,3.122,1.2949,-1.371,-0.0014000000000000679,-0.0024999999999999467,-0.0006800000000000139,-0.0018687233049916596,-0.0012332038128719525,-0.005882736231801022
150000000000.0,-1,-0.9551284833999999,0.0731183824,0.2501284149,0.38003,-0.68756,0.17204,0.0547603336,-9.4248771155,2.7090870624999996,3.1214,1.2908,-1.3779,-0.0012999999999998568,-0.0023999999999997357,-0.0007400000000000739,-0.003647957204550023,8.028133430482143e-06,-0.006992547087559586
150000000000.0,-1,-0.5392971034499999,0.26747637874999997,0.07197100434999999,0.35534,-0.67961,0.13911,0.0594086857,-9.414383999999998,2.745273601,3.12,1.287,-1.384,-0.0016000000000000458,-0.0026000000000001577,-0.00046999999999997044,-0.0037889845950576095,0.0014110334011736558,-0.005141339676649981
150000000000.0,-1,-0.15646510075,0.26714295265,0.019005287699999998,0.30957,-0.62375,0.079951,0.06877403644999999,-9.4048715495,2.77724328,3.1168,1.2836,-1.3879,-0.0009000000000001229,-0.0024000000000001798,-0.0011099999999999444,-0.0005668090706372197,-0.003970422528648099,-0.007827180878661189
150000000000.0,-1,-0.19299487199999998,0.48707669219999994,0.24846128439999998,0.25498,-0.59834,0.013887,0.08375859764999999,-9.396928162999998,2.803721235,3.1117,1.2807,-1.3893,-0.0015999999999998238,-0.0026999999999999247,-0.0008799999999999919,-0.0016750581763043115,0.0034614021499199676,-0.0024252992107127724
150000000000.0,-1,-0.35477517705,0.77047907055,0.2922185567,0.22012,-0.57858,-0.022956,0.1030875048,-9.390063507999999,2.8260803969999997,3.1051,1.2783,-1.3889,0.00019999999999997797,-0.0019999999999997797,3.999999999992898e-05,0.0008229564579087523,-0.019444654380505133,-0.01629949099055228
150000000000.0,-1,-0.51248572235,0.89198346405,0.2508148804,0.22877,-0.54202,-0.026965,0.12238699199999999,-9.3832969195,2.8475569605,3.0986,1.2759,-1.3883,-0.00039999999999995595,-0.0015000000000000568,-0.00041999999999997595,0.002687017519446,-0.005721467997978236,-0.020724768162196927
150000000000.0,-1,-0.62259478855,0.9208150150499999,0.21789395634999997,0.29091,-0.57054,-0.002865,0.14075484745,-9.3748632005,2.874329115,3.0927,1.273,-1.3883,-0.000400000000000178,-0.0026999999999999247,-0.0009000000000000119,-0.0029732468875030005,-0.004123578451975973,-0.0036583429164758208
150000000000.0,-1,-0.86803562475,0.8778913079999999,0.1326251346,0.37034,-0.566,0.036641,0.1556119222,-9.364173952,2.908456257,3.0881,1.2692,-1.3899,-0.0006999999999999229,-0.0024000000000001798,-0.00043000000000004146,0.0015643086302510323,-0.0022966650040157077,-0.011049362889858028
150000000000.0,-1,-1.166010685,0.946341725,0.050612120649999995,0.44482,-0.55776,0.04595,0.16850766695,-9.350836908,2.9500364529999996,3.0845,1.2647,-1.3924,-0.0038000000000000256,-0.0049000000000001265,-0.0009199999999999209,-0.011515570241457551,0.017468876007145084,0.024604934336203588
150000000000.0,-1,-1.3579268255,0.3815963648,-0.0050013915,0.4903,-0.52244,0.032829,0.18165838459999997,-9.335636600499999,2.997304506,3.0811,1.2596,-1.3948,0.0017000000000000348,-0.0011999999999998678,7.999999999996898e-05,0.006465743123299061,-0.022812960079251043,-0.033688129038784265
150000000000.0,-1,-1.3767555934999998,0.30209385325,-0.0369906838,0.48519,-0.47523,0.002015,0.19635855295,-9.319847893999999,3.0449648249999997,3.0772,1.2544,-1.3962,-0.0006999999999999229,-0.0038000000000000256,-0.0019799999999999818,-0.005185219772825489,0.0009182533960119255,0.0024941874941197817
150000000000.0,-1,-1.3767555934999998,0.30209385325,-0.0369906838,0.48519,-0.47523,0.002015,0.19635855295,-9.319847893999999,3.0449648249999997,3.0772,1.2544,-1.3962,-0.000400000000000178,-0.0030000000000001137,-0.0006300000000000194,-0.0003734105466286497,-0.0013358651001642574,-0.010050622264461406
150000000000.0,-1,-1.4467750744999999,0.22915199054999996,-0.0468365604,0.45384,-0.45188,-0.015581,0.21245126559999997,-9.3046475865,3.0899773484999997,3.0729,1.2495,-1.3968,-0.0007999999999999119,-0.0035999999999996035,-0.0009799999999999809,-0.004102568608627788,-0.00041290020990270015,-0.001118016541838962
150000000000.0,-1,-1.6072118685,0.22816151889999997,-0.0167497582,0.38268,-0.44913,-0.025,0.2297894228,-9.291212475999998,3.128909749,3.0683,1.2452,-1.3969,-9.999999999998899e-05,-0.0035000000000002807,-0.0008200000000000429,-4.0182175804703846e-05,-0.005557782248073018,-0.006379126588820672
150000000000.0,-1,-1.6641885049999998,0.15754383225,0.04298254694999999,0.2985,-0.46268,-0.0091,0.24666666744999996,-9.2805232275,3.1594084305,3.0637,1.2417,-1.3972,-9.999999999998899e-05,-0.0032000000000000917,-0.00017999999999995797,0.0014750328064081497,-0.0019102932097789793,-0.010228459310452909
150000000000.0,-1,-1.617508851,0.10734359089999998,0.02968472955,0.21971,-0.49182,0.013109,0.26249460054999996,-9.2724817745,3.1815714594999998,3.0593,1.2392,-1.398,0.00029999999999996696,-0.0034999999999998366,-0.0016100000000000003,-0.0005744655619173145,-0.0026732316874509277,-0.008153809502722709
150000000000.0,-1,-1.500809716,0.0938692538,0.03166567285,0.19262,-0.52784,0.032503,0.2772143822,-9.265911319,3.1994195624999997,3.0552,1.2372,-1.3996,-0.0012000000000000899,-0.005199999999999871,-0.0020400000000000418,-0.008081944196235424,0.004182561555892139,0.014041488318954354
150000000000.0,-1,-1.4379490895,0.12890841425,-0.00540346415,0.21893,-0.54647,0.045152,0.29158112444999995,-9.258850530999998,3.2184444634999996,3.0512,1.235,-1.4015,-0.0014999999999998348,-0.0047999999999999154,-0.0011099999999999444,-0.0032908463892762363,0.00714765785077498,0.008923905579945934
150000000000.0,-1,-1.4269656414999998,0.12357359664999999,-0.09291800875,0.29477,-0.54043,0.029245,0.30690891839999995,-9.249534213499999,3.243843687,3.0473,1.2321,-1.4034,0.0010999999999998789,-0.0045000000000001705,-0.0023300000000000542,-0.0014941580852645409,-0.006229810606979358,-0.005839355981214656
150000000000.0,-1,-1.4684477710000001,0.18572814434999999,-0.24233212815,0.39602,-0.52394,0.012329,0.32388422955,-9.2365894355,3.2789514939999997,3.0431,1.2281,-1.4051,0.000500000000000167,-0.0047000000000001485,-0.0017499999999999183,-0.0026474783101286814,-0.005038316001250154,-0.003669519138081778
150000000000.0,-1,-1.5250321415,0.2001733398,-0.3465866243,0.47488,-0.49592,-0.021894,0.34304642365,-9.2205065295,3.3220026875,3.0387,1.2233,-1.4061,0.00019999999999997797,-0.0044999999999997264,-0.0010900000000000354,-0.0005351827400863485,-0.0009890181710128232,-0.00648487029598499
150000000000.0,-1,-1.6738970885,0.1370185138,-0.46932665569999993,0.50059,-0.45377,-0.05944,0.36460144035,-9.202462293499998,3.3691726739999996,3.0338,1.218,-1.4061,0.00019999999999997797,-0.0048000000000003595,-0.0006899999999999684,-0.0016538405956825208,-0.0019044700465411513,-0.005812442779926208
150000000000.0,-1,-1.9197498039999998,0.04262950755,-0.5899680639999999,0.4642,-0.42436,-0.10005,0.38892193235,-9.184908389999999,3.4141851975,3.0282,1.2128,-1.405,0.00019999999999997797,-0.005299999999999638,-0.0010500000000001064,-0.0012218312331189196,-0.004707093703648635,-0.004062263959424328
150000000000.0,-1,-2.3872328095,-0.062350680699999994,-0.64611113525,0.38514,-0.40231,-0.13752,0.41649823215,-9.169413882999999,3.4524311324999997,3.0215,1.2083,-1.4026,0.0006999999999999229,-0.005700000000000038,-0.0018799999999999928,-0.010619272620212783,-0.0033910260621703436,-0.0009534398261230592
150000000000.0,-1,-2.5431585445,-0.12133768045,-0.62596827615,0.28043,-0.38481,-0.15482,0.44579069569999996,-9.157253637,3.4808704175,3.0142,1.2048,-1.3992,0.00039999999999995595,-0.00550000000000006,-0.00036999999999998145,0.005631709307278632,-0.005716744086744496,-0.006254533926796313
150000000000.0,-1,-2.5697345659999997,-0.18837593984999998,-0.5931846451999999,0.17973,-0.33941,-0.16885,0.47511257919999994,-9.148819918,3.4990127199999996,3.0066,1.2025,-1.3951,0.000600000000000156,-0.005600000000000271,-0.0009399999999999409,0.0028754632505081368,0.002896274417269362,-0.0070642441380743826
150000000000.0,-1,-2.2757311989999995,-0.19065108265,-0.49544176465,0.1239,-0.35546,-0.1886,0.29921069814999995,-9.167942885499999,3.4683179054999997,3.0555,1.2079,-1.4436,-0.0019000000000000128,-0.009399999999999853,-0.003650000000000042,-0.01968580118081542,0.0080607126811858,0.042768210924369665
150000000000.0,-1,-2.2757311989999995,-0.19065108265,-0.49544176465,0.1239,-0.35546,-0.1886,0.29921069814999995,-9.167942885499999,3.4683179054999997,3.0555,1.2079,-1.4436,0.0041999999999999815,-0.0030000000000001137,0.0005100000000000104,0.020143338907295805,-0.017584301373861688,-0.04855747879389494
150000000000.0,-1,-2.186686817,-0.2558358852,-0.49450032624999996,0.1256,-0.44596,-0.20415,0.3345832847,-9.1628434275,3.4787129544999997,3.0457,1.2064,-1.4379,0.00029999999999996696,-0.00649999999999995,0.0006599999999999939,-0.0029653243914609106,-0.004779263251290189,-0.0018605571598504511
150000000000.0,-1,-1.9708424505,-0.3051044948,-0.48843981654999996,0.16271,-0.49436,-0.20898,0.37313322584999997,-9.1563710385,3.4918538655,3.0351,1.2046,-1.4321,0.0013000000000000789,-0.007099999999999884,-0.0009299999999999864,-0.004927379292500422,-0.01325878140369774,9.77150313694608e-05
150000000000.0,-1,-1.6354550205,-0.46960124189999997,-0.4428094741,0.19708,-0.49574,-0.2085,0.41217349949999993,-9.148329585499999,3.5082309709999997,3.0246,1.2023,-1.4266,0.0023999999999999577,-0.0044999999999999485,0.0013499999999999623,-0.12689760590858667,0.010185818639691924,-0.013064295122541036
150000000000.0,-1,-2.0610636304999996,-0.5364727882499999,-0.38780397424999996,0.19172,-0.48136,-0.21238,0.45109609334999995,-9.139993933,3.525294542,3.0143,1.1999,-1.4211,0.0007999999999999119,-0.007900000000000018,-0.0004999999999999449,0.0015327208487918575,-0.008603606542435083,0.0032420175806424645
150000000000.0,-1,-2.521289715,-0.55161425585,-0.38405783395,0.11,-0.45741,-0.18976,0.48772393109999995,-9.1338157435,3.5363760564999995,3.0045,1.1982,-1.4159,0.0013000000000000789,-0.00770000000000004,-9.999999999998899e-05,-0.006023132733009806,-0.007547434644969986,-0.002933702665993021
150000000000.0,-1,-2.777831679,-0.6143964291499999,-0.32415881575,-0.004236,-0.45402,-0.1348,0.51938960395,-9.132148613,3.5362779899999994,2.9958,1.1977,-1.4117,0.0017000000000000348,-0.008199999999999985,-0.0015600000000000058,0.001039181899782804,-0.001024112003485289,-0.0010466682643057723
150000000000.0,-1,-2.826668796,-0.60466823235,-0.30923309444999997,-0.11571,-0.46288,-0.04594,0.5432295701,-9.135090607999999,3.5250003425,2.9887,1.1986,-1.4094,0.0011999999999998678,-0.008000000000000007,-2.999999999997449e-05,6.412678888567669e-05,-0.004488937896097056,-0.003338352136671663
150000000000.0,-1,-2.7277196975,-0.60123590485,-0.28667779945,-0.21511,-0.42651,0.023191,0.55902808325,-9.1424455955,3.5034257125,2.9834,1.2006,-1.4087,0.0020000000000000018,-0.008199999999999985,-0.0005800000000000249,-0.0009804777271642529,-0.0005174350020489271,-0.006549204056724545
150000000000.0,-1,-2.4951059594999996,-0.68957420805,-0.2852754485,-0.2883,-0.36371,0.058615,0.5680305879499999,-9.1528406445,3.474692228,2.9795,1.2036,-1.409,0.0014000000000000679,-0.008599999999999941,0.00012000000000000899,0.005136983522836314,-0.003277113567055956,-0.002173815166890858
150000000000.0,-1,-2.265728416,-0.9013488147999998,-0.2408120974,-0.36955,-0.27679,0.068324,0.5725906802,-9.166079622,3.4387018225,2.9766,1.2074,-1.4092,0.0020999999999999908,-0.00890000000000013,-0.0009600000000000719,0.0033951061919421655,0.0004428758594001714,-0.0026297308072167347
150000000000.0,-1,-2.2625902879999997,-1.1252150209999998,-0.1934852045,-0.45726,-0.17916,0.072981,0.5730221727999999,-9.1824567275,3.3948660969999995,2.9744,1.2121,-1.4092,0.0020000000000000018,-0.008899999999999908,0.00047000000000008146,-0.0003143256717548226,-0.0005160254632594619,-0.004470626281322776
150000000000.0,-1,-2.5373726210000003,-1.4510900004999998,-0.045934348599999994,-0.49704,-0.086149,0.083163,0.56916815935,-9.20059903,3.34602898,2.9731,1.2174,-1.4091,0.0019000000000000128,-0.009700000000000042,-0.0008900000000000574,0.017193027059121402,0.0013558027218418811,0.001692527128700938
150000000000.0,-1,-2.6624074085,-1.4349090279999999,0.11101127799999999,-0.49118,-0.004071,0.12419,0.55928305615,-9.218839399,3.29699573,2.9736,1.2228,-1.4098,0.0014000000000000679,-0.009500000000000064,0.0018099999999999783,0.007780456849705963,0.0010657309643560264,0.00020246824899050608
150000000000.0,-1,-2.7789104105,-1.347825976,0.14876688049999998,-0.45783,0.055312,0.24291,0.5373455801,-9.2363933025,3.251296741,2.9778,1.2281,-1.4139,0.0004999999999999449,-0.011699999999999822,-0.0017599999999999838,0.052076447779506596,0.009947581976424313,0.01692217032181631
150000000000.0,-1,-2.670743061,-1.2845730834999998,0.18296266905,-0.41108,0.1135,0.41597,0.49742270794999993,-9.253064607499999,3.209912678,2.9879,1.2332,-1.4234,0.0016000000000000458,-0.010000000000000009,0.0012100000000000444,0.010680902889943278,0.0017747503555436417,-0.004438598058514653
150000000000.0,-1,-2.670743061,-1.2845730834999998,0.18296266905,-0.41108,0.1135,0.41597,0.49742270794999993,-9.253064607499999,3.209912678,2.9879,1.2332,-1.4234,0.0019000000000000128,-0.00990000000000002,0.0010399999999999299,0.004428321664506241,0.003683278164204218,-5.059776847149422e-05
150000000000.0,-1,-2.1739381719999997,-1.3291933409999999,0.2171976842,-0.3373,0.17016,0.57979,0.43844551484999994,-9.267970715499999,3.1753932699999994,3.0044,1.2378,-1.4391,0.0019000000000000128,-0.009600000000000053,0.0013500000000000734,-0.0013426564164984445,0.004017330589890511,0.0016491062289496483
150000000000.0,-1,-1.3683218744999999,-1.5575902195,0.23339827,-0.25891,0.23937,0.69778,0.36436608075,-9.280229028,3.148915315,3.0264,1.2416,-1.4599,0.0018999999999997907,-0.00990000000000002,0.0008399999999999519,0.0021547086419351213,0.00815243187074377,-0.0001925665906306051
150000000000.0,-1,-0.23690905069999998,-1.9679004554999997,0.11546349709999999,-0.29234,0.35866,0.77745,0.2780577541,-9.291997008,3.1228296259999997,3.0528,1.2454,-1.4841,0.0019000000000000128,-0.009800000000000031,0.001040000000000041,0.002201292219413231,0.007956592910083549,0.00017235278031391132
150000000000.0,-1,0.65279927055,-2.2321896729999997,0.20110497154999998,-0.51397,0.50152,0.81937,0.18188393754999999,-9.308864446,3.0792881,3.0826,1.2508,-1.5103,0.0019000000000000128,-0.009800000000000031,0.0016100000000000003,0.002715633285578223,0.007824254948874954,0.0014907227458960115
150000000000.0,-1,0.21459892195,-1.242894821,1.5128718954999998,-0.87607,0.59322,0.82884,0.0807871827,-9.335342401,3.0026000969999997,3.1147,1.2595,-1.5376,0.0020999999999999908,-0.009299999999999864,0.0018799999999999928,0.004889092911253501,0.010100631210850919,0.0019285820344618898
150000000000.0,-1,-0.16398680129999998,-0.6484451179499999,2.618963949,-1.2911,0.61582,0.81089,-0.019917306149999998,-9.3729018705,2.8841357649999995,-3.1347,1.2723,-1.5662,0.0021999999999999797,-0.009200000000000097,0.0020900000000000363,0.008319772257719071,0.008871247729534959,0.0017722445570260703
150000000000.0,-1,-0.0045698989,-0.2341435754,3.234625436,-1.6694,0.56589,0.78003,-0.1166402951,-9.419679591,2.7249738354999997,-3.0988,1.289,-1.5971,0.0025000000000001688,-0.008799999999999919,0.0017399999999999638,0.01339881895609829,0.010676697557099324,0.0021718474904179885
150000000000.0,-1,0.7477178358999998,-0.09329066145,3.1772565335,-1.9441,0.45987,0.74895,-0.2067830219,-9.471262569999999,2.534430626,-3.0602,1.3085,-1.6318,0.0024999999999999467,-0.008399999999999963,0.0020499999999999963,0.016135493409197732,0.008451887545248615,0.0013543560086834994
150000000000.0,-1,1.8155051144999999,-0.04884692365,2.8227461359999997,-2.1107,0.34134,0.72913,-0.2908063991,-9.5231397485,2.3227050525,-3.017,1.3298,-1.6723,0.0020999999999999908,-0.008000000000000007,0.0026599999999999957,0.02083593212459478,0.007365383479295939,-0.00026612369436262995
150000000000.0,-1,2.7183053134999997,-0.2996127708,2.4618614159999996,-2.1396,0.21245,0.71251,-0.36975973825,-9.571192333499999,2.1036244914999997,-2.9676,1.3512,-1.7204,0.0022999999999999687,-0.007900000000000018,0.0020499999999999963,0.02132540269420735,0.007108550481369713,-0.000731609089102303
150000000000.0,-1,3.34406765,-0.23597741895,2.055866106,-2.0316,0.01904,0.66497,-0.44077949754999995,-9.612380263499999,1.8914085855,-2.9126,1.3714,-1.7757,0.0018000000000000238,-0.007600000000000051,0.0025800000000000267,0.02107810688918832,0.00508662462467635,-0.0020790420136638232
150000000000.0,-1,3.7235850049999994,-0.14059794105,1.5952477555,-1.8277,-0.25325,0.55967,-0.49803072024999995,-9.6455267405,1.698707913,-2.8564,1.3893,-1.835,0.0018000000000000238,-0.007500000000000062,0.0020899999999999253,0.019141822265484443,0.005753503371333624,-0.0026019329917259526
150000000000.0,-1,3.8939265154999996,-0.18431598675,1.2021972235,-1.5476,-0.42329,0.5105,-0.5445926944499999,-9.6706317645,1.5336619935,-2.8004,1.4041,-1.8961,0.0015000000000000568,-0.00749999999999984,0.0023400000000000087,0.019126820628604158,0.005990180296143954,-0.005765780958965294
150000000000.0,-1,3.6558210535,-0.09686028205,0.83765462305,-1.278,-0.37721,0.44972,-0.58676128945,-9.6888721335,1.3973495585,-2.744,1.4156,-1.9575,0.0011999999999998678,-0.007300000000000084,0.0023000000000000798,0.01729591517325968,0.0026133182667171795,-0.007243901851783363
150000000000.0,-1,3.6558210535,-0.09686028205,0.83765462305,-1.278,-0.37721,0.44972,-0.58676128945,-9.6888721335,1.3973495585,-2.744,1.4156,-1.9575,0.001100000000000101,-0.007400000000000073,0.0020699999999999052,0.013825094202579491,0.005487758995952108,-0.006457548272651881
150000000000.0,-1,3.2625743884999996,0.09770365395,0.78232550375,-1.0756,-0.14708,0.39987,-0.6262624756499999,-9.702209177499999,1.2828078865,-2.6874,1.4247,-2.0171,0.0010999999999998789,-0.00749999999999984,0.0020700000000000163,0.013075024053620599,0.005480101279415894,-0.004426358823537591
150000000000.0,-1,2.30064009,0.5055916474,0.70577479385,-0.96942,0.13684,0.3636,-0.6660970879499999,-9.7126042265,1.1795438619999998,-2.6275,1.4322,-2.0769,0.0009000000000001229,-0.007400000000000073,0.0018400000000000638,0.011807717607020818,0.010173933048656991,-0.002677151040656689
150000000000.0,-1,1.7351886509999999,0.4623050943,1.1666971505,-0.86237,0.32068,0.29627,-0.702352273,-9.721136012,1.0847135565,-2.567,1.4386,-2.1349,0.0008999999999999009,-0.007500000000000062,0.0020000000000000018,0.010971660428804597,0.005704319719398221,0.001101058159228785
150000000000.0,-1,1.4872765389999998,0.2184137088,1.3630262835,-0.77292,0.32626,0.23484,-0.7320762291499999,-9.728000667,0.9998860339999999,-2.5096,1.4441,-2.1891,0.0005500000000000504,-0.006099999999999994,0.005909999999999971,0.04341353225122946,-0.024352630380535478,-0.01530941107600814
150000000000.0,-1,0.77363681185,-0.1339196124,1.4587391874999998,-0.714,0.21233,0.18912,-0.7552297297999999,-9.733982723499999,0.92224678595,-2.4554,1.4489,-2.2411,0.0005500000000000504,-0.007099999999999884,9.999999999998899e-05,0.005569209433117672,0.025026891373308713,-0.004847832176968936
150000000000.0,-1,0.46020647119999997,0.29817119325,1.12776475,-0.66944,0.16048,0.19165,-0.77653958025,-9.738787982,0.85026597495,-2.4015,1.4531,-2.2936,0.0023999999999999577,-0.007100000000000106,0.0025000000000000577,0.000769567360956902,-0.0013124105883191017,-0.014387344655638401
150000000000.0,-1,0.39882664884999997,0.66819571105,0.9416149197,-0.65984,0.16547,0.20976,-0.79940868805,-9.7428087085,0.7802661072499999,-2.3441,1.4566,-2.3497,-0.0006999999999999229,-0.009099999999999886,0.0008599999999999719,-0.010865777028616685,0.00967303382962803,0.022563136371565484
150000000000.0,-1,0.283804451,0.96031620125,0.9973363049999999,-0.70573,0.14484,0.1962,-0.82129713085,-9.7465352355,0.7070594649999999,-2.2816,1.4601,-2.4109,0.0032999999999998586,-0.0051000000000001044,0.0026800000000000157,0.010413335421592285,-0.006678216358528388,-0.035024656716454494
150000000000.0,-1,1.1414940599999999,1.166402951,0.7114332309,-0.76358,0.032607,0.26197,-0.84685326075,-9.74977143,0.6284199386499999,-2.2092,1.4631,-2.483,0.00039999999999995595,-0.007400000000000073,0.0020199999999999108,0.00633065088358209,0.0006211785841498951,0.0008026746406981644
150000000000.0,-1,0.9070955116999999,0.5751796358,0.48151632164999997,-0.80481,-0.17963,0.35344,-0.88076465645,-9.75173276,0.5466422843,-2.1263,1.4649,-2.5678,0.00010000000000021103,-0.007199999999999873,0.001980000000000093,0.006417955940621445,0.0014765314294271636,-0.00295669061868864
150000000000.0,-1,1.5559230889999998,-0.3468219839,0.50032547635,-0.80348,-0.38219,0.45377,-0.9237177834499999,-9.751928892999999,0.4660316213,-2.0381,1.4651,-2.6601,-5.0000000000105516e-05,-0.007200000000000095,0.0016999999999999238,0.005829432456627703,0.004784347288935731,-0.002586949969361818
150000000000.0,-1,2.1546190715,-0.7457368926,0.2659171214,-0.75537,-0.51176,0.52002,-0.97441816395,-9.7502617625,0.39084403575,-1.9523,1.4635,-2.7516,-5.0000000000105516e-05,-0.006999999999999895,0.0016300000000000203,0.006275828901956437,0.004566890624198239,-0.004602535920276374
150000000000.0,-1,2.3707576374999997,-0.49493181885,0.159259996,-0.6881,-0.54471,0.51177,-1.0262659225,-9.747417833999998,0.3228741446,-1.8756,1.4609,-2.8345,-0.00039999999999995595,-0.007100000000000106,0.0016399999999999748,0.007879717492071947,0.0032399690058968478,-0.004632843235254924
150000000000.0,-1,2.197474132,0.06322347254999999,0.28211770719999996,-0.59632,-0.49541,0.43049,-1.0717687784999999,-9.7443777725,0.26406366454999997,-1.8124,1.458,-2.9036,-9.999999999998899e-05,-0.006599999999999939,0.0012100000000000444,0.004314740118567695,0.007829288457090966,-0.009309735516468187
150000000000.0,-1,2.066065022,0.5516044492,0.40679945529999995,-0.53652,-0.43817,0.28852,-1.1049152555,-9.74192611,0.2120982262,-1.7605,1.4558,-2.9607,-0.0005999999999999339,-0.006900000000000128,0.0018599999999999728,0.011128641287675212,-0.0008691809544842943,-0.0025888503631952275
150000000000.0,-1,2.066065022,0.5516044492,0.40679945529999995,-0.53652,-0.43817,0.28852,-1.1049152555,-9.74192611,0.2120982262,-1.7605,1.4558,-2.9607,-0.00019999999999997797,-0.006699999999999928,0.0009000000000000119,0.00018220111328903776,0.007259599488806501,-0.006763253754471066
150000000000.0,-1,1.6224121759999999,0.8825004335,0.81949270725,-0.49827,-0.35462,0.095356,-1.119331031,-9.7412396445,0.16363376189999998,-1.716,1.4552,-3.0096,-0.0005999999999999339,-0.006799999999999917,0.0013199999999999878,0.006090971504456366,-0.00038888287101146446,-0.003082162444605352
150000000000.0,-1,1.4607005174999999,1.072651377,1.017538004,-0.42107,-0.14782,-0.096619,-1.1135451075,-9.742514509,0.12065121494999999,-1.6787,1.4563,-3.0493,-0.000400000000000178,-0.00670000000000015,0.0008900000000000574,0.005369600964282073,0.0011675254428662463,-0.0016751362279885385
150000000000.0,-1,1.2039624205,1.281729155,1.1821916575,-0.39302,0.097023,-0.23806,-1.092068544,-9.7453584375,0.07909063224999999,-1.6431,1.4589,-3.0848,-0.00039999999999995595,-0.006699999999999928,0.0008699999999999264,0.004436394989404846,-0.0013940294688707944,0.0013026048842785798
150000000000.0,-1,1.2472097469999999,1.5111066985,1.1249208215,-0.41848,0.20792,-0.30133,-1.0619621284999998,-9.7488888315,0.03392120235,-1.6027,1.4622,-3.1233,-0.00019999999999997797,-0.006799999999999917,0.00039000000000000146,0.003422085611382464,0.0007371295614153617,0.0018463136646014178
150000000000.0,-1,1.571613729,1.8082481934999999,1.0178322034999998,-0.44713,0.1854,-0.31704,-1.0292079175,-9.752517292,-0.013866603099999998,-1.5573,1.4656,3.1163,-0.00019999999999997797,-0.006599999999999939,0.0006599999999999939,0.0036526673326082726,-0.004506151158818694,-0.0001868893254899362
150000000000.0,-1,1.0844193569999998,1.818741309,1.2127884055,-0.46657,0.14125,-0.31066,-0.9964537065,-9.75565542,-0.06361573855,-1.507,1.4688,3.0674,-0.0052000000000000934,-0.010200000000000209,0.0003300000000000525,0.012238104237414893,0.0010599328396090346,0.06475379358623812
150000000000.0,-1,0.64624842835,1.737542247,1.695373652,-0.47107,0.12641,-0.28284,-0.9661707713,-9.7583032155,-0.11415921265,-1.4532,1.4714,3.0146,-0.00039999999999995595,-0.006199999999999983,-0.0016500000000000403,-0.010648132009693612,0.01701563492168434,-0.0011472716060607624
150000000000.0,-1,0.5897327044,1.5868140365,1.5334658605,-0.45849,0.11454,-0.25964,-0.9382414320999999,-9.7602645455,-0.1633395624,-1.3984,1.4735,2.9609,0.00019999999999997797,-0.006699999999999928,0.0020299999999999763,0.020594477913964404,-0.022595528581376367,0.0021118089634848403
150000000000.0,-1,0.5515652226,1.4941411939999998,1.2574086629999999,-0.43311,0.12356,-0.23055,-0.913391381,-9.761735542999999,-0.21050954889999998,-1.3443,1.4751,2.9078,-0.00029999999999996696,-0.006699999999999928,0.0003500000000000725,0.005336160411988811,-0.0016395299207601077,0.0025247607255316495
150000000000.0,-1,0.510141933,1.4051948785,1.0364648385,-0.39309,0.13544,-0.20474,-0.89112047885,-9.7628142745,-0.25381571529999997,-1.2933,1.4762,2.858,-0.00029999999999996696,-0.006600000000000161,-9.999999999998899e-05,0.002161565288510081,-0.002623461700684393,-0.0009694053155770987
150000000000.0,-1,0.27167362494999997,1.283102086,0.8366053115,-0.32644,0.12048,-0.19641,-0.86991850155,-9.763696872999999,-0.29072794589999995,-1.2483,1.4771,2.8141,-0.00039999999999995595,-0.006799999999999917,9.99999999995449e-06,0.007378530690522966,-0.0010916708629047367,0.002677247846128772
150000000000.0,-1,0.07244172355,1.047938619,0.55810625815,-0.27864,0.11809,-0.16686,-0.8513054798499999,-9.764285272,-0.3221288392,-1.2091,1.4778,2.776,-0.00039999999999995595,-0.007099999999999884,-0.00017000000000000348,0.006747059168544567,-0.003080870695120197,0.0008778063496555077
150000000000.0,-1,-0.32202096604999997,0.85040326805,-0.021270623849999996,-0.23164,0.14107,-0.13888,-0.83557561325,-9.764775604499999,-0.34863621414999996,-1.1755,1.4783,2.7438,-0.000300000000000189,-0.007000000000000117,-0.00029000000000001247,-0.002018036436621129,-0.0013009103326602212,0.0007479229420370714
150000000000.0,-1,-0.5035420575499999,1.2140632699999998,-0.2354968931,-0.19069,0.16142,-0.10734,-0.8231407810499999,-9.7649717375,-0.3709855695,-1.1474,1.4786,2.7172,-0.0005999999999999339,-0.007199999999999873,-0.0006099999999999994,0.0010911378231679425,-0.00040840036962963566,-0.0013800375216677097
150000000000.0,-1,-0.52792138945,1.7227342055,-0.47453398685,-0.12551,0.15227,-0.07264,-0.8140304032,-9.7651678705,-0.38723518855,-1.1268,1.4787,2.6982,-0.0004999999999999449,-0.007400000000000073,-0.0005499999999999394,-0.00159552193172674,-0.0007322747561235854,0.00031130939370527244
150000000000.0,-1,-0.52792138945,1.7227342055,-0.47453398685,-0.12551,0.15227,-0.07264,-0.8140304032,-9.7651678705,-0.38723518855,-1.1268,1.4787,2.6982,-0.0005999999999999339,-0.007600000000000051,-0.0009400000000000519,0.0003907659123263407,-0.0009026433928016608,-0.0019769502852557963
150000000000.0,-1,-0.6707356334,1.5738692584999998,-0.73721491375,-0.034253,0.13311,-0.049483,-0.80768550065,-9.765364003499998,-0.39450191619999997,-1.1164,1.479,2.6893,-0.0008000000000001339,-0.007800000000000029,-0.0010700000000000154,-0.0016236768217721131,-0.00035707101658855045,-0.0009995020385940023
150000000000.0,-1,-0.75216024835,1.5063014399999999,-1.0566665375,0.061608,0.12647,-0.066145,-0.8012229182999999,-9.766050469,-0.3917168276,-1.1161,1.4797,2.6902,-0.0008999999999999009,-0.008099999999999996,-0.0011499999999999844,-0.003762799809859718,4.38187818523339e-05,0.000550935913696371
150000000000.0,-1,-0.8325061317999999,1.6050544055,-1.2239679865,0.14075,0.14607,-0.10506,-0.7906121229999999,-9.7673253335,-0.38011556064999996,-1.1226,1.4812,2.6983,-0.0012000000000000899,-0.008499999999999952,-0.0012199999999999989,-0.0030876952529514945,-0.0007248959055925486,0.0008690156917179337
150000000000.0,-1,-0.9857644579999999,1.735384784,-1.460210185,0.19004,0.17796,-0.12891,-0.7771181725999999,-9.7690905305,-0.36258127045,-1.1343,1.4832,2.7118,-0.0011999999999998678,-0.008599999999999941,-0.0013499999999999623,0.0006547739289539667,-0.0014115716162463876,0.001881879908073536
150000000000.0,-1,-0.981449532,1.7147908189999999,-1.5651413399999998,0.21819,0.21883,-0.14595,-0.7611137198,-9.7710518605,-0.34212459855,-1.1484,1.4856,2.7282,-0.0012000000000000899,-0.008800000000000141,-0.0012900000000000134,-0.0002380025857611212,-0.001721197290621701,5.444246502772643e-05
150000000000.0,-1,-0.8843833103,1.5692601329999998,-1.6169204519999998,0.23265,0.26523,-0.15002,-0.74456990125,-9.773111257,-0.32013808925,-1.1647,1.4881,2.7473,-0.0016000000000000458,-0.009199999999999875,-0.0015399999999999858,-0.005296958483134606,-0.0017228521401229102,0.004145473403147193
150000000000.0,-1,-0.5873987217,1.0628447269999999,-1.524737942,0.24192,0.31984,-0.14104,-0.7286733215999999,-9.7749745205,-0.29737685459999996,-1.1833,1.4905,2.7693,-0.0015000000000000568,-0.009200000000000097,-0.0015100000000000113,-0.0028696336570290804,-0.00020928836977729404,0.002654971277832985
150000000000.0,-1,-0.5538403653999999,0.72246571215,-1.3857777114999998,0.24861,0.37932,-0.14781,-0.71238447595,-9.776837784,-0.27455678005,-1.2029,1.4929,2.7928,-0.0015999999999998238,-0.009399999999999853,-0.0013199999999999878,-0.0010868659161067384,-0.0009788419584009223,0.004770712567113478
150000000000.0,-1,-0.5902034236,0.38727441514999994,-1.2973217284999998,0.24682,0.43483,-0.14139,-0.696076017,-9.778701047499998,-0.25172689885,-1.2238,1.4952,2.8183,-0.0017000000000000348,-0.009700000000000042,-0.0012300000000000644,-0.0021036343115130585,-0.001149232745910611,0.005219776476035776
150000000000.0,-1,-0.64685644065,0.042394147949999995,-1.205433418,0.24749,0.4504,-0.11875,-0.6820721208,-9.780172044999999,-0.22930889695,-1.2465,1.4974,2.8459,-0.0020000000000000018,-0.00990000000000002,-0.0012599999999999278,-0.006423246447859299,-0.001492244925796582,0.004144769911810009
150000000000.0,-1,-0.6983119331999998,-0.38683311589999997,-1.2012165584999999,0.24789,0.39699,-0.086706,-0.67102002625,-9.7814469095,-0.20639075589999997,-1.2724,1.4991,2.8763,-0.0018000000000000238,-0.00990000000000002,-0.0009600000000000719,0.002171361279514228,-0.0016966951057753032,0.005329674850375277
150000000000.0,-1,-0.6448754973499999,-0.8214050039999999,-1.2943797334999998,0.24347,0.26355,-0.040365,-0.6650477764,-9.782329507999998,-0.18284498924999998,-1.3025,1.5004,2.9097,-0.0019000000000000128,-0.010299999999999976,-0.0009599999999999609,-0.003574689672583231,2.1966978020371286e-05,0.0033758692160654746
150000000000.0,-1,-0.7671546162,-1.156988567,-1.4993387185,0.24011,0.097581,-0.003176,-0.66352774565,-9.782917907,-0.15860295045,-1.3362,1.5012,2.9449,-0.0021999999999999797,-0.010499999999999954,-0.0008299999999999974,-0.0013420430376036574,-0.0012990614309789095,0.0029445500378457723
150000000000.0,-1,-0.93221034235,-1.3023231199999998,-1.7286181955,0.24207,-0.001447,-0.007767,-0.6632237394999999,-9.783310172999998,-0.1335077331,-1.3721,1.5018,2.9812,-0.0022999999999999687,-0.010900000000000132,-0.0006699999999999484,-0.0040433957926655495,0.0002023416934415767,0.0018117769040539855
150000000000.0,-1,-0.93221034235,-1.3023231199999998,-1.7286181955,0.24207,-0.001447,-0.007767,-0.6632237394999999,-9.783310172999998,-0.1335077331,-1.3721,1.5018,2.9812,-0.0025000000000001688,-0.011099999999999888,-0.0008500000000000174,-0.0009532928155351339,0.0004449250106046687,-0.0013183534201108849
150000000000.0,-1,-1.051665146,-1.2198491935,-2.0299765499999998,0.25466,-0.046674,-0.052677,-0.6591343664499999,-9.783898572,-0.10673557859999999,-1.4103,1.5027,3.019,-0.0031999999999998696,-0.011900000000000022,-0.0007300000000000084,0.011872308229027295,-0.001452803921646817,0.009300720397825923
150000000000.0,-1,-1.2720205715,-0.85734637625,-2.423811614,0.31375,-0.08793,-0.11747,-0.6487687374000001,-9.784879237,-0.07543275179999999,-1.455,1.5041,3.0631,-0.0026999999999999247,-0.011800000000000033,-0.0006399999999999739,-0.003930476461865284,0.0007641504662889709,-0.0003390698570022721
150000000000.0,-1,-1.3594958895,-0.34267377095,-2.7803814079999998,0.45636,-0.13383,-0.1931,-0.6307245013999999,-9.786252167999999,-0.03072423445,-1.5221,1.5064,3.129,-0.0029000000000001247,-0.0121,-0.0005700000000000705,2.0912326722521968e-05,-0.002379138460876895,-0.0018128010743376777
150000000000.0,-1,-1.2617235889999998,-0.05302455655,-3.0205462665,0.59093,-0.15421,-0.32094,-0.6007063457499999,-9.788213498,0.02884135765,-1.6188,1.5094,-3.059,-0.0025999999999999357,-0.011900000000000022,-0.0006399999999999739,-0.01898762192201553,-0.00247966459116844,-0.009642897413488338
150000000000.0,-1,-1.1616957589999999,-0.07219655729999999,-3.0705601815,0.67993,-0.16615,-0.46876,-0.55538000945,-9.790370960999999,0.0986156724,-1.7465,1.5132,-2.9328,-0.0033000000000000806,-0.012599999999999945,-0.00029000000000001247,-0.008503081570844007,-0.0042671253681316745,-0.0017853257470759054
150000000000.0,-1,-1.019303201,-0.3519998951,-2.8769769105,0.74008,-0.23196,-0.64388,-0.4926468694,-9.792724557,0.1760293675,-1.914,1.5174,-2.7673,-0.0033999999999998476,-0.012599999999999945,0.00019000000000002348,-0.005308118993787803,-0.0027568023221449245,-0.0008052338436117523
150000000000.0,-1,-0.8814609286,-0.8397434395,-2.4902026344999997,0.77909,-0.28743,-0.83266,-0.40945705744999994,-9.794685887,0.25807180139999997,-2.1332,1.5214,-2.5508,-0.0032000000000000917,-0.01220000000000021,0.00019000000000002348,-0.009917316937671616,-0.009221374989822007,-0.0015728099209728619
150000000000.0,-1,-0.8196005804,-1.179739995,-1.8668919605,0.59983,-0.3131,-0.87683,-0.31645078885,-9.796058818,0.32886600775,-2.3754,1.5242,-2.3115,-0.0035000000000000586,-0.0118999999999998,0.0011399999999999189,-0.00922800129798862,-0.009153325647083266,-0.0005987842831149948
150000000000.0,-1,0.6456698359999999,-1.8317841535,0.1789909758,0.18898,-0.39436,-0.72361,-0.23431028845,-9.797235616,0.36150253894999995,-2.5665,1.5269,-2.1242,-0.0035000000000000586,-0.01100000000000012,0.0015800000000000258,-0.0079988087985301,-0.012482566034482723,0.003252323992233741
150000000000.0,-1,1.826586629,-2.9038471314999996,1.5439589759999999,-0.36852,-0.58325,-0.34345,-0.18535549165,-9.799098879499999,0.3386628511,-2.6408,1.5314,-2.0554,-0.0038999999999997925,-0.010599999999999943,0.0027000000000000357,0.0013900838974505447,-0.007966369079721591,-0.0002709101522109236
150000000000.0,-1,3.913441749,-5.9061530289999995,3.0597728665,-0.69457,-0.92397,0.10573,-0.1820506506,-9.801158275999999,0.2732721089,-2.5539,1.5373,-2.1513,-0.0038000000000000256,-0.009600000000000053,0.0027199999999999447,0.009543735888202454,-0.005350096864897846,-0.0037057112496650113
150000000000.0,-1,5.3077512460000005,-7.759315679499999,3.540985182,-0.59671,-1.175,0.46552,-0.21947282699999998,-9.8020408745,0.207704847,-2.3287,1.54,-2.3887,-0.0032000000000000917,-0.008799999999999919,0.00279000000000007,0.007748095506505903,-0.0009612195413213342,-0.010267658465887841
150000000000.0,-1,5.682855608499999,-7.4544269309999995,3.956394876,-0.15305,-1.1884,0.669,-0.28274533279999997,-9.8008640765,0.18184471095,-2.1423,1.5365,-2.588,-0.0028999999999999027,-0.008299999999999974,0.0024799999999999267,0.010005854163352756,0.003419718147212425,-0.013932022796554477
150000000000.0,-1,4.7520083904999995,-4.5849030745,3.4998953184999997,0.45876,-1.0058,0.71798,-0.35554990239999995,-9.797824015,0.21669754504999997,-2.1182,1.5283,-2.6235,-0.0027000000000001467,-0.008099999999999996,0.0018299999999999983,0.004557821639107562,0.006424774047991688,-0.013324478887621005
150000000000.0,-1,2.2110073089999998,-0.61631853255,3.5699147995,1.1591,-0.70455,0.60405,-0.420705285,-9.792332291,0.3221876791,-2.2244,1.5167,-2.5255,-0.0025999999999999357,-0.008199999999999985,0.0013199999999999878,0.0007188103015027814,0.005832605880175201,-0.011169276114666005
150000000000.0,-1,2.2110073089999998,-0.61631853255,3.5699147995,1.1591,-0.70455,0.60405,-0.420705285,-9.792332291,0.3221876791,-2.2244,1.5167,-2.5255,-0.0026999999999999247,-0.008500000000000174,0.0006099999999999994,-0.008939713715037101,0.006815694972384101,-0.007124601689297627
150000000000.0,-1,-0.6571436165,4.698562148,3.901673769,1.8265,-0.27821,0.27737,-0.4578136486,-9.783310172999998,0.49857989264999997,-2.3988,1.5017,-2.355,-0.0028000000000001357,-0.008599999999999941,0.00012000000000000899,-0.014908016137909375,0.004941117897946601,-0.0019159543223619124
150000000000.0,-1,-0.7607802936999999,5.7350269865,3.5612849474999995,2.1878,0.18818,-0.18515,-0.45173352559999996,-9.769776996,0.7200238563,-2.5813,1.484,-2.1712,-0.0026999999999999247,-0.008899999999999908,-0.00046999999999997044,-0.02097153520649253,-0.00011843585060455908,0.0023843146286282035
150000000000.0,-1,-0.8421656820499999,6.2924369725,2.9285598895,2.1224,0.54504,-0.6627,-0.39877761559999997,-9.7530076245,0.9436252829499999,-2.7418,1.4661,-2.005,-0.0024999999999999467,-0.009100000000000108,-0.0007500000000000284,-0.02634996207020346,-0.0013688047688817928,0.00735547674402337
150000000000.0,-1,-0.51478047845,6.282728389,2.4525450984999995,1.7755,0.7951,-0.92476,-0.3157152901,-9.735453720999999,1.1361004024999999,-2.8705,1.4503,-1.8674,-0.0024000000000001798,-0.009099999999999886,-0.0008399999999999519,-0.024456169159571717,-0.00534153435450424,0.009104039438944334
150000000000.0,-1,-0.040805470649999995,5.579199318,2.322606986,1.2653,0.87725,-0.88467,-0.23228031189999998,-9.720155346999999,1.2786890935,-2.9619,1.4379,-1.766,-0.0018999999999997907,-0.008800000000000141,-0.0006099999999999994,-0.0166878049390089,-0.0060267708497465655,0.005082940090474608
150000000000.0,-1,0.36328734925,4.3893584735,2.1618759924999997,0.75933,0.77161,-0.60125,-0.17280297965,-9.709171899,1.3685180075,-3.016,1.4297,-1.7026,-0.0013000000000000789,-0.00770000000000004,-0.0014499999999999513,-0.019482797296537457,-0.011021967592652171,0.018196980914069627
150000000000.0,-1,0.9280817427,2.789599659,2.092150711,0.34598,0.44308,-0.19793,-0.14965928565,-9.7031898425,1.4128440654999999,-3.0361,1.4254,-1.6765,-0.0012000000000000899,-0.00749999999999984,-0.0004900000000001015,-0.00841811364713263,-0.0049567549423576995,0.008839977527158815
150000000000.0,-1,1.323113218,1.6837037385,2.3378072934999996,0.18909,-0.00812,0.19133,-0.16166262525,-9.699757515,1.434712895,-3.0294,1.423,-1.6821,-0.0010999999999998789,-0.007000000000000117,-0.00017000000000000348,-0.0036899128517524638,-0.0004987805437628445,0.0027814699581840685
150000000000.0,-1,1.6476152665,0.77864801,2.7945029839999997,0.25924,-0.3854,0.5044,-0.20167375724999997,-9.695442588999999,1.4590333869999998,-3.0042,1.42,-1.7108,-0.000500000000000167,-0.006000000000000005,-0.0004899999999999904,-0.009447573190675351,0.0023817859460140145,-0.010368619634016696
150000000000.0,-1,1.6372202174999997,-0.3958552339,3.196183368,0.47078,-0.61631,0.72708,-0.26280841335,-9.687205002999999,1.5033594449999998,-2.9685,1.4145,-1.7531,-0.0012999999999998568,-0.006299999999999972,-3.999999999992898e-05,-0.000492623179822349,0.003226501707990437,-0.005458646933423239
150000000000.0,-1,1.334881198,-1.122469159,2.8521660859999995,0.68047,-0.78125,0.84532,-0.3357404694,-9.6741621585,1.5709272635,-2.931,1.4062,-1.7991,-0.0016000000000000458,-0.006099999999999994,-0.00021000000000004349,-0.00396659896482654,0.004980668225117224,-0.006511792906898961
150000000000.0,-1,1.6157436539999999,-1.2133768045,1.675956485,0.76924,-0.87541,0.8659,-0.410114103,-9.6576869865,1.652616658,-2.8983,1.3963,-1.8416,-0.0018000000000000238,-0.006399999999999961,0.00014999999999998348,-0.007084246564102337,0.00465505543446576,-0.009255662310460266
150000000000.0,-1,1.4340264294999998,-1.0454869565,0.059575398749999994,0.69095,-0.87619,0.81312,-0.48007474409999995,-9.6408195485,1.730677592,-2.871,1.3866,-1.8789,-0.0023999999999999577,-0.006799999999999917,0.0005300000000000304,-0.017966333185823302,0.0055916469248649125,-0.008288435115430204
150000000000.0,-1,0.8627302270999999,-0.7696945385499999,-0.1796774413,0.53191,-0.79905,0.67875,-0.53815953205,-9.626109573499999,1.794224684,-2.8502,1.3786,-1.9091,-0.0020000000000000018,-0.005900000000000016,-0.0009500000000000064,-0.008865372001308547,0.011783618839003696,-0.009491234217423816
150000000000.0,-1,0.7084225893499999,-0.07371658805,-0.29065929934999996,0.38921,-0.69334,0.50689,-0.5806321332,-9.6145377265,1.842081136,-2.8362,1.3725,-1.9311,-0.0018000000000000238,-0.006000000000000005,-0.00046999999999997044,-0.005803449328580568,0.004761766738381246,-0.00859163641127747
150000000000.0,-1,0.7084225893499999,-0.07371658805,-0.29065929934999996,0.38921,-0.69334,0.50689,-0.5806321332,-9.6145377265,1.842081136,-2.8362,1.3725,-1.9311,-0.0015000000000000568,-0.006199999999999983,-0.000280000000000058,-0.004403662151740706,0.004190132779436695,-0.007337575097599469
150000000000.0,-1,0.6761881308,0.48424257034999996,-0.07379504124999998,0.24751,-0.58034,0.33254,-0.6072081547,-9.60659434,1.8748353469999999,-2.8284,1.3685,-1.9457,-0.0014999999999998348,-0.006000000000000005,-0.00034999999999996145,-0.0036935197308816115,0.0028021271879068443,-0.006873205958767947
150000000000.0,-1,0.6995475710999999,0.8671824462000001,0.40767224714999994,0.17151,-0.49211,0.18349,-0.619191881,-9.6013968155,1.8974887084999998,-2.8262,1.3658,-1.9536,-0.001100000000000101,-0.006099999999999994,-0.0004899999999999904,-0.002959932860485903,0.0015052754068023422,-0.005126688626302389
150000000000.0,-1,0.67796313445,1.157380833,0.6675975054,0.13453,-0.40054,0.069807,-0.6205059720999999,-9.5978664215,1.9148464789999997,-2.8282,1.3641,-1.9561,-0.0010999999999998789,-0.006199999999999983,-0.00031000000000003247,-0.0032645457177404857,0.00038818758265901643,-0.00549445676092386
150000000000.0,-1,0.5386008312999999,1.1088379154999999,1.042839161,0.16633,-0.3156,-0.009167,-0.6144650757,-9.594630227,1.9329887815,-2.8338,1.3625,-1.9541,-0.0009000000000001229,-0.006100000000000216,-0.0007000000000000339,-0.001126388075565643,0.00018137233297843558,-0.0023969237919478914
150000000000.0,-1,0.32592401275,1.5169906885,1.070690047,0.25044,-0.25825,-0.065391,-0.60335414125,-9.590217234499999,1.9578976725,-2.8427,1.3603,-1.948,-0.0007999999999999119,-0.006199999999999983,-0.0007899999999999574,-0.00034150059100324093,0.0008658727949322209,-0.0031682084818553946
150000000000.0,-1,0.03178335265,1.5744576575,0.9792332290999999,0.3701,-0.20366,-0.091018,-0.5900857438,-9.583646779,1.993888078,-2.8539,1.3571,-1.9389,-0.000600000000000156,-0.00649999999999995,-0.0006800000000000139,-0.0021814007144986824,0.004416229861206489,-0.005959777032669145
150000000000.0,-1,-0.14139227969999998,1.3508660375000001,0.9182652860499999,0.49618,-0.15995,-0.09114,-0.577023286,-9.5741343285,2.042725195,-2.8663,1.3526,-1.928,-0.0008999999999999009,-0.006399999999999961,-0.0006599999999999939,-0.0055976065078824355,-0.005684253488901891,-0.00024217333666953778
150000000000.0,-1,-0.41253634554999996,1.3032057185,0.6990964652,0.60186,-0.13015,-0.091339,-0.5644511606999999,-9.561974082499999,2.10254576,-2.8793,1.3469,-1.9161,-0.0009000000000001229,-0.006699999999999928,-0.0006099999999999994,-0.004268342661361668,-9.68559434455507e-06,-0.002812618571392811
150000000000.0,-1,-0.58305437575,1.279571692,0.57379689815,0.67015,-0.11967,-0.084552,-0.5528498937499999,-9.5474602405,2.1703097115,-2.8922,1.3404,-1.9043,-0.0006999999999999229,-0.00670000000000015,-0.0009899999999999354,-0.00475716474357557,0.00028392120048237324,-0.00023205544434024006
150000000000.0,-1,-0.64899429035,1.185035586,0.5306966714,0.70315,-0.11621,-0.090171,-0.5410721071,-9.531671534,2.2418001899999997,-2.9048,1.3334,-1.8926,-0.0005999999999999339,-0.006699999999999928,-0.0015500000000000513,-0.0040689183556976705,0.0017413843294924458,-0.00010316346635708129
150000000000.0,-1,-0.7677332085499999,1.1366888014999998,0.43844551484999994,0.70059,-0.11133,-0.10712,-0.52768602985,-9.5150982955,2.3141732669999997,-2.9174,1.3263,-1.8809,-0.0005999999999999339,-0.006899999999999906,-0.0007800000000000029,-0.009117317009238013,-0.004033922849992155,0.0001398547201345579
150000000000.0,-1,-0.8233761406499999,0.80672444895,0.19281835229999997,0.6595,-0.089408,-0.13445,-0.51274069525,-9.498917323,2.38301595,-2.9297,1.3196,-1.8693,-0.001000000000000112,-0.007600000000000051,-0.0014800000000000368,-0.0008746399105397096,-4.9490995990497666e-05,-0.01079103301785711
150000000000.0,-1,-0.7905532831,0.53708080055,0.08493539565,0.57844,-0.043258,-0.16988,-0.4949808520999999,-9.484207348,2.444405579,-2.9418,1.3137,-1.8574,-0.00039999999999995595,-0.006399999999999961,-0.00031999999999998696,-0.018282780074038163,-0.0070385808019357565,0.013201674455705081
150000000000.0,-1,-0.7839632142999999,0.40169019064999995,0.08271909274999999,0.45202,0.002712,-0.20352,-0.4749360595,-9.472439368,2.493634962,-2.9534,1.309,-1.8455,-0.00019999999999997797,-0.006570000000000076,-0.0016399999999999748,-0.009743150890685559,-0.007139119710983577,0.005922942156939115
150000000000.0,-1,-0.7839632142999999,0.40169019064999995,0.08271909274999999,0.45202,0.002712,-0.20352,-0.4749360595,-9.472439368,2.493634962,-2.9534,1.309,-1.8455,-9.999999999998899e-05,-0.00719000000000003,-0.0011999999999999789,-0.005410785936516227,0.0014949573979528008,0.0015106586353272888
150000000000.0,-1,-0.7279770494499999,0.4025629825,0.1352337035,0.29776,0.074254,-0.21262,-0.45521488635,-9.464495981499999,2.5272717714999997,-2.9634,1.3059,-1.8345,-9.999999999998899e-05,-0.007120000000000015,-0.0012499999999999734,-0.0035566187764211055,-0.001620528122937781,0.00010862883488549357
150000000000.0,-1,-0.72193615305,0.49763845425,0.18672842264999998,0.14248,0.066307,-0.26634,-0.43207119234999997,-9.4607694545,2.5450218079999996,-2.9734,1.3044,-1.8232,0.0015999999999998238,-0.004949999999999899,-0.0043600000000000305,-0.004208702991745472,3.0929311249927594e-05,-0.006444632317897714
150000000000.0,-1,-0.7482768149499999,0.62031964575,0.3259142061,0.075049,-0.00543,-0.32398,-0.40078797885,-9.459886856,2.5535535934999998,-2.9859,1.3041,-1.8101,-0.0016999999999998128,-0.009040000000000048,0.0017899999999999583,-0.003446880212034653,-0.00886064268127229,0.01257727903707817
150000000000.0,-1,-0.7486004344,0.7589758701,0.41989133305,0.11967,-0.057064,-0.35153,-0.3645524071,-9.458415858499999,2.5641447754999995,-3.0004,1.3035,-1.7957,-0.000400000000000178,-0.007489999999999997,-0.0013299999999999423,-0.007844407570117617,0.001227967450008638,-0.0020479424761656873
150000000000.0,-1,-0.6877795911,0.9071935782,0.54063080785,0.23381,-0.0995,-0.35661,-0.32615937235,-9.454198998999999,2.58503294,-3.0161,1.3019,-1.7803,0.0052000000000000934,-0.005299999999999971,-0.0015899999999999803,0.02010376672164793,-0.005061935112763871,0.03487497292473307
150000000000.0,-1,-0.27066354,0.8351735405999999,0.44649677449999997,0.34969,-0.16023,-0.33253,-0.28793305065,-9.446353679,2.6178852175,-3.032,1.2989,-1.7654,0.0013000000000000789,-0.006670000000000065,-0.0011600000000000499,0.030239957019332575,-0.0022827220622738675,-0.006895526780772876
150000000000.0,-1,-0.3704167838,0.66096821,-0.14141189299999998,0.40926,-0.22394,-0.29835,-0.25102082005,-9.4360566965,2.658778948,-3.0475,1.295,-1.7517,-0.00019999999999997797,-0.007719999999999949,-0.0012499999999999734,-0.00713730122854872,-0.005103917409082115,-0.001933415163539287
150000000000.0,-1,-0.7076282506999999,0.59939225465,-0.21175499345,0.36814,-0.28492,-0.22946,-0.2178841497,-9.425661647499998,2.6982997474999997,-3.061,1.2911,-1.7406,-0.0014000000000000679,-0.00992000000000004,-0.003029999999999977,-0.06584017097140316,-8.985366294078645e-05,0.01823408442397767
150000000000.0,-1,-0.9265911319,0.53329543365,-0.11655203524999999,0.25874,-0.32164,-0.12334,-0.19344597789999998,-9.4176201945,2.728013897,-3.0708,1.2882,-1.7339,-0.0013000000000000789,-0.008950000000000014,-0.0018200000000000438,-0.02752113027312686,0.016775755755698007,-0.001960906499571813
150000000000.0,-1,-0.9986111695,0.5391009704499999,-0.14457944094999997,0.12657,-0.33604,-0.023854,-0.17920672209999997,-9.413011069,2.7444890689999997,-3.0764,1.2865,-1.7318,0.0005999999999999339,-0.008309999999999929,-0.0015399999999999858,0.0019131664916112179,0.0031683266697424273,-0.003974390280323092
150000000000.0,-1,-1.105993987,0.38940245819999997,-0.1257408663,0.056429,-0.36867,0.015365,-0.16952755854999998,-9.411049739,2.7520401894999997,-3.0801,1.2858,-1.732,0.000300000000000189,-0.00819000000000003,-0.0019200000000000328,-0.010116582847159439,-0.002174982015321403,-0.0008516158339988422
150000000000.0,-1,-1.292908736,0.13626340174999999,0.015288567349999999,0.057363,-0.35891,0.006818,-0.15976013514999998,-9.409480675,2.7581203125,-3.0837,1.2852,-1.7322,0.0007999999999999119,-0.008079999999999976,-0.0011200000000000099,-0.0009406504540010463,-0.0004751417687134385,-0.004602621267953744
150000000000.0,-1,-1.760489808,0.05339720925,1.0838309579999998,0.081443,-0.26606,-0.027857,-0.1493160529,-9.407225145499998,2.7661617654999997,-3.0877,1.2844,-1.7314,0.001000000000000112,-0.008080000000000087,-0.0012099999999999334,-0.00024725754343513096,-0.0026533653251530342,-0.0030526242927351177
150000000000.0,-1,-2.249449377,0.23046608165,1.3986244229999998,0.063741,-0.092172,-0.077474,-0.1387640975,-9.405165749,2.7737128859999998,-3.0916,1.2837,-1.7289,0.0010999999999998789,-0.008779999999999899,-0.0012300000000000644,0.002757814873590947,0.006590711073991562,-0.00472362566076967
150000000000.0,-1,-2.707616065,0.36459163370000003,1.3532196335,-0.008503,0.13798,-0.11298,-0.1306834179,-9.404969615999999,2.7749877505,-3.0945,1.2836,-1.7249,0.005400000000000071,-0.005950000000000011,0.0006599999999999939,0.09545646789370466,-0.0007627108546410799,-0.015799505943810743
150000000000.0,-1,-2.707616065,0.36459163370000003,1.3532196335,-0.008503,0.13798,-0.11298,-0.1306834179,-9.404969615999999,2.7749877505,-3.0945,1.2836,-1.7249,0.0019000000000000128,-0.009060000000000068,-0.0009399999999999409,0.004515792693711607,0.003828557035634894,0.0020215317560410284
150000000000.0,-1,-2.707616065,0.36459163370000003,1.3532196335,-0.008503,0.13798,-0.11298,-0.1306834179,-9.404969615999999,2.7749877505,-3.0945,1.2836,-1.7249,0.0008999999999999009,-0.010159999999999947,-0.0014199999999999768,-0.017649271599705862,0.0005392080124451137,0.007844788633689426
150000000000.0,-1,-3.0101512175,0.1126587952,1.2033740215,-0.15243,0.49865,-0.11039,-0.13055593145,-9.4084019435,2.7630236375,-3.0944,1.2848,-1.7206,0.0023999999999999577,-0.00819000000000003,0.00040999999999991044,0.025567253660569778,0.005808625720855831,0.002197136685634149
150000000000.0,-1,-3.106158321,-0.2282595854,1.0505864145,-0.3559,0.576,-0.12505,-0.14773718225,-9.426348113,2.7004572104999998,-3.0869,1.2914,-1.7135,0.0017000000000000348,-0.009759999999999991,-0.0007800000000000029,-0.004918731639655283,-0.005878093926617423,0.008685889576075745
150000000000.0,-1,-2.8973747425,-0.73925469695,0.7814919384999999,-0.37018,0.25778,-0.1424,-0.1429417304,-9.437135428,2.662701608,-3.088,1.2954,-1.7087,0.001000000000000112,-0.011120000000000019,-0.0010899999999999244,-0.02081442466344785,0.0035367347900916446,0.005763147887428488
150000000000.0,-1,-2.2525875049999997,-1.2387760279999998,0.6312932871,-0.3798,-0.01699,-0.13144,-0.13071283784999999,-9.447922743,2.624847939,-3.0918,1.2995,-1.7042,-0.000400000000000178,-0.008889999999999953,0.0013299999999999423,-0.046337210575586596,-0.04278420770555802,0.006655166233002774
150000000000.0,-1,-1.0419565625,-1.4419698159999998,0.7784812969499999,-0.40854,-0.15327,-0.12749,-0.11403172619999999,-9.459298457,2.584444541,-3.0975,1.3038,-1.6998,0.005300000000000082,-0.00884000000000007,-0.00036999999999998145,0.052520096816969675,0.0016555253370267309,-0.003072013222104708
150000000000.0,-1,-1.9367153085,-1.0105752825,0.90908626165,-0.41421,-0.13194,-0.092978,-0.09972382384999999,-9.4707722375,2.5425701455,-3.1024,1.3083,-1.6963,0.0020999999999999908,-0.010679999999999912,0.0005600000000000049,0.01931522745373715,0.0004906790170078335,-0.011926978469932514
150000000000.0,-1,-2.8320624535,-0.8992207717499999,0.6934380281499999,-0.35137,-0.071324,-0.0208,-0.09331027474999999,-9.480873086999999,2.5051087425,-3.1044,1.3123,-1.6952,-0.0026999999999999247,-0.013060000000000072,-0.0008799999999999919,-0.05051572331357934,-0.008815378714501998,-0.013347122599464356
150000000000.0,-1,-3.267771913,-0.6436104394999999,0.5154571373,-0.27074,-0.030776,0.059121,-0.09608555669999999,-9.488522274,2.475786859,-3.1028,1.3154,-1.6973,0.0013999999999998458,-0.01085999999999998,0.0015800000000000258,0.007431133422566516,0.018969083462399894,-0.009077542360500068
150000000000.0,-1,-1.337234794,-0.8604060510499999,-0.5319715359,-0.24807,0.058751,0.14358,-0.10902052805,-9.494994663,2.4502895689999997,-3.0971,1.318,-1.7028,0.0023000000000001908,-0.011059999999999959,0.00027999999999994696,0.009050976071361294,-0.0010903268230069152,-0.0028306113029126223
150000000000.0,-1,-1.337234794,-0.8604060510499999,-0.5319715359,-0.24807,0.058751,0.14358,-0.10902052805,-9.494994663,2.4502895689999997,-3.0971,1.318,-1.7028,0.006699999999999928,-0.007199999999999984,-0.0020499999999999963,0.013256500131495708,-0.0009695126150104372,-0.038546493299047135
150000000000.0,-1,-0.9914523149999999,-0.8816374482999999,-0.31177301679999997,-0.28652,0.21887,0.23946,-0.13549848304999998,-9.501859318,2.4221444835,-3.0857,1.3208,-1.7126,0.0025999999999999357,-0.011030000000000095,4.999999999999449e-05,0.005837202360626348,-0.001971076749238021,0.0026314433845966434
150000000000.0,-1,-0.93801587915,-0.7332039938999999,0.31793159299999996,-0.51304,0.6941,0.43423,-0.23484965419999998,-9.521472617999999,2.3360420965,-3.0414,1.329,-1.7471,0.0022999999999999687,-0.011329999999999951,0.0009700000000000264,0.006015614046691153,0.005383395448371964,0.00208139602035029
