Time,placement_label,user_acc_x(m/s^2),user_acc_y(m/s^2),user_acc_z(m/s^2),rotation_rate_x(rad/s),rotation_rate_y(rad/s),rotation_rate_z(rad/s),gravity_x(m/s^2),gravity_y(m/s^2),gravity_z(m/s^2),attitude_roll(rad),attitude_pitch(rad),attitude_yaw(rad),target_delta_x,target_delta_y,target_delta_z,target_delta_roll,target_delta_pitch,target_delta_yaw
150000000000.0,-1,-0.046660040699999995,0.1488257204,0.036206151799999996,0.011451,0.000414,-0.002119,-0.33641712825,-9.706229903999999,1.35920169,-2.899,1.4275,0.39083,0.0,0.0,0.0,0.0,0.0,0.0
150000000000.0,-1,-0.027831272699999996,0.1720282543,-0.01134629405,0.017848,-0.001732,-0.002122,-0.33698591394999994,-9.705837638,1.3610649535,-2.8989,1.4273,0.39076,-5.999999999994898e-05,2.0000000000131024e-05,-2.0000000000020002e-05,0.0006996206876284106,6.257199048675943e-06,-0.00044715826489838406
150000000000.0,-1,-0.03605905205,0.17229303385,-0.0268309944,0.024246,-0.002818,-0.002122,-0.33774102599999994,-9.7055434385,1.3632224165,-2.8987,1.4271,0.3906,-4.999999999999449e-05,2.0000000000131024e-05,1.0000000000065512e-05,-0.0003416131419351487,-0.00016398195503408708,0.0004717578932700306
150000000000.0,-1,-0.03621595845,0.17190076785,-0.029665116249999998,0.030641,-0.004973,-0.001062,-0.33757431295,-9.705151172499999,1.366066345,-2.8993,1.4268,0.39116,-0.000140000000000029,1.9999999999686935e-05,-6.0000000000060005e-05,-0.0008355793276910717,-0.00011043043386282925,0.00034736575550486926
150000000000.0,-1,-0.0477976121,0.1304676716,0.005462304049999999,0.033839,-0.007098,-0.002129,-0.33856478459999995,-9.7045627735,1.3699890049999999,-2.8993,1.4264,0.3911,-0.00017000000000000348,2.0000000000131024e-05,-9.999999999998899e-05,-7.219018661874799e-05,-8.351006365558966e-05,-0.00031311639981135286
150000000000.0,-1,-0.0274390067,0.1312718169,0.037069136999999995,0.035973,-0.006054,-0.001062,-0.3390158905,-9.703876307999998,1.3747942635000001,-2.8998,1.4259,0.39153,-9.999999999998899e-05,2.0000000000131024e-05,-4.0000000000040004e-05,-0.0011235962373374875,0.00013362912238457092,0.0004437659247427117
150000000000.0,-1,-0.027517459899999996,0.13077167774999998,0.03350932305,0.035974,-0.005002,4e-06,-0.33894724395000003,-9.7033859755,1.3783246575,-2.9005,1.4256,0.39214,-0.00012999999999996348,9.999999999976694e-05,-7.999999999996898e-05,-0.00028325769855896965,-9.153904495762255e-05,-0.0004933809055982508
150000000000.0,-1,-0.031842192549999995,0.12274003139999999,0.02352615335,0.033838,-0.006054,2e-06,-0.33971216265,-9.702699509999999,1.3830318494999998,-2.9007,1.4251,0.39236,-0.000200000000000089,4.999999999988347e-05,-9.999999999998899e-05,0.0004062508967734857,0.0004066463397147668,0.0005747056736202794
150000000000.0,-1,-0.03227368515,0.1441185284,0.009688970199999999,0.034903,-0.006066,0.001066,-0.3406241811,-9.702111110999999,1.3871506424999998,-2.9008,1.4246,0.39238,-5.999999999994898e-05,5.000000000032756e-05,-5.999999999994898e-05,0.00021835922098834004,-0.0003639461422084711,-0.00015923156601904687
150000000000.0,-1,-0.03213639205,0.14359877594999998,0.0061389629,0.037037,-0.005022,0.002132,-0.34076147419999997,-9.701522712,1.3907791029999998,-2.9013,1.4243,0.39283,-7.00000000000145e-05,4.999999999988347e-05,-2.0000000000020002e-05,-0.0005335653912883487,5.651901203385101e-05,0.00013455408946061453
150000000000.0,-1,-0.03456844125,0.11859181844999998,-0.0240066792,0.038095,-0.007163,0.004255,-0.3414675529999999,-9.700934313,1.3947998295,-2.9015,1.4238,0.39297,-7.00000000000145e-05,4.999999999988347e-05,-9.00000000000345e-05,-0.0009759248867773351,-1.745967448218977e-05,-0.00030359695485904226
150000000000.0,-1,-0.0011375714,0.13221325529999997,-0.0171027976,0.040227,-0.00718,0.00532,-0.3419774988,-9.700345914,1.3988205559999998,-2.9018,1.4234,0.39322,-0.00021999999999999797,0.00010000000000021103,-0.00012000000000000899,-0.0028430396353416043,0.00028028627077825163,0.00035022328348022214
150000000000.0,-1,-0.0025693423,0.1475508559,-0.01197391965,0.043421,-0.007217,0.008511,-0.34279145075,-9.6996594485,1.403331615,-2.902,1.423,0.39334,-0.00029000000000001247,4.999999999988347e-05,-0.00021999999999999797,-0.0017806859059765756,-0.0005903427457811805,0.0009292144961818849
150000000000.0,-1,-0.0017259703999999998,0.1736365449,-0.022368968649999998,0.04658,-0.006095,0.011658,-0.3439388288,-9.698972982999999,1.4078426739999998,-2.902,1.4225,0.39326,-3.999999999992898e-05,4.999999999988347e-05,-7.00000000000145e-05,-0.00020766581654729777,-0.0004953112476118182,0.0004445325675670464
150000000000.0,-1,0.009914523149999998,0.16530089239999998,-0.0293414968,0.048707,-0.006128,0.01485,-0.34510582014999996,-9.6982865175,1.4124517994999999,-2.902,1.422,0.39316,-0.00021999999999999797,-0.00019999999999997797,-3.999999999992898e-05,0.00019148043648797852,-0.00012562230085877424,0.001316703345970005
150000000000.0,-1,0.0224572285,0.1689489662,-0.0420313019,0.048705,-0.005084,0.01698,-0.3462728115,-9.697600051999999,1.416864792,-2.9019,1.4215,0.39304,0.0006799999999999029,-0.0017000000000000348,0.00026999999999999247,0.01965746588023287,-0.022124107793497494,0.03812061684493773
150000000000.0,-1,0.01220927925,0.1778337911,-0.0539758016,0.050832,-0.005116,0.020171,-0.34799878189999994,-9.6969135865,1.4211797179999999,-2.9015,1.421,0.39254,-0.00020999999999993246,-0.00019999999999997797,-0.0001300000000000745,-0.0019735520655788097,-0.0027098639012603787,0.0021080472691663577
150000000000.0,-1,0.01058137535,0.1556511488,-0.0336956494,0.051897,-0.004076,0.022301,-0.3499601119,-9.6961290545,1.4260830429999998,-2.9009,1.4205,0.39198,0.0006199999999999539,-9.999999999976694e-05,-0.00022999999999995246,0.005155126972155033,-0.0035332775216319057,-0.007192087934316804
150000000000.0,-1,0.0129643913,0.15483719685,-0.038638201,0.050826,-0.003035,0.025494,-0.35234312785,-9.695246456,1.430986368,-2.9002,1.4199,0.39117,-0.0012099999999999334,0.0024999999999999467,-0.0001100000000000545,-0.023962764933052272,0.03654165723266467,-0.03831392318518323
150000000000.0,-1,-0.013552790299999999,0.10721610444999999,-0.0510926465,0.048693,0.000131,0.028692,-0.35545183589999996,-9.694658057,1.434516762,-2.8987,1.4195,0.38968,-1.0000000000065512e-05,1.6666666666775853e-05,1.0000000000065512e-05,-0.00011960464489391143,0.00012309175867986077,0.00027854489285350503
150000000000.0,-1,-0.013837183149999998,0.13088935754999997,-0.045404789499999994,0.046559,0.001192,0.029758,-0.35875667694999996,-9.693971591499999,1.4385374884999997,-2.8972,1.419,0.38817,-4.999999999999449e-05,1.6666666666331764e-05,-5.000000000032756e-06,0.0007572570797815814,-0.0002109134667407364,-2.3929707402503553e-05
150000000000.0,-1,0.00010787314999999999,0.157102533,-0.04064856425,0.045493,0.003301,0.03189,-0.3620811313,-9.6931870595,1.442558215,-2.8957,1.4185,0.38668,-3.999999999992898e-05,1.6666666666775853e-05,-5.000000000032756e-06,-0.0012636522188058663,-0.00025415038876674956,0.0008285659468680873
150000000000.0,-1,0.008090486249999999,0.15958361545,-0.0548780134,0.043359,0.004362,0.032955,-0.3652780992,-9.6925986605,1.4461866755,-2.8942,1.4181,0.38521,1.999999999990898e-05,1.6666666666775853e-05,-9.99999999995449e-06,-5.631109638759568e-05,-0.00031544488645396385,-0.0005941185916169545
150000000000.0,-1,0.012523092049999998,0.17521541555,-0.0463462279,0.042292,0.005419,0.034021,-0.3685142937,-9.691912194999999,1.4499132025,-2.8927,1.4176,0.38377,-2.999999999997449e-05,1.6666666666331764e-05,2.0000000000020002e-05,-2.4704411242026936e-05,-0.0002974838439109284,3.554323058563291e-05
150000000000.0,-1,0.011993532949999998,0.18021680705,-0.04777799879999999,0.041228,0.006484,0.034023,-0.371868168,-9.6912257295,1.4536397294999999,-2.8911,1.4172,0.38225,-2.999999999997449e-05,1.6666666666775853e-05,9.99999999995449e-06,0.001189807968586365,0.00035368801987423204,0.0001040300193964061
150000000000.0,-1,0.03133224675,0.13989186225,-0.07883565934999999,0.04123,0.007544,0.034025,-0.3747513231,-9.6906373305,1.4563855915,-2.8897,1.4168,0.3809,5.999999999994898e-05,2.4999999999941735e-05,2.999999999997449e-05,0.0016125225187009207,0.0005676210410021643,-0.0008770441163783449
150000000000.0,-1,0.0107677017,0.10635311925,-0.04314926,0.039096,0.008605,0.035091,-0.3781248107,-9.6900489315,1.4596217859999998,-2.8881,1.4164,0.37934,-0.00029000000000001247,2.4999999999941735e-05,-9.999999999998899e-05,-0.0006022955573676825,-0.00024160464864753095,0.0024430296265920415
150000000000.0,-1,-0.0202213123,0.07042155365,-0.047081726649999996,0.038031,0.008617,0.034027,-0.38215534384999994,-9.6894605325,1.4626618475,-2.886,1.416,0.37733,-5.999999999994898e-05,2.5000000000385825e-05,-8.999999999992347e-05,-0.0007905853739726965,0.0011824195273035798,0.002246542199556556
150000000000.0,-1,0.006992141449999999,0.061811314949999994,-0.04243337455,0.033772,0.009719,0.030837,-0.38527385855,-9.6888721335,1.4653096429999999,-2.8845,1.4157,0.37587,-9.999999999998899e-05,2.4999999999941735e-05,-1.0000000000065512e-05,-8.85374009556017e-05,0.0005777288389678947,0.0008067723163902585
150000000000.0,-1,0.027713592899999997,0.09740945445,-0.033960428949999996,0.028429,0.011973,0.028681,-0.38774513434999996,-9.688381801,1.4677613054999998,-2.8833,1.4154,0.37479,-9.999999999998899e-05,4.999999999988347e-05,-9.999999999998899e-05,-0.00044899247894392147,-2.1474748370664543e-05,-0.00015512926812122352
150000000000.0,-1,0.0559567449,0.11109953785,-0.044914457,0.025235,0.013062,0.026555,-0.3895005247,-9.6880876015,1.469820702,-2.8825,1.4151,0.37412,-9.999999999998899e-05,4.999999999988347e-05,-4.0000000000040004e-05,0.0004807610652513006,0.0005999458571943617,0.00033622190984350375
150000000000.0,-1,0.0671167126,0.15779880515,-0.06122291595,0.023101,0.014123,0.02762,-0.39107939534999997,-9.687793401999999,1.4712916994999998,-2.8818,1.4149,0.37349,-0.00019999999999997797,5.000000000032756e-05,-9.999999999998899e-05,-0.0011693803686085857,-0.00045087999241788523,0.0008053552316442669
150000000000.0,-1,0.045179236549999995,0.16836056719999998,-0.0956148375,0.024174,0.015195,0.025495,-0.3930897586,-9.687597269,1.4721742979999999,-2.8807,1.4148,0.37248,-5.0000000000105516e-05,4.999999999988347e-05,-7.999999999996898e-05,-0.00011434868028192824,0.0003469861472502611,-0.0005180953544527966
150000000000.0,-1,0.04768973895,0.16788984799999998,-0.09800766009999999,0.026307,0.013082,0.023364,-0.395600261,-9.6871069365,1.474527894,-2.8795,1.4145,0.37142,-4.999999999988347e-05,3.333333333355171e-05,-7.999999999996898e-05,-0.000928412457465555,-0.0005236884055939139,0.00030931599261574405
150000000000.0,-1,0.018005009399999997,0.16321207595,-0.08552379464999998,0.028448,0.012053,0.018043,-0.39748313779999994,-9.68700887,1.474331761,-2.8782,1.4145,0.3703,-0.00019999999999997797,3.333333333310762e-05,-9.00000000000345e-05,-0.0001780041335033289,9.256643983412971e-05,0.0007839870159527251
150000000000.0,-1,0.0089044382,0.15556288894999998,-0.086690786,0.03059,0.011024,0.012723,-0.3990129752,-9.6867146705,1.4759008249999999,-2.8776,1.4143,0.36973,-4.999999999988347e-05,3.333333333355171e-05,-5.999999999994898e-05,-0.0002944315521897778,-0.00024411623504172475,7.303779700729152e-05
150000000000.0,-1,0.025565936549999998,0.14950237924999998,-0.0611346561,0.031664,0.009999,0.007403,-0.39965040744999997,-9.6863224045,1.478254421,-2.8775,1.414,0.3698,-5.0000000000105516e-05,9.999999999976694e-05,-4.999999999999449e-05,-0.00017682363939108825,-0.00024992376915022874,0.0001499157393032302
150000000000.0,-1,0.032754211,0.14112750014999997,-0.07312818905,0.031675,0.010039,0.002084,-0.39967002074999997,-9.686028205,1.4802157509999998,-2.8779,1.4138,0.37023,-9.999999999998899e-05,5.000000000032756e-05,-4.999999999999449e-05,-0.00013065896776964792,1.6838906491400962e-07,-5.445905137957396e-06
150000000000.0,-1,0.037461403,0.10960892704999999,-0.06885248965,0.027411,0.009019,-0.001111,-0.399130655,-9.685832072,1.4818828814999998,-2.8785,1.4137,0.37095,-5.0000000000105516e-05,4.999999999988347e-05,-2.0000000000020002e-05,0.00018794997954696413,-0.0002247038618408137,-0.0001753326839168956
150000000000.0,-1,0.020848937899999996,0.09060363935,-0.0675089786,0.022089,0.011194,-0.005362,-0.39853244935,-9.685635938999999,1.4830596795,-2.8791,1.4136,0.37165,-5.0000000000105516e-05,4.999999999988347e-05,-4.0000000000040004e-05,-0.00030574932929283705,9.521670754697453e-05,-0.00021732945299079987
150000000000.0,-1,0.0251834772,0.0778255744,-0.0721573307,0.01783,0.012295,-0.008552,-0.39748313779999994,-9.685635938999999,1.4836480785,-2.8798,1.4135,0.37253,-9.999999999998899e-05,4.999999999988347e-05,2.0000000000020002e-05,0.00052183438710518,-0.00045378628956593836,0.0007030068821951563
150000000000.0,-1,0.019789819699999996,0.07073536644999999,-0.041315416449999996,0.012506,0.012356,-0.013872,-0.3961298201,-9.6855378725,1.4844326104999999,-2.8808,1.4135,0.37364,-9.999999999998899e-05,4.999999999988347e-05,-9.99999999995449e-06,-0.0003489161514185213,-0.00021443499019602186,0.0005445313706398114
150000000000.0,-1,0.0071392412,0.07106879255,-0.03943253965,0.007178,0.012402,-0.017064,-0.39469804919999996,-9.6855378725,1.4846287434999998,-2.8817,1.4135,0.37471,-9.999999999998899e-05,5.000000000032756e-05,1.999999999990898e-05,0.0006669698394841106,-8.343354358752997e-05,1.0741085055832045e-05
150000000000.0,-1,0.01466094175,0.08828926995,-0.045806862149999995,0.000788,0.01352,-0.021318,-0.39264845935,-9.6857340055,1.484138411,-2.883,1.4136,0.37606,-3.333333333332966e-05,-0.00010000000000021103,0.000140000000000029,0.0013605792672741757,-0.002027900530761295,-0.00014006295574064964
150000000000.0,-1,0.02544825675,0.09543831779999999,-0.049523582499999996,-0.00454,0.013565,-0.02451,-0.3901183436499999,-9.686028205,1.4830596795,-2.8844,1.4138,0.37762,-3.333333333332966e-05,0.00010000000000021103,-2.999999999997449e-05,-0.00041962145003271445,-0.0009654208860756519,0.0007586151598286683
150000000000.0,-1,0.020525318449999996,0.1011850147,-0.0565451439,-0.009868,0.014662,-0.026637,-0.38743132155,-9.686420470999998,1.481392549,-2.8858,1.414,0.3792,-3.333333333332966e-05,9.999999999976694e-05,-6.0000000000060005e-05,-0.0007091218621750883,-0.000822893382329104,0.0007225864904585322
150000000000.0,-1,0.03195987235,0.1213867137,-0.06561629514999999,-0.01306,0.014794,-0.028775,-0.38435203344999996,-9.686812736999999,1.4792350859999999,-2.8874,1.4143,0.38096,-9.999999999998899e-05,5.000000000032756e-05,-2.0000000000020002e-05,-0.0016512460578308463,-0.00034536898936377014,-0.0010203507738195672
150000000000.0,-1,0.038648007649999996,0.15134602945,-0.07014696744999999,-0.014127,0.014798,-0.028776,-0.38116487219999995,-9.687303069499999,1.47688149,-2.889,1.4146,0.38276,9.090909090847532e-06,4.999999999988347e-05,-1.999999999990898e-05,-0.0011839359366856428,-0.00038081884108609465,-0.00010914250513227586
150000000000.0,-1,0.03601982545,0.15163042229999998,-0.06897997609999999,-0.010927,0.013733,-0.029841,-0.37853669,-9.687597269,1.4757046919999999,-2.8905,1.4148,0.3844,9.090909091069577e-06,3.333333333310762e-05,3.999999999992898e-05,-0.00023782160955576614,1.1322386129775097e-05,-0.0003634004181030104
150000000000.0,-1,0.0176911966,0.11761115344999999,-0.07881604605,-0.009864,0.012668,-0.029844,-0.37487880954999997,-9.688283734499999,1.4720762314999998,-2.8922,1.4153,0.38628,9.090909090847532e-06,3.333333333355171e-05,2.0000000000020002e-05,3.788864459508545e-05,3.745272345723194e-05,-0.0004057834705843977
150000000000.0,-1,0.011562040349999999,0.09701718845,-0.06806795765,-0.00453,0.012647,-0.029842,-0.37203488105,-9.6886760005,1.4705071674999999,-2.8938,1.4155,0.38798,9.090909090847532e-06,3.333333333310762e-05,4.0000000000040004e-05,0.00039761281421490935,0.00014225537064271876,-0.00012125115441241618
150000000000.0,-1,0.03490186735,0.12187704619999999,-0.06128175585,-0.003465,0.012635,-0.028779,-0.36873984665,-9.6889702,1.469232303,-2.8957,1.4157,0.39002,9.090909090847532e-06,3.333333333355171e-05,-1.0000000000065512e-05,0.00020551759934583913,-0.00026740124408020094,-0.00019398015659066736
150000000000.0,-1,0.0205155118,0.15510197639999998,-0.07114724574999999,-0.004537,0.012623,-0.026652,-0.36603321124999993,-9.689264399499999,1.467859372,-2.8972,1.4159,0.39168,9.090909091069577e-06,3.333333333310762e-05,-9.99999999995449e-06,0.0007280437149352892,0.0004515309090975528,-0.00046257181254683033
150000000000.0,-1,0.039618866,0.1541016981,-0.035666786049999996,-0.00455,0.01047,-0.022402,-0.3632775426,-9.6894605325,1.467270973,-2.8989,1.416,0.39347,9.090909090847532e-06,3.333333333355171e-05,-9.99999999995449e-06,0.0004436386557431504,-0.00012519339556038567,0.00023220578185023655
150000000000.0,-1,0.0376183094,0.1471782032,-0.0513280061,-0.004552,0.012567,-0.019207,-0.36083568675,-9.689754731999999,1.4661922415,-2.9003,1.4162,0.39499,9.090909090847532e-06,3.333333333310762e-05,-4.999999999999449e-05,-0.0004244689759307363,4.157235092794309e-05,0.00015414079974207517
150000000000.0,-1,0.031528379749999995,0.14883552705,-0.07413827399999999,-0.004566,0.010414,-0.014957,-0.3589430033,-9.6900489315,1.4646231775,-2.9012,1.4164,0.39609,9.090909090847532e-06,3.333333333355171e-05,-4.0000000000040004e-05,0.0002661807075394762,-8.750174164506852e-05,0.0005078303603720524
150000000000.0,-1,0.015268954049999998,0.12526034044999998,-0.05687856999999999,-0.004566,0.011467,-0.013891,-0.35748181245,-9.6902450645,1.4634463795,-2.902,1.4166,0.39697,9.090909091069577e-06,3.333333333310762e-05,-6.0000000000060005e-05,-0.0003486603480089556,0.00016334056287203857,-0.0005399025348815645
150000000000.0,-1,0.01275845165,0.0983999261,-0.06949972855,-0.000308,0.00826,-0.012834,-0.35617752799999997,-9.690441197499998,1.4623676479999999,-2.9027,1.4167,0.39773,9.090909090847532e-06,5.000000000032756e-05,-3.999999999992898e-05,0.0004361968260626625,-0.00033685201378585994,0.00021406875994234298
150000000000.0,-1,0.01315071765,0.08956413445,-0.0608796832,0.00289,0.009292,-0.010703,-0.35506937655,-9.6906373305,1.4616811824999998,-2.9033,1.4168,0.39843,-9.999999999998899e-05,4.999999999988347e-05,4.999999999921734e-06,-0.0007688431439785148,0.00019216759030604713,0.0005998246249585559
150000000000.0,-1,0.011532620399999999,0.08996620709999999,-0.06206628785,0.006086,0.008211,-0.009641,-0.35404948495,-9.690735397,1.46119085,-2.9039,1.4169,0.39912,9.999999999998899e-05,3.333333333310762e-05,5.000000000032756e-06,0.0003146045204793779,0.0002692575372191808,0.0002759579616293806
150000000000.0,-1,0.00253992235,0.0839645373,-0.03348970975,0.007143,0.005017,-0.008584,-0.35328456625,-9.690735397,1.4614850494999998,-2.9044,1.4169,0.39971,-9.999999999998899e-05,3.333333333355171e-05,-5.999999999994898e-05,-7.76106417976763e-05,-0.0005540343331238429,0.0008760008827608523
150000000000.0,-1,0.0084533323,0.1042643028,-0.027125193899999997,0.008221,0.002965,-0.006456,-0.35261771405000003,-9.6906373305,1.4619753819999999,-2.9049,1.4168,0.40027,9.999999999998899e-05,3.333333333310762e-05,9.99999999995449e-06,0.00047445214566899097,-5.190000017285534e-05,-0.0013108416056681893
150000000000.0,-1,0.0116306869,0.1254270535,-0.020947004399999997,0.007154,0.004021,-0.00539,-0.35191163524999997,-9.690539264,1.4626618475,-2.9055,1.4168,0.40088,9.999999999998899e-05,4.999999999988347e-05,1.0000000000065512e-05,0.00024878763422808703,0.000196342699261276,0.0005338149514091395
150000000000.0,-1,0.011159967699999999,0.12535840694999997,-0.0215157901,0.006085,0.002965,-0.005393,-0.35144091605,-9.690539264,1.4632502465,-2.9059,1.4167,0.40131,3.333333333332966e-05,5.000000000032756e-05,-4.0000000000040004e-05,0.0002456699614166169,5.661303028281495e-05,-0.0002825772666259496
150000000000.0,-1,-0.0128074849,0.12482884785,-0.04716017985,0.003949,0.004018,-0.003264,-0.35126439634999995,-9.690539264,1.4628579805,-2.9059,1.4168,0.40141,3.333333333332966e-05,3.333333333310762e-05,2.0000000000020002e-05,0.00029019945627606347,9.372890812153756e-06,5.953792576729455e-05
150000000000.0,-1,-0.01038524235,0.0911430051,-0.029880862549999995,0.003942,0.000837,-0.003271,-0.35128400964999995,-9.690539264,1.462956047,-2.9059,1.4168,0.40143,3.333333333332966e-05,3.333333333355171e-05,-1.0000000000065512e-05,0.0005483459384603151,-0.00015338515165197464,-0.0008055051672648528
150000000000.0,-1,-0.010650021899999999,0.09109397185,-0.030312355149999998,0.005006,-0.000228,-0.003273,-0.35102903674999997,-9.690539264,1.4634463795,-2.9062,1.4167,0.40168,9.999999999998899e-05,3.333333333310762e-05,-1.999999999990898e-05,5.5326850312731324e-05,-0.00041981309302419056,-0.00028179885280943395
150000000000.0,-1,-0.029665116249999998,0.11351197375,-0.033970235599999996,0.003937,-0.000232,-0.002209,-0.35146052935,-9.690441197499998,1.4634463795,-2.9059,1.4167,0.40141,9.999999999998899e-05,0.00010000000000021103,8.999999999992347e-05,-5.597279090086005e-05,0.00031357145358335003,-0.001098830714595156
150000000000.0,-1,-0.029665116249999998,0.11351197375,-0.033970235599999996,0.003937,-0.000232,-0.002209,-0.35146052935,-9.690441197499998,1.4634463795,-2.9059,1.4167,0.40141,3.333333333332966e-05,3.333333333310762e-05,-2.999999999997449e-05,0.0005594420033769865,0.00014738247001933047,-0.0003999846731037593
150000000000.0,-1,-0.0197113665,0.09491856535,-0.029674922899999998,0.005004,-0.000236,-0.002209,-0.35169588895,-9.690441197499998,1.4636425124999999,-2.9058,1.4167,0.40129,3.333333333355171e-05,3.333333333355171e-05,2.0000000000020002e-05,-0.00028601688698426386,-0.000162751269769279,0.00031987348596773657
150000000000.0,-1,-0.010522535449999999,0.10641195914999999,-0.052720550399999996,0.008196,-0.005535,-0.004347,-0.35130362295,-9.690441197499998,1.463936712,-2.9061,1.4167,0.40152,3.333333333332966e-05,3.333333333310762e-05,-1.0000000000065512e-05,0.0004969827189391651,-0.0003165399900768584,-0.0011661040644932452
150000000000.0,-1,-0.020368412049999996,0.1432947698,-0.02870406455,0.00606,-0.007639,-0.005416,-0.3511761365,-9.690343130999999,1.464525111,-2.9062,1.4166,0.40163,3.333333333332966e-05,2.4999999999941735e-05,1.0000000000065512e-05,0.0001682841770653809,-0.00011423215191408431,-0.00021011194319164872
150000000000.0,-1,-0.020947004399999997,0.14325554319999997,-0.029115943849999996,0.002859,-0.006574,-0.004351,-0.35059754414999994,-9.6902450645,1.4649173770000001,-2.9067,1.4166,0.402,3.333333333332966e-05,2.4999999999941735e-05,-1.333333333330966e-05,-0.00031323177682907044,0.0001566297088517743,0.0004338414909208499
150000000000.0,-1,-0.02070183815,0.14967889895,-0.0234967334,-0.000337,-0.005493,-0.005412,-0.3505485109,-9.6902450645,1.4649173770000001,-2.9067,1.4166,0.40199,3.333333333332966e-05,2.5000000000385825e-05,-1.3333333333420683e-05,0.00040321659404529697,-0.00031321618292712294,-0.0010527799070507715
150000000000.0,-1,-0.0120229529,0.1627707767,-0.044296638049999996,-0.001408,-0.005505,-0.003285,-0.35040141114999995,-9.690343130999999,1.464525111,-2.9067,1.4166,0.40196,5.0000000000105516e-05,2.4999999999941735e-05,-1.333333333330966e-05,-0.0031902226999047656,-0.0007579307720442241,0.0017324702729635266
150000000000.0,-1,-0.012444638849999998,0.16283942325,-0.04392398535,-0.004613,-0.007613,-0.003291,-0.3499797252,-9.690441197499998,1.4641328449999997,-2.907,1.4167,0.40211,4.999999999988347e-05,9.999999999976694e-05,7.999999999996898e-05,0.001226096632130691,0.00022069577486383274,-0.0017241668622141049
150000000000.0,-1,-0.0092770909,0.18513974535,-0.05165162555,-0.004616,-0.008673,-0.003293,-0.34985223875,-9.690539264,1.4631521799999998,-2.9069,1.4168,0.40196,4.999999999988347e-05,-9.999999999976694e-05,5.000000000032756e-06,0.0005430747197427976,0.0001740904965876755,0.00012128582958492728
150000000000.0,-1,-0.0085906254,0.1642810008,-0.0348724474,-0.005672,-0.008576,-0.003279,-0.34934229295,-9.6906373305,1.4627599139999998,-2.9072,1.4168,0.40213,5.0000000000105516e-05,9.999999999976694e-05,5.000000000032756e-06,-0.0005003189223078408,0.0002331826515191704,-0.00036618118784392806
150000000000.0,-1,-0.007060788,0.14302999025,-0.05021985464999999,-0.00461,-0.010701,-0.003283,-0.3490775134,-9.690833463499999,1.461779249,-2.9072,1.4169,0.40205,5.0000000000105516e-05,5.000000000032756e-05,1.0000000000065512e-05,-0.00018787330264213864,1.9881110849384598e-05,-0.00031620038632063086
150000000000.0,-1,-0.0071000146,0.14362819589999998,-0.0430315802,-0.005679,-0.011757,-0.003286,-0.34889118704999994,-9.690931529999999,1.460798584,-2.9072,1.417,0.40192,4.999999999988347e-05,4.999999999988347e-05,9.99999999995449e-06,0.0005294156941477723,0.0004149866006291081,-0.0009444573389894018
150000000000.0,-1,-0.01609271265,0.14478538059999999,-0.0315970263,-0.006751,-0.013874,-0.003291,-0.34843027449999997,-9.6910295965,1.460210185,-2.9074,1.4171,0.40199,9.999999999998899e-05,4.999999999988347e-05,9.99999999995449e-06,0.00045203018817296936,0.00023231633420195408,-5.6681916216660966e-05
150000000000.0,-1,-0.01658304515,0.14494228699999998,-0.03072423445,-0.009947,-0.01174,-0.003287,-0.34793994199999995,-9.6912257295,1.4593275865,-2.9075,1.4172,0.40205,5.0000000000105516e-05,5.000000000032756e-05,-2.0000000000020002e-05,0.00027694764647812065,0.000425577650273512,0.0002971479982216696
150000000000.0,-1,-0.00187307015,0.1241129624,-0.0358531124,-0.01529,-0.013856,-0.001165,-0.34767516244999996,-9.691519929,1.4575623895,-2.9074,1.4174,0.40182,4.999999999988347e-05,9.999999999976694e-05,4.0000000000040004e-05,0.00044788368054771155,0.00037828512261839364,-0.0010193921273871087
150000000000.0,-1,-0.02678196115,0.11945480365,-0.022290515449999996,-0.019556,-0.013831,-0.00223,-0.3473123164,-9.691716062,1.4557971925,-2.9074,1.4176,0.40165,4.999999999988347e-05,5.000000000032756e-05,-2.0000000000020002e-05,-0.00023375404448966464,-0.00045845505340280646,0.0007447366500124009
150000000000.0,-1,-0.011287454149999999,0.1189938911,-0.0046679654,-0.02489,-0.01381,-0.002231,-0.34724366985,-9.692108328,1.453933929,-2.9071,1.4178,0.40126,5.0000000000105516e-05,4.999999999988347e-05,2.0000000000020002e-05,0.001201731978283327,0.0007648262442501164,-0.0009666974754309887
150000000000.0,-1,-0.0135920169,0.11653242194999999,-0.0007158854499999999,-0.027019,-0.012733,-0.003293,-0.3477830356,-9.692304460999999,1.4521687319999999,-2.9065,1.4179,0.40052,5.0000000000105516e-05,4.999999999988347e-05,-4.0000000000040004e-05,-0.0001126413122358727,-1.4881454370563318e-05,0.0005789092111256888
150000000000.0,-1,-0.01405292945,0.11696391454999999,0.0020201699,-0.02809,-0.013797,-0.002232,-0.34732212304999993,-9.692696727,1.4494228699999998,-2.9064,1.4182,0.40026,4.999999999988347e-05,4.999999999988347e-05,4.0000000000040004e-05,0.0009260276327189843,0.00038562923188845133,-0.0011676843171521956
150000000000.0,-1,-0.0206920315,0.1381953118,-0.02199631595,-0.02916,-0.015906,-0.0033,-0.34742018955,-9.6931870595,1.4465789414999999,-2.9059,1.4185,0.39959,-0.00019999999999997797,3.333333333355171e-05,-7.00000000000145e-05,-0.00047424178877797374,-0.0002169288868885122,0.0010116932731105699
150000000000.0,-1,-0.00507003805,0.129840046,-0.020270345549999996,-0.031291,-0.015889,-0.004364,-0.34702792355,-9.693579325499998,1.4434408134999999,-2.9057,1.4188,0.3992,4.999999999988347e-05,3.333333333310762e-05,-2.0000000000020002e-05,0.0004107289886556842,0.00010735179033671827,-0.00037984094625254095
150000000000.0,-1,-0.021937476049999998,0.13251726145,0.0048444850999999995,-0.029162,-0.016966,-0.003303,-0.3464689445,-9.694069657999998,1.4406949515,-2.9056,1.4191,0.39896,5.0000000000105516e-05,3.333333333355171e-05,6.0000000000060005e-05,0.0004962053189974114,-3.922168110515045e-06,-0.0006211540317766495
150000000000.0,-1,-0.02256510165,0.13294875404999998,0.00756092715,-0.027029,-0.018027,-0.004368,-0.34584131889999997,-9.694461923999999,1.4379490895,-2.9056,1.4194,0.39876,5.0000000000105516e-05,0.00010000000000021103,-4.999999999999449e-05,-0.00022935348290697988,5.495826085422095e-05,0.0003669740439276037
150000000000.0,-1,-0.0055505638999999996,0.13933288319999998,0.00548191735,-0.029166,-0.018035,-0.002241,-0.34579228565,-9.6947561235,1.436281959,-2.9053,1.4196,0.39835,4.999999999988347e-05,9.999999999976694e-05,1.999999999990898e-05,0.001173592824221359,-0.00016782228580614067,-0.0012171527148658878
150000000000.0,-1,-0.0060310897499999995,0.13977418244999998,0.00840429905,-0.030233,-0.01803,-0.002241,-0.34532156645,-9.6951483895,1.433339964,-2.9052,1.4199,0.39802,-9.999999999998899e-05,4.999999999988347e-05,-2.999999999997449e-05,-0.0003289494321929709,-8.749112907424639e-05,0.0005982287198398328
150000000000.0,-1,-0.00836507245,0.15577863525,0.021407916949999998,-0.031302,-0.018034,-0.001178,-0.34522349994999996,-9.695442588999999,1.4314767004999998,-2.9049,1.4201,0.39759,9.999999999998899e-05,4.999999999988347e-05,7.00000000000145e-05,0.0009560987790466768,0.0003280133332399515,-0.00131588333900301
150000000000.0,-1,-0.00836507245,0.15577863525,0.021407916949999998,-0.031302,-0.018034,-0.001178,-0.34522349994999996,-9.695442588999999,1.4314767004999998,-2.9049,1.4201,0.39759,-1.999999999990898e-05,4.999999999988347e-05,-9.99999999995449e-06,0.0003464062071074636,7.224907019320881e-06,-0.0001323381404112478
150000000000.0,-1,-0.0215157901,0.1734796385,-0.0011081514499999999,-0.031299,-0.017943,-0.00117,-0.34569421915,-9.695638722,1.430005703,-2.9044,1.4202,0.39687,-2.0000000000131024e-05,5.000000000032756e-05,9.99999999995449e-06,5.850211949542938e-05,-0.0003099357705440564,-8.682502984913576e-05
150000000000.0,-1,-0.011209000949999999,0.144746154,-0.00045110589999999997,-0.025966,-0.017972,-0.000105,-0.34538040635,-9.696423253999999,1.4250043115,-2.9038,1.4207,0.39591,-1.999999999990898e-05,4.999999999988347e-05,2.999999999997449e-05,0.00046751388474142175,-0.00011176485810149295,-0.00012123238452765861
150000000000.0,-1,-0.0249677309,0.1111485711,-0.028655031299999998,-0.018497,-0.019046,-0.002232,-0.34643952454999993,-9.69681552,1.4222584495,-2.9027,1.421,0.39458,-2.0000000000131024e-05,4.999999999988347e-05,-1.999999999990898e-05,0.0004366801785087304,7.800340750696577e-05,3.1995539005569285e-05
150000000000.0,-1,-0.0254188368,0.1113643174,-0.027291906949999997,-0.014236,-0.021192,-0.001172,-0.34598841864999996,-9.697011653,1.4208855184999998,-2.9027,1.4211,0.39445,-1.999999999990898e-05,3.333333333355171e-05,2.4999999999941735e-05,-0.0009758020481092089,-0.00038419898035502165,0.0020519645120600227
150000000000.0,-1,-0.0149845612,0.12063160164999999,-0.0066096821,-0.0121,-0.021193,-0.002235,-0.34594919205,-9.697109719499998,1.4199048534999998,-2.9026,1.4212,0.39411,2.4999999999941735e-05,3.333333333310762e-05,2.5000000000052758e-05,0.0005199272408153988,-0.0001975550776711632,-0.0003708704128742024
150000000000.0,-1,-0.020888164499999997,0.17712771230000002,0.0489744101,-0.013166,-0.020136,-0.001169,-0.34677295064999997,-9.6969135865,1.4211797179999999,-2.9023,1.4211,0.39358,2.500000000016378e-05,3.333333333355171e-05,9.99999999995449e-06,0.0003478708518587226,-0.00014822437873762695,-0.00023579019687791636
150000000000.0,-1,-0.02107449085,0.17735326525,0.0504454076,-0.016368,-0.019079,0.00096,-0.3465866243,-9.697109719499998,1.4197087205,-2.9022,1.4212,0.39326,2.4999999999941735e-05,4.999999999988347e-05,9.99999999995449e-06,-0.000738449516338946,-7.870206787385925e-06,0.00011715348700325201
150000000000.0,-1,0.00134351105,0.20762639379999998,0.02982202265,-0.016363,-0.016958,0.000965,-0.34655720435,-9.697207786,1.419414521,-2.9021,1.4212,0.39305,2.4999999999941735e-05,4.999999999988347e-05,6.0000000000060005e-05,0.001004582518032926,-0.00016698130370573772,-0.0015337260035519495
150000000000.0,-1,-0.006982334799999999,0.2465784076,0.01048330885,-0.014236,-0.018043,0.00309,-0.34691024374999996,-9.697207786,1.4190222549999998,-2.9018,1.4213,0.39257,0.00010500000000002174,4.999999999988347e-05,-2.0000000000020002e-05,0.0027998408568565836,-0.00030228298130485776,-0.0017605026248828093
150000000000.0,-1,-0.00507003805,0.257914895,-0.03849110124999999,-0.007838,-0.017032,0.006285,-0.3471750233,-9.697403919,1.4181396564999997,-2.9015,1.4214,0.39207,0.00010499999999991072,5.000000000032756e-05,7.00000000000145e-05,0.0003390760852148844,-0.000428887465436123,-0.0011862661372488148
150000000000.0,-1,-0.0045306723,0.257914895,-0.038363614799999994,-0.001448,-0.019202,0.009473,-0.34771438905,-9.697403919,1.41804159,-2.9011,1.4214,0.39149,-0.00010999999999994348,9.999999999976694e-05,-4.0000000000040004e-05,-0.0009315615409191125,-0.0003185382148451765,0.0012132638005444285
150000000000.0,-1,-0.0045306723,0.257914895,-0.038363614799999994,-0.001448,-0.019202,0.009473,-0.34771438905,-9.697403919,1.41804159,-2.9011,1.4214,0.39149,9.999999999998899e-05,0.00010000000000021103,2.0000000000020002e-05,0.0006312146466909141,-0.0003931978317743834,-0.0005458567812726134
150000000000.0,-1,-0.0413056098,0.16315323604999998,-0.02234935535,0.00495,-0.020288,0.009473,-0.3499993385,-9.6973058525,1.4177473905,-2.8996,1.4213,0.38973,-0.0004999999999999449,9.999999999976694e-05,-0.00034999999999996145,-0.0032139365211030224,0.0008562950143060633,0.004462283188617633
150000000000.0,-1,-0.01887780125,0.17011595755,-0.031400893299999996,0.012418,-0.021371,0.008409,-0.3516272424,-9.6969135865,1.4199048534999998,-2.8988,1.4211,0.38857,-2.4999999999941735e-05,9.999999999976694e-05,-4.999999999999449e-05,-0.00032911113622535737,0.00010550439339485074,0.00019586520628034343
150000000000.0,-1,-0.01644575205,0.1566122005,0.008306232549999999,0.015603,-0.022352,0.006285,-0.35316688645,-9.696423253999999,1.4228468484999999,-2.8983,1.4207,0.38781,-2.500000000016378e-05,0.00010000000000021103,2.0000000000020002e-05,0.0004949890516865452,0.0006231411449424407,0.0002037101058454116
150000000000.0,-1,-0.01599464615,0.15638664754999998,0.006913688249999999,0.0124,-0.022348,0.007348,-0.35360818569999997,-9.696227121,1.4242197795,-2.8982,1.4206,0.38752,-2.4999999999941735e-05,5.000000000032756e-05,-5.000000000032756e-06,0.00022553195902830225,0.0002176062927836675,9.172676046076411e-05
150000000000.0,-1,-0.012905551399999998,0.15841662410000001,0.01817172245,0.01133,-0.022359,0.009475,-0.35460846399999996,-9.695834855,1.426475309,-2.8979,1.4203,0.387,-2.4999999999941735e-05,4.999999999988347e-05,-5.000000000032756e-06,0.00035824636294989887,0.00025255809314894684,-0.0004670851004395793
150000000000.0,-1,0.02484024445,0.10763779039999999,0.0431100334,0.008128,-0.021302,0.011604,-0.3547849837,-9.6953445225,1.42980957,-2.8984,1.42,0.38719,3.333333333332966e-05,9.999999999976694e-05,1.0000000000065512e-05,-0.0003024781478071503,0.0002266436630273816,0.00027059376928306733
150000000000.0,-1,0.02586013605,0.1075201106,0.04255105435,0.003852,-0.02237,0.014792,-0.35581468195,-9.695246456,1.4302999025,-2.8978,1.4199,0.38638,3.333333333332966e-05,0.00010000000000021103,-4.0000000000040004e-05,0.00045078586772540064,0.00040538676577850374,-0.0004770200616928122
150000000000.0,-1,0.03874607415,0.08668097934999999,0.0118072066,0.004911,-0.021353,0.020112,-0.35657960064999994,-9.695050323,1.4314767004999998,-2.8975,1.4198,0.38582,3.333333333332966e-05,0.00010000000000021103,7.999999999996898e-05,-0.0007323491724111619,-0.00035222293868497623,-0.004639090443164351
150000000000.0,-1,0.01032640245,0.12663327145,-0.011846433200000001,0.003839,-0.022418,0.021173,-0.3582369245,-9.694952256499999,1.4320650995,-2.8965,1.4197,0.38461,-9.999999999998899e-05,9.999999999976694e-05,-0.000140000000000029,-0.0007907653866761066,-0.0010462863969633585,0.001305007488878962
150000000000.0,-1,0.0026870221,0.1505124642,-0.00330484105,0.004902,-0.021385,0.024367,-0.3603159343,-9.694658057,1.432947698,-2.8952,1.4196,0.38315,9.999999999998899e-05,0.00010000000000021103,6.0000000000060005e-05,-5.229680401441783e-05,-0.0001864085795886261,-0.0006516520391741665
150000000000.0,-1,0.004716998649999999,0.1502967179,-0.0042756994,0.010232,-0.023528,0.024364,-0.36235571749999995,-9.694461923999999,1.4339283629999997,-2.8941,1.4194,0.38173,-9.999999999998899e-05,3.333333333310762e-05,-2.999999999997449e-05,0.00034385046519957996,-0.00021472431015490123,0.001164053682133348
150000000000.0,-1,0.00495235825,0.1718517346,-0.0090417313,0.01023,-0.024588,0.024361,-0.36438569405,-9.6941677245,1.4353993605,-2.893,1.4192,0.38038,-0.00029999999999996696,3.333333333355171e-05,-0.000140000000000029,-0.0014475534697986348,-0.001096677243167976,0.0023665971180393264
150000000000.0,-1,-0.00791396655,0.1701846041,-0.0092574776,0.012363,-0.026702,0.02223,-0.36662161025,-9.693873524999999,1.4369684244999998,-2.8918,1.419,0.3789,9.999999999998899e-05,3.333333333310762e-05,4.999999999999449e-05,-1.095526830052762e-05,0.0002613548539935895,-0.0013398457795499308
150000000000.0,-1,-0.0102577559,0.17220477399999998,0.0035892338999999997,0.012368,-0.025633,0.021169,-0.36877907325,-9.693481259,1.4389297545,-2.8907,1.4187,0.37756,-9.999999999998899e-05,0.00019999999999997797,-0.000160000000000049,-0.001762903259032278,0.0023981123207761357,-0.0027522997301236973
150000000000.0,-1,0.00216726965,0.16331994909999997,-0.0055897905,0.01557,-0.02669,0.01904,-0.37042659045,-9.6931870595,1.4408910845,-2.89,1.4185,0.37655,9.999999999998899e-05,0.00019999999999997797,-9.99999999995449e-06,-0.0004578986033818566,0.001442546541502443,-0.002108540810524806
150000000000.0,-1,-0.00944380395,0.17244994025,-0.026007235799999997,0.01451,-0.024557,0.017981,-0.37213294755,-9.692892859999999,1.4424601485,-2.8891,1.4183,0.37544,-9.999999999998899e-05,0.00019999999999997797,-0.00017000000000000348,-0.001007371224650555,0.00027799259484551087,-0.00017120191504949034
150000000000.0,-1,-0.0079826131,0.17213612744999998,-0.02772339955,0.016637,-0.026695,0.01904,-0.37359413839999994,-9.692500594,1.4442253455,-2.8885,1.4181,0.3745,-9.999999999998899e-05,0.00010000000000021103,-0.00019999999999997797,-0.0015273395311528049,-0.0009212479880298385,-1.0717080139777124e-05
150000000000.0,-1,0.01397447625,0.1787948428,-0.014837461449999999,0.01984,-0.027752,0.016911,-0.3747513231,-9.692108328,1.4463828085000001,-2.8881,1.4178,0.37384,9.999999999998899e-05,0.00019999999999997797,9.99999999995449e-06,0.0011771640214970347,0.0016615500340131373,-0.0010208521189549735
150000000000.0,-1,0.03980519235,0.1446284742,-0.024751984600000002,0.021939,-0.027711,0.019045,-0.3754377886,-9.691814128499999,1.4485402715,-2.888,1.4176,0.37347,-9.999999999998899e-05,-0.0001500000000000945,2.999999999997449e-05,-0.0009184436015852171,3.2534896870828334e-05,0.0005109010093604649
150000000000.0,-1,0.026428921749999997,0.1225635117,-0.02470295135,0.023005,-0.027715,0.019045,-0.37642826025,-9.691421862499999,1.4507958009999997,-2.8877,1.4174,0.3729,-0.000400000000000178,-0.0001500000000000945,-4.499999999996174e-05,0.005002071476575054,0.0014704243081016255,0.0016289874593604647
150000000000.0,-1,0.011767979999999999,0.1068728717,-0.01685763135,0.02407,-0.027728,0.020109,-0.37778157795,-9.6910295965,1.4532474635,-2.8873,1.4171,0.37215,-9.999999999998899e-05,0.00010000000000021103,-4.499999999996174e-05,0.0002879335873942068,5.138041534014093e-05,-0.0003840407052402295
150000000000.0,-1,0.0133174307,0.1064413791,-0.019348520449999997,0.025137,-0.027732,0.020109,-0.37933102864999996,-9.690539264,1.4556991259999998,-2.8867,1.4168,0.37129,-9.999999999998899e-05,9.999999999976694e-05,-9.00000000000345e-05,-0.00034448562070288347,-2.563511158815146e-05,-0.0009014829146700709
150000000000.0,-1,0.03966789925,0.09826263299999999,-0.01952504015,0.021941,-0.026651,0.019047,-0.38084125274999997,-9.690146998,1.4579546554999998,-2.8861,1.4165,0.37042,-3.333333333332966e-05,0.00010000000000021103,-4.0000000000040004e-05,0.0010508185706186168,0.0007882977055089224,-0.0008158060653051802
150000000000.0,-1,0.0187110882,0.10105752824999999,-0.0223787753,0.019807,-0.02559,0.020113,-0.38203766404999995,-9.6898527985,1.4599159855,-2.8857,1.4163,0.36971,-3.333333333332966e-05,9.999999999976694e-05,-3.999999999992898e-05,0.0001652422329643244,-9.168947370730152e-05,-0.0006547204268763096
150000000000.0,-1,0.0187110882,0.10105752824999999,-0.0223787753,0.019807,-0.02559,0.020113,-0.38203766404999995,-9.6898527985,1.4599159855,-2.8857,1.4163,0.36971,-3.333333333332966e-05,0.00010000000000021103,-6.0000000000060005e-05,-0.0001849319602911237,0.00015931759775966725,-0.0007643883951045094
150000000000.0,-1,0.011817013249999998,0.13214460875,-0.01866205495,0.018749,-0.024501,0.016924,-0.38321446205,-9.6894605325,1.4618773155,-2.8852,1.4161,0.36902,-9.999999999998899e-05,9.999999999976694e-05,-5.999999999994898e-05,-0.00030962698457681626,0.00017817327374358705,-0.0005620362627800635
150000000000.0,-1,0.02189824945,0.14049987455,-0.0361865385,0.01876,-0.023409,0.012671,-0.3850679189,-9.6888721335,1.4655057759999999,-2.8847,1.4157,0.36795,-5.0000000000105516e-05,5.000000000032756e-05,-4.0000000000040004e-05,-0.000332146109847109,-0.00019380473974806023,0.0005025259303037544
150000000000.0,-1,0.03902066035,0.1484530677,-0.0772175621,0.020894,-0.022365,0.013738,-0.38528366519999996,-9.688774066999999,1.4662903079999998,-2.8846,1.4156,0.36771,-4.999999999988347e-05,4.999999999988347e-05,-4.999999999999449e-05,-0.0002888607538249488,-8.08451838572033e-05,-0.00025835021907050226
150000000000.0,-1,0.03992287215,0.148080415,-0.07942405834999999,0.021963,-0.022361,0.012674,-0.38618587699999996,-9.688381801,1.4685458374999998,-2.8844,1.4153,0.36728,-9.999999999998899e-05,9.999999999976694e-05,-3.999999999992898e-05,-0.0003009390307733284,5.534370636084418e-05,0.0007309238700770049
150000000000.0,-1,0.0054328841,0.11372772005,-0.056554950550000004,0.021969,-0.020232,0.011615,-0.38700963559999996,-9.6880876015,1.4699187685,-2.8841,1.4152,0.36678,-5.0000000000105516e-05,4.999999999988347e-05,-1.0000000000065512e-05,-0.00047125201814335327,0.00028845647309627687,5.004390626561772e-05
150000000000.0,-1,0.026997707449999995,0.1263684919,-0.04553227595,0.018773,-0.018099,0.011619,-0.38733325504999994,-9.6878914685,1.4712916994999998,-2.8842,1.415,0.36661,-4.999999999988347e-05,5.000000000032756e-05,1.0000000000065512e-05,0.00020102526581489144,8.975582303949459e-05,-0.00012062571309523484
150000000000.0,-1,0.028027405699999997,0.12606448574999998,-0.0473072796,0.016636,-0.017054,0.014812,-0.3883531466499999,-9.687597269,1.4730568965,-2.8838,1.4148,0.36607,-4.999999999988347e-05,0.00010000000000021103,-1.0000000000065512e-05,-0.00029532003149412844,1.7780730644068043e-05,0.0002676891512125579
150000000000.0,-1,0.06028147754999999,0.1206610216,-0.02870406455,0.012377,-0.013847,0.013754,-0.38813740035,-9.687401136,1.4742336944999999,-2.8842,1.4147,0.36624,-5.0000000000105516e-05,3.333333333310762e-05,-5.000000000032756e-06,-0.000613258832214747,8.69481942555872e-06,0.0005830431279716386
150000000000.0,-1,0.056290171,0.10445062915,-0.041560582699999994,0.008115,-0.010657,0.014823,-0.3881864336,-9.687401136,1.474527894,-2.8842,1.4147,0.36612,-9.999999999998899e-05,3.333333333355171e-05,-4.999999999921734e-06,-0.00046177378132750135,-0.00010823226267442365,0.0003808603366457497
150000000000.0,-1,0.05759445544999999,0.10430352939999998,-0.042178401649999996,0.004919,-0.008523,0.014827,-0.38949071805,-9.687205002999999,1.475116293,-2.8834,1.4146,0.3653,-4.999999999988347e-05,3.333333333310762e-05,-9.99999999995449e-06,0.0001200674325758655,0.0004670775261945703,-0.0001276593276962057
150000000000.0,-1,0.0372260434,0.07882585269999999,-0.0607816167,0.002752,-0.006328,0.013783,-0.38992221064999993,-9.687401136,1.4742336944999999,-2.883,1.4147,0.36479,-5.0000000000105516e-05,0.00010000000000021103,-1.0000000000065512e-05,-0.0005256372148645383,-0.00013761036749260214,-0.0005486037108333175
150000000000.0,-1,0.01572005995,0.10786334334999999,-0.07968883789999999,0.001687,-0.005263,0.013785,-0.39086364904999993,-9.6874992025,1.4729588299999998,-2.8822,1.4148,0.3639,-5.0000000000105516e-05,3.333333333310762e-05,2.0000000000020002e-05,0.00011665284668005427,-3.2253564110185096e-05,0.000992374384963357
150000000000.0,-1,0.0167301449,0.10779469679999999,-0.07992419749999999,0.001696,-0.004179,0.010596,-0.39186392735,-9.687401136,1.4731549629999998,-2.8816,1.4147,0.36325,-4.999999999988347e-05,3.333333333355171e-05,-4.0000000000040004e-05,-0.0007032306179679537,8.304636044775826e-05,0.000218353408706351
150000000000.0,-1,0.0244185585,0.1224458319,-0.06795027785,0.0017,-0.002058,0.010601,-0.39238367979999994,-9.687597269,1.4721742979999999,-2.8811,1.4148,0.36271,1.1111111111183902e-05,3.333333333310762e-05,-9.99999999995449e-06,-0.00011040706882603502,-7.79234438885723e-06,-0.0003376171160933694
150000000000.0,-1,0.048356591149999996,0.127682583,-0.07071575315,0.002767,-0.00101,0.011667,-0.39237387314999994,-9.687695335499999,1.4711936329999997,-2.881,1.4149,0.36252,1.1111111110961858e-05,5.000000000032756e-05,-1.0000000000065512e-05,2.0345164051249753e-05,0.00011091211300984227,0.00025511305428116415
150000000000.0,-1,0.04939609605,0.12759432315,-0.07102956595,0.003843,0.001123,0.009544,-0.39341337805,-9.687597269,1.4714878324999998,-2.8803,1.4148,0.36192,1.1111111111183902e-05,4.999999999988347e-05,4.0000000000040004e-05,3.243160546873014e-05,0.0001291890453611888,-0.0003991016197435471
150000000000.0,-1,0.0528970701,0.1416276393,-0.08051259649999999,0.007036,0.001086,0.012736,-0.39347221795,-9.687793401999999,1.470605234,-2.8802,1.4149,0.36173,1.1111111111183902e-05,3.333333333310762e-05,-4.0000000000040004e-05,-0.00021356285250817564,0.00012055074008787692,7.98707896527695e-05
150000000000.0,-1,0.05303436319999999,0.1200137827,-0.08446467645,0.01131,0.003198,0.011677,-0.3934624113,-9.6878914685,1.4701149014999997,-2.8801,1.415,0.36167,1.1111111110961858e-05,3.333333333355171e-05,1.0000000000065512e-05,-0.0003752343761105337,0.00029710152041628746,-0.00045462055481371166
150000000000.0,-1,0.054211161199999996,0.1197588098,-0.08585722075,0.015578,0.003181,0.011679,-0.39463920929999996,-9.687597269,1.4714878324999998,-2.8796,1.4148,0.36118,1.1111111111183902e-05,3.333333333310762e-05,9.99999999995449e-06,6.427624510241259e-05,-0.00011467686124433385,0.0002251776308270781
150000000000.0,-1,0.05792788155,0.09456552594999999,-0.0658418481,0.01664,0.003161,0.013806,-0.39460978934999996,-9.6874992025,1.4718800985,-2.8796,1.4148,0.36128,1.1111111111183902e-05,2.0000000000131024e-05,-2.999999999997449e-05,-0.000315522694096515,0.00023876904860897774,8.744496738510854e-05
150000000000.0,-1,0.05539776585,0.1040681698,-0.06593010795,0.018778,0.004221,0.012745,-0.39462940264999996,-9.687401136,1.4723704309999999,-2.8797,1.4147,0.36138,1.1111111110961858e-05,2.0000000000131024e-05,9.99999999995449e-06,0.0004289695493078227,8.771246018013379e-05,-1.7704998681145057e-05
150000000000.0,-1,0.056780503499999996,0.103754357,-0.0675678185,0.015584,0.007415,0.012751,-0.3960121403,-9.6871069365,1.4740375614999999,-2.8791,1.4145,0.36084,1.1111111111183902e-05,1.9999999999686935e-05,-5.000000000032756e-06,0.000425868862792278,8.130679424067644e-05,-0.0005795922070614967
150000000000.0,-1,0.045061556749999995,0.10633350594999999,-0.052534224049999995,0.01452,0.008479,0.012753,-0.3973066181,-9.686910803499998,1.4754104925,-2.8785,1.4143,0.36034,-9.999999999998899e-05,2.0000000000131024e-05,-4.999999999921734e-06,-0.0010868199931719502,-9.1400147609777e-05,0.0008118037933413369
150000000000.0,-1,0.0359511789,0.10925588765,-0.045493049349999995,0.012393,0.010617,0.011693,-0.3977773373,-9.686812736999999,1.4757046919999999,-2.8783,1.4143,0.36018,9.999999999998899e-05,2.0000000000131024e-05,4.0000000000040004e-05,0.00011904957450692422,6.192935636950558e-05,0.000213364005544614
150000000000.0,-1,0.03713778355,0.10904014135,-0.0466012008,0.012397,0.010633,0.009566,-0.39896394194999996,-9.686616604,1.47688149,-2.8777,1.4142,0.35972,5.0000000000105516e-05,-1.2499999999970868e-05,-5.0000000000105516e-05,-0.0005913982553735764,-0.0001334033018411951,0.00027645966879519257
150000000000.0,-1,0.012895744749999999,0.11898408444999999,-0.05271074374999999,0.014508,0.012822,0.006398,-0.3995621476,-9.6865185375,1.4772737559999998,-2.8774,1.4141,0.35953,4.999999999988347e-05,-1.2499999999970868e-05,2.0000000000020002e-05,0.00023783478684169523,0.00034814822144957347,-0.0003267139400624508
150000000000.0,-1,0.0340486888,0.1368027675,-0.0791788921,0.016645,0.012829,0.004271,-0.39931698134999993,-9.6865185375,1.4772737559999998,-2.8776,1.4141,0.35981,-9.999999999998899e-05,-1.2499999999970868e-05,-5.999999999994898e-05,-0.000776687241538454,-0.00013253272126223514,0.0004228086524302732
150000000000.0,-1,0.034607667849999996,0.13649876135,-0.081002929,0.01985,0.013885,0.00321,-0.39987596039999995,-9.686224338,1.479038953,-2.8775,1.4139,0.3599,9.999999999998899e-05,-1.2500000000414957e-05,-1.0000000000065512e-05,6.688470605897834e-05,-0.00013544529766029711,0.00041679440056685557
150000000000.0,-1,0.053289336099999994,0.18206045725,-0.0789435325,0.018787,0.014958,0.002148,-0.39819902325,-9.686420470999998,1.478058288,-2.8784,1.4141,0.36092,9.999999999998899e-05,-1.2499999999970868e-05,-9.99999999995449e-06,-0.00024170992127281465,2.124182818530329e-05,6.701690271970762e-05
150000000000.0,-1,0.03667687099999999,0.15228746785,-0.056250944399999996,0.019858,0.016022,0.001087,-0.39774791735,-9.6863224045,1.4791370194999998,-2.8789,1.414,0.36155,9.999999999998899e-05,-1.2499999999970868e-05,-2.0000000000020002e-05,0.000854749141368849,0.0001533452312740824,-0.00028623269429495224
150000000000.0,-1,0.0483271712,0.1536898188,-0.0666067668,0.018787,0.01601,0.003213,-0.39713990504999996,-9.686224338,1.4799215514999997,-2.8794,1.4139,0.36222,-9.999999999998899e-05,-1.2499999999970868e-05,-3.999999999992898e-05,-0.001199142971363365,1.1386513516287167e-05,0.0004593919465389895
150000000000.0,-1,0.0372064301,0.11685604139999999,-0.0818070743,0.018791,0.017078,0.002152,-0.39678686564999993,-9.686224338,1.4802157509999998,-2.8797,1.4139,0.36265,9.999999999998899e-05,-1.2499999999970868e-05,-2.0000000000020002e-05,-0.00046611093233295264,-0.00024652070819009,0.0008105445265695899
150000000000.0,-1,0.0421293684,0.13811685859999998,-0.08707324535,0.016663,0.019216,0.001092,-0.39632595309999996,-9.686224338,1.4802157509999998,-2.88,1.4139,0.36314,9.999999999998899e-05,0.00010000000000021103,2.0000000000020002e-05,-0.0001308725491329099,-0.0001470099435383343,0.00028309493282296927
150000000000.0,-1,0.0424824078,0.13789130565,-0.088455983,0.01347,0.021358,3.3e-05,-0.3966789925,-9.6859301385,1.481588682,-2.88,1.4138,0.36335,9.999999999998899e-05,-5.000000000032756e-05,-2.0000000000020002e-05,-0.0004285239197256985,-3.585392980776092e-05,0.0004469881578093027
150000000000.0,-1,0.0430904201,0.1378030458,-0.07363813485,0.011337,0.021374,-0.001032,-0.39533548144999997,-9.686224338,1.4805099505,-2.8807,1.4139,0.36423,9.999999999998899e-05,-4.999999999988347e-05,-4.0000000000040004e-05,0.00010525704504882327,0.00010821349646983336,0.0007352007455794229
150000000000.0,-1,0.0640178112,0.14597198525,-0.06861713004999999,0.009208,0.023503,-0.001028,-0.39411945685,-9.686224338,1.4803138175,-2.8814,1.4139,0.36518,9.999999999998899e-05,-4.999999999988347e-05,-1.0000000000065512e-05,-0.0002873709937381008,-0.00013555207405557823,0.0004789522818513525
150000000000.0,-1,0.07414808064999999,0.10643157245,-0.057006056449999995,0.006003,0.0235,0.001098,-0.39287401229999996,-9.686420470999998,1.4799215514999997,-2.8821,1.414,0.36613,4.999999999988347e-05,-4.999999999988347e-05,-9.99999999995449e-06,-0.00020595589558958238,3.9822152024804325e-05,-0.00010392944479487021
150000000000.0,-1,0.07483454614999999,0.10637273255,-0.0571727695,0.001734,0.025614,0.004292,-0.39357028445,-9.6863224045,1.4801176845,-2.8817,1.414,0.36597,5.0000000000105516e-05,-4.999999999988347e-05,1.0000000000065512e-05,0.0004611710543214187,0.00016326528195675927,0.00038141238648981
150000000000.0,-1,0.07483454614999999,0.10637273255,-0.0571727695,0.001734,0.025614,0.004292,-0.39357028445,-9.6863224045,1.4801176845,-2.8817,1.414,0.36597,9.999999999998899e-05,-5.000000000032756e-05,1.999999999990898e-05,0.00043931620302561925,0.0003073282539949318,0.00034555121646695497
150000000000.0,-1,0.053289336099999994,0.07253979005,-0.053897348399999996,-0.004667,0.027745,0.006422,-0.39281517239999997,-9.686616604,1.478450554,-2.8819,1.4142,0.36643,9.999999999998899e-05,-9.999999999976694e-05,2.0000000000020002e-05,6.436968806600163e-05,0.00028487199218574233,0.0005859693523808662
150000000000.0,-1,0.02791953255,0.09238844965,-0.026968287499999997,-0.015333,0.030952,0.008554,-0.39363893099999997,-9.68700887,1.4756066254999998,-2.8809,1.4144,0.366,9.999999999998899e-05,-0.00010000000000021103,4.0000000000040004e-05,0.0003767505013065886,0.0001892971933148413,-3.9915555408276404e-05
150000000000.0,-1,0.08236605335,0.11996474945,-0.020819517949999998,-0.021754,0.035272,0.009644,-0.39315840515,-9.687303069499999,1.473547229,-2.8808,1.4147,0.36626,9.999999999998899e-05,-9.999999999976694e-05,9.99999999995449e-06,0.00022666849480756923,0.0004424897680661566,0.0003492944330492076
150000000000.0,-1,0.08378801759999999,0.12031778885,-0.018103075899999998,-0.028148,0.037426,0.008583,-0.39458036939999996,-9.687695335499999,1.470801367,-2.8795,1.4149,0.36525,9.999999999998899e-05,-0.00010000000000021103,-3.999999999992898e-05,0.0009402867470544862,0.00012618519508866832,0.00015414220852227878
150000000000.0,-1,0.05928119925,0.1785790965,-0.0653907422,-0.03242,0.039532,0.012841,-0.39327608495,-9.6884798675,1.4658980419999998,-2.8795,1.4154,0.3656,0.00020000000000020002,-0.00010000000000021103,5.999999999994898e-05,-0.0004437319243599802,4.732914235128227e-05,0.0004843308957684922
150000000000.0,-1,0.03511761365,0.16893915955,-0.07562888479999999,-0.03668,0.043783,0.013913,-0.39455094944999997,-9.689166333,1.460994717,-2.8778,1.4159,0.36435,0.00019999999999997797,-9.999999999976694e-05,1.0000000000065512e-05,0.000312355341030468,8.964836945590804e-05,-0.00013431415390163792
150000000000.0,-1,0.0369906838,0.1693804588,-0.07216713735,-0.03348,0.042718,0.012847,-0.3964240196,-9.6896566655,1.4575623895,-2.876,1.4162,0.36297,9.999999999998899e-05,-0.00010000000000021103,5.999999999994898e-05,0.0004395978566122949,0.00024506285974079667,-0.00025767137028265275
150000000000.0,-1,0.0281646988,0.13164446959999998,-0.05673147025,-0.029205,0.042733,0.008594,-0.39702222524999997,-9.690343130999999,1.4525609979999998,-2.8748,1.4166,0.36213,0.00019999999999997797,-9.999999999976694e-05,2.0000000000020002e-05,0.0007598028534845369,6.0576540312773375e-05,0.0006065582502914335
150000000000.0,-1,0.029508209849999998,0.13202692894999998,-0.0538385085,-0.028136,0.041684,0.006464,-0.39836573629999994,-9.690735397,1.449619003,-2.8734,1.4169,0.36117,4.999999999988347e-05,-0.00010000000000021103,2.0000000000020002e-05,0.00026199278088778755,0.00013187114349078044,0.0013015693468685363
150000000000.0,-1,0.0167301449,0.1248778811,-0.0500727549,-0.024931,0.041687,0.004337,-0.3992091082,-9.6912257295,1.4461866755,-2.8723,1.4172,0.36043,5.0000000000105516e-05,-0.00019999999999997797,-2.0000000000020002e-05,0.00023577337563907008,0.0002808623817698308,0.0005912335278335235
150000000000.0,-1,0.0519360184,0.13771478595,-0.030694814499999997,-0.02386,0.042751,0.003276,-0.3990914284,-9.6916179955,1.4434408134999999,-2.8718,1.4175,0.36043,9.999999999998899e-05,-9.999999999976694e-05,9.99999999995449e-06,0.0003023556004766448,-0.00014739956543974309,0.0005707690213552219
150000000000.0,-1,0.046758107199999996,0.12312249075,-0.0206135783,-0.021724,0.041698,0.001147,-0.39885606879999996,-9.6920102615,1.4409891509999997,-2.8716,1.4177,0.36055,4.999999999988347e-05,-0.00019999999999997797,-0.00030999999999992145,-0.002636909177512692,-0.0017519178526006485,0.00040367382362571647
150000000000.0,-1,0.047523025899999995,0.1234461102,-0.018240369,-0.022796,0.040634,0.002208,-0.39962098749999997,-9.692304460999999,1.4386355549999998,-2.8706,1.418,0.36005,5.0000000000105516e-05,-0.00019999999999997797,0.00026999999999999247,0.0028073498875862413,0.0017576880581029464,0.001278384497955365
150000000000.0,-1,0.059545978799999996,0.1332331469,-0.021623663249999998,-0.02066,0.040633,0.001144,-0.3990718151,-9.692696727,1.436281959,-2.8706,1.4182,0.36038,9.999999999998899e-05,-0.00010000000000021103,-4.999999999999449e-05,0.00015342246505234414,-7.621004099434003e-05,-0.0002922450014062328
150000000000.0,-1,0.06601836779999999,0.1395486295,-0.02529135035,-0.017466,0.039544,0.003269,-0.39851283605,-9.6929909265,1.434320629,-2.8706,1.4184,0.36076,4.999999999999449e-05,-0.00019999999999997797,-1.0000000000065512e-05,0.0003072662519318925,-0.0001687961655578718,0.000994094424684011
150000000000.0,-1,0.053181462949999994,0.12410315574999999,-0.0196917532,-0.015331,0.038491,0.00114,-0.39810095674999996,-9.693285126,1.4325554319999998,-2.8705,1.4186,0.36111,0.00017000000000000348,-0.00019999999999997797,4.999999999999449e-05,0.0009224570079302552,0.00030442704751743044,0.0005687386877635259
150000000000.0,-1,0.053181462949999994,0.12410315574999999,-0.0196917532,-0.015331,0.038491,0.00114,-0.39810095674999996,-9.693285126,1.4325554319999998,-2.8705,1.4186,0.36111,0.000140000000000029,-0.00019999999999997797,-4.999999999921734e-06,-1.7832353150559754e-05,3.2022757947336444e-05,0.000662616546899697
150000000000.0,-1,0.038549941149999996,0.13291933409999998,-0.0079237732,-0.014264,0.036382,-0.000993,-0.39678686564999993,-9.693579325499998,1.430986368,-2.8711,1.4188,0.36203,0.00015999999999993797,-0.00019999999999997797,-5.000000000032756e-06,0.00040145213972131444,-0.00045439229399590886,0.0004570982117060307
150000000000.0,-1,0.02923362365,0.14089214055,0.006168382849999999,-0.013198,0.03322,-0.004191,-0.39660053929999994,-9.693873524999999,1.4287308384999997,-2.8708,1.419,0.36243,0.0006300000000000194,9.999999999976694e-05,0.00021999999999999797,-0.004182146275899967,0.002725287473364091,-0.007595345222990657
150000000000.0,-1,0.02923362365,0.14089214055,0.006168382849999999,-0.013198,0.03322,-0.004191,-0.39660053929999994,-9.693873524999999,1.4287308384999997,-2.8708,1.419,0.36243,2.999999999997449e-05,-0.00019999999999997797,-0.00012999999999996348,-0.002199555647882434,-0.002863853902006719,0.0042879684148100505
150000000000.0,-1,0.045620535799999994,0.13167388954999998,-0.0010787315,-0.012149,0.033305,-0.006306,-0.39457056274999996,-9.694069657999998,1.4278482399999999,-2.872,1.4192,0.36393,-8.999999999992347e-05,-0.0002999999999997449,-0.00010000000000010001,0.006934225712320163,0.0002813554349041514,0.0029980975743844063
150000000000.0,-1,0.046257968049999994,0.0931043351,-0.01630845895,-0.004688,0.027989,-0.008444,-0.39296227215,-9.694461923999999,1.4260830429999998,-2.8727,1.4194,0.36525,0.00027999999999994696,-0.00019999999999997797,4.999999999999449e-05,0.00037076082805054256,0.0002780995686739729,-0.0005180334258261254
150000000000.0,-1,0.03843226135,0.0883775298,-0.0284196717,-0.000426,0.024799,-0.009514,-0.39098132885,-9.694658057,1.425102378,-2.8738,1.4195,0.36663,0.00021000000000004349,-0.00019999999999997797,4.0000000000040004e-05,-0.00016418527467365607,0.00023231316456739926,-0.00025718563876631073
150000000000.0,-1,0.03843226135,0.0883775298,-0.0284196717,-0.000426,0.024799,-0.009514,-0.39098132885,-9.694658057,1.425102378,-2.8738,1.4195,0.36663,0.00019999999999997797,-0.00019999999999997797,6.0000000000060005e-05,-0.0008135774181887712,-0.00036577034811524634,0.00035964512917696645
150000000000.0,-1,0.03773598919999999,0.0883775298,-0.028596191400000002,0.003841,0.022677,-0.011645,-0.39028505669999997,-9.694658057,1.4252985109999998,-2.8743,1.4195,0.36736,0.00012000000000000899,-0.000300000000000189,2.999999999997449e-05,-0.0012490262141486852,-0.0003899999624430439,0.0003330616975028011
150000000000.0,-1,0.04466929075,0.1506889839,0.00485429175,0.003825,0.017358,-0.00953,-0.38794126734999995,-9.694559990499998,1.4265733754999999,-2.8761,1.4195,0.36951,0.00026999999999999247,-0.0002999999999997449,0.00010999999999994348,0.00039296519548948083,-0.00019304802906772167,0.0004198085287658859
150000000000.0,-1,0.07448150675,0.15232669445,-0.0016082905999999998,0.001686,0.016298,-0.00847,-0.38572496445,-9.694559990499998,1.427259841,-2.8776,1.4195,0.37123,0.000260000000000038,-0.00019999999999997797,0.00012000000000000899,0.00037964195780126886,0.00021925497250330217,-0.0006646499315692278
150000000000.0,-1,0.0718827445,0.14237294469999998,-0.015317987299999999,-0.000457,0.012065,-0.008481,-0.3835773081,-9.694658057,1.427259841,-2.8791,1.4195,0.37277,0.00028999999999990145,-0.00010000000000021103,-0.000140000000000029,-0.0003518613125361725,-0.0021293133225477323,-0.0014486533781270516
150000000000.0,-1,0.054250387799999994,0.14977696545,-0.019338713799999997,-0.000462,0.009944,-0.008486,-0.3818121111,-9.6947561235,1.427259841,-2.8802,1.4196,0.37403,-3.999999999992898e-05,-0.00019999999999997797,-0.00021999999999999797,-0.0020466850242115697,-0.0006329424509294856,0.00015812176279972334
150000000000.0,-1,0.03274440435,0.1028717585,-0.023673253099999996,0.001663,0.006746,-0.007429,-0.38050782665,-9.6947561235,1.4271617744999998,-2.881,1.4196,0.37494,0.00036000000000002697,-0.000500000000000167,0.00040000000000006697,0.005184834864852661,0.0030877661757462427,-0.0005498211633774286
150000000000.0,-1,0.0175931301,0.0803753034,-0.03064578125,0.000597,0.004653,-0.010625,-0.37926238209999996,-9.69485419,1.4267695085,-2.8818,1.4197,0.37574,7.999999999996898e-05,-0.0002999999999997449,-2.0000000000020002e-05,-0.00011757748346585828,-0.0008079748371627726,-0.00029799827273002677
150000000000.0,-1,0.005452497399999999,0.057849428349999996,-0.01993691945,0.000596,0.001495,-0.013823,-0.37789925775,-9.694952256499999,1.426671442,-2.8827,1.4197,0.37664,7.999999999996898e-05,-0.000300000000000189,2.0000000000020002e-05,-0.00025182673276447076,-0.00044580555476114725,0.00014019677991794488
150000000000.0,-1,0.017043957699999997,0.060193217699999996,-0.0189268345,-0.000473,-0.000613,-0.014892,-0.37617328734999994,-9.695050323,1.4263772424999999,-2.8837,1.4198,0.37774,0.00019000000000002348,-0.0002999999999997449,4.999999999999449e-05,0.0004263449526487051,0.00010326172658881028,-0.0005204400541065635
150000000000.0,-1,0.0377752158,0.06614585425,-0.0043737659,-0.003679,-0.002721,-0.014898,-0.3738687246,-9.6951483895,1.426279176,-2.8852,1.4199,0.37921,0.000140000000000029,-0.000300000000000189,0.00010999999999994348,0.0005098252666275727,-0.00027483192882682417,0.0002551162827924003
150000000000.0,-1,0.035892338999999995,0.08069892285,-0.0025497289999999997,-0.010082,-0.003756,-0.014902,-0.37152493525,-9.6953445225,1.4255927105,-2.8867,1.42,0.3806,0.00013999999999991797,-0.000300000000000189,0.00012000000000000899,0.0006588606206854308,0.0001523566932246645,-2.479794004939251e-05
150000000000.0,-1,0.035892338999999995,0.08069892285,-0.0025497289999999997,-0.010082,-0.003756,-0.014902,-0.37152493525,-9.6953445225,1.4255927105,-2.8867,1.42,0.3806,9.00000000000345e-05,-0.00039999999999995595,8.000000000008001e-05,-0.003568680472077368,-0.0015523778658266263,-0.003627687430802773
150000000000.0,-1,0.01118938765,0.09560503085,-0.014092156049999999,-0.013316,-0.00576,-0.017034,-0.36972051164999997,-9.695638722,1.4244159124999998,-2.8876,1.4202,0.38154,0.0001100000000000545,-0.0002999999999997449,-8.000000000008001e-05,0.0028241801580097814,0.001300455712877291,0.005884422382078647
150000000000.0,-1,0.0436003659,0.18857207285,-0.05941849235,-0.017595,-0.007888,-0.01385,-0.36502312629999994,-9.696423253999999,1.420199053,-2.89,1.4207,0.38379,0.00010999999999994348,-0.00039999999999995595,7.00000000000145e-05,-0.001294997274777998,3.8524531700945275e-05,8.757537871573184e-05
150000000000.0,-1,0.042178401649999996,0.18883685239999998,-0.057947494849999996,-0.014401,-0.01003,-0.01279,-0.36360116205,-9.696717453499998,1.4187280555,-2.8907,1.4209,0.3844,0.00038000000000004697,-0.00039999999999995595,0.0001300000000000745,-5.136139478612023e-05,0.00022505509434656013,-0.0006622432112419752
150000000000.0,-1,0.04088392385,0.18906240535,-0.0568001168,-0.011205,-0.011111,-0.011728,-0.36230668424999996,-9.6969135865,1.4176493239999999,-2.8914,1.421,0.38496,0.00036999999999998145,-0.000300000000000189,3.999999999992898e-05,-0.0004235617789634105,-0.00022221742564454416,-0.001200535938985725
150000000000.0,-1,0.036853390699999995,0.20049695925,-0.10115559475,-0.002682,-0.015395,-0.010672,-0.3603747742,-9.697207786,1.4155899275,-2.8923,1.4213,0.38575,0.00024999999999997247,-0.000300000000000189,-9.99999999995449e-06,-0.0008691769693784934,0.00015653584743935411,0.000581672031640057
150000000000.0,-1,0.04797413179999999,0.20796962654999998,-0.1134629405,0.00584,-0.018626,-0.00855,-0.3583153777,-9.697501985499999,1.4141189299999999,-2.8934,1.4215,0.38671,0.00021999999999999797,-0.0002999999999997449,-2.0000000000020002e-05,-0.0006469713472894156,-0.0009098239934790531,0.0009302042744760985
150000000000.0,-1,0.04686598035,0.2078617534,-0.11452205869999998,0.011172,-0.019708,-0.008551,-0.35720722624999995,-9.697403919,1.4151976615,-2.8943,1.4214,0.38743,0.00029999999999996696,-0.000300000000000189,5.999999999994898e-05,0.00041824349829688856,-0.0008047132198791829,0.0011536324483591986
150000000000.0,-1,0.012974197949999999,0.15007116495,-0.0679012446,0.016504,-0.02079,-0.008552,-0.3559421684,-9.697403919,1.4156879939999998,-2.8953,1.4214,0.38815,0.0002500000000000835,-0.0004999999999997229,1.0000000000065512e-05,-0.0006482489225287935,-0.0004974480282493587,-0.0008084365096736601
150000000000.0,-1,0.01473939495,0.1171894675,-0.04053088445,0.014363,-0.023963,-0.00856,-0.35456923739999996,-9.6973058525,1.4167667254999998,-2.8964,1.4213,0.38901,0.00031999999999998696,-0.00039999999999995595,0.00010999999999994348,0.0003121183244401138,-0.00011458858981039377,-0.0006270895453788228
150000000000.0,-1,0.0137489233,0.1170521744,-0.04174690905,0.010096,-0.021841,-0.006429,-0.35357876574999997,-9.697109719499998,1.4179435235,-2.8972,1.4212,0.38965,0.00027999999999994696,-0.00040000000000040004,2.999999999997449e-05,0.001021994935873849,0.0004471264721446211,-0.0009495877080158976
150000000000.0,-1,0.02752726655,0.10574510694999999,-0.00253992235,0.00476,-0.020775,-0.004301,-0.35223525469999994,-9.697109719499998,1.418826122,-2.8983,1.4212,0.39048,0.00019000000000002348,-0.00039999999999995595,3.0000000000085514e-05,0.0011114315818643306,0.0007867866368633791,-0.0019632911226090677
150000000000.0,-1,0.039726739149999996,0.0652730624,-0.009483030549999999,-0.005915,-0.019704,-4.7e-05,-0.35097019684999997,-9.697109719499998,1.418629989,-2.8991,1.4212,0.39107,6.0000000000060005e-05,-0.0004999999999997229,7.00000000000145e-05,0.0005422808788724254,-4.6182404765060525e-05,0.0014818022120299812
150000000000.0,-1,0.03974635245,0.06542016214999999,-0.0085121722,-0.012327,-0.019718,0.00527,-0.35099961679999997,-9.6973058525,1.4176493239999999,-2.8989,1.4213,0.39069,0.00039000000000000146,-0.00039999999999995595,3.999999999992898e-05,0.0011215136634232792,-0.00024203614687667852,-0.0027452714373683573
150000000000.0,-1,0.01626923235,0.0831996186,-0.0225356817,-0.017665,-0.018661,0.008462,-0.35085251705000003,-9.697600051999999,1.4157860604999999,-2.8987,1.4215,0.39029,9.999999999998899e-05,-0.00039999999999995595,-1.999999999990898e-05,-0.0008971895237070981,0.0007013822829022853,0.0012885510482818496
150000000000.0,-1,0.037167203499999996,0.10030241619999998,-0.037196623449999994,-0.019842,-0.017536,0.012708,-0.35096039019999997,-9.6978942515,1.4134324645,-2.8982,1.4217,0.38963,0.00010999999999994348,-0.000500000000000167,-2.0000000000020002e-05,0.00024126260894430374,0.0006999524092374809,-0.00010271096833114335
150000000000.0,-1,0.03841264805,0.10055738909999999,-0.0351274203,-0.021982,-0.016499,0.016964,-0.35220583475,-9.698188451,1.4113730679999998,-2.897,1.4219,0.38827,0.00021999999999999797,-0.000500000000000167,9.99999999995449e-06,0.0007390916031040362,0.0007761267835886265,-0.0011041977153076754
150000000000.0,-1,0.044443737799999994,0.1380972453,-0.07450112005,-0.019865,-0.019721,0.021212,-0.3523921611,-9.69877685,1.4073523415,-2.8962,1.4223,0.38725,0.0005199999999999649,-0.0004999999999997229,0.000140000000000029,-0.00031857716282068793,0.0008491246247088746,-0.00045528649178017133
150000000000.0,-1,0.03703971705,0.15249340749999998,-0.06323327919999999,-0.016673,-0.020819,0.024401,-0.35366702559999996,-9.699071049499999,1.404704546,-2.8949,1.4225,0.38573,0.00041000000000002146,-0.000500000000000167,0.00017999999999995797,-0.0003220317734244915,-4.03629289977836e-05,-0.00010782555009680728
150000000000.0,-1,0.0392462133,0.15263070059999997,-0.0617426684,-0.015613,-0.021899,0.026526,-0.3558833285,-9.699169116,1.4032335484999998,-2.8932,1.4226,0.38376,0.00021999999999999797,-0.000500000000000167,-1.4999999999987246e-05,-0.00024795129658272685,-0.00032068547776642475,0.0013689530462748234
150000000000.0,-1,0.030537908099999997,0.1348414375,-0.06596933455,-0.016694,-0.024048,0.030775,-0.35719741959999995,-9.6996594485,1.3997031544999998,-2.8917,1.423,0.382,0.00024000000000001798,-0.00039999999999995595,-1.4999999999987246e-05,-0.00039765756701015675,-0.0010089772927064367,0.0007759422912734237
150000000000.0,-1,0.018740508149999998,0.11306086784999998,-0.030714427799999996,-0.020965,-0.022995,0.033968,-0.3597667619,-9.6998555815,1.3975456915,-2.8896,1.4231,0.37964,0.00031000000000003247,-0.0004999999999997229,6.0000000000060005e-05,0.0003601468025058452,-0.00011361986239077915,-0.00043148773692047726
150000000000.0,-1,-0.017416610399999997,0.13616533525,-0.0246146915,-0.024171,-0.025103,0.033962,-0.36326773594999995,-9.700051714499999,1.3951920955,-2.8869,1.4233,0.3766,0.0005100000000000104,-0.000500000000000167,5.999999999994898e-05,0.0012396340679039497,0.0006636968855633363,-0.0024382023311897427
150000000000.0,-1,-0.0189464478,0.13670470099999998,-0.0178677163,-0.028432,-0.025062,0.03077,-0.36652354374999996,-9.700345914,1.3925442999999997,-2.8842,1.4234,0.3737,0.00026999999999999247,-0.0005999999999999339,0.00012000000000000899,0.0007107267678314599,0.0003766193835568199,-0.0009136720050690883
150000000000.0,-1,-0.0163967188,0.126309652,-0.0384224547,-0.031631,-0.027146,0.027574,-0.36937727889999994,-9.700738179999998,1.389210039,-2.8817,1.4237,0.37089,0.00012999999999996348,-0.000500000000000167,4.999999999999449e-05,0.000816231088200503,0.0003916708160047744,-0.0003945852959250651
150000000000.0,-1,0.0081787461,0.11238420899999998,-0.026134722249999996,-0.035904,-0.030302,0.026502,-0.37150532194999997,-9.701130445999999,1.3855815784999999,-2.8796,1.424,0.36849,7.00000000000145e-05,-0.0005999999999999339,-0.000160000000000049,-0.0009120073852884047,0.0003395695274832633,-0.0005015379695372246
150000000000.0,-1,0.036421898099999996,0.11461031854999999,-0.0043737659,-0.039104,-0.031342,0.025435,-0.3728096064,-9.701620778499999,1.3822473174999999,-2.8781,1.4243,0.36666,0.00024000000000001798,-0.0005999999999999339,9.00000000000345e-05,-1.9704120726160568e-06,0.0003980365490610094,0.00013062740423408492
150000000000.0,-1,0.06037954405,0.1436674225,-0.0091790244,-0.041254,-0.033495,0.030747,-0.37402563099999997,-9.702111110999999,1.3785207904999999,-2.8766,1.4246,0.36479,0.00034000000000000696,-0.000500000000000167,9.99999999995449e-06,0.0013597438994574773,0.0012924364508597463,-0.0011251365950792902
150000000000.0,-1,0.06196822135,0.2155109404,-0.052867650149999994,-0.046599,-0.033513,0.036064,-0.37576140804999997,-9.702699509999999,1.373715532,-2.8746,1.4251,0.36236,0.0005399999999999849,-0.0004999999999997229,8.000000000008001e-05,0.002652674302053404,0.0017183288313047385,-0.002776113359600707
150000000000.0,-1,0.06826409065,0.26475013005,-0.06071297015,-0.045543,-0.03461,0.040316,-0.37786003115,-9.703287909,1.368812207,-2.8723,1.4255,0.35962,0.00039999999999995595,-0.0005999999999999339,9.99999999995449e-06,0.0004715743713350484,0.0006044270688774223,-8.265942866270137e-05
150000000000.0,-1,0.08388608410000001,0.2715853651,-0.0720592642,-0.03809,-0.035748,0.046697,-0.38017440055,-9.703876307999998,1.3643011479999998,-2.8698,1.4259,0.3568,0.0002300000000000635,-0.000700000000000145,-7.00000000000145e-05,-0.0022009913233043132,-0.00027244987930918896,0.0021928761924188134
150000000000.0,-1,0.07953193149999999,0.25071681389999995,-0.11107011789999999,-0.030641,-0.037947,0.053076,-0.38329291525,-9.704366640499998,1.3596920225,-2.8668,1.4262,0.35337,0.00024999999999997247,-0.000700000000000145,-7.00000000000145e-05,-0.0011588033408014287,-0.00028123591128115244,5.649132503271481e-05
150000000000.0,-1,0.0778451877,0.2277692529,-0.11108973119999999,-0.022171,-0.041102,0.057303,-0.38684292255,-9.704758906499999,1.3557693625,-2.8636,1.4265,0.34974,0.0005199999999999649,-0.0005999999999999339,6.0000000000060005e-05,0.000950500340411109,0.00034880142095450317,-0.001409177785584026
150000000000.0,-1,0.0686661633,0.14990445189999999,-0.08543553479999999,-0.01685,-0.043276,0.061553,-0.39098132885,-9.705053106,1.3528273674999998,-2.8603,1.4267,0.34587,0.00043999999999999595,-0.000700000000000145,9.99999999995449e-06,0.00018343824513866736,0.0011514261364613532,-0.0016153909888032558
150000000000.0,-1,0.04912150985,0.07497183924999999,-0.0316558662,-0.013665,-0.04545,0.066867,-0.39598272035,-9.705053106,1.351160237,-2.8565,1.4267,0.34161,0.000160000000000049,-0.0007999999999999119,1.0000000000065512e-05,-0.0009941289764974215,0.0007359044974013518,-0.0004906883048103605
150000000000.0,-1,0.046777720499999995,0.0032067745499999994,0.0085121722,-0.013676,-0.04549,0.072186,-0.40126850470000003,-9.7049550395,1.3501795719999998,-2.8527,1.4267,0.3373,0.00021999999999999797,-0.0006999999999997009,9.99999999995449e-06,0.00029260104652717445,-0.00027051452078530325,0.00028652378591265126
150000000000.0,-1,0.059653851949999996,-0.05104361325,0.0313420534,-0.019019,-0.046553,0.075372,-0.40666216219999995,-9.704856973,1.349198907,-2.8488,1.4266,0.33291,0.00043999999999999595,-0.000800000000000356,0.00017999999999995797,-5.378088703000827e-05,0.0008133972047439375,-0.0005487411713693824
150000000000.0,-1,0.08249353979999999,-0.09833127954999998,0.05078864034999999,-0.028626,-0.044434,0.080693,-0.41214407955,-9.704856973,1.3475317765,-2.8448,1.4266,0.32832,0.0004899999999999904,-0.0005999999999999339,4.999999999999449e-05,0.002834979114227698,0.0015390398614141265,-0.001831843489952023
150000000000.0,-1,0.1144828321,-0.07169641815,0.022447421849999996,-0.033973,-0.044461,0.087072,-0.41749851044999997,-9.705053106,1.3447859144999998,-2.8406,1.4267,0.32358,0.00029999999999996696,-0.0007999999999999119,0.000140000000000029,-0.0003091314227605668,0.002093737091820591,-0.00017928027291236326
150000000000.0,-1,0.1028717585,0.00132389775,0.0296553096,-0.041453,-0.043427,0.094518,-0.423843413,-9.705151172499999,1.341745853,-2.8356,1.4268,0.31812,0.0003700000000000925,-0.0007999999999999119,4.0000000000040004e-05,0.0007798920933153042,0.0013712332460722454,-0.00017181800412080506
150000000000.0,-1,0.11205078289999999,0.0014906108,0.03380352255,-0.045736,-0.043466,0.10196,-0.43302243739999996,-9.7053473055,1.3376270599999998,-2.8285,1.4269,0.31051,0.0005199999999999649,-0.0007999999999999119,0.00010999999999994348,0.0008366282849010531,0.0020825992724846643,-0.00034402918120823855
150000000000.0,-1,0.1484922943,0.0900054337,-0.05503491979999999,-0.044682,-0.042466,0.10941,-0.43743542989999995,-9.705837638,1.332331469,-2.8244,1.4273,0.3058,0.0006300000000000194,-0.000800000000000356,9.00000000000345e-05,-0.0004073654497276369,0.0008434915428876533,-0.0009425387768338123
150000000000.0,-1,0.1402743216,0.10485270179999999,-0.1007142955,-0.032964,-0.043629,0.11685,-0.44537881639999993,-9.706229903999999,1.3273300774999999,-2.8178,1.4275,0.29875,0.00032999999999994145,-0.0009999999999998899,-9.99999999995449e-06,-0.001506616326264032,0.00033005376739558834,0.0006912970648909056
150000000000.0,-1,0.1114231573,0.12029817555,-0.14955141249999998,-0.018047,-0.047963,0.1211,-0.4545382275,-9.7063279705,1.3228190185,-2.8106,1.4277,0.29098,0.00043999999999999595,-0.0009000000000001229,7.999999999996898e-05,-0.001712039707616242,0.00045574748574717105,-0.00047510353068025424
150000000000.0,-1,0.0791396655,0.1356259695,-0.15613167465,0.001144,-0.051237,0.12323,-0.46445275064999997,-9.7063279705,1.3199750899999998,-2.8033,1.4276,0.28303,0.0004899999999999904,-0.0008999999999996788,7.999999999996898e-05,0.0013500198354559068,0.0004266969305499746,-0.0001593680684206511
150000000000.0,-1,0.08059104969999999,0.09964537065,-0.13545925645,0.018212,-0.052358,0.12216,-0.47428882059999994,-9.7059357045,1.3192886245,-2.7965,1.4273,0.27562,0.00047000000000008146,-0.001000000000000334,9.999999999998899e-05,-0.0009190510790340056,0.0024681618828938934,-0.0020214258601964907
150000000000.0,-1,0.0690976559,0.0865731062,-0.0951048917,0.026746,-0.053444,0.1211,-0.48434063685,-9.705249238999999,1.320367356,-2.79,1.4269,0.26854,0.00045999999999990493,-0.0007999999999999119,3.0000000000085514e-05,0.00015965969129516644,0.0013149862844881177,-0.0006560876525580905
150000000000.0,-1,0.09435958629999999,0.06726381235,-0.059026226349999995,0.027775,-0.053388,0.12107,-0.49373540755,-9.7045627735,1.3224267525,-2.7843,1.4264,0.26218,0.0006900000000000794,-0.0008999999999996788,0.00031999999999998696,0.0010326188542468806,0.001711515190230939,-0.0007317102233450612
150000000000.0,-1,0.1200922359,0.0156121868,-0.006207609449999999,0.020312,-0.050185,0.12214,-0.5025711992,-9.7037782415,1.3247803484999998,-2.779,1.4258,0.25632,0.0005199999999999649,-0.001100000000000101,4.999999999999449e-05,0.00010027797921097203,0.0004169803473532685,-0.0010935649859722396
150000000000.0,-1,0.1245640683,0.00167693715,0.042394147949999995,0.00752,-0.04484,0.12321,-0.5116717704,-9.7029937095,1.3269378115000001,-2.7736,1.4253,0.25031,-0.0008299999999999974,-0.0013000000000000789,-0.0005900000000000905,-0.018182684370658952,0.006616548611227957,-0.011999154127551703
150000000000.0,-1,0.12618216555,0.01032640245,0.026085689,-0.013802,-0.036287,0.12535,-0.52107634775,-9.702503377,1.326839745,-2.7674,1.4249,0.24363,0.0016399999999999748,-0.0009000000000001229,0.0008500000000000174,0.01907891819475993,-0.003942393364972263,0.01310584494230116
150000000000.0,-1,0.15094395679999997,-0.0042462794499999994,0.03182257925,-0.035128,-0.02775,0.12962,-0.53027498545,-9.702307244,1.324682282,-2.7608,1.4248,0.23666,0.00040000000000006697,-0.001100000000000101,4.0000000000040004e-05,0.0025687744132836254,0.002743059338134346,-0.00010382048319512727
150000000000.0,-1,0.16364356855,-0.0042855060499999995,0.0367160976,-0.056459,-0.019229,0.13602,-0.5429745972,-9.702209177499999,1.319778957,-2.7513,1.4248,0.2268,0.0005999999999999339,-0.0009999999999998899,0.00024000000000001798,0.0023611549697828416,0.002177395222456191,-0.001053597117762095
150000000000.0,-1,0.16867437999999998,0.15705349975,0.012121019399999999,-0.075656,-0.011769,0.14135,-0.5499471253499999,-9.702601443499999,1.3143852995,-2.7453,1.425,0.22056,0.00036000000000002697,-0.0013000000000000789,-0.000160000000000049,-0.000436579030893558,0.00032841953453943695,-0.0008193827460769576
150000000000.0,-1,0.19387747049999998,0.29417008004999995,-0.02166288985,-0.092721,-0.003273,0.1488,-0.5607834735999999,-9.703091775999999,1.3061477135,-2.7361,1.4253,0.21108,-0.000160000000000049,-0.0015999999999998238,-0.00015999999999993797,-0.005913191631651715,-0.0002964165675964914,0.005489024283260813
150000000000.0,-1,0.20881299844999998,0.2946113793,-0.011875853149999999,-0.10339,0.004145,0.1552,-0.5757288082,-9.703484042,1.2963410635,-2.7237,1.4256,0.19857,0.0012199999999999989,-0.0009999999999998899,0.00010999999999994348,0.005617545445975924,0.003651824861979236,-0.005177365344971818
150000000000.0,-1,0.2704870203,0.5486036142999999,-0.13861699775,-0.10232,0.011515,0.1616,-0.5821815839,-9.704660839999999,1.2851614825,-2.7162,1.4264,0.19106,-0.00029999999999996696,-0.0018000000000002458,-0.00017000000000000348,-0.01061888770472419,-0.0025991031437651024,0.007220893158226049
150000000000.0,-1,0.28709948539999997,0.6042269331,-0.17859870979999998,-0.098052,0.016744,0.16905,-0.5937142043,-9.705445372,1.273295436,-2.7053,1.427,0.18012,0.0016100000000000003,-0.0005999999999999339,2.0000000000020002e-05,0.012699879820840865,0.007538391035579961,-0.007491592435805883
150000000000.0,-1,0.27024185405,0.6459444221999999,-0.19210246685,-0.090586,0.019864,0.17332,-0.6064824626,-9.706229903999999,1.2618216555,-2.6936,1.4275,0.16842,0.00279000000000007,-0.0022999999999999687,0.00012000000000000899,-0.017288195443659893,-0.02918975988212158,0.04127606126587646
150000000000.0,-1,0.27519421229999996,0.55194768195,-0.19291641879999996,-0.079905,0.025123,0.17333,-0.6235460335999999,-9.7061318375,1.2536821360000001,-2.6801,1.4275,0.155,0.0007299999999998974,-0.0011999999999998678,9.999999999998899e-05,0.0033687590290680802,0.005689445691317019,-0.0015086421441905529
150000000000.0,-1,0.2590720797,0.47176851154999994,-0.20310552815,-0.060695,0.027176,0.17228,-0.6406488311999999,-9.7059357045,1.2471116805,-2.667,1.4273,0.14213,0.00010000000000010001,-0.0017000000000000348,-0.0007500000000000284,0.04164156340547143,0.003590259346174296,-0.014150718572492504
150000000000.0,-1,0.27704766914999995,0.35618733464999996,-0.2027034555,-0.042545,0.029256,0.16803,-0.65742800935,-9.7053473055,1.2424044884999998,-2.6549,1.427,0.13014,0.0006599999999999939,-0.00019999999999997797,0.0010000000000000009,-0.049827879504829475,0.016680004137851423,0.0016286844281916402
150000000000.0,-1,0.28318663205,0.28153911485,-0.18270769615000002,-0.026528,0.032405,0.16378,-0.6685095238499998,-9.705445372,1.2363243654999998,-2.6459,1.427,0.12133,-0.0016900000000000803,-0.0022999999999999687,-0.0017199999999999438,0.015046286719819557,0.007628910518801213,-0.0204732119158455
150000000000.0,-1,0.29498403199999995,0.21003882969999998,-0.10993254649999999,-0.015881,0.035602,0.16164,-0.6846414631,-9.7045627735,1.2343630355,-2.6352,1.4264,0.11085,0.00380999999999998,-0.0020999999999999908,0.0009000000000000119,-0.012134084816004531,-0.02631260449403494,0.034344207312022146
150000000000.0,-1,0.3150680512,0.1878758007,-0.0453851762,-0.015861,0.039884,0.15633,-0.7003909429999999,-9.703680175,1.2325978384999998,-2.6249,1.4257,0.10084,-0.002409999999999912,-0.001100000000000101,-0.0013900000000000023,0.01235969807715609,0.02625150157083045,-0.034213672117263894
150000000000.0,-1,0.3394866097,0.21175499345,0.03892259385,-0.025449,0.043128,0.15315,-0.7158266101,-9.7027975765,1.2301461759999999,-2.6146,1.4251,0.090874,0.0007999999999999119,-0.0018000000000002458,-0.00033500000000008523,-0.0009040713087842267,0.00046317283041119595,0.000559823019017136
150000000000.0,-1,0.3639836214,0.26236711409999997,0.0951048917,-0.043561,0.051699,0.15103,-0.7238680631,-9.7024053105,1.228773245,-2.6092,1.4249,0.085826,0.00045000000000006146,-0.0014999999999996128,-0.0003349999999999742,0.002670155644886929,0.004685289180677232,-9.65814532252196e-05
150000000000.0,-1,0.38082163944999997,0.28130375524999995,0.07495222594999999,-0.06488,0.058163,0.14891,-0.7390585639499999,-9.7020130445,1.2225950555,-2.5979,1.4246,0.074913,0.0009599999999999609,-0.0019000000000000128,-9.99999999995449e-06,0.0036600590411186573,0.00039104176374893385,0.0022201026749719688
150000000000.0,-1,0.40216090984999997,0.2843143968,0.036333638249999994,-0.082988,0.065699,0.1436,-0.7457270859499999,-9.7024053105,1.2160246,-2.5915,1.4248,0.068991,0.00043999999999999595,-0.0019000000000000128,-0.0006000000000000449,-0.0037832107475141985,0.0006773807878273086,-0.0018638765605831775
150000000000.0,-1,0.3778502245,0.25158960575,-0.024987344199999997,-0.09577,0.072136,0.14042,-0.75268980745,-9.7029937095,1.2065121495,-2.5838,1.4253,0.061879,0.0010499999999999954,-0.0016000000000002679,-0.00012000000000000899,0.005069145645175244,0.002287306941567868,0.002617671072096428
150000000000.0,-1,0.37960561485,0.21022515605,-0.06265468684999999,-0.097884,0.075374,0.13404,-0.7593877494,-9.703876307999998,1.1955287015,-2.5757,1.4259,0.054357,0.0005100000000000104,-0.0019999999999997797,-0.00034000000000000696,-0.0014903383077300436,-0.00022004688041477038,-0.0005358376738173742
150000000000.0,-1,0.40591685679999995,0.1336646395,-0.074726673,-0.094669,0.076469,0.12766,-0.7646048871999999,-9.704758906499999,1.184447187,-2.5684,1.4265,0.0476,0.0007500000000000284,-0.002000000000000224,-0.00021999999999999797,-0.0010775831633020871,-0.00137912535582152,-0.00012794775530888813
150000000000.0,-1,0.3850679189,0.07106879255,-0.04041320464999999,-0.089323,0.073338,0.11808,-0.76934149915,-9.705641505,1.1743463374999998,-2.5616,1.4271,0.041464,0.0007000000000000339,-0.0017999999999998018,-0.00023999999999990695,0.005307481962831595,0.0043988018700440445,0.0016065234506847936
150000000000.0,-1,0.3653761657,0.0059624432,0.0014611908499999999,-0.087167,0.075514,0.10957,-0.77389178475,-9.7063279705,1.1652261529999999,-2.5553,1.4277,0.035783,0.0007599999999999829,-0.002000000000000224,0.00014999999999998348,0.0019733120424196837,5.0282619421526675e-06,0.0017105142060123146
150000000000.0,-1,0.34518427335,-0.23817410854999999,0.10925588765,-0.094606,0.078805,0.098938,-0.77748101865,-9.707014436,1.1572827665,-2.55,1.4281,0.031096,0.0005899999999999794,-0.0019999999999997797,-0.00017000000000000348,0.002441608154829966,0.0005743133978026727,0.0008250969374639094
150000000000.0,-1,0.24494069705,-0.49527505159999996,0.23917438685,-0.11485,0.08005,0.085108,-0.7869248226,-9.707602835,1.146005119,-2.5399,1.4286,0.021647,0.0005100000000000104,-0.0022999999999999687,0.00014999999999998348,0.0012593825405231573,-0.00035463007678915304,-0.0009732643662319074
150000000000.0,-1,0.19739805785,-0.72950688685,0.35721703289999995,-0.14467,0.085599,0.068094,-0.7949074357,-9.7085835,1.1319816095,-2.5294,1.4293,0.011888,0.0006099999999999994,-0.002000000000000224,0.00039999999999995595,0.004640913876589048,0.0030613705452742224,0.0022835235625022765
150000000000.0,-1,0.24634304799999998,-0.8120886864999999,0.46551186884999995,-0.18303,0.092251,0.050016,-0.8011934983499999,-9.710152564,1.1143296395,-2.5182,1.4304,0.001567,0.0017199999999999438,-0.0032999999999998586,0.0003300000000000525,0.017321532572997178,-0.02976234689921009,0.022344218367571944
150000000000.0,-1,0.2698986213,-0.65026915485,0.48422295704999996,-0.22671,0.10421,0.034074,-0.7996146276999999,-9.711819694499999,1.1006003295,-2.5133,1.4316,-0.002564,-0.0009299999999999864,-0.0015000000000000568,-0.0003300000000000525,-0.012559892159983654,0.027185931756042114,-0.019967714568377648
150000000000.0,-1,0.3711620892,-0.19932016125,0.43487589425,-0.27359,0.12144,0.024528,-0.8034686411499999,-9.71446749,1.074220441,-2.4994,1.4336,-0.015401,0.00041000000000002146,-0.0023999999999997357,-0.00019999999999997797,0.0014167511022333823,0.0021612036325422412,-0.00045028975765659673
150000000000.0,-1,0.4818203278,0.24807882504999998,0.25882691345,-0.30235,0.13961,0.02137,-0.8069794218499999,-9.717409485,1.044212092,-2.4837,1.4358,-0.029928,0.0007000000000000339,-0.0024000000000001798,-7.999999999996898e-05,0.003395547872137916,0.0006776703401187856,0.0025162072510813704
150000000000.0,-1,0.5693544856999999,0.6324112452,0.07185332455,-0.29699,0.1544,0.02566,-0.8108726619,-9.72035148,1.013811477,-2.4669,1.438,-0.04527,0.0005999999999999339,-0.0026999999999999247,-0.00019999999999997797,0.00027089934888380185,-0.00024443406860763517,0.0009607124888098006
150000000000.0,-1,0.63918764035,0.9451845402999999,-0.16715434925,-0.25859,0.15737,0.033122,-0.81545236745,-9.7228031425,0.9864509235,-2.4508,1.4399,-0.059973,0.001060000000000061,-0.0024999999999999467,-0.0003500000000000725,0.0029681604093980685,0.0008294157139026037,0.003459672009906045
150000000000.0,-1,0.664694737,1.1776805985,-0.26001351809999995,-0.21488,0.15393,0.044826,-0.8209146715,-9.724666405999999,0.9631601297499999,-2.4358,1.4414,-0.073567,0.0008799999999999919,-0.0027000000000003688,-0.00041999999999997595,-0.0010713525778722754,0.002085280227131836,0.0003020192068574623
150000000000.0,-1,0.69928279155,1.2716283055,-0.2695063553,-0.1605,0.14833,0.054401,-0.8273772538499999,-9.725843203999998,0.944968794,-2.4224,1.4424,-0.085478,0.0006800000000000139,-0.0028999999999999027,-0.0008599999999999719,-0.001215396833866178,0.0016802221119844862,0.0001007223632052412
150000000000.0,-1,0.7036369441499999,1.275452899,-0.27421354729999997,-0.092252,0.14585,0.066113,-0.83486953445,-9.726431603,0.9330733275499999,-2.4117,1.4428,-0.094856,0.0009700000000000264,-0.0028999999999999027,-0.0005300000000000304,-0.0025304090565765325,-0.00028590483028478886,0.0021331365215548903
150000000000.0,-1,0.69993003045,1.122273026,-0.23115254715,-0.021868,0.14441,0.078893,-0.84357783965,-9.7261374035,0.9280229027999999,-2.4038,1.4426,-0.10132,0.0011999999999999789,-0.0028000000000001357,-0.0007399999999999629,0.001941645743362752,0.0015027090575203683,0.0033735651564366087
150000000000.0,-1,0.68557309485,0.8745472403499999,-0.14667806405,0.038918,0.14302,0.090606,-0.8534629428499999,-9.725156738499999,0.9291310542499999,-2.3986,1.4418,-0.10512,0.0008500000000000174,-0.0031999999999996476,-0.0006599999999999939,-0.0027268431577398555,0.0012609016901763415,-0.0012299540729243663
150000000000.0,-1,0.6713632589999999,0.6701374277500001,-0.029253236949999997,0.082634,0.1417,0.10231,-0.8491382101999999,-9.724862539,0.93621145555,-2.4049,1.4416,-0.097484,0.0010599999999999499,-0.0030000000000001137,-0.0007800000000000029,-0.0003825968107735722,0.0031132951745860282,0.003439635012771669
150000000000.0,-1,0.6679113181999999,0.4925193829499999,0.10468598875,0.11143,0.14785,0.11509,-0.86138671605,-9.722901209,0.9451747336499999,-2.4025,1.44,-0.09842,0.0010099999999999554,-0.0033000000000003027,-0.0007599999999999829,0.00043739395953901195,0.0017072135425761914,0.003456210267064108
150000000000.0,-1,0.67019626765,0.42098967785,0.17588226775,0.1253,0.16043,0.12789,-0.8750571861499999,-9.7206456795,0.9556776557999999,-2.4002,1.4383,-0.09919,0.0011100000000000554,-0.0033999999999996255,-0.0008600000000000829,-0.0010646324554939302,0.0017817714683392438,0.0021805190767654192
150000000000.0,-1,0.68894658245,0.37587908785,0.1860321505,0.13064,0.1741,0.14069,-0.8900515539999999,-9.718194016999998,0.96676897695,-2.3975,1.4364,-0.10022,0.0010099999999999554,-0.0035000000000002807,-0.0008899999999999464,-0.0023991921162651586,0.0009675997863827224,0.0008388107431804848
150000000000.0,-1,0.6859653608499999,0.3684750671,0.13234074175,0.13172,0.1878,0.15135,-0.8899142608999999,-9.716624953,0.9826263299999999,-2.4057,1.4352,-0.090321,0.000980000000000092,-0.0034999999999998366,-0.0009200000000000319,-0.0024646060029027694,0.002502616468277319,0.0017010566845705455
150000000000.0,-1,0.6779042945499999,0.3644935672,0.09401635355,0.1392,0.20148,0.16095,-0.90730145135,-9.713879090999999,0.9941981769999999,-2.4018,1.4331,-0.092179,0.0010699999999999044,-0.0037000000000002586,-0.0010700000000000154,-0.0002972561485368175,0.0017404758522445718,0.004473170254048586
150000000000.0,-1,0.6806893831499999,0.3984638028,0.0599970847,0.14988,0.212,0.1663,-0.9254927870999999,-9.7108390295,1.0064564894999999,-2.3981,1.4309,-0.093852,0.001100000000000101,-0.0036999999999998145,-0.0010399999999999299,-0.003445539723803792,0.0013559948081245388,0.0007500284918113831
150000000000.0,-1,0.7123550559999999,0.45884334684999994,-0.0112972608,0.16697,0.22358,0.16952,-0.9441450353999999,-9.707602835,1.0201857994999999,-2.3949,1.4286,-0.094866,0.0012099999999999334,-0.0036999999999998145,-0.0009700000000000264,-0.0011000501960731768,0.004122086976438455,0.0020979346078005
150000000000.0,-1,0.7218969264499999,0.47308260264999996,-0.0389127872,0.18509,0.23732,0.17271,-0.94650843805,-9.705739571499999,1.0360725725,-2.4014,1.4272,-0.086141,0.0013600000000000279,-0.0040000000000000036,-0.0011999999999999789,-0.0010143278965764058,0.0008878873253259645,0.005215814721658996
150000000000.0,-1,0.755700449,0.53604129565,-0.08186591419999999,0.20537,0.24674,0.17805,-0.96623941785,-9.701914978,1.0531361435,-2.3992,1.4245,-0.085828,0.0012600000000000389,-0.0040000000000000036,-0.0011400000000000299,-0.003094519155200759,0.0015601868644199435,0.0027850464923899754
150000000000.0,-1,0.81509932805,0.59011516375,-0.10523516114999999,0.22778,0.25721,0.1834,-0.9865489899999998,-9.697796185,1.0721610444999998,-2.3978,1.4217,-0.084722,0.0014299999999999313,-0.0040000000000000036,-0.0012400000000000189,-0.004506494232008773,0.0039990371446911865,0.0014332608891192145
150000000000.0,-1,0.87382154825,0.54816231505,-0.12016088244999999,0.25233,0.26766,0.19088,-1.007731354,-9.693285126,1.0934414749999999,-2.3969,1.4186,-0.082872,0.0013699999999999823,-0.0043000000000001926,-0.0012499999999999734,-0.0011298559960009058,0.00188040370176501,0.004388495151602889
150000000000.0,-1,0.8961120637,0.5431315036,-0.14364780919999998,0.27901,0.27915,0.20048,-1.0299924495,-9.688283734499999,1.1168793685,-2.3966,1.4152,-0.080378,0.0015500000000000513,-0.0042999999999997485,-0.0013600000000000279,-0.005811706111527926,0.0036489671332775586,0.0024836081604586724
150000000000.0,-1,0.91063571235,0.5033459245499999,-0.208685512,0.30461,0.28851,0.21114,-1.0350919075,-9.6849494735,1.140317262,-2.4045,1.4131,-0.06969,0.0016599999999999948,-0.0045000000000001705,-0.0011700000000000044,-0.0008495141676059248,0.0016964078757486512,0.005150227725805312
150000000000.0,-1,0.9090960683,0.25102082005,-0.19791781029999997,0.33235,0.29471,0.21861,-1.0595104659999999,-9.678967416999999,1.1687565469999999,-2.4052,1.4092,-0.066022,0.0014899999999999913,-0.0045999999999999375,-0.0013299999999999423,-0.005393787607176792,0.0015786599649123545,0.0011513529967370761
150000000000.0,-1,0.9341814789999999,0.24443075124999997,-0.2290637307,0.3633,0.30304,0.22289,-1.08461549,-9.672298894999999,1.1999416939999998,-2.4066,1.4051,-0.061504,0.0018299999999999983,-0.0045999999999999375,-0.001060000000000061,-0.002566808843173618,0.004727998885040385,0.0051802294130434134
150000000000.0,-1,0.8859131477,-0.19604474014999998,-0.20390967344999997,0.38892,0.31033,0.2261,-1.11011278,-9.665238107,1.2335785035,-2.4088,1.4008,-0.056152,0.0017300000000000093,-0.0049000000000001265,-0.0010900000000000354,-0.0033338838446761443,0.0017624482145821574,0.003733127085228105
150000000000.0,-1,0.8861583139499999,-0.4417307426,-0.20953869055,0.41346,0.31448,0.22611,-1.1216846269999998,-9.659746383,1.265842382,-2.4165,1.3975,-0.045351,0.0017699999999999383,-0.0049000000000001265,-0.0010399999999999299,-0.004342219482399212,0.0018690409688493226,0.0029597543274006988
150000000000.0,-1,0.9120576766,-0.4498114222,-0.24741197285,0.43374,0.31758,0.22613,-1.147574183,-9.6516068635,1.303696051,-2.4198,1.3927,-0.038782,0.0016800000000000148,-0.0051000000000001044,-0.0010100000000000664,-0.004706621516701981,0.0018402119546478968,0.0028867742041842614
150000000000.0,-1,0.93791781265,-0.65917359305,-0.18793464059999998,0.43802,0.32183,0.22295,-1.173463739,-9.6431731445,1.3422361854999998,-2.4232,1.388,-0.032069,0.0020600000000000618,-0.004999999999999893,-0.0007199999999999429,-0.001809233554113776,0.0048159631766442335,0.003947412190718369
150000000000.0,-1,0.9385944715,-0.9751340493999999,0.0018436501999999997,0.43804,0.32608,0.22083,-1.1992552285,-9.634641359,1.3806782535,-2.4264,1.3832,-0.025507,0.0018000000000000238,-0.005399999999999849,-0.0006199999999999539,-0.003664665539524492,0.0035780204550512895,0.0038304716466885935
150000000000.0,-1,0.9643565410499999,-0.983803128,-0.0354412331,0.42526,0.33464,0.21872,-1.225046718,-9.6259134405,1.4179435235,-2.4291,1.3785,-0.019406,0.0017299999999998983,-0.005600000000000271,-0.0006300000000000194,-0.00276257517656453,0.0004873117970500829,0.0023593049645163067
150000000000.0,-1,0.9850779924999999,-1.096579603,0.0005295590999999999,0.40288,0.34217,0.21554,-1.2507401409999999,-9.617381654999999,1.4530513305,-2.4309,1.374,-0.014062,0.0020000000000000018,-0.005599999999999827,-0.00042000000000008697,-0.0021966710860599203,0.0019481299694694698,0.005988681346215552
150000000000.0,-1,0.991256182,-1.162872557,0.0653319023,0.37302,0.34867,0.21341,-1.2680979115,-9.610320866999999,1.48472681,-2.4347,1.3703,-0.006714,0.0018400000000000638,-0.005599999999999827,-0.00041999999999997595,-0.004327212101173483,0.006802699410611401,0.001014461192620164
150000000000.0,-1,1.016557339,-1.1708159434999998,0.036323831599999995,0.34104,0.35521,0.20704,-1.2933990685,-9.6023774805,1.5137544939999998,-2.4345,1.3663,-0.003329,0.0018500000000000183,-0.006000000000000227,-0.00042999999999993044,-0.002818132720237454,-0.0012447643369961625,0.004025741755297574
150000000000.0,-1,1.051469013,-1.2206337255,0.034519408,0.30586,0.3628,0.20385,-1.3186021589999999,-9.594924426499999,1.5392517839999997,-2.4333,1.3626,-0.000933,0.0019099999999999673,-0.006099999999999994,0.00012999999999996348,0.0009516139482252939,0.004162184681205883,0.0026944246556137585
150000000000.0,-1,1.0350919075,-1.2180839964999999,0.0044718324,0.27175,0.36725,0.19322,-1.3430207174999997,-9.587961705,1.56121868,-2.4312,1.3592,0.000679,0.0020099999999999563,-0.006199999999999761,-2.0000000000020002e-05,-0.0002864840007061886,0.0001002974449604288,0.004668028396351609
150000000000.0,-1,1.0586278675,-1.224458319,-0.014043122799999998,0.2355,0.36642,0.18257,-1.3665566775,-9.581587382499999,1.5797532485,-2.4284,1.3562,0.001597,0.0020700000000000163,-0.006200000000000205,0.00017000000000000348,0.002424886588994868,0.002123866607216529,0.005085044423970286
150000000000.0,-1,0.9541674316999998,-1.021656797,0.030851720899999997,0.19499,0.36566,0.16341,-1.38862164,-9.575997592,1.594365157,-2.4251,1.3535,0.001941,0.0017700000000000493,-0.006600000000000161,0.00039000000000000146,-0.003305838912379455,-0.0010081231511542832,0.0017306683436226766
150000000000.0,-1,0.9118517369499999,-1.1402191954999998,0.08368014445000001,0.15023,0.36284,0.13893,-1.4083330064999997,-9.5713884665,1.6046621394999998,-2.4213,1.3513,0.001761,0.0020399999999999308,-0.006399999999999739,0.0006099999999999994,0.004495149876343252,0.0034521230790411916,0.004886415465823468
150000000000.0,-1,0.92881724145,-1.1437495894999998,0.0776882813,0.10334,0.3622,0.10807,-1.4252985109999998,-9.5678580725,1.610644196,-2.4172,1.3497,0.001271,0.0018299999999999983,-0.006600000000000161,0.0008000000000000229,-0.0006881552448652073,0.0003277051837722311,0.001529015143395096
150000000000.0,-1,0.7478355157000001,-1.8166819124999998,0.1043231427,0.047955,0.36486,0.066577,-1.4385374884999997,-9.565798676,1.611428728,-2.4128,1.3487,0.000529,0.0020200000000000218,-0.006699999999999928,0.0010700000000000154,0.003114702192818397,-0.0022854165840717755,0.004241042313721577
150000000000.0,-1,0.6373537967999999,-2.1754091695,0.10388184345,-0.009586,0.35904,0.025065,-1.4477557395,-9.565210277,1.6066234695,-2.4081,1.3484,-0.000549,0.0021100000000000563,-0.006800000000000139,0.0013299999999999423,0.0018784611555404673,-0.0017868871181414558,0.00460759041921488
150000000000.0,-1,0.641747176,-2.1743304379999997,0.1138552065,-0.063909,0.35222,-0.027085,-1.4521687319999999,-9.566190942,1.5966206865,-2.4035,1.3489,-0.001645,0.0020299999999999763,-0.006899999999999906,0.0014899999999999913,0.00011792093588880448,-0.0009840164072676405,0.002112483096711415
150000000000.0,-1,0.7057453739,-2.407140309,0.017848103,-0.10007,0.35699,-0.078141,-1.4515803330000001,-9.568642604499999,1.5826952435,-2.3994,1.35,-0.002258,0.0023600000000000287,-0.007000000000000117,0.0014800000000000368,0.0036596969230269227,-0.0020171612514974235,0.005082367204097826
150000000000.0,-1,0.7003811363499999,-2.4037079814999998,0.0340290755,-0.11917,0.3585,-0.12707,-1.4461866755,-9.572074932,1.5665142709999997,-2.3961,1.3516,-0.001952,0.0025399999999999867,-0.006999999999999673,0.0015800000000000258,0.0002517891944180395,-0.0012045765232657768,0.003198833994182637
150000000000.0,-1,0.7891607387999999,-1.9202401365,-0.20626326944999998,-0.12337,0.35353,-0.16963,-1.436478092,-9.5762917915,1.5495487665,-2.394,1.3536,-0.000431,0.0024999999999999467,-0.007200000000000095,0.0013999999999999568,-0.0019308075473440933,-0.002150892970104401,0.003789656895407001
150000000000.0,-1,0.8561695782499998,-1.302126987,-0.4740730743,-0.098778,0.34626,-0.20368,-1.423141048,-9.5808028505,1.5342503925,-2.3937,1.3557,0.002822,0.00277000000000005,-0.006899999999999906,0.0014199999999999768,-0.00028994280530647565,-0.0029988380050418595,0.0029986463298345978
150000000000.0,-1,0.88305941255,-0.684111904,-0.69596814385,-0.03687,0.34196,-0.22815,-1.3801879209999999,-9.592080498,1.50237878,-2.3986,1.3612,0.011158,0.0028799999999999937,-0.007200000000000095,0.0011800000000000699,0.0022082944834154183,-0.0019582053176321335,0.003998706395884621
150000000000.0,-1,0.9216387736499999,-0.015357213899999998,-0.9240708228499999,0.03036,0.32914,-0.25156,-1.3615552859999998,-9.595316692499999,1.4991425855,-2.4042,1.3628,0.02036,0.0029399999999999427,-0.007099999999999884,0.0011499999999999844,-6.674593701849751e-05,-0.0030757617227554768,0.004840782144975853
150000000000.0,-1,0.8608865769,0.5825542365999999,-1.0597065989999999,0.071989,0.31959,-0.27285,-1.340765188,-9.597964488,1.5009077825,-2.4125,1.3641,0.03206,0.0030000000000000027,-0.007100000000000328,0.0009799999999999809,0.0003443892022423345,-0.0031997951828883764,0.0038873504512195733
150000000000.0,-1,0.8608865769,0.5825542365999999,-1.0597065989999999,0.071989,0.31959,-0.27285,-1.340765188,-9.597964488,1.5009077825,-2.4125,1.3641,0.03206,0.003049999999999997,-0.006899999999999906,0.0010700000000000154,0.0005439696901252677,-0.0033556920858912598,0.0045657820678417504
150000000000.0,-1,0.6895644014,1.0413681635,-1.0674538525,0.096541,0.31113,-0.28988,-1.3179156935,-9.600318084,1.5055169079999997,-2.4225,1.3653,0.045527,0.0030600000000000627,-0.007000000000000117,0.0008700000000000374,0.0006491850653329578,-0.004361801915698349,0.004378850328597306
150000000000.0,-1,-0.12350495009999998,0.9758597415,-1.2151420015,0.042357,0.36898,-0.33763,-1.267803712,-9.606398207,1.5102240999999998,-2.4432,1.3683,0.073707,0.003170000000000006,-0.006899999999999906,0.0009199999999999209,0.0007549899521397396,-0.0033116133562087757,0.004328728505436752
150000000000.0,-1,-0.1530621932,0.98026292735,-1.211709674,0.00405,0.37897,-0.37697,-1.2382856955,-9.610811199499999,1.5067917725,-2.4537,1.3706,0.088221,0.0031999999999999806,-0.006799999999999695,0.0008299999999999974,-0.001292693771149267,-0.005637019446529612,0.0041870750610328855
150000000000.0,-1,-0.2621905944,0.6509752336499999,-1.0332286439999998,-0.011853,0.38677,-0.41844,-1.2047469524999999,-9.6159106575,1.5011039155,-2.4653,1.3732,0.104,0.0031999999999999806,-0.007000000000000117,0.0007599999999999829,0.0020387742638159345,-0.004657041096668424,0.003861117680358017
150000000000.0,-1,-0.2114509873,0.56610848455,-0.8130497381999999,-0.011792,0.38386,-0.45461,-1.1712082094999998,-9.6225791795,1.4844326104999999,-2.4736,1.3768,0.11658,0.0032800000000000606,-0.006800000000000139,0.0008300000000001084,0.002237089662691094,-0.005454774630993864,0.004526352883894802
150000000000.0,-1,-0.28614824034999997,0.552114395,-0.7303306454499999,-0.021343,0.38199,-0.48227,-1.130902878,-9.628365103,1.4783524874999998,-2.4886,1.3798,0.13572,0.003249999999999975,-0.006899999999999906,0.0008499999999999064,0.0017678167778896192,-0.00526195327707879,0.004781981819836689
150000000000.0,-1,-0.32923866044999994,0.55847891085,-0.72119084765,-0.061848,0.37177,-0.51209,-1.0878516845,-9.6347394255,1.469232303,-2.5043,1.3833,0.1555,0.003249999999999975,-0.006899999999999906,0.0007700000000000484,0.001483265532450817,-0.004988327503487877,0.003154478660360338
150000000000.0,-1,-0.2736447616,0.4581274614,-0.6064628492999999,-0.084253,0.35187,-0.53448,-1.0419565625,-9.641506013999999,1.4578565889999997,-2.5211,1.387,0.17621,0.003369999999999984,-0.007000000000000117,0.0007699999999999374,0.002163071650107984,-0.005362964270318127,0.004012458302518507
150000000000.0,-1,-0.17843199675,0.3158918098,-0.43510144719999994,-0.10878,0.34362,-0.55152,-0.9941001104999999,-9.6486648685,1.4442253455,-2.5387,1.391,0.19768,0.0034000000000000696,-0.006899999999999906,0.0007500000000000284,0.002945168874788573,-0.0048121746062448345,0.0028024916256483845
150000000000.0,-1,-0.06332153905,0.1468643904,-0.45693105009999996,-0.1109,0.3363,-0.5643,-0.9450864738,-9.656608255,1.423533314,-2.5555,1.3957,0.21825,0.0034399999999999986,-0.006899999999999906,0.0009400000000000519,0.0022167126954042438,-0.004371065187607215,0.002735140274030101
150000000000.0,-1,-0.06332153905,0.1468643904,-0.45693105009999996,-0.1109,0.3363,-0.5643,-0.9450864738,-9.656608255,1.423533314,-2.5555,1.3957,0.21825,0.0034599999999999076,-0.00690000000000035,0.0009299999999999864,0.00353830049878634,-0.005002785146495992,0.0037743545625226194
150000000000.0,-1,0.10048874254999998,0.13740097315,-0.49966843079999995,-0.14191,0.31092,-0.55798,-0.8956609577999999,-9.663669042999999,1.4079407405,-2.575,1.3998,0.24129,0.003410000000000024,-0.007199999999999651,0.0008000000000000229,0.004199381882575182,-0.003845111671682222,0.0035805735936564886
150000000000.0,-1,0.058388794099999995,-0.09300626859999998,-0.4018569037,-0.19317,0.31097,-0.53672,-0.7983397631999999,-9.6776925525,1.3691064065,-2.6137,1.4085,0.28674,0.0035000000000000586,-0.007300000000000306,0.0006999999999999229,0.0022997761748329015,-0.005144895033401209,0.002843994625657098
150000000000.0,-1,0.0415213561,-0.09080957899999999,-0.36277740345,-0.23591,0.2951,-0.51975,-0.7515522360499999,-9.684851407,1.3449820474999998,-2.632,1.413,0.30834,0.0035199999999999676,-0.007299999999999862,0.0007200000000000539,0.0025367108346356915,-0.0033060055705111946,0.002555648592913684
150000000000.0,-1,0.0415213561,-0.09080957899999999,-0.36277740345,-0.23591,0.2951,-0.51975,-0.7515522360499999,-9.684851407,1.3449820474999998,-2.632,1.413,0.30834,0.0034800000000000386,-0.007299999999999862,0.0005999999999999339,0.0036699801864468196,-0.00412113920866175,0.0026158785804135665
150000000000.0,-1,0.022290515449999996,-0.052936296699999996,-0.26064114369999997,-0.26049,0.29713,-0.49423,-0.7068829452999998,-9.691912194999999,1.3181118265,-2.6493,1.4177,0.32885,0.0035799999999999166,-0.007200000000000095,0.0007200000000000539,0.005201092192804513,-0.0029643932576395304,0.0030950768729050004
150000000000.0,-1,0.13847970464999998,0.38572496445,-0.17166540824999998,-0.30225,0.27887,-0.44109,-0.6221044560499999,-9.7059357045,1.2565260644999998,-2.6819,1.4273,0.3674,0.0036599999999999966,-0.007200000000000095,0.0006300000000000194,0.0034793407734254878,-0.0026702192026997196,0.0024578482343322605
150000000000.0,-1,0.1707730031,0.7467960107999999,-0.22154203014999999,-0.31512,0.2692,-0.41772,-0.58436846685,-9.712310027,1.2245563855,-2.6963,1.432,0.38477,0.0035800000000000276,-0.007699999999999818,0.00015999999999993797,0.0022642308428919566,-0.004028442368751106,0.002180205341562713
150000000000.0,-1,0.09207463684999999,0.8913264184999999,-0.22726911375,-0.32162,0.24992,-0.38904,-0.5489174271,-9.718488216499999,1.1919983075,-2.71,1.4366,0.40115,0.0036399999999999766,-0.007500000000000284,7.00000000000145e-05,0.0034911853824901584,-0.0027155984784899,0.0013164717990648
150000000000.0,-1,0.0727261164,1.029894383,-0.17368557815,-0.30995,0.24017,-0.36779,-0.5154963639,-9.724078007,1.1602247614999999,-2.7235,1.441,0.41717,0.0037800000000000056,-0.007099999999999884,0.000300000000000078,0.001653769840967989,-0.003184502566220937,0.0024133112443562865
150000000000.0,-1,0.0409721837,1.0350919075,-0.1436085826,-0.29294,0.23042,-0.34972,-0.48375223784999993,-9.729275531499999,1.1302164125,-2.7372,1.4451,0.43331,0.0036599999999999966,-0.007699999999999818,-6.0000000000060005e-05,0.0008892682276246955,-0.002807785565937637,0.0017493361210549896
150000000000.0,-1,0.036647451049999995,1.0784373004999999,-0.21850196864999996,-0.27276,0.2058,-0.32957,-0.45353794919999996,-9.733982723499999,1.1020713269999998,-2.7512,1.449,0.44961,0.0037599999999999856,-0.007500000000000284,-0.00017000000000000348,0.002631051683583463,-0.0020328589287643695,0.0014361550289037073
150000000000.0,-1,-0.0646650501,1.2994791915,-0.14493248035,-0.25151,0.18435,-0.3094,-0.42495156445,-9.738101516499999,1.0762798375,-2.7655,1.4525,0.46596,0.0036400000000000876,-0.007600000000000051,-0.000140000000000029,0.0032176349042516428,-0.0020248017939068497,0.0007640720888013597
150000000000.0,-1,-0.058447634,1.3492969734999998,-0.08095389574999999,-0.23238,0.17245,-0.28815,-0.3982480565,-9.74192611,1.0523516115,-2.7798,1.4558,0.48212,0.003730000000000011,-0.007600000000000051,-0.00041999999999997595,0.0015802868644780865,-0.0019336158160425665,0.0012777103604291185
150000000000.0,-1,-0.0834545915,1.3526312345,-0.05874183349999999,-0.21754,0.14997,-0.26798,-0.37323129235,-9.745260370999999,1.0301885825,-2.794,1.4588,0.49795,0.0037599999999999856,-0.007599999999999607,-0.00039999999999995595,0.001473962581130639,-0.002541101844216964,0.0011249583419634668
150000000000.0,-1,-0.05074941374999999,1.1586556975,-0.0011375714,-0.21121,0.13493,-0.24568,-0.35012682494999997,-9.748300432499999,1.0089081519999998,-2.8076,1.4617,0.51299,0.0037199999999999456,-0.007800000000000029,-0.000500000000000056,0.0026306660793999903,-0.0014773350194055013,0.0013812424465093898
150000000000.0,-1,-0.0614092423,1.1314912769999999,-0.00980665,-0.20808,0.12307,-0.2223,-0.32915040059999995,-9.751144361,0.988118054,-2.8201,1.4644,0.52681,0.0038400000000000656,-0.007600000000000051,-0.0006599999999999939,0.00020012866985918976,-0.0005793593511855821,0.000462278763855295
150000000000.0,-1,-0.08043414329999998,1.1341390725,0.010600988649999999,-0.20496,0.11018,-0.20106,-0.31012549959999997,-9.753890222999999,0.96773002865,-2.8315,1.467,0.53943,0.003709999999999991,-0.007800000000000029,-0.0006399999999999739,0.00200084686165658,-0.001809638939542113,0.0003472969955478078
150000000000.0,-1,0.0413056098,1.086184554,0.05823188769999999,-0.19862,0.10466,-0.17554,-0.29344438795,-9.7563418855,0.9477833025499999,-2.8413,1.4694,0.55041,0.00378999999999996,-0.00790000000000024,-0.0009500000000000064,0.0026187130482278054,0.0010291456863262827,-3.388093674350223e-05
150000000000.0,-1,0.04341403955,1.0401913655,-0.021143137399999998,-0.18588,0.094901,-0.15429,-0.27879325284999995,-9.758597414999999,0.9289937611499999,-2.85,1.4717,0.56015,0.003940000000000055,-0.007800000000000029,-0.0006699999999999484,-0.0011495043724847331,-0.0024945042314570287,0.0017161793928532898
150000000000.0,-1,0.030841914249999994,1.0421526955,-0.00405014645,-0.16786,0.064943,-0.12882,-0.26622112755,-9.760558744999999,0.9119007701999999,-2.8575,1.4738,0.56842,0.00374999999999992,-0.007999999999999785,-0.0010499999999999954,0.0021761291449575726,0.0007232208178704624,-0.00017466341201477498
150000000000.0,-1,0.05918313275,0.9522061017,0.17913807554999997,-0.13594,0.051874,-0.10012,-0.25625757115,-9.762127808999999,0.8976615144,-2.8635,1.4755,0.57496,0.0038599999999999746,-0.008000000000000007,-0.001060000000000061,-0.00038473481571554835,-0.0003734734772917747,0.0005437323556078955
150000000000.0,-1,0.0676070451,0.85089360055,0.0757269513,-0.10396,0.062175,-0.076688,-0.24866722405,-9.763304607,0.8867369063,-2.8682,1.4767,0.58023,0.0038400000000000656,-0.008099999999999996,-0.0010900000000000354,0.0024068841684097286,0.000791576703395469,-0.0006514622540052528
150000000000.0,-1,0.062458553849999994,0.8519527187499999,0.08597490055,-0.10509,0.056693,-0.052236,-0.2435187328,-9.764383338499998,0.87648895705,-2.8706,1.4779,0.58325,0.0038799999999999946,-0.008199999999999985,-0.0012799999999999478,0.000618540116420041,0.0013543056762681527,0.0009326657696930862
150000000000.0,-1,0.14614850494999998,0.8782051208,0.14707033005,-0.098774,0.040561,-0.025679,-0.24071403089999996,-9.765364003499998,0.86642733415,-2.8706,1.479,0.58369,0.0039599999999999635,-0.008099999999999996,-0.0013600000000000279,-0.0025817964575054475,-0.0013416277319759917,0.00045855901519153974
150000000000.0,-1,0.13759710614999998,0.9701914978,0.26626035415,-0.072159,0.037089,-0.001215,-0.2404002181,-9.766050469,0.85856240085,-2.8686,1.4798,0.58204,0.0038000000000000256,-0.008199999999999985,-0.0013299999999999423,0.000808855366548844,0.0019790031482525006,-0.0007631844712410185
150000000000.0,-1,0.13968592259999998,0.9706327970499999,0.2718991779,-0.05193,0.041058,0.024327,-0.24248903454999998,-9.766442735,0.8529333837499999,-2.8646,1.4803,0.57844,0.004110000000000058,-0.008099999999999996,-0.0012400000000000189,-0.00041007332521103557,0.0013576067524112556,0.001727528410039758
150000000000.0,-1,0.13983302235,1.025971723,0.10534303429999999,-0.034886,0.048254,0.045622,-0.24682357384999998,-9.766736934499999,0.8490401436999999,-2.8587,1.4805,0.57297,0.0037399999999999656,-0.008599999999999941,-0.0018299999999999983,-0.0012882957685018681,-0.0007170126534965515,-0.0005986375844777569
150000000000.0,-1,0.13983302235,1.025971723,0.10534303429999999,-0.034886,0.048254,0.045622,-0.24682357384999998,-9.766736934499999,0.8490401436999999,-2.8587,1.4805,0.57297,0.003989999999999938,-0.008200000000000207,-0.0012999999999999678,0.00046313640197537254,0.0028647742337370996,0.0004277736936217913
150000000000.0,-1,0.13797956549999998,0.9839011945,0.06601836779999999,-0.013594,0.046948,0.066898,-0.25335480275,-9.766736934499999,0.8470788136999999,-2.851,1.4805,0.56571,0.003970000000000029,-0.008499999999999952,-0.0013100000000000334,-0.0012060399471980343,-0.0007985072251883718,0.0007152396881793255
150000000000.0,-1,0.12333823705,0.7357831428499999,0.22180680969999997,0.042855,0.029523,0.097718,-0.26549543545,-9.7645794715,0.8672510927499999,-2.8445,1.4782,0.55983,0.0038799999999999946,-0.008499999999999952,-0.0016300000000000203,-3.59671509442272e-06,0.0022441520819409533,-2.344625468109207e-05
150000000000.0,-1,0.0599186315,0.34469394085,0.23742880314999998,0.068448,0.033583,0.10837,-0.27614545734999996,-9.7637949395,0.87333121575,-2.8353,1.4773,0.55093,0.003929999999999989,-0.008299999999999974,-0.0008899999999999464,-0.0012088183076746084,0.0007555026830126099,0.0017708178890152304
150000000000.0,-1,0.07087265955,0.34369366255,0.22985806935,0.081256,0.036705,0.10944,-0.28709948539999997,-9.7628142745,0.88090194955,-2.8265,1.4762,0.54245,0.0038799999999999946,-0.00869999999999993,-0.001040000000000041,-0.001153600937154886,0.0014452021385589209,-0.00031699477290714206
150000000000.0,-1,-0.0684896436,-0.7496007127000001,0.3345440581,0.089793,0.037731,0.10945,-0.29812215999999997,-9.761735542999999,0.8893454752,-2.8182,1.475,0.53441,0.00383,-0.008700000000000152,-0.0007300000000000084,-0.0005481802375824074,0.0016086058550086602,0.0009338475479685471
150000000000.0,-1,-0.015396440499999999,-1.2864363469999998,0.43992631899999995,0.10366,0.039757,0.11478,-0.30946845405,-9.7604606785,0.8990344453999999,-2.8101,1.4737,0.52669,0.00385000000000002,-0.008599999999999941,-0.00036999999999998145,-0.00024846531151978546,0.0018510774165096944,0.0007135442356240862
150000000000.0,-1,-0.0035696206,-1.2877112115,0.4297077897,0.10576,0.032285,0.12008,-0.32129527394999996,-9.759087747499999,0.9092431680499999,-2.8019,1.4723,0.51885,0.0037599999999999856,-0.008799999999999919,-0.000160000000000049,-0.0025218984093402508,0.0022218843829620027,-0.0001437109287174554
150000000000.0,-1,0.019485813549999998,-2.099996031,0.6514753728,0.10152,0.049222,0.1265,-0.33402430564999996,-9.757714816499998,0.9191184646,-2.793,1.4709,0.51032,0.00380999999999998,-0.008700000000000152,0.0003500000000000725,-0.002499966020652611,-4.942183665734845e-05,0.0009945243056210806
150000000000.0,-1,-0.1088145884,-2.4160643605,0.58829112685,0.10157,0.075677,0.134,-0.34757709595,-9.7563418855,0.9287387882499999,-2.7835,1.4695,0.50143,0.00383,-0.008899999999999908,0.0005999999999999339,-0.00022730595517472807,0.0007119850750467727,0.0025222436211396193
150000000000.0,-1,-0.0949675986,-2.4174372914999998,0.5784844768499999,0.1048,0.091572,0.13404,-0.36142408574999996,-9.754968954499999,0.9385454382499999,-2.774,1.4681,0.49279,0.0038200000000000456,-0.008899999999999908,0.0008000000000000229,0.0004461359444511981,0.0015392977368682281,0.0018289350454352427
150000000000.0,-1,0.01160126695,-2.9520958495,0.5278723562,0.10161,0.097923,0.13724,-0.3756731482,-9.753497957,0.9481559552499998,-2.7644,1.4666,0.48406,0.0038399999999999546,-0.00890000000000013,0.0010200000000000209,-0.002211809363499073,0.0009673577166833258,0.0019544504950779196
150000000000.0,-1,0.00842391235,-3.1095906484999998,0.5960678003,0.093076,0.094808,0.13298,-0.38954955795,-9.7520269595,0.9570211668499999,-2.755,1.4652,0.47564,0.0037400000000000766,-0.008999999999999897,0.0014299999999999313,-0.0005375478678337764,0.0012324057572414837,0.001144227326801417
150000000000.0,-1,0.022251288850000002,-3.111061646,0.58652592985,0.10704,0.13297,0.12775,-0.40337693445,-9.750555962,0.9665630372999999,-2.7462,1.4638,0.46802,0.00380999999999998,-0.008800000000000141,0.0015900000000000913,0.0003439418234070235,0.00041078707512554047,0.0007875844216813643
150000000000.0,-1,-0.035666786049999996,-2.777635546,0.3476457425,0.13808,0.1616,0.11187,-0.4162334526,-9.748790764999999,0.97859579685,-2.7394,1.4621,0.46277,0.0038000000000000256,-0.008999999999999897,0.0017999999999999128,-0.004510452989537228,-0.0019643353820948395,0.0016780953450989955
150000000000.0,-1,-0.035666786049999996,-2.777635546,0.3476457425,0.13808,0.1616,0.11187,-0.4162334526,-9.748790764999999,0.97859579685,-2.7394,1.4621,0.46277,0.00376999999999994,-0.008700000000000152,0.0021100000000000563,-0.0004226566993974501,0.0015178539121125656,0.002476859336369319
150000000000.0,-1,-0.10405836315,-2.509914001,0.15622974115,0.15193,0.1373,0.092671,-0.42714825404999995,-9.746927501499998,0.9925310464999999,-2.7352,1.4604,0.45994,0.003670000000000062,-0.00869999999999993,0.0021599999999999397,-0.0012848776949025975,-0.0008007234857541068,0.0002718166287594137
150000000000.0,-1,-0.45104706009999995,-1.854045249,0.32815012229999996,0.18198,0.14834,0.018246,-0.43989689905,-9.743200974499999,1.0235200604999999,-2.7357,1.4569,0.4633,0.003549999999999942,-0.008999999999999897,0.0022199999999999998,-0.003916793690603715,-0.002051768528980258,0.002694410139131964
150000000000.0,-1,-0.5275683500499999,-1.540820848,0.34158523279999997,0.19166,0.14334,-0.027502,-0.43983805915,-9.7412396445,1.04146623,-2.742,1.4553,0.47111,0.003689999999999971,-0.008600000000000163,0.00270999999999999,-0.003028609663010773,-0.0012652561789987526,0.0024399880788603667
150000000000.0,-1,-0.5323539952499999,-1.5424879785,0.32385480959999996,0.18749,0.14374,-0.077495,-0.43505241395,-9.739572514,1.0592162664999998,-2.7519,1.4538,0.48251,0.003650000000000042,-0.00869999999999993,0.002610000000000001,0.0017726121755379243,-0.0017359400651493218,0.0021487510013595834
150000000000.0,-1,-0.55893001675,-1.4895320685,0.21915901419999997,0.18437,0.13986,-0.12431,-0.42553015679999995,-9.738101516499999,1.0766721035,-2.7652,1.4525,0.49735,0.003650000000000042,-0.008499999999999952,0.002650000000000041,-0.0003946373476804155,-0.0017688438164578102,0.0004980943068049193
150000000000.0,-1,-0.48767489785,-1.4528551975,0.20027140629999998,0.17698,0.14018,-0.16366,-0.41209504629999993,-9.7367285855,1.0935395415,-2.7812,1.4514,0.51485,0.0034199999999999786,-0.009100000000000108,0.0025000000000000577,-0.0037356334701814653,-0.002904163398417925,0.003210652986296303
150000000000.0,-1,-0.5040814233,-1.453933929,0.18459057294999998,0.1621,0.14044,-0.1892,-0.39568852085,-9.735649854,1.1092301814999999,-2.7989,1.4504,0.53413,0.003549999999999942,-0.008899999999999908,0.0024999999999999467,-0.002580652002923456,-0.002024682303099601,0.0011497247968412783
150000000000.0,-1,-0.23869386099999998,-0.44159344949999996,0.1528072203,0.14401,0.1491,-0.20301,-0.37781099789999995,-9.7347672555,1.1229594914999999,-2.8171,1.4497,0.55386,0.0037000000000000366,-0.008799999999999919,0.0023699999999999832,0.001344811382507194,-0.001542305459112825,0.0015630106133783794
