Time,placement_label,user_acc_x(m/s^2),user_acc_y(m/s^2),user_acc_z(m/s^2),rotation_rate_x(rad/s),rotation_rate_y(rad/s),rotation_rate_z(rad/s),gravity_x(m/s^2),gravity_y(m/s^2),gravity_z(m/s^2),attitude_roll(rad),attitude_pitch(rad),attitude_yaw(rad),target_delta_x,target_delta_y,target_delta_z,target_delta_roll,target_delta_pitch,target_delta_yaw
150000000000.0,-1,0.018828768,0.10198916,-0.059663658599999995,0.003454,0.016684,0.006727,0.2807447762,-9.6294438345,1.8346280819999998,2.9897,1.3804,1.8383,0.0,0.0,0.0,0.0,0.0,0.0
150000000000.0,-1,0.04072701744999999,0.11600286284999999,-0.0769429759,0.005589,0.017736,0.00673,0.28069574295,-9.629541901,1.8341377495,2.9897,1.3804,1.8385,9.999999999998899e-05,-9.999999999976694e-05,-4.0000000000040004e-05,-0.0003444447710183596,0.0002574769382055475,0.00028315159028302617
150000000000.0,-1,0.0205155118,0.12956545979999998,-0.11150161049999999,0.005545,0.015602,0.00672,0.28025444369999997,-9.629738034,1.8329609514999998,2.9899,1.3806,1.8385,2.4999999999941735e-05,-3.333333333355171e-05,9.99999999995449e-06,-0.0007201719751308566,4.228887010704341e-05,0.000148503232205055
150000000000.0,-1,0.021260817199999997,0.12946739329999998,-0.11212923609999999,0.006611,0.013493,0.004588,0.27950913829999996,-9.6296399675,1.8335493504999998,2.9903,1.3805,1.8382,2.500000000016378e-05,-3.333333333310762e-05,2.0000000000020002e-05,-0.0012519689336736306,-0.00014945550114520145,0.00017533975388150935
150000000000.0,-1,0.0338329425,0.13718522684999998,-0.09727216135,0.009797,0.008169,0.00564,0.27965623805,-9.629738034,1.833059018,2.9902,1.3806,1.8384,2.4999999999941735e-05,-3.333333333355171e-05,-4.999999999999449e-05,-0.0006044993620155648,-0.00024842100998290206,0.0005411803525032788
150000000000.0,-1,0.00456009225,0.14526590644999998,-0.1089518815,0.0098,0.00608,0.001381,0.27945029839999996,-9.629934166999998,1.8323725524999999,2.9902,1.3806,1.8384,2.4999999999941735e-05,-0.00019999999999997797,-2.999999999997449e-05,0.000750570730784883,0.0007043947189000477,-0.0007059991960334244
150000000000.0,-1,-0.013307624049999998,0.14733510959999999,-0.06390013139999999,0.009815,0.008241,-0.003933,0.27936203854999997,-9.6298361005,1.832470619,2.9903,1.3806,1.8384,9.999999999998899e-05,-4.999999999988347e-05,-7.00000000000145e-05,-0.0006206085674775874,-9.785035186449242e-05,0.0006942928851425556
150000000000.0,-1,-0.0111207411,0.1287024746,-0.0108461549,0.009833,0.011462,-0.009244,0.2800190841,-9.6296399675,1.8335493504999998,2.99,1.3805,1.8388,9.999999999998899e-05,-4.999999999988347e-05,1.0000000000065512e-05,0.00069246528729483,0.00040036241837348996,-0.00021011212489518982
150000000000.0,-1,-0.011856239849999999,0.1285063416,-0.01173856005,0.00878,0.015725,-0.011362,0.28075458285,-9.6294438345,1.8344319489999998,2.9897,1.3804,1.8393,-9.999999999998899e-05,-0.00019999999999997797,0.00011999999999989797,2.4864900256993394e-05,-0.00015641017781220512,-0.001003305534392318
150000000000.0,-1,0.01415099595,0.12147497355,-0.04000132535,0.008804,0.024224,-0.01347,0.28198041409999997,-9.629247701499999,1.835020348,2.9891,1.3803,1.8401,5.0000000000105516e-05,-3.333333333355171e-05,-2.999999999997449e-05,-0.0016493977940377214,-0.0008954793121720428,0.0013970604809876441
150000000000.0,-1,0.01415099595,0.12147497355,-0.04000132535,0.008804,0.024224,-0.01347,0.28198041409999997,-9.629247701499999,1.835020348,2.9891,1.3803,1.8401,4.999999999988347e-05,-3.333333333310762e-05,-9.99999999995449e-06,-0.0005168612163382047,-0.00020371333165702943,0.00041440604322051655
150000000000.0,-1,0.04447315775,0.12578989955,-0.0364611247,0.008813,0.026361,-0.015593,0.2847262761,-9.629149635,1.835608747,2.9877,1.3802,1.8418,3.333333333332966e-05,-3.333333333355171e-05,-2.999999999997449e-05,-0.0002080474826537948,-2.1111520585037624e-05,0.00023586857930668614
150000000000.0,-1,0.0427766073,0.08969162089999999,-0.0701371608,0.020532,0.023101,-0.011343,0.2874721381,-9.6286593025,1.8376681435,2.9864,1.38,1.8436,3.333333333332966e-05,-9.999999999976694e-05,-3.0000000000085514e-05,0.00025242475142195353,0.000507591252540962,-0.00041123034127421576
150000000000.0,-1,0.07433440699999999,0.08504326879999999,-0.06353728535,0.023707,0.015632,-0.007105,0.28958056784999997,-9.628365103,1.8389430079999998,2.9854,1.3798,1.8447,3.333333333332966e-05,-0.00010000000000021103,1.0000000000065512e-05,-6.41923952213741e-05,-0.0001729950534012925,0.00015487990402851537
150000000000.0,-1,0.0606835502,0.08009091055,-0.04862137069999999,0.020478,0.007129,-0.002871,0.29111040525,-9.627972837,1.8404140055,2.9847,1.3796,1.8455,5.0000000000105516e-05,-0.00010000000000021103,-6.0000000000060005e-05,-0.0010186929650357612,-0.00026469646612192754,0.0012458790097094052
150000000000.0,-1,0.063154826,0.09081938565,-0.031646059549999994,0.017264,0.003937,0.000311,0.29238526975,-9.627678637499999,1.8419830695,2.9842,1.3795,1.8461,4.999999999988347e-05,-9.999999999976694e-05,-8.999999999992347e-05,0.001492152353849363,0.0011902645383632393,-0.0015087996650606783
150000000000.0,-1,0.063154826,0.09081938565,-0.031646059549999994,0.017264,0.003937,0.000311,0.29238526975,-9.627678637499999,1.8419830695,2.9842,1.3795,1.8461,-1.0000000000065512e-05,-3.333333333355171e-05,1.999999999990898e-05,0.0005649596106693799,-0.00018354002286447013,-0.00028404099682566297
150000000000.0,-1,0.036971070499999995,0.11108973119999999,0.00661948875,0.016192,0.00182,0.000305,0.29432698645,-9.627286371499999,1.8436502,2.9833,1.3792,1.847,-9.999999999843467e-06,-3.333333333310762e-05,-9.99999999995449e-06,0.0006100395691175375,-8.1388958352413e-05,-0.00010205356991654924
150000000000.0,-1,0.0345586346,0.152787607,-0.0049915848499999995,0.011939,0.007147,-0.000748,0.2951017118,-9.626599906,1.8468863944999998,2.9832,1.3789,1.8472,-1.0000000000065512e-05,-3.333333333355171e-05,-2.0000000000020002e-05,-0.0004021252802901554,-4.1019576764167454e-05,0.0004525596041533575
150000000000.0,-1,0.0345586346,0.152787607,-0.0049915848499999995,0.011939,0.007147,-0.000748,0.2951017118,-9.626599906,1.8468863944999998,2.9832,1.3789,1.8472,-1.0000000000065512e-05,-9.999999999976694e-05,-4.999999999999449e-05,0.00024649908203500104,0.00033832923425292094,1.5346722287645775e-05
150000000000.0,-1,0.0144746154,0.12325978385,0.02089797115,0.008695,0.009282,-0.001804,0.29647464279999997,-9.626109573499999,1.8492399904999999,2.9826,1.3786,1.8478,-9.999999999843467e-06,-3.333333333355171e-05,4.999999999999449e-05,0.0004296360188984494,-0.0005396583279049239,0.00018507003471945893
150000000000.0,-1,0.019466200249999996,0.10507825475,0.03721623675,0.001246,0.014638,-0.004985,0.29730820804999997,-9.625815374,1.851103254,2.9823,1.3784,1.8483,-1.0000000000065512e-05,-3.333333333310762e-05,-4.999999999999449e-05,0.0014309330473669668,0.0002581178716531962,-0.0002152691593138023
150000000000.0,-1,0.03213639205,0.09484991879999999,0.020201699,-0.001961,0.012522,-0.003928,0.29885765875,-9.625423108,1.852672318,2.9817,1.3782,1.8492,-1.0000000000065512e-05,-3.333333333355171e-05,2.0000000000020002e-05,-0.0001551339400420737,-0.00017416554896998448,0.00023123860806473218
150000000000.0,-1,0.03221484525,0.09487933874999999,0.020348798749999997,-0.00303,0.013571,-0.001798,0.2987890122,-9.625423108,1.852476185,2.9817,1.3783,1.8493,-1.0000000000065512e-05,-3.333333333310762e-05,-9.99999999995449e-06,0.0005661726732699712,-6.730129772281046e-05,0.00019477426235559037
150000000000.0,-1,0.0411094768,0.11358062029999999,0.03881472069999999,-0.005168,0.011458,-0.001804,0.2996127708,-9.6253250415,1.853260717,2.9813,1.3782,1.8498,-9.999999999843467e-06,-3.333333333355171e-05,9.99999999995449e-06,0.00030963416847740177,6.45254734694678e-05,-0.00033095711044683895
150000000000.0,-1,0.0332641568,0.09161372429999999,-0.01226811915,-0.004107,0.009325,-0.000745,0.3010249284,-9.625226975,1.8535549165,2.9806,1.3781,1.8506,-1.0000000000065512e-05,-3.333333333310762e-05,1.4999999999987246e-05,5.49606935629221e-05,-3.307174351907527e-05,8.360476951407847e-05
150000000000.0,-1,0.03358777625,0.09170198415,-0.01189546645,-0.004119,0.00718,0.002441,0.30070130894999997,-9.625226975,1.8531626504999998,2.9807,1.3782,1.8505,-5.0000000000105516e-05,9.999999999976694e-05,1.4999999999987246e-05,-0.000658422947717785,0.00041684384963236454,0.00041943584881165563
150000000000.0,-1,0.0077864801,0.06971547485,0.01754409685,-0.006272,0.002906,0.007749,0.30017174985,-9.625226975,1.853260717,2.981,1.3782,1.8502,-4.999999999988347e-05,3.333333333355171e-05,-3.999999999992898e-05,0.0002903004326411107,0.00027116324092291144,6.622100638420392e-05
150000000000.0,-1,0.0022555294999999998,0.07546217174999999,0.057947494849999996,-0.007357,-0.000311,0.01306,0.29911263164999996,-9.625226975,1.8538491160000001,2.9816,1.3781,1.8496,-4.999999999988347e-05,3.333333333310762e-05,8.999999999992347e-05,-8.770797088164528e-05,-0.0001852213197672814,-0.00029139740632455613
150000000000.0,-1,-0.00430511935,0.14053910114999998,0.05835937414999999,-0.005229,-0.001396,0.015185,0.2977495073,-9.625030842,1.8549278475,2.9824,1.378,1.8488,-5.0000000000105516e-05,3.333333333355171e-05,-2.0000000000020002e-05,4.907644384055665e-05,9.278043756277832e-05,1.260261607649582e-05
150000000000.0,-1,-0.01691647125,0.1590834763,-0.0351666469,-0.003088,-0.000328,0.013061,0.2961412167,-9.625128908499999,1.8544375149999999,2.9832,1.3781,1.848,9.999999999998899e-05,-0.00019999999999997797,-6.999999999990347e-05,0.0018691854737526992,0.0013315962030078232,-0.0009423380866500075
150000000000.0,-1,0.0350097405,0.1449815136,-0.0877106776,-0.00201,0.003918,0.012007,0.2956901108,-9.625423108,1.8531626504999998,2.9834,1.3783,1.8479,-9.999999999998899e-05,-1.1111111111183902e-05,6.999999999990347e-05,-0.0012859345582105774,-0.0001995153442990727,0.0004268645455702824
150000000000.0,-1,0.008276812599999999,0.15824991104999997,-0.0891424485,0.000109,-0.001401,0.013059,0.29473886574999997,-9.6257173075,1.8519858524999997,2.9838,1.3784,1.8474,-9.999999999998899e-05,-1.1111111111183902e-05,-9.99999999995449e-06,0.0009267275613389359,4.837218459075032e-05,-0.00042073609387482946
150000000000.0,-1,-0.01770100325,0.12106309424999999,-0.0767076163,0.001161,-0.005663,0.015177,0.29317960839999996,-9.6259134405,1.851103254,2.9845,1.3785,1.8466,-3.333333333332966e-05,-1.1111111111183902e-05,4.999999999999449e-05,-0.0009410713770734436,-5.88949363262703e-05,9.575138452211363e-05
150000000000.0,-1,-0.01770100325,0.12106309424999999,-0.0767076163,0.001161,-0.005663,0.015177,0.29317960839999996,-9.6259134405,1.851103254,2.9845,1.3785,1.8466,-3.333333333332966e-05,-1.1111111111183902e-05,-2.0000000000020002e-05,0.0002576493954737913,0.00012299175113006378,-0.0002043764227730449
150000000000.0,-1,-0.07851203989999998,0.08300348559999998,-0.0036284604999999998,-0.004246,-0.008831,0.018371,0.2891981085,-9.626011507,1.8512013204999997,2.9866,1.3786,1.8444,-3.333333333332966e-05,-1.1111111110739813e-05,3.0000000000085514e-05,-0.0001383183320269321,-2.4970162260551376e-05,-7.70913935226325e-05
150000000000.0,-1,-0.09844895934999999,0.08489616905,-0.01999575935,-0.011721,-0.011982,0.018363,0.28414768375,-9.6265018395,1.849141924,2.9891,1.3788,1.8417,-1.999999999990898e-05,-1.1111111111183902e-05,9.99999999995449e-06,0.0007816665285180768,0.00019963809320433512,-0.0006336732851832672
150000000000.0,-1,-0.06351767205,0.09202560359999999,-0.021260817199999997,-0.01065,-0.01197,0.016237,0.2800386974,-9.6268941055,1.8477689929999999,2.9912,1.3791,1.8395,-2.0000000000131024e-05,-1.1111111111183902e-05,-9.99999999995449e-06,0.0002779951331810526,-1.1973889429750528e-05,-0.00014857412164115402
150000000000.0,-1,-0.062174161,0.09229038314999999,-0.0201036325,-0.011715,-0.011958,0.015173,0.27869518634999996,-9.627188304999999,1.846592195,2.9918,1.3792,1.8388,-1.999999999990898e-05,-1.1111111111183902e-05,-1.0000000000065512e-05,0.0005928178079150914,0.00017343864496544015,-0.00019463322971224883
150000000000.0,-1,-0.03886375395,0.10580394685,-0.00030400615,-0.011699,-0.007692,0.011992,0.276939796,-9.627384438,1.8458076629999998,2.9927,1.3793,1.8378,-2.0000000000131024e-05,-1.1111111111183902e-05,1.0000000000065512e-05,-0.0007257481647600095,-2.392818509466821e-05,0.0003728520616568254
150000000000.0,-1,0.021525596749999997,0.1152281375,-0.04084469725,-0.014883,-0.003414,0.008809,0.27686134279999997,-9.627678637499999,1.8442385989999999,2.9926,1.3795,1.8378,-1.999999999990898e-05,1.6666666666775853e-05,1.999999999990898e-05,0.00023547270316104374,0.0002560029642539874,-0.0002732190292382697
150000000000.0,-1,0.0222807088,0.11550272369999999,-0.0395011862,-0.012745,-0.001301,0.008815,0.27609642409999996,-9.627972837,1.8429637345,2.9929,1.3796,1.8375,-4.999999999988347e-05,1.6666666666775853e-05,2.0000000000020002e-05,-2.8571562738832768e-05,-4.4273378031700616e-05,7.578618192116693e-05
150000000000.0,-1,0.02644853505,0.14728607635,-0.03621595845,-0.007415,-0.002391,0.009877,0.2758218379,-9.628168969999999,1.8418850029999998,2.9929,1.3797,1.8374,-5.0000000000105516e-05,1.6666666666775853e-05,-1.4999999999987246e-05,-0.00024886117447264766,-3.132356447332896e-05,-0.0001223309801114958
150000000000.0,-1,0.019348520449999997,0.16672285664999997,-0.0317147061,0.004314,-0.004567,0.010938,0.2755864783,-9.628168969999999,1.842081136,2.9931,1.3797,1.8372,-3.333333333332966e-05,1.6666666666331764e-05,-1.4999999999987246e-05,-0.00016188232987390805,7.314227337795742e-05,-9.303117767256452e-06
150000000000.0,-1,0.020368412049999996,0.166516917,-0.03294053735,0.014982,-0.00461,0.010941,0.27456658669999995,-9.627972837,1.8432579339999997,2.9937,1.3796,1.8365,-3.333333333332966e-05,1.6666666666775853e-05,9.99999999995449e-06,-0.00011059270688962286,-2.6394890098702106e-05,-1.2387653426149114e-05
150000000000.0,-1,0.0042953127,0.15547462909999998,-0.00014709975,0.01713,-0.002465,0.006692,0.27402722095,-9.627580571,1.8455134635,2.9942,1.3794,1.836,-3.333333333332966e-05,1.6666666666775853e-05,1.0000000000065512e-05,-0.00019747429232719327,-0.00022884931646593998,-2.3294716516630842e-05
150000000000.0,-1,-0.007158854499999999,0.1080888963,0.031008627299999997,0.01074,-0.001347,0.002438,0.2736643749,-9.626992172,1.8484554584999997,2.9946,1.3791,1.8356,-3.333333333332966e-05,4.999999999988347e-05,2.999999999997449e-05,-0.0003246617874581581,-0.00014837656161259538,0.00019371624936459497
150000000000.0,-1,-0.006952914849999999,0.10804966969999999,0.030792880999999998,-0.000986,0.001889,0.001379,0.27345843524999996,-9.6268941055,1.8486515915,2.9947,1.3791,1.8355,-3.333333333332966e-05,4.999999999988347e-05,2.0000000000020002e-05,0.00021485598449322296,3.8168371656599476e-06,-3.63897324535678e-05
150000000000.0,-1,7.845319999999999e-05,0.10139095434999999,0.0391089202,-0.009505,0.005136,-0.002871,0.27361534164999995,-9.6268941055,1.8490438574999999,2.9947,1.379,1.8355,-3.333333333332966e-05,4.999999999988347e-05,2.0000000000020002e-05,-0.00038791692242412523,-0.00010468167416743945,0.0002639939681499115
150000000000.0,-1,0.0016279038999999999,0.1247209747,0.06280178659999999,-0.011709,0.006241,-0.001791,0.2737036015,-9.626599906,1.8506129214999998,2.9948,1.3789,1.8355,-5.0000000000105516e-05,5.000000000032756e-05,-2.0000000000020002e-05,-0.00031101096742292,1.9816803644268077e-05,0.00016918687505329544
150000000000.0,-1,0.0016671305000000001,0.12491710769999999,0.06381187155,-0.010642,0.007289,-0.000724,0.2736643749,-9.626796038999998,1.8496322564999998,2.9947,1.379,1.8357,-4.999999999988347e-05,9.999999999976694e-05,-1.0000000000065512e-05,-0.0011656761703375818,-0.00043047367109383394,0.0010756231508226577
150000000000.0,-1,0.030812494299999996,0.1024206526,0.0309694007,-0.006378,0.008308,0.00247,0.27400760765,-9.626697972499999,1.8498283894999998,2.9945,1.3789,1.8359,-9.999999999998899e-05,0.00020000000000042206,4.999999999999449e-05,-0.0016496554782781114,-0.0007112154846162788,0.0011268435233060536
150000000000.0,-1,0.06332153905,0.11851336525,0.0045306723,-0.009582,0.008305,0.004595,0.27575319135,-9.626599906,1.849926456,2.9936,1.3789,1.8369,-5.0000000000105516e-05,2.4999999999941735e-05,1.0000000000065512e-05,0.00018935434021383202,0.00025746631064271774,-0.00021492324047844846
150000000000.0,-1,0.0378928956,0.11205078289999999,-0.008119906199999999,-0.008518,0.006188,0.003527,0.27604739084999996,-9.626796038999998,1.8492399904999999,2.9934,1.379,1.8371,-4.999999999988347e-05,2.4999999999941735e-05,2.4999999999941735e-05,0.00034568700417914044,-0.00025442727550273325,-0.0003240550649570295
150000000000.0,-1,0.03847148795,0.11221749595,-0.0073157609,-0.007451,0.007236,0.004593,0.2754687985,-9.6268941055,1.8484554584999997,2.9937,1.3791,1.837,-4.999999999988347e-05,2.4999999999941735e-05,2.5000000000052758e-05,0.0013722876522592742,0.000798463198148136,-0.001111669614267008
150000000000.0,-1,0.018044235999999998,0.11828781229999999,-0.014592295199999999,-0.005328,0.005082,0.00778,0.27509614579999997,-9.626992172,1.8480631925,2.9938,1.3791,1.8369,-5.0000000000105516e-05,2.4999999999941735e-05,2.0000000000020002e-05,0.00039859532492370064,-9.35845100502597e-05,-0.00017601670617262144
150000000000.0,-1,0.00828661925,0.12517208059999999,-0.01925045395,-0.009591,0.005115,0.005651,0.2746842665,-9.627188304999999,1.8473767269999999,2.994,1.3792,1.8367,-5.0000000000105516e-05,0.00010000000000021103,1.999999999990898e-05,0.00015168100755635905,9.394354304825825e-05,-3.945231820923212e-05
150000000000.0,-1,-0.0007747253499999999,0.1039897166,-0.00834545915,-0.013861,0.005124,0.006714,0.27400760765,-9.627384438,1.846396062,2.9943,1.3793,1.8365,-4.999999999988347e-05,9.999999999976694e-05,2.0000000000020002e-05,8.571053034089893e-05,0.0001328034631544739,-0.00022470592214007823
150000000000.0,-1,0.012042566199999999,0.13041863835,-0.01417060925,-0.013865,0.004056,0.007775,0.2734682419,-9.627580571,1.8451211975,2.9945,1.3794,1.8364,-9.999999999998899e-05,0.00010000000000021103,2.0000000000020002e-05,-0.0013675860373012494,-0.0009275372366175372,0.0008493475686446317
150000000000.0,-1,-0.0205351251,0.15582766850000002,-0.03925601994999999,-0.009596,0.004047,0.006713,0.27237970375,-9.6278747705,1.843846333,2.9949,1.3796,1.8359,-9.999999999998899e-05,9.999999999976694e-05,-9.99999999995449e-06,0.0006879513224626876,-0.0004093937002183079,-0.0004047660613544224
150000000000.0,-1,-0.007060788,0.142980957,-0.04873905049999999,-0.003177,0.00619,0.000337,0.27206589095,-9.6280709035,1.843061801,2.995,1.3797,1.8359,-3.333333333332966e-05,0.00019999999999997797,-4.999999999999449e-05,8.501673101868334e-05,-0.0001965920699595891,0.00034865364086034134
150000000000.0,-1,0.00257914895,0.11490451804999999,-0.031077273849999996,-0.002113,0.004073,-0.000731,0.2721541508,-9.6280709035,1.8427676014999999,2.995,1.3797,1.836,-3.333333333332966e-05,-9.999999999976694e-05,-5.000000000032756e-06,0.0019944509024290014,0.0012878945151137966,-0.002186810188903543
150000000000.0,-1,0.020848937899999996,0.11273724839999999,-0.0268309944,-0.005308,0.003057,-0.004989,0.27304655595,-9.628168969999999,1.8422772689999998,2.9945,1.3797,1.8365,-3.333333333332966e-05,9.999999999976694e-05,-5.000000000032756e-06,-0.00021469537442975195,-0.00033916924039556484,0.00029024192434867757
150000000000.0,-1,0.006717555249999999,0.11785631969999999,-0.006158576199999999,-0.006375,0.000956,-0.007122,0.27385070125,-9.628267036499999,1.8418850029999998,2.994,1.3797,1.837,-9.999999999998899e-05,0.00010000000000021103,-9.99999999995449e-06,0.00011398953509811349,-4.3978026386559677e-05,5.191154246375618e-05
150000000000.0,-1,0.01905432095,0.15645529409999998,-0.012013146249999999,-0.003165,0.004133,-0.008178,0.274978466,-9.628267036499999,1.8417869365,2.9934,1.3797,1.8377,-5.0000000000105516e-05,9.999999999976694e-05,-2.999999999997449e-05,-8.875368363936431e-05,2.255949128970869e-05,4.492330385508225e-05
150000000000.0,-1,-0.0019417166999999998,0.1740484242,-0.0272036471,0.002092,0.006305,-0.009217,0.2757826113,-9.628168969999999,1.8419830695,2.993,1.3797,1.8381,-5.0000000000105516e-05,0.00010000000000021103,-2.5000000000052758e-05,-0.00013455532934192327,-0.00020194873255019452,0.0002551559837331574
150000000000.0,-1,0.0074040207499999995,0.15359175229999997,-0.0398738389,0.006362,0.006296,-0.010279,0.27690056939999996,-9.6280709035,1.8423753354999999,2.9924,1.3797,1.8388,-9.999999999998899e-05,9.999999999976694e-05,-2.4999999999941735e-05,-0.0006147646003513696,-0.00030497695398690183,0.0008156012225488674
150000000000.0,-1,0.0106107953,0.1464525111,-0.03696126385,0.005295,0.007352,-0.009214,0.27803814079999994,-9.627972837,1.8427676014999999,2.9918,1.3796,1.8394,-9.999999999998899e-05,0.00010000000000021103,-1.0000000000065512e-05,0.00033642441281012125,0.0003882935294570178,0.0008330172418076209
150000000000.0,-1,0.005717276949999999,0.11453186535,-0.00043149259999999994,0.004231,0.00947,-0.008146,0.278901126,-9.627776703999999,1.8436502,2.9915,1.3795,1.8399,-9.999999999998899e-05,0.00019999999999997797,5.000000000032756e-06,-0.0017369714318937746,-0.0011347182500736075,0.0014964060954087977
150000000000.0,-1,0.0053348176,0.11443379885,-0.0009218250999999998,0.005299,0.01157,-0.006013,0.2792737787,-9.627678637499999,1.8441405324999998,2.9913,1.3794,1.8402,-5.0000000000105516e-05,9.999999999976694e-05,5.000000000032756e-06,0.0008032901199972464,0.0008981541069676968,-0.0005968148732846679
150000000000.0,-1,0.026291628649999996,0.10478405525,-0.027321326899999998,0.002112,0.016893,-0.007066,0.28016618385,-9.627580571,1.8443366654999998,2.9908,1.3794,1.8408,-4.999999999988347e-05,0.00019999999999997797,1.999999999990898e-05,-6.219561838261001e-05,0.00024354556595507226,0.00042917516398421895
150000000000.0,-1,0.030331968449999996,0.07510913235,-0.0091986377,-0.001091,0.016898,-0.006003,0.28106839564999997,-9.6274825045,1.8445327985,2.9904,1.3794,1.8414,-9.999999999998899e-05,0.00020000000000042206,1.5000000000098268e-05,0.0003467796872373974,0.00040581578743559277,0.0005525846753440256
150000000000.0,-1,0.0135135637,0.0744717001,-0.0159063863,-0.008583,0.01263,0.001431,0.28112723555,-9.627678637499999,1.843846333,2.9903,1.3794,1.8416,-9.999999999998899e-05,0.00019999999999997797,1.4999999999987246e-05,0.0001526339445385716,0.0005075321562209023,0.00026958019779588227
150000000000.0,-1,-0.0065704555,0.06449833705,-0.030106415499999997,-0.016066,0.011551,0.007809,0.28026425034999997,-9.627972837,1.8421792025,2.9906,1.3796,1.8414,-4.999999999988347e-05,9.999999999976694e-05,9.99999999995449e-06,0.000602558810361975,0.00046347885492958873,0.00017577977937888178
150000000000.0,-1,-0.0111403544,0.08426854345,-0.0499943017,-0.017135,0.013653,0.011004,0.2788422861,-9.6284631695,1.839923673,2.9912,1.3799,1.841,-5.0000000000105516e-05,0.00010000000000021103,5.000000000032756e-06,0.0025674689799501937,0.0010346684974236187,-0.0007817420701772271
150000000000.0,-1,-0.009639936949999999,0.0846117762,-0.04842523769999999,-0.017139,0.013637,0.013132,0.27734186865,-9.628757368999999,1.8383546089999998,2.9919,1.3801,1.8404,-9.999999999998899e-05,4.999999999988347e-05,4.999999999921734e-06,0.001758428208121554,0.0007243464849251424,-0.0010816319961475251
150000000000.0,-1,0.0242616521,0.1169344946,-0.062233000899999995,-0.013942,0.012563,0.01313,0.27636120365,-9.629247701499999,1.8361971459999997,2.9922,1.3803,1.8402,-9.999999999998899e-05,4.999999999988347e-05,9.00000000000345e-05,-2.5668678944157364e-05,-2.206351070244139e-05,-2.110431551738401e-05
150000000000.0,-1,0.0482879446,0.1282121421,-0.10210683979999999,-0.011805,0.011518,0.009936,0.27612584405,-9.629738034,1.8335493504999998,2.9921,1.3806,1.8404,-0.00029999999999996696,0.00039999999999995595,6.0000000000060005e-05,-0.00442623620888094,-0.0017317750871028714,0.0021464222741536254
150000000000.0,-1,0.044404511199999996,0.13248784149999998,-0.13299778729999998,-0.006476,0.007271,0.0078,0.27612584405,-9.630326432999999,1.8308034884999997,2.9919,1.3809,1.8406,-9.999999999998899e-05,0.00010000000000021103,1.999999999990898e-05,-0.0005507626228236084,2.653683074194113e-05,0.00018761577715009636
150000000000.0,-1,0.0336760361,0.13533177,-0.11788573965,-0.006494,-0.000153,0.007783,0.27606700414999996,-9.630718698999999,1.8283518259999998,2.9917,1.3811,1.8408,-0.00029999999999996696,9.999999999976694e-05,0.00010000000000010001,-0.0020671585708011975,-0.00037994871244606543,0.00032266747937104157
150000000000.0,-1,-0.005972249849999999,0.1277218096,-0.08187572085,-0.004361,-0.002266,0.005652,0.2754687985,-9.631110965,1.826782762,2.9919,1.3813,1.8406,-9.999999999998899e-05,0.00010000000000021103,2.999999999997449e-05,0.00017574187292468402,0.00023051777483407143,-0.00015689817764918956
150000000000.0,-1,-0.005462304049999999,0.12784929605,-0.08128732185,-0.006504,-0.005447,0.006708,0.2749588527,-9.6312090315,1.826194363,2.9922,1.3813,1.8403,-9.999999999998899e-05,9.999999999976694e-05,2.999999999997449e-05,-6.852485887764992e-05,3.509794462641658e-05,-0.00012540185383747016
150000000000.0,-1,-0.0499354618,0.092378643,-0.0631155994,-0.008745,-0.006458,0.010983,0.27379186135,-9.6316012975,1.8240368999999999,2.9926,1.3816,1.8398,-9.999999999998899e-05,0.00010000000000021103,4.500000000007276e-05,-0.0006584219480720854,-0.00015114055474008126,0.00034507978817410745
150000000000.0,-1,-0.05790826824999999,0.0991844581,-0.0341075287,-0.014077,-0.004324,0.01205,0.2715853651,-9.6319935635,1.822467836,2.9937,1.3818,1.8387,-0.00020000000000020002,9.999999999976694e-05,4.499999999996174e-05,0.00044171954123406465,0.00022237478774411734,-0.0003842767901574007
150000000000.0,-1,-0.056770696849999996,0.09947865759999999,-0.03274440435,-0.014067,-8.2e-05,0.01206,0.2704477937,-9.632287762999999,1.821094905,2.9942,1.3819,1.8382,-9.999999999998899e-05,0.00010000000000021103,3.999999999992898e-05,0.0012964117969118671,-8.68023545619323e-05,-0.0005293745790062587
150000000000.0,-1,-0.038775494099999995,0.12990869254999998,-0.0367357109,-0.011921,0.005212,0.012073,0.26712333935,-9.632680029,1.819721974,2.9958,1.3821,1.8365,-9.999999999998899e-05,9.999999999976694e-05,4.0000000000040004e-05,0.0004951566147186615,0.00019699808621131965,-0.0002810561191459726
150000000000.0,-1,-0.01630845895,0.13026173195,-0.027772432799999996,-0.00764,0.0084,0.00889,0.26576021499999997,-9.632876162,1.818741309,2.9965,1.3822,1.8359,-9.999999999998899e-05,0.00010000000000021103,9.99999999995449e-06,0.00047151269550038677,-0.00029612747914664617,-0.00021080963497333016
150000000000.0,-1,-0.01530818065,0.1303696051,-0.02737036015,-0.003366,0.011565,0.008899,0.26475013005,-9.6329742285,1.818349043,2.997,1.3823,1.8355,-0.00019999999999997797,4.999999999988347e-05,8.000000000008001e-05,0.0005476860180735343,-8.472725985719798e-05,-0.0006749640078478336
150000000000.0,-1,0.0106696352,0.1338215459,-0.02529135035,-0.000168,0.009439,0.007831,0.26407347119999997,-9.6329742285,1.8184471095,2.9974,1.3823,1.8353,-0.00019999999999997797,4.999999999988347e-05,1.999999999990898e-05,0.0010692482065759457,0.0006204034767698374,-0.0007432177756840908
150000000000.0,-1,0.0339506223,0.09925310464999999,-0.0420705285,-0.004451,0.00519,0.011011,0.2636812052,-9.633072295,1.8176625774999997,2.9975,1.3824,1.8352,-0.00019999999999997797,0.00010000000000021103,2.0000000000020002e-05,-0.000349926693285596,0.00045037384244195344,-0.00021394667171659165
150000000000.0,-1,0.032254071849999996,0.05828092095,-0.055407572499999995,-0.008744,-0.002248,0.015247,0.2629751264,-9.633464560999998,1.815995447,2.9978,1.3826,1.8349,-0.00019999999999997797,0.00010000000000021103,9.999999999998899e-05,-0.0008378635501475884,8.320895101188164e-05,0.00046140502522185045
150000000000.0,-1,0.00150041745,0.06051683715,-0.056780503499999996,-0.013026,-0.004384,0.019496,0.26125896265,-9.633856826999999,1.8139360505,2.9985,1.3828,1.8341,-9.999999999998899e-05,4.999999999988347e-05,3.0000000000085514e-05,0.0010645192256748537,0.000829103555118671,-0.0009874315034896775
150000000000.0,-1,-0.0016475171999999999,0.09638956284999999,-0.022898527749999998,-0.009836,-0.005489,0.023749,0.2591701462,-9.6341510265,1.812857319,2.9996,1.383,1.833,-0.00019999999999997797,4.999999999988347e-05,1.999999999990898e-05,-3.3545492734488036e-05,0.00012907329012801227,-9.394845411403452e-05
150000000000.0,-1,0.0006374322499999999,0.09661511579999998,-0.02203554255,-0.010905,-0.005493,0.024813,0.2568950034,-9.634347159499999,1.8119747204999999,3.0008,1.3831,1.8317,-0.00019999999999997797,0.00019999999999997797,3.0000000000085514e-05,-0.0007658652904567465,-0.0007515427836517485,0.001236148508032997
150000000000.0,-1,-0.01917200075,0.10725533105,-0.04893518349999999,-0.017293,-0.002262,0.021627,0.25439430765,-9.634837491999999,1.8099153239999999,3.0019,1.3833,1.8305,-9.999999999998899e-05,0.00010000000000021103,7.999999999996898e-05,0.0014112618924073672,0.0008897938679681694,-0.0008605831435577471
150000000000.0,-1,-0.0290669106,0.15821068445,-0.00924767095,-0.022613,0.000964,0.018443,0.25203090499999997,-9.635229758,1.8081501269999998,3.0031,1.3835,1.8293,-0.00020000000000020002,9.999999999976694e-05,5.999999999994898e-05,0.000716776362024607,-5.4556313529685596e-05,-0.00039327629105523343
150000000000.0,-1,-0.0536423755,0.1544939641,-0.0392658266,-0.019397,0.003113,0.01313,0.24951059595,-9.6357200905,1.8060907304999998,3.0043,1.3838,1.8281,-9.999999999998899e-05,0.00010000000000021103,-1.999999999990898e-05,5.0233519478748434e-05,0.00030896623226617237,0.0006804973774090506
150000000000.0,-1,-0.03141069995,0.128467115,-0.01513166095,-0.016292,0.003161,0.014217,0.24749042604999996,-9.63601429,1.8046197329999998,3.0053,1.384,1.8271,-9.999999999998899e-05,9.999999999976694e-05,5.999999999994898e-05,-0.0005782688885895837,6.608891270465378e-06,0.00020543779561421616
150000000000.0,-1,-0.03501954715,0.11312951439999999,-0.030488874849999997,-0.016281,0.005306,0.011031,0.24555851599999998,-9.636406555999999,1.8029526025,3.0062,1.3842,1.8263,-9.999999999998899e-05,0.00010000000000021103,-2.0000000000020002e-05,0.00015154075263268396,0.00014725984310182128,0.0005897382426329756
150000000000.0,-1,-0.0339113957,0.11345313384999998,-0.02888058425,-0.017346,0.005318,0.009967,0.24445036455,-9.6367007555,1.801285472,3.0067,1.3843,1.8258,-9.999999999998899e-05,9.999999999976694e-05,-1.999999999990898e-05,0.0007590497885634484,0.00045693835945659345,-0.00019277683425622527
150000000000.0,-1,-0.0432669398,0.109049948,-0.02283968785,-0.018409,0.005338,0.00784,0.2427342008,-9.637093021499998,1.799520275,3.0075,1.3846,1.8251,-9.999999999998899e-05,0.00010000000000021103,-2.0000000000020002e-05,0.0012305857643792883,0.00031752498412140895,-0.0003281591155537278
150000000000.0,-1,-0.014749201599999998,0.1708906829,-0.0367357109,-0.015208,0.005325,0.00784,0.24160643604999998,-9.637387221,1.7978531444999999,3.008,1.3847,1.8246,-0.00019999999999997797,9.999999999976694e-05,5.999999999994898e-05,-0.00048479269894019517,-2.2786258203177923e-05,0.00040114134706215054
150000000000.0,-1,-0.006246836049999999,0.18174664445,-0.00797280645,-0.006669,0.003202,0.003583,0.24102784369999997,-9.637485287499999,1.7974608785,3.0083,1.3848,1.8244,-9.999999999998899e-05,0.0001500000000000945,-7.00000000000145e-05,0.0018121078525792367,0.000553173864146439,-0.0010529314773419785
150000000000.0,-1,0.00824739265,0.14997309844999998,0.02968472955,0.000802,0.004233,0.003587,0.24090035724999997,-9.6372891545,1.7986376764999998,3.0084,1.3847,1.8243,-9.999999999998899e-05,0.0001500000000000945,9.00000000000345e-05,-0.004060555871515215,-0.0013203085300876882,0.0026928224197213524
150000000000.0,-1,0.04257066765,0.11687565469999998,0.06914668915,0.007217,0.007413,0.000405,0.24158682274999999,-9.636798822,1.8009912725,3.0082,1.3844,1.8245,-0.00019999999999997797,0.00019999999999997797,2.999999999997449e-05,0.0006405181344020239,0.00010792974176099257,-0.0001797442886450895
150000000000.0,-1,0.042580474300000004,0.11676778154999999,0.06857790344999999,0.004028,0.00957,-0.002782,0.24157701609999999,-9.6367007555,1.8015796715,3.0083,1.3844,1.8246,-9.999999999998899e-05,9.999999999976694e-05,2.999999999997449e-05,-0.00020224783336519891,-0.0002797259507012484,0.0003878749034695872
150000000000.0,-1,0.00392266,0.1275452899,0.1007927487,-0.005585,0.002201,-0.004929,0.24207715524999998,-9.636210423,1.8039332675,3.0082,1.3841,1.8247,-0.00019999999999997797,0.000300000000000189,7.00000000000145e-05,-0.0004383813359607469,-0.000547090089418445,0.00031509586410560786
150000000000.0,-1,0.0301652554,0.092378643,0.02154521005,-0.021609,-0.004121,-0.001757,0.24307743355,-9.636406555999999,1.8029526025,3.0076,1.3842,1.8253,-0.00019999999999997797,0.000300000000000189,-3.999999999992898e-05,-0.0013552412273063474,-0.0008408474833712098,0.0014693737301731957
150000000000.0,-1,0.09695834854999999,0.10019454305,-0.0108265416,-0.020553,-0.007323,0.000363,0.2452643165,-9.6367007555,1.8009912725,3.0062,1.3844,1.8266,-9.999999999998899e-05,0.0002999999999997449,9.99999999995449e-06,0.0006290890562297147,-8.81165978998677e-05,-0.0006075024619174307
150000000000.0,-1,0.09695834854999999,0.10044951595,-0.009433997299999998,-0.010977,-0.015869,0.003537,0.2452643165,-9.636994955,1.799520275,3.0061,1.3845,1.8266,-0.00019999999999997797,0.00010000000000021103,9.99999999995449e-06,-0.0004903893975236606,0.0001952849529323064,-0.000526572532263625
150000000000.0,-1,0.11523794414999998,0.12449542174999999,-0.07943386499999999,-0.002473,-0.026532,0.006705,0.24778462555,-9.6372891545,1.7978531444999999,3.0046,1.3847,1.8278,-0.00020000000000020002,9.999999999976694e-05,-1.999999999990898e-05,0.00013623852312560913,0.0010367991298689816,-0.0012817972242502584
150000000000.0,-1,0.0844548698,0.12704515074999997,-0.03531374665,0.001755,-0.040368,0.010929,0.2493831095,-9.6372891545,1.7975589449999998,3.0037,1.3847,1.8283,-0.00029999999999996696,0.00010000000000021103,7.999999999996898e-05,-0.0006262879438474478,-4.32445079991961e-05,-0.0009896704287171154
150000000000.0,-1,0.011365907350000001,0.1271922505,0.007825706699999999,0.002771,-0.057387,0.017273,0.2491477499,-9.637093021499998,1.7984415434999999,3.0039,1.3846,1.8275,-0.00019999999999997797,0.0002999999999997449,-4.0000000000040004e-05,0.0012544742571565237,0.00021217835922415773,-0.0014315915303768634
150000000000.0,-1,0.011365907350000001,0.1271922505,0.007825706699999999,0.002771,-0.057387,0.017273,0.2491477499,-9.637093021499998,1.7984415434999999,3.0039,1.3846,1.8275,-0.00019999999999997797,0.00019999999999997797,4.0000000000040004e-05,0.0008189266231350967,-0.00018263737808266178,-0.0009388851033467205
150000000000.0,-1,-0.056574563849999995,0.13979379575,0.02593858925,-0.001609,-0.068996,0.021519,0.24721583984999998,-9.636994955,1.799324142,3.0051,1.3845,1.8258,-9.999999999998899e-05,0.00010000000000021103,9.99999999995449e-06,0.0036356466452935887,0.0007633970109346411,-0.0028340839593581357
150000000000.0,-1,-0.10161650729999999,0.13055593145,0.06332153905,-0.017605,-0.07732,0.008733,0.24497011699999996,-9.637191088,1.7986376764999998,3.0062,1.3846,1.823,-9.999999999998899e-05,0.0002999999999997449,4.0000000000040004e-05,0.0011750204188691882,-0.0003180561110931457,-0.0010102772570421692
150000000000.0,-1,-0.11980784305,0.11364926685,0.05788865495,-0.021844,-0.070892,0.002365,0.24326375990000002,-9.6372891545,1.7980492775,3.0071,1.3847,1.8214,-9.999999999998899e-05,0.00010000000000021103,2.5000000000052758e-05,-0.0006028195635359168,-0.0002470122850717349,-0.00011690845549860995
150000000000.0,-1,-0.15521965619999997,0.14330457644999997,0.051122066449999996,-0.021828,-0.068731,-0.002947,0.2414201097,-9.637485287499999,1.7973628119999998,3.0081,1.3848,1.8198,-0.00019999999999997797,0.000300000000000189,2.4999999999941735e-05,-0.0005287223088676907,-0.0003210604328105493,-0.0007966920653346143
150000000000.0,-1,-0.12049430854999998,0.13512583034999998,0.06906823594999999,-0.019694,-0.069792,-0.004012,0.2404982846,-9.637583353999998,1.7972647454999997,3.0086,1.3848,1.8187,-9.999999999998899e-05,0.00019999999999997797,4.0000000000040004e-05,-1.0543022389564172e-05,-0.00020777827352347344,-0.0007896391910828804
150000000000.0,-1,-0.12214182575,0.13546906309999998,0.07112763244999999,-0.019696,-0.070853,-0.004014,0.24214580179999998,-9.6378775535,1.7951072824999998,3.0075,1.385,1.819,-9.999999999998899e-05,0.0004999999999997229,3.999999999992898e-05,-0.002666210932797952,-0.0016322328070703662,0.0015799581305904198
150000000000.0,-1,-0.12384818284999999,0.13579268255,0.07310857574999999,-0.018637,-0.074038,-0.004021,0.24385215889999998,-9.6382698195,1.7931459525,3.0064,1.3852,1.8194,-4.999999999988347e-05,0.000300000000000189,-9.99999999995449e-06,-0.00018592019406393767,-0.0002725866594250892,0.0005064015147877576
150000000000.0,-1,-0.09666414905,0.10370532374999998,-0.0242616521,-0.01971,-0.076163,-0.002961,0.24166527595,-9.638465952499999,1.792263354,3.0076,1.3853,1.8175,-5.0000000000105516e-05,0.0002999999999997449,3.999999999992898e-05,0.0010305531871648288,0.0002203657654633595,-0.0011954105935325643
150000000000.0,-1,-0.041844975549999996,0.10937356744999999,-0.0640178112,-0.011201,-0.084704,0.000213,0.24235174144999996,-9.6388582185,1.7898116915,3.007,1.3856,1.8173,-5.0000000000105516e-05,0.000300000000000189,1.4999999999987246e-05,0.0005342277108169036,8.366034851636783e-05,-0.001028044331647049
150000000000.0,-1,-0.04317867994999999,0.10947163394999998,-0.06332153905,-0.002701,-0.096436,0.004444,0.2436952525,-9.638956284999999,1.789125226,3.0062,1.3856,1.8171,-4.999999999988347e-05,9.999999999976694e-05,1.5000000000098268e-05,-0.00034097753838180367,0.0009385889400979064,-0.001724738769991685
150000000000.0,-1,-0.018054042649999998,0.09777230049999999,-0.03501954715,0.003646,-0.11559,0.00972,0.24490147044999996,-9.638956284999999,1.7890271595,3.0055,1.3856,1.8167,-0.00019999999999997797,0.00020000000000042206,0.00019999999999997797,0.0001375770035929591,-5.048917388394969e-06,-0.0033591688062459824
150000000000.0,-1,-0.00177500365,0.12886918765,0.02442836515,0.006807,-0.13153,0.011812,0.24612730169999997,-9.6386620855,1.79069429,3.005,1.3854,1.8159,-0.00020000000000020002,0.0002999999999997449,0.00014999999999998348,-0.0007539921984216491,-0.000297405594576583,-0.0019574833022071303
150000000000.0,-1,-0.0031087080499999998,0.12881034775,0.024320492,0.004656,-0.13999,0.010729,0.2474610061,-9.638564018999999,1.7907923565,3.0043,1.3854,1.8153,-9.999999999998899e-05,0.000300000000000189,5.999999999994898e-05,0.0009460125643565576,-0.0008492938136328565,-0.001315577833243431
150000000000.0,-1,0.0026674088,0.10275407869999999,0.0233986669,-0.001757,-0.14843,0.007517,0.24947136934999997,-9.638367886,1.7913807554999999,3.0032,1.3853,1.8149,-9.999999999998899e-05,0.0002999999999997449,6.0000000000060005e-05,0.000640116679292646,-0.00034649985288925933,-0.0017333738056688475
150000000000.0,-1,-0.0632725058,0.06950953519999999,0.015494507,-0.014584,-0.16003,0.006425,0.2501676415,-9.638564018999999,1.7905962235,3.0028,1.3854,1.8137,-3.333333333332966e-05,0.00039999999999995595,-9.99999999995449e-06,0.0009922103291941653,0.00017876245432923987,-0.0019356339866121175
150000000000.0,-1,-0.0655868752,0.0699802544,0.0183188222,-0.028497,-0.17697,0.009574,0.2524820109,-9.639054351499999,1.7878503614999999,3.0013,1.3856,1.8135,-3.333333333332966e-05,0.00039999999999995595,2.999999999997449e-05,0.00218967571483919,4.129141570419215e-05,-0.0034127747227374883
150000000000.0,-1,-0.0903976997,0.0852786284,-0.009943943099999998,-0.041436,-0.19279,0.013805,0.25245259094999994,-9.639740817,1.7836335019999998,3.001,1.3861,1.8119,-3.333333333332966e-05,0.000300000000000189,4.999999999999449e-05,-0.0013073766103319784,-0.0003520173170104002,-0.002171048614648896
150000000000.0,-1,-0.10900091475,0.13415497199999998,-0.07236327035,-0.045739,-0.20342,0.019099,0.2517563188,-9.640917615,1.7774553124999999,3.0009,1.3867,1.81,-1.999999999990898e-05,0.00039999999999995595,2.0000000000020002e-05,0.0008617171271567692,-0.0009311853954212523,-0.0021008122596843926
150000000000.0,-1,-0.11069746519999998,0.13499834389999998,-0.06752859189999999,-0.042568,-0.21406,0.022267,0.25345286925,-9.6418002135,1.7726500539999999,2.9996,1.3872,1.8092,-2.0000000000131024e-05,0.00019999999999997797,1.999999999990898e-05,0.0007694626561656204,-6.438181506496221e-05,-0.0019179047231809854
150000000000.0,-1,-0.11430631239999998,0.17435243034999998,-0.08607296704999999,-0.034062,-0.22576,0.023307,0.252423171,-9.6427808785,1.7670602635,2.9997,1.3878,1.8069,-1.999999999990898e-05,0.000300000000000189,-9.99999999995449e-06,0.00012339872919087114,-0.00015010303114459944,-0.0023287795340616313
150000000000.0,-1,-0.13206615554999998,0.2230816742,-0.061781894999999996,-0.023421,-0.23853,0.022218,0.2513248262,-9.643565410499999,1.763431803,3.0,1.3881,1.8042,-2.0000000000131024e-05,0.00039999999999995595,4.0000000000040004e-05,-0.001840276278368913,-0.0009910815373868065,-0.0023876363208743534
150000000000.0,-1,-0.1344883981,0.22342490695,-0.059575398749999994,-0.013827,-0.24596,0.017949,0.25374706874999997,-9.64385961,1.76127434,2.9985,1.3883,1.8033,-1.999999999990898e-05,0.00039999999999995595,3.999999999992898e-05,0.0007864432288160472,-0.00036311244037467993,-0.002699607834993678
150000000000.0,-1,-0.13859738445,0.2483828312,-0.01530818065,-0.017017,-0.24801,0.010499,0.25366861555,-9.6441538095,1.7598033425,2.9984,1.3885,1.8009,9.999999999998899e-05,0.00019999999999997797,7.00000000000145e-05,0.0005344205284636416,-0.0009747340751484757,-0.0018855207881198766
150000000000.0,-1,-0.1830705422,0.19998701345,0.018858187949999997,-0.02126,-0.24474,0.001997,0.25325673625,-9.6443499425,1.758528478,2.9986,1.3886,1.7983,0.00019999999999997797,0.000300000000000189,-2.0000000000020002e-05,0.0021302796448661176,-0.00014176738371585174,-0.0028005895659499735
150000000000.0,-1,-0.18770908764999997,0.20036947279999998,0.021623663249999998,-0.022293,-0.23831,-0.007562,0.25788547505,-9.644742208499999,1.7557826159999999,2.9958,1.3888,1.7987,4.999999999988347e-05,0.0002999999999997449,6.0000000000060005e-05,-0.0012434273719914568,-0.00011660235940436081,-0.0020711907812307473
150000000000.0,-1,-0.19553479434999999,0.13246822819999998,0.019927112799999997,-0.024411,-0.23298,-0.009676,0.2582287078,-9.645036408,1.7539193525,2.9954,1.389,1.7968,5.0000000000105516e-05,0.00039999999999995595,9.99999999995449e-06,-0.0003915166424057759,-0.0004883159570185924,-0.0024592021964888744
150000000000.0,-1,-0.25398242834999996,0.07036271375,-0.00244185585,-0.028669,-0.22872,-0.009665,0.2569734566,-9.645722873499999,1.7507812244999998,2.9959,1.3894,1.7941,0.000300000000000189,0.000300000000000189,-8.999999999992347e-05,0.0009316905603573566,0.00014820388683789432,-0.0027897526912887827
150000000000.0,-1,-0.25865039375,0.0708628529,0.00101008495,-0.030799,-0.22449,-0.006465,0.26164142199999996,-9.646213205999999,1.747348897,2.993,1.3896,1.7948,0.00029999999999996696,0.0002999999999997449,-4.0000000000040004e-05,0.001573143450545933,0.0003331611400199108,-0.0018406792305030173
150000000000.0,-1,-0.26016061785,0.10180283365,-0.02209438245,-0.030778,-0.216,-0.007507,0.25986641835,-9.6468996715,1.7437204364999999,2.9936,1.39,1.792,0.00019999999999997797,0.00040000000000040004,-7.00000000000145e-05,0.0013606283328084778,0.0002805391583118322,-0.002475435223942224
150000000000.0,-1,-0.29822022649999996,0.11557137025,-0.00936535075,-0.026489,-0.20858,-0.009617,0.2644068973,-9.6472919375,1.740484242,2.9908,1.3903,1.7927,0.00029999999999996696,0.0002999999999997449,4.0000000000040004e-05,-0.000932380747287187,-0.0005044920012369225,-0.0011235626660881515
150000000000.0,-1,-0.28023483039999997,0.14268675749999998,-0.0025889556,-0.023272,-0.20011,-0.008531,0.261837555,-9.647782269999999,1.7382287124999998,2.9921,1.3906,1.7895,0.00029999999999996696,0.000300000000000189,7.00000000000145e-05,-0.00012474352305491543,-0.001512362492731123,-0.001973768880008553
150000000000.0,-1,-0.2693886755,0.16082906,-0.01189546645,-0.023243,-0.18949,-0.010632,0.25951337895,-9.648272602499999,1.7358751165,2.9932,1.3908,1.7866,0.00029999999999996696,0.0002999999999997449,9.999999999998899e-05,0.00022758179900717046,-0.0008390505891013866,-0.0017110296010143244
150000000000.0,-1,-0.25551226574999997,0.19331849145,-0.0200644059,-0.018998,-0.17669,-0.018038,0.26419115099999996,-9.6486648685,1.733423454,2.9903,1.391,1.7876,0.00029999999999996696,0.00019999999999997797,2.999999999997449e-05,0.000695415644204056,-0.0010978133473351637,-0.0006598121087373343
150000000000.0,-1,-0.20926410434999998,0.16517340595,-0.0401091985,-0.015747,-0.16074,-0.025445,0.26418134435,-9.6490571345,1.731069858,2.9901,1.3913,1.7862,0.000300000000000189,0.00019999999999997797,-2.0000000000020002e-05,0.0002420555196496199,-0.000600940789996951,-0.0008995464220284966
150000000000.0,-1,-0.1818741309,0.12601545249999999,-0.063154826,-0.016773,-0.14796,-0.031797,0.26537775565,-9.649547467,1.7280297965,2.9892,1.3916,1.7857,0.00029999999999996696,0.000500000000000167,2.0000000000020002e-05,-0.0008652253102692242,-0.0017001205383639917,0.0004609028611035626
150000000000.0,-1,-0.1394309497,0.0967916355,-0.0799045842,-0.01995,-0.1384,-0.03284,0.27095773949999996,-9.6498416665,1.7257742669999998,2.9859,1.3917,1.7877,0.00029999999999996696,0.00039999999999995595,2.0000000000020002e-05,-0.0008080234634257888,-0.0006017309880437249,-0.0020006419951630328
150000000000.0,-1,-0.09609536335,0.05618229784999999,-0.108069283,-0.02527,-0.12991,-0.030694,0.27400760765,-9.6506261985,1.7205767424999998,2.9837,1.3922,1.7886,0.00029999999999996696,0.00010000000000021103,5.999999999994898e-05,-0.00021910609626751842,2.8185345465558953e-05,-0.0011975017128258436
150000000000.0,-1,-0.02591897595,0.033646616149999996,-0.0847490693,-0.02634,-0.1257,-0.025366,0.2773124487,-9.651901062999999,1.7129275554999999,2.9811,1.3929,1.79,0.00039999999999995595,0.00019999999999997797,-2.999999999997449e-05,0.0009653394712723085,0.00011527387387877397,-0.0010954856642495514
150000000000.0,-1,-0.029978929049999995,0.03401926885,-0.08201301395,-0.024216,-0.12365,-0.017915,0.28137240179999995,-9.652293328999999,1.7101816934999998,2.9785,1.3931,1.7913,0.00039999999999995595,0.0002999999999997449,9.00000000000345e-05,0.0024213768599996577,-0.0015037025314601493,-0.001809107053882375
150000000000.0,-1,-0.0093359308,0.03323473685,-0.08220914694999999,-0.024211,-0.11732,-0.013646,0.2846674362,-9.6529797945,1.7056706345,2.9762,1.3935,1.7925,0.000400000000000178,0.00019999999999997797,-3.0000000000085514e-05,-0.0011222921853608625,0.0013996798450852665,-0.00015472927724946572
150000000000.0,-1,0.02101565095,0.1373127133,-0.021966895999999996,-0.026335,-0.11096,-0.011505,0.28873719594999997,-9.653470127,1.7019441075,2.9735,1.3938,1.794,0.0004999999999999449,0.00019999999999997797,7.500000000004725e-05,-0.000450072069565044,0.00016089895536808285,-0.0005313065069181278
150000000000.0,-1,0.01813249585,0.13772459259999997,-0.01917200075,-0.026323,-0.10566,-0.011493,0.29161054439999995,-9.6539604595,1.6991982454999999,2.9716,1.3941,1.7949,0.0004999999999999449,0.00019999999999997797,7.500000000004725e-05,-0.00024563021007950603,-0.0006712455186501654,-0.0012577712134511643
150000000000.0,-1,0.018956254449999998,0.13949959625,-0.0169655045,-0.031632,-0.099234,-0.016799,0.2954351379,-9.654352725499999,1.6960601174999999,2.9691,1.3943,1.7964,0.00019999999999997797,0.00039999999999995595,1.333333333330966e-05,-0.00024108424989277566,0.00020391399104946473,-0.0014698473915797372
150000000000.0,-1,0.06569474835,0.13849931795,-0.0491117032,-0.034812,-0.093888,-0.021043,0.30181926704999995,-9.655039190999998,1.6912548589999998,2.965,1.3947,1.7996,0.00029999999999996696,0.00040000000000040004,1.333333333330966e-05,0.0024558623813897285,-0.0005229784387816849,-0.0019171218256417433
150000000000.0,-1,0.06183092824999999,0.1390975236,-0.0450125235,-0.041196,-0.089588,-0.02529,0.30568308715,-9.65562759,1.6871360659999999,2.9624,1.3951,1.8013,0.000300000000000189,0.00019999999999997797,1.333333333330966e-05,-1.5798288226509527e-05,-0.0015839151789420747,-5.3496762771221285e-05
150000000000.0,-1,0.08079698934999999,0.08938761475,-0.060860069899999994,-0.050798,-0.092707,-0.028491,0.31200837639999995,-9.656510188499999,1.6809578765,2.9581,1.3956,1.8047,0.00029999999999996696,0.00019999999999997797,0.0001100000000000545,0.002783405267951844,-0.002424287708366668,-0.0011756100339637143
150000000000.0,-1,0.10416623629999999,0.07939463840000001,-0.06312540605,-0.055055,-0.090546,-0.031679,0.31915742424999993,-9.657392787,1.6742893545,2.9532,1.3961,1.8086,0.00029999999999996696,0.0002999999999997449,9.99999999995449e-06,-0.0020697725231857422,0.0005175848052003662,-5.911929049418063e-06
150000000000.0,-1,0.12833962855,0.08709285865,-0.08868153595,-0.054058,-0.092634,-0.030619,0.32371751649999997,-9.658177318999998,1.668699564,2.95,1.3966,1.811,0.00029999999999996696,0.00039999999999995595,-0.00012999999999996348,-0.011825375984819697,0.0025857663568620293,0.0053750343488760954
150000000000.0,-1,0.14014683514999998,0.10209703314999999,-0.09288858879999999,-0.046602,-0.095861,-0.028498,0.331660903,-9.659157983999998,1.6617368424999999,2.9446,1.3971,1.8154,0.00029999999999996696,0.000300000000000189,2.0000000000020002e-05,-0.000536359168741285,0.00010655626461830714,-0.0007295241542824016
150000000000.0,-1,0.1454718461,0.19869253565,-0.11675797489999999,-0.034886,-0.10124,-0.025319,0.34294835715,-9.660138649,1.6536953895,2.9371,1.3977,1.8219,0.00029999999999996696,9.999999999976694e-05,2.4999999999941735e-05,0.0012300971983527642,-5.9506269796782973e-05,-0.003029500626733128
150000000000.0,-1,0.14159821935,0.19907499499999998,-0.1136983001,-0.025303,-0.1066,-0.022137,0.3468219839,-9.660530914999999,1.6506553279999998,2.9345,1.3979,1.8234,0.00029999999999996696,0.00019999999999997797,2.5000000000052758e-05,-0.0004874291692511523,-0.0011665936302462931,-0.0010416111505744396
150000000000.0,-1,0.11157025705,0.2193747605,-0.09908639159999999,-0.016784,-0.10985,-0.017889,0.3533532128,-9.660923181,1.646928801,2.9302,1.3982,1.8266,9.999999999998899e-05,5.000000000032756e-05,0.00014999999999998348,-0.008867305680606119,-0.001237479853864576,0.002178683115856561
150000000000.0,-1,0.11157025705,0.2193747605,-0.09908639159999999,-0.016784,-0.10985,-0.017889,0.3533532128,-9.660923181,1.646928801,2.9302,1.3982,1.8266,0.000300000000000189,4.999999999988347e-05,-2.999999999997449e-05,-0.0002263019040342762,0.0002726921724862663,-0.0009682535548320992
150000000000.0,-1,0.040011132,0.21161770035,-0.04768973895,-0.012517,-0.10881,-0.016823,0.36011980129999993,-9.6612173805,1.6435945399999998,2.9259,1.3984,1.8298,0.00039999999999995595,0.00019999999999997797,-3.0000000000085514e-05,-0.00023625728757648012,-0.0004826750802637836,-0.0009237969051572037
150000000000.0,-1,0.0280077924,0.1351552503,-0.042727574049999995,-0.012475,-0.092881,-0.019978,0.36777879495,-9.661511579999999,1.6400641459999998,2.921,1.3985,1.8327,0.00019999999999997797,0.00019999999999997797,9.999999999998899e-05,0.0001705695212359526,-0.0006982665499206675,-0.000891041620019184
150000000000.0,-1,0.0280077924,0.1351552503,-0.042727574049999995,-0.012475,-0.092881,-0.019978,0.36777879495,-9.661511579999999,1.6400641459999998,2.921,1.3985,1.8327,0.00019999999999997797,0.00019999999999997797,3.0000000000085514e-05,0.0008479847514735184,-0.0009707732638624123,-0.00032374113478184086
150000000000.0,-1,0.03988364555,0.08113041545,-0.0460716417,-0.017772,-0.081155,-0.025272,0.37372162484999993,-9.6618057795,1.6370240845,2.9171,1.3987,1.8357,0.00029999999999996696,0.000300000000000189,-0.00012000000000000899,-0.0007431008299156883,-0.0007581643053511389,0.0007484289843664449
150000000000.0,-1,0.04669926729999999,0.08481771585,-0.059791145049999994,-0.028402,-0.070451,-0.032697,0.38321446205,-9.662492245,1.630649762,2.9108,1.3991,1.8407,0.00029999999999996696,0.00019999999999997797,-0.0001100000000000545,0.0014025973170672668,-0.00035392722040294977,-0.001331007314535615
150000000000.0,-1,0.0640178112,0.09139797799999999,-0.09414383999999999,-0.029466,-0.071484,-0.035892,0.39088326235,-9.663276777,1.6244715724999998,2.9055,1.3996,1.8453,0.00029999999999996696,0.0002999999999997449,-2.0000000000020002e-05,0.0006297287592764711,-0.0009759815581149578,-0.0011218574135827275
150000000000.0,-1,0.059585205399999994,0.09170198415,-0.09120184499999999,-0.026284,-0.076823,-0.032712,0.39531586814999997,-9.663570976499999,1.6215295774999998,2.9025,1.3998,1.8476,0.000300000000000189,0.00010000000000021103,-9.99999999995449e-06,0.001185163436868697,0.0005027019633081498,-0.0020193262966525793
150000000000.0,-1,0.0947518523,0.1019107068,-0.09903735835,-0.022052,-0.087485,-0.027417,0.40174903055,-9.664061309,1.6171165849999998,2.8981,1.4001,1.8511,0.00029999999999996696,0.0002999999999997449,-9.99999999995449e-06,0.0030206499754898974,-0.0003436772680505129,-0.0019363389681075205
150000000000.0,-1,0.07541313849999999,0.11211942945,-0.11262937525,-0.016766,-0.1003,-0.017872,0.40702500825,-9.6645516415,1.6128997255,2.8944,1.4003,1.8539,0.00019999999999997797,0.00019999999999997797,5.999999999994898e-05,0.0004798614413332736,-0.0012362740602509525,-0.0006381432702036172
150000000000.0,-1,0.043776885599999996,0.1394701763,-0.1345276247,-0.016811,-0.11414,-0.011522,0.4112712877,-9.665140040499999,1.608486733,2.8913,1.4007,1.8559,0.00029999999999996696,0.00010000000000021103,-9.00000000000345e-05,0.0002774523615625135,0.001016653934547751,-0.002153012303310664
150000000000.0,-1,0.00538385085,0.14104904694999998,-0.13214460875,-0.023239,-0.12367,-0.009418,0.41449767554999994,-9.665826505999998,1.6034853414999999,2.8886,1.4011,1.8573,0.00029999999999996696,0.00019999999999997797,2.0000000000020002e-05,0.00021987558118263806,6.196500303357055e-05,-0.0011544283243796194
150000000000.0,-1,-0.046012801799999996,0.13221325529999997,-0.08060085635,-0.030767,-0.12466,-0.008364,0.4163707457,-9.666709104499999,1.5976013514999998,2.8866,1.4016,1.8581,0.00029999999999996696,0.000300000000000189,-5.000000000032756e-06,-0.001616375295574457,0.00025849018166734794,0.0002897439253315426
150000000000.0,-1,-0.0489547968,0.13283107425,-0.07612902395,-0.04463,-0.12353,-0.010492,0.41931274069999996,-9.6672975035,1.5931883589999998,2.8842,1.402,1.8592,0.00029999999999996696,0.00019999999999997797,-4.999999999921734e-06,0.002643938826468517,-0.0004912463277606527,-0.001469536665644089
150000000000.0,-1,-0.06120330265,0.055829258449999995,-0.06457679024999999,-0.060626,-0.12029,-0.010489,0.42107793769999996,-9.668376235,1.585931438,2.8821,1.4027,1.8602,0.00020000000000020002,0.00019999999999997797,5.999999999994898e-05,0.0018314018547180844,1.962393045151778e-05,-0.0021346609252099746
150000000000.0,-1,-0.06120330265,0.055829258449999995,-0.06457679024999999,-0.060626,-0.12029,-0.010489,0.42107793769999996,-9.668376235,1.585931438,2.8821,1.4027,1.8602,0.00019999999999997797,0.00019999999999997797,4.0000000000040004e-05,0.0005865234330724167,-0.00023325371877014334,-0.001525992917676522
150000000000.0,-1,-0.08097350905,-0.02382035285,-0.06771491824999999,-0.079823,-0.11703,-0.010485,0.4208033514999999,-9.669945299,1.5762228545,2.8807,1.4037,1.8605,0.00029999999999996696,9.999999999976694e-05,9.00000000000345e-05,0.0005907033439627174,-0.0004738211285371108,-0.001056594120026233
150000000000.0,-1,-0.02501676415,-0.040168038399999995,-0.06877403644999999,-0.096901,-0.12119,-0.011563,0.42663830825,-9.673083427,1.5554327565,2.8739,1.4056,1.865,0.00029999999999996696,0.00019999999999997797,3.999999999992898e-05,0.0007150033924219201,0.00012080787862522868,-0.0017764332488097168
150000000000.0,-1,0.0072373077,0.05554486559999999,-0.12969294625,-0.088394,-0.13079,-0.009455,0.4301588956,-9.6753389565,1.540820848,2.8693,1.4069,1.8682,0.00019999999999997797,0.00010000000000021103,9.00000000000345e-05,0.000795031763756171,-0.0013731885054226733,-0.001048200241844377
150000000000.0,-1,0.01611232595,0.13288991415,-0.17974608785,-0.073481,-0.14039,-0.009473,0.43369909624999997,-9.676908020499999,1.5294451339999997,2.8653,1.408,1.8709,0.00019999999999997797,9.999999999976694e-05,0.00015999999999993797,0.0005052335958268817,-0.0009663898543279537,-0.0015770785623647754
150000000000.0,-1,0.012650578499999999,0.1338411592,-0.1727539464,-0.063901,-0.15313,-0.012691,0.43716084369999997,-9.6778886855,1.5224824124999998,2.862,1.4086,1.8728,0.00029999999999996696,0.00010000000000021103,8.000000000008001e-05,0.0004557273282175256,-0.0007611481082323568,-0.0013563220242840401
150000000000.0,-1,0.012650578499999999,0.1338411592,-0.1727539464,-0.063901,-0.15313,-0.012691,0.43716084369999997,-9.6778886855,1.5224824124999998,2.862,1.4086,1.8728,0.00019999999999997797,9.999999999976694e-05,8.999999999992347e-05,0.0009895971366615797,-0.00037844544383713874,-0.0026047156165747154
150000000000.0,-1,0.00438357255,0.098458766,-0.1680271411,-0.069266,-0.16268,-0.009523,0.44109331034999993,-9.679751949,1.5093415014999998,2.8573,1.4098,1.8759,0.0013000000000000789,0.00690000000000035,0.0006699999999999484,-0.03831388444173056,0.024195237756623467,-0.06134162691451239
150000000000.0,-1,0.0263798885,0.024389138549999998,-0.20037927944999998,-0.093901,-0.18923,0.008493,0.4472224666,-9.682890077,1.4872765389999998,2.8495,1.4118,1.8801,0.0013000000000000789,-0.00010000000000021103,0.0006700000000000594,0.004934852180609628,-0.03416353776622105,-0.00630823332976993
150000000000.0,-1,0.07625651039999999,-0.0328915041,-0.2076067805,-0.10038,-0.20842,0.025466,0.45017426825,-9.685635938999999,1.4684477710000001,2.8441,1.4135,1.8834,0.00019999999999997797,0.000500000000000167,0.00019000000000002348,-0.0023011910084851372,0.00047583893639746577,-0.005997424446657629
150000000000.0,-1,0.07640361015,-0.031175340349999997,-0.19634874630000002,-0.10793,-0.23076,0.039242,0.45001736184999996,-9.687303069499999,1.4571701234999999,2.8421,1.4146,1.8832,0.0004999999999999449,0.0005999999999999339,0.0002300000000000635,0.002168171884936454,-0.0013571902416904535,-0.008457331949441649
150000000000.0,-1,0.08424893015,-0.0182011424,-0.17254800674999998,-0.1176,-0.24886,0.053026,0.45039982119999994,-9.6896566655,1.4412833504999998,2.8387,1.4162,1.8841,-0.0017000000000000348,-0.0030000000000001137,-0.0003700000000000925,0.08370788756665881,0.006790349399598439,0.08132044557162299
150000000000.0,-1,0.05359334225,-0.00246146915,-0.1254074402,-0.1358,-0.26374,0.066814,0.45052730765,-9.6925986605,1.4218661835,2.8347,1.4181,1.8854,0.00029999999999996696,0.00019999999999997797,-4.999999999999449e-05,0.003876323306495122,0.003426516972142135,-0.003169540928420922
150000000000.0,-1,0.05728064265,5.88399e-05,-0.10929511424999999,-0.15933,-0.27648,0.081671,0.4468498139,-9.695050323,1.4057832774999999,2.8338,1.4198,1.8835,-9.999999999998899e-05,0.00019999999999997797,0.00038000000000004697,0.003312044275143755,-0.006068850330876785,-0.0025557391409360974
150000000000.0,-1,0.027076160649999997,0.0135724036,-0.1407646541,-0.18712,-0.28705,0.092277,0.44248585465,-9.698384584,1.3839144479999999,2.8321,1.4221,1.8824,-0.0007999999999999119,0.00019999999999997797,0.0006199999999999539,0.0010695461655434446,-0.01579160073169028,-0.00032896522883874013
150000000000.0,-1,0.027076160649999997,0.0135724036,-0.1407646541,-0.18712,-0.28705,0.092277,0.44248585465,-9.698384584,1.3839144479999999,2.8321,1.4221,1.8824,0.00019999999999997797,0.00010000000000021103,0.00017000000000000348,0.003981733218405115,-0.0002512684558959588,-0.0031166050826305636
150000000000.0,-1,-0.05023946795,-0.05843782734999999,-0.30270186554999995,-0.21597,-0.29656,0.10289,0.4355525531,-9.703287909,1.35135637,2.8298,1.4255,1.8817,5.0000000000105516e-05,-0.00019999999999997797,0.000160000000000049,0.0011303609579098595,0.0034555816972037245,-0.005927616784041412
150000000000.0,-1,-0.0985568325,-0.06247816714999999,-0.26416173104999996,-0.26517,-0.31996,0.13792,0.41773387005,-9.711819694499999,1.2945758664999998,2.8295,1.4316,1.8758,4.999999999988347e-05,-0.00019999999999997797,0.00020999999999993246,0.0031007719963613845,0.0009708120623859173,-0.0034919107274498096
150000000000.0,-1,-0.16072118685,-0.02048609185,-0.27034972719999995,-0.27484,-0.32649,0.1645,0.4032886746,-9.7169191525,1.2609390569999999,2.832,1.4354,1.8699,0.0012000000000000899,-0.00019999999999997797,-0.0005099999999998994,0.005189202162467765,0.017459383805726425,-0.008115080995942492
150000000000.0,-1,-0.2029388151,0.0067469752,-0.24074345085,-0.2749,-0.32668,0.19109,0.38535231174999995,-9.721822477499998,1.2280867795000001,2.8375,1.4392,1.8611,-0.000500000000000167,-0.0041999999999999815,-0.0004900000000001015,-0.023131995898025837,0.01113138115292367,-0.022346891674106306
150000000000.0,-1,-0.23742880314999998,-0.0616642152,-0.18421792024999997,-0.26748,-0.31955,0.22621,0.36326773594999995,-9.726627736,1.1967054995,2.8469,1.4429,1.8485,9.999999999998899e-05,2.4999999999941735e-05,0.0002300000000000635,0.0025498456403512115,0.0025867119945943706,-0.0028674327768865027
150000000000.0,-1,-0.2137457434,-0.07459918655,-0.1426083043,-0.26538,-0.30179,0.26029,0.33794696565,-9.731138795,1.1665990839999998,2.8596,1.4466,1.8326,-1.999999999990898e-05,2.4999999999941735e-05,0.00027999999999994696,0.0033561517827143117,0.0025041348206216174,-0.0024829336359046827
150000000000.0,-1,-0.12430909539999999,-0.02150598345,-0.046875787,-0.27924,-0.27544,0.28907,0.31105713134999996,-9.735453720999999,1.1377675329999999,2.8747,1.4502,1.8146,-2.0000000000131024e-05,2.4999999999941735e-05,0.00029000000000001247,0.003981662357892102,0.0025417164328442876,-0.0019461071652551176
150000000000.0,-1,0.0222807088,-0.021584436649999997,-0.01797558945,-0.31123,-0.24897,0.31146,0.2840201973,-9.7398667135,1.106582386,2.8904,1.454,1.7962,-1.999999999990898e-05,2.4999999999941735e-05,0.00036999999999998145,0.005597458977409708,0.003258554943655678,-0.003523962479178522
150000000000.0,-1,0.23069163459999997,0.009924329800000001,-0.04972952215,-0.36134,-0.22235,0.32427,0.2590720797,-9.7445739055,1.0705919805,2.9042,1.4582,1.78,-2.0000000000131024e-05,0.00010000000000021103,0.000180000000000069,0.006063280773426216,0.003343304447111173,-0.0032207198008631366
150000000000.0,-1,0.3978361772,-0.0108461549,-0.1869343623,-0.436,-0.20831,0.3296,0.23662465785,-9.749967563,1.0254813905,2.9148,1.4633,1.767,-1.999999999990898e-05,-6.666666666665932e-05,0.00019000000000002348,0.006277008696506492,0.0025248159838133777,-0.0027819537977693543
150000000000.0,-1,0.5237535632,0.08836772315,-0.36336580245,-0.51602,-0.21326,0.32531,0.206920315,-9.7557534865,0.97657562695,2.9328,1.4688,1.7468,-9.999999999998899e-05,-6.666666666665932e-05,0.00017000000000000348,0.005268768473123409,0.0021878794820890946,-0.002929887393382735
150000000000.0,-1,0.60129474475,0.32766959645,-0.57273777995,-0.58854,-0.21601,0.30614,0.17847122334999999,-9.761735542999999,0.92050120225,2.9501,1.475,1.7273,-9.999999999998899e-05,-6.666666666665932e-05,-2.0000000000020002e-05,0.006449397019652636,0.002460152821406325,-0.00397713825234991
150000000000.0,-1,0.4992565514999999,0.8359286526499999,-0.79593713395,-0.61412,-0.22422,0.28378,0.15226785454999997,-9.767619533,0.8604256643499999,2.9664,1.4816,1.7086,-9.999999999998899e-05,-0.000300000000000189,3.999999999992898e-05,0.005848534835046326,0.0016143653722657803,-0.0036507654323596483
150000000000.0,-1,0.1425298511,0.8141186630499999,-1.044996624,-0.61199,-0.24842,0.25713,0.12861421474999998,-9.7732093235,0.7986928026,2.9819,1.4882,1.6907,-4.999999999988347e-05,-0.00039999999999995595,-1.999999999990898e-05,0.00644467183260744,0.001015969223232993,-0.004425842728469576
150000000000.0,-1,-0.0521321514,0.5973426648,-1.2720205715,-0.61413,-0.28944,0.21342,0.10869690859999999,-9.778210715,0.73843093835,2.9954,1.4946,1.6743,-5.0000000000105516e-05,-0.000500000000000167,0.00018999999999991246,0.007763315716280639,0.00011377602000561815,-0.0050210909531491765
150000000000.0,-1,-0.17891252259999998,0.18053061984999996,-1.143259257,-0.62691,-0.33242,0.15376,0.09436939294999999,-9.782819840499998,0.6772668623,3.0031,1.501,1.6634,-0.00029999999999996696,-0.00039999999999995595,0.0007900000000000684,0.008027426160424733,-0.0023265098577676113,-0.0030003390154274
150000000000.0,-1,-0.22679839455,-0.30005407004999995,-0.9575016927,-0.68444,-0.36345,0.079214,0.0870438254,-9.7871347665,0.61168979375,3.0002,1.5078,1.6627,0.0007999999999999119,-0.0004999999999997229,-0.00046000000000001595,0.010115575326292703,-0.0010650282114688103,-0.0035300832114923963
150000000000.0,-1,-0.09444784615,-0.6887896760499999,-0.70875601545,-0.78454,-0.36446,-0.015482,0.0881617835,-9.791547759,0.53712002715,2.9789,1.5153,1.6804,0.00020000000000020002,-0.000600000000000378,0.00036999999999998145,0.008181534136631585,-0.0036729454365072023,-0.002751045801494101
150000000000.0,-1,0.09944923765,-0.69665460935,-0.5287353414,-0.86743,-0.3282,-0.13881,0.10032202949999999,-9.795666552,0.45361640239999995,2.9239,1.5234,1.7321,9.999999999998899e-05,-0.0008999999999996788,0.0005199999999999649,0.007656915948609289,-0.002316761118753119,-0.005199107509615608
150000000000.0,-1,0.07579559785,-0.6932909284,-0.44193668225,-0.88309,-0.27847,-0.25677,0.12396586264999998,-9.799000813,0.36681774325,2.8157,1.5313,1.8375,0.00019999999999997797,-0.0009000000000001229,0.0005100000000000104,0.0066427570037630446,-0.003384036531431489,-0.0027978385368143677
150000000000.0,-1,-0.0862200668,-0.4111339946,-0.6137786102,-0.83275,-0.24849,-0.32157,0.15505294314999998,-9.801354409,0.2832356653,2.6407,1.5379,2.01,0.00029999999999996696,-0.0013000000000000789,0.000180000000000069,0.007788700628543088,-0.0021928785352491875,-0.005244011404023752
150000000000.0,-1,-0.3107335119,-0.31929471735,-0.8485105846,-0.73463,-0.26583,-0.32371,0.18772870095,-9.8026292735,0.20806769304999997,2.4075,1.5422,2.2408,-5.0000000000105516e-05,-0.0013000000000000789,0.0005199999999999649,0.0033925003929098363,-0.002016282284872384,-0.004215686553570297
150000000000.0,-1,-0.34002597545,-0.31875535159999996,-0.785120399,-0.60787,-0.31756,-0.28125,0.2170211645,-9.8032176725,0.14467750745,2.1588,1.5442,2.4866,-4.999999999988347e-05,-0.0015999999999998238,0.00046999999999997044,0.003471995579955367,-0.000997131654046024,-0.005241328168663184
150000000000.0,-1,-0.5457989123999999,0.05180853195,-1.0778489015,-0.49292,-0.39159,-0.22927,0.24129262324999998,-9.8032176725,0.0929474287,1.9385,1.5444,2.7032,0.00019999999999997797,-0.0015999999999998238,0.00017000000000000348,0.004388382189606688,-0.0009381055853947551,-0.0038122822773187792
150000000000.0,-1,-0.4860960272,0.020084019199999997,-1.058725934,-0.41744,-0.45281,-0.16663,0.2595427989,-9.803119606,0.0492489963,1.7583,1.5439,2.8791,-9.999999999998899e-05,-0.0017000000000000348,0.0005100000000000104,0.004132476721046885,-0.00020443638183142987,-0.006343251959505025
150000000000.0,-1,-0.49799149364999995,0.01987807955,-1.020087733,-0.36961,-0.47997,-0.10498,0.27143826535,-9.802923472999998,0.01065982855,1.6101,1.5431,3.0226,9.999999999998899e-05,-0.0019000000000000128,0.00012000000000000899,0.0030496931292283147,3.180593208096383e-05,-0.005158058502245488
150000000000.0,-1,-0.43066884139999995,0.33435773175,-0.82680846815,-0.3505,-0.47724,-0.056045,0.27804794745,-9.80272734,-0.0253796102,1.4798,1.5423,-3.135,-0.00039999999999995595,-0.002000000000000224,0.0005600000000000049,0.0017539163178970085,-0.0003732689691895441,-0.003682482227719497
150000000000.0,-1,-0.3526863606,0.5547033506,-0.7855616982499999,-0.33241,-0.46381,-0.017717,0.2804113501,-9.8024331405,-0.05973230515,1.3609,1.5416,-3.0208,9.999999999998899e-05,-0.0019999999999997797,2.0000000000020002e-05,0.00336824644104583,0.00021928297178885892,-0.004149393727686412
150000000000.0,-1,-0.3525686808,0.5544483777,-0.7525525143499999,-0.3228,-0.44597,0.001472,0.28029367029999996,-9.8022370075,-0.09275129569999999,1.2512,1.5407,-2.9156,-0.00019999999999997797,-0.0022999999999999687,0.00037999999999993594,0.0031263243854824374,-0.00028113344337543644,-0.00501125648197176
150000000000.0,-1,-0.41337971745,0.7236523168,-1.0847135565,-0.32491,-0.43008,0.005762,0.2793130053,-9.8018447415,-0.12570163969999998,1.1479,1.5396,-2.8165,9.999999999998899e-05,-0.0022999999999999687,-8.999999999992347e-05,0.004014607649789781,2.778599684694072e-05,-0.0038228882600765957
150000000000.0,-1,-0.5710804561,0.6895153681499999,-1.262900387,-0.34515,-0.41834,0.005784,0.27808717405,-9.801354409,-0.16019162774999998,1.0482,1.5381,-2.721,-9.999999999998899e-05,-0.0026000000000001577,0.00019999999999997797,0.004104213135055934,2.7929619216937596e-05,-0.003823462470612604
150000000000.0,-1,-0.5699330780499999,0.6888779359,-1.2259293165,-0.37074,-0.40973,0.003669,0.276939796,-9.800766009999998,-0.1970940517,0.95228,1.5361,-2.6291,9.999999999998899e-05,-0.0026999999999999247,-9.00000000000345e-05,0.003785722160179139,-0.00014447837650233275,-0.0036398785986677673
150000000000.0,-1,-1.0089081519999998,0.7350476441,-1.2692747094999999,-0.3771,-0.39379,0.00264,0.2758218379,-9.799981478,-0.23520269359999996,0.86472,1.5338,-2.5455,9.999999999998899e-05,-0.0030000000000001137,-4.999999999999449e-05,0.001994480444779123,0.00015966564110203585,-0.004210868433082826
150000000000.0,-1,-1.1751308695,0.84322480025,-1.115604504,-0.34825,-0.36953,0.004834,0.26006255135,-9.799000813,-0.2857069411,0.73844,1.5314,-2.423,0.00029999999999996696,-0.0030999999999998806,-0.00036999999999998145,0.0027598671298230126,0.00038263662601734083,-0.0029340207921433326
150000000000.0,-1,-1.1731695395,0.8423029751499999,-1.0841251575,-0.30019,-0.34114,0.011293,0.25811102799999996,-9.798118214499999,-0.3172843541,0.68293,1.5291,-2.3709,0.00029999999999996696,-0.0035000000000002807,-0.00034000000000000696,0.002166877409309542,-3.704870022813722e-05,-0.002901689067607016
150000000000.0,-1,-1.300754056,1.024206526,-1.1616957589999999,-0.24358,-0.30852,0.015636,0.2556985921,-9.7973336825,-0.34337984974999997,0.64007,1.5271,-2.3312,0.00019999999999997797,-0.0036999999999998145,-0.00038000000000004697,-1.5396063187234077e-05,0.0004335577792475842,-0.0023833030011553014
150000000000.0,-1,-1.2090618784999998,1.098933199,-1.2335785035,-0.1752,-0.27163,0.009355,0.25347248255,-9.796647216999999,-0.36304218299999996,0.60952,1.5256,-2.3034,0.00029999999999996696,-0.0039000000000002366,-0.00027999999999994696,-3.6959270642400455e-05,-0.0005652147640891059,-0.0028704297843527016
150000000000.0,-1,-1.2090618784999998,1.0984428665,-1.220927925,-0.10678,-0.23035,-0.016063,0.2534234493,-9.796156884499998,-0.37573198809999997,0.5934,1.5246,-2.2897,0.000500000000000167,-0.0039999999999995595,-0.0006800000000000139,0.0002708106417210754,-0.0012688099731843483,-0.0005227075307701057
150000000000.0,-1,-0.9784486970999999,0.9807630665,-1.4675651725,-0.059707,-0.20587,-0.053224,0.25690481005,-9.795764618499998,-0.38317523544999993,0.59062,1.5237,-2.289,0.0005999999999999339,-0.0043000000000001926,-0.0007399999999999629,0.0012524761410770413,-0.0015449506063087703,-0.001195936236010553
150000000000.0,-1,-1.0478405524999999,0.8773225223,-1.4954160584999998,-0.036118,-0.1866,-0.090404,0.26419115099999996,-9.795470418999999,-0.38773532769999997,0.59811,1.5229,-2.2984,0.00039999999999995595,-0.0043999999999999595,-0.0005700000000000705,-0.0012304199825043938,-0.0015879268373590882,-0.0003901162959287774
150000000000.0,-1,-1.0582356015,0.8769008363499999,-1.4922779305,-0.02428,-0.16628,-0.11907,0.27455678005,-9.794980086499999,-0.39094210225,0.61227,1.5221,-2.3143,0.0005999999999999339,-0.0049000000000001265,-0.0008099999999999774,0.0005563291152901328,-0.0009251188738137461,-0.0023841267474926653
150000000000.0,-1,-1.011065615,0.8480006387999999,-1.2957526645,0.00142,-0.13862,-0.14452,0.25543381255,-9.793607155499998,-0.43569965285,0.53025,1.5193,-2.2339,0.000500000000000167,-0.0047999999999999154,-0.0008099999999999774,-0.0016165646046586435,-0.002259867311010355,-0.0009218261572252473
150000000000.0,-1,-0.9811553325,0.9564621877999999,-1.3347831315,0.027141,-0.10148,-0.16039,0.27033992055,-9.793312956,-0.43391484255,0.55718,1.5186,-2.262,0.0005999999999999339,-0.005199999999999871,-0.0010000000000000009,-0.00012448592289593385,-0.0018238489657957935,-5.910073643899949e-05
150000000000.0,-1,-0.9972382384999999,0.95617779495,-1.3387057914999998,0.046433,-0.071787,-0.17095,0.28648166644999995,-9.793018756499999,-0.43000198919999993,0.5877,1.5181,-2.2934,0.0004999999999999449,-0.005300000000000082,-0.0010099999999999554,0.00018841531811841783,-0.0026650369901601856,0.0008507538768522949
150000000000.0,-1,-0.53154984995,0.9413599467999999,-1.6731125565,0.057194,-0.044145,-0.18578,0.30409440984999997,-9.792724557,-0.42481427135,0.62127,1.5175,-2.3275,0.00029999999999996696,-0.005600000000000271,-0.0008200000000000429,-0.0010119368273842078,-0.002042296163586421,-0.001326280954158321
150000000000.0,-1,-0.29913224494999996,0.85932731955,-1.8794444724999997,0.070043,-0.033504,-0.19745,0.32308008425,-9.7924303575,-0.41838110894999997,0.65756,1.5169,-2.3642,-0.0017000000000000348,-0.005399999999999849,0.0015399999999999858,-0.00259279323288486,-0.0043518283646080125,-4.4586046266115176e-05
150000000000.0,-1,-0.31911819765,0.8590233133999999,-1.8882704574999998,0.099937,-0.032491,-0.20702,0.3430562303,-9.792136158,-0.40959435055,0.69723,1.5163,-2.4042,-0.0017999999999998018,-0.006199999999999761,0.0018400000000000638,-0.0011292961765543286,-0.0019026696394042197,-0.0025685029463109466
150000000000.0,-1,-0.005207331149999999,0.6074729342499999,-2.0099709839999997,0.15753,-0.034874,-0.20275,0.36299314974999997,-9.791940025,-0.39590426714999993,0.74206,1.516,-2.4495,0.00029999999999996696,-0.006400000000000183,-0.0012900000000000134,-0.0015895412063080538,-0.00015573512070909956,-0.0017560183412226316
150000000000.0,-1,-0.043688625749999994,0.4468498139,-2.1810970265,0.22575,-0.051173,-0.18682,0.38156694485,-9.7920380915,-0.37564372825,0.79323,1.5162,-2.5012,-0.00019999999999997797,-0.006600000000000161,-0.0008200000000000429,-0.004023768128813998,-0.0023134917186566906,-0.0012288178458170762
150000000000.0,-1,-0.06006573125,0.44711459345,-2.2055155849999997,0.25978,-0.075868,-0.16453,0.39795385699999997,-9.7922342245,-0.35114671654999996,0.8478,1.5167,-2.5565,9.999999999998899e-05,-0.006999999999999895,-0.0011400000000000299,-0.0018312958164332649,-0.0011187342917158283,-0.0010444569443461837
150000000000.0,-1,-0.51374097355,-0.016190779149999997,-2.9514093839999997,0.25964,-0.12373,-0.14655,0.41228137265,-9.792528424,-0.32596323934999993,0.9018,1.5172,-2.6117,-4.999999999988347e-05,-0.007199999999999873,-0.0010099999999999554,-0.001498733609764713,-0.0008597558081022694,-0.0012178482853650863
150000000000.0,-1,-0.69106481885,-0.34369366255,-2.9418969335,0.23824,-0.14282,-0.1349,0.42530460384999996,-9.792724557,-0.30244689264999997,0.95265,1.5176,-2.6641,-5.0000000000105516e-05,-0.007500000000000062,-0.0005800000000000249,-0.0008830927843914704,0.0005069423248074134,-0.0008211509998643507
150000000000.0,-1,-0.7026072459,-0.343625016,-2.9611179675,0.18918,-0.11625,-0.11571,0.4368470309,-9.7928226235,-0.28314740545,0.99572,1.5177,-2.7084,-0.000400000000000178,-0.00770000000000004,-0.00046999999999997044,0.0006156794904856877,-0.0006488827274633291,-0.0005568524493417826
150000000000.0,-1,-0.9291310542499999,-1.3048728490000001,-3.1235160915,0.11983,-0.08236,-0.073099,0.44490809719999996,-9.7928226235,-0.26997707449999997,1.0254,1.5177,-2.739,-9.999999999998899e-05,-0.008000000000000007,-0.0005100000000000104,0.0013066500376508472,0.0011869202000003298,-0.00045716960357822245
150000000000.0,-1,-0.9071151249999999,-1.692823923,-3.2884639445,0.034378,-0.063474,-0.000748,0.44683020059999995,-9.792920689999999,-0.2646618702,1.0361,1.5178,-2.7504,-0.0004999999999999449,-0.008399999999999963,-0.000160000000000049,0.0014652474245409053,0.0007717375667668502,-0.0003790296872150378
150000000000.0,-1,-0.9009467421499999,-1.6927258565,-3.2843451514999997,-0.063916,-0.055206,0.080085,0.44066181775,-9.793018756499999,-0.26877085655,1.0231,1.5181,-2.738,-0.00039999999999995595,-0.01330000000000009,-0.003869999999999929,0.04076466730220285,-0.0026928984339245066,-0.06642547680402533
150000000000.0,-1,-0.12484846114999998,-1.6719357584999999,-3.7278018645,-0.161,-0.029574,0.10777,0.43010986235,-9.793116822999998,-0.28246093995,0.98971,1.5183,-2.7049,0.0008999999999999009,-0.0028999999999999027,8.999999999992347e-05,-0.05444938566380286,-0.01723752654677324,0.09690512607610646
150000000000.0,-1,0.6007749923,-1.049507683,-4.170572111999999,-0.19271,0.035793,0.034519,0.4243925854,-9.7928226235,-0.30105434835,0.9538,1.5177,-2.6688,-0.0008999999999999009,-0.009800000000000031,-0.00022999999999995246,-0.002702984227240357,-0.0028572169168308292,0.000798177950427359
150000000000.0,-1,0.5938613040499999,-1.0501941485,-4.1565486025,-0.12194,0.071554,-0.10472,0.43130627364999996,-9.792136158,-0.31511708445,0.93982,1.5163,-2.6541,-0.0018000000000000238,-0.010699999999999932,0.0006800000000000139,-0.0020500113895622896,-0.0015056253070335757,-0.005663977034459311
150000000000.0,-1,1.2571144635,0.18878781915,-5.0511112155,0.036068,0.010359,-0.23034,0.4511451266,-9.791155493,-0.3157349034,0.96016,1.5146,-2.6742,-0.0020000000000000018,-0.01110000000000011,0.00012000000000000899,-0.0037139733736601954,-0.006737368761039253,-0.005653827984898996
150000000000.0,-1,1.298596593,0.28006811735,-4.9893293204999996,0.23955,-0.15001,-0.29555,0.47850568009999994,-9.790469027499999,-0.2979848669,1.0138,1.5133,-2.729,-0.0019000000000000128,-0.011099999999999888,-7.999999999996898e-05,-0.010077102563774476,-0.00228932357087408,-0.003726028447991414
150000000000.0,-1,1.2695689089999997,0.27971507795,-5.0283597875,0.47482,-0.38102,-0.30345,0.5075137507999999,-9.7900767615,-0.2589740132,1.099,1.5127,-2.8175,-0.0021999999999999797,-0.01200000000000001,0.0005199999999999649,-0.011204461751157302,0.001121353247163226,-0.010499070238381147
150000000000.0,-1,0.9399379825499999,0.062370294,-4.294037835499999,0.72176,-0.5955,-0.2592,0.53309930065,-9.790174828,-0.1971528916,1.2166,1.5128,-2.9408,-0.0024999999999999467,-0.011600000000000055,0.0005999999999999339,-0.01116319790885334,-0.0028507080734854195,-0.006043034962230021
150000000000.0,-1,0.6232126075,-1.10226746,-2.0727335439999997,0.94752,-0.71151,-0.18175,0.5517417423,-9.790469027499999,-0.11333545404999999,1.3682,1.5133,-3.0995,-0.0027000000000001467,-0.011600000000000055,0.0008400000000000629,-0.010027873032161017,-0.00172212251988757,-0.008548295848777698
150000000000.0,-1,0.61110139475,-1.10226746,-2.174526571,1.1233,-0.78273,-0.11167,0.56385295505,-9.790469027499999,-0.01154242705,1.5503,1.5133,2.9936,-0.0026999999999999247,-0.006799999999999917,-0.0024899999999999922,-0.005825837849510851,0.020844685418812903,-0.03717400315129593
150000000000.0,-1,1.2057276175,-2.2912257059999996,-1.004397093,1.2552,-0.89922,-0.062966,0.5715119487,-9.789488362499998,0.10340131759999999,1.7498,1.5115,2.7851,-0.0029999999999998916,-0.010699999999999932,0.0016499999999999293,-0.007191614584318717,-0.000344212323828641,-0.010800498753704257
150000000000.0,-1,2.9787699375,-4.176652235,1.6889993294999999,1.3252,-1.0398,-0.021782,0.57628778725,-9.7871347665,0.22620999555,1.9448,1.5076,2.5796,-0.0031000000000001027,-0.010199999999999987,0.0018200000000000438,-0.009990070992500488,0.0015928013080910297,-0.008009054601415766
150000000000.0,-1,2.9781815385,-4.1800845625,1.5707311305,1.2384,-1.1524,0.048144,0.5768957995499999,-9.7836043725,0.34448800119999995,2.1091,1.5022,2.4037,-0.0033000000000000806,-0.00990000000000002,0.0018799999999999928,-0.0034976145887160026,0.0014874247884237857,-0.009313071527329075
150000000000.0,-1,3.4607667849999997,-3.5989424834999997,1.9717250489999998,0.94504,-1.0512,0.1419,0.56944274555,-9.7802701115,0.4385337747,2.227,1.4974,2.2745,-0.0029999999999998916,-0.009500000000000064,0.0016700000000000603,-0.0028206091865918825,0.003504069052420622,-0.013185643006132342
150000000000.0,-1,1.4730568965,0.3141069995,1.5411150475,0.5609,-1.0079,0.22593,0.55404630505,-9.778406848,0.49665778925,2.3016,1.4949,2.1896,-0.0031000000000001027,-0.009200000000000097,0.0012499999999999734,-0.0009546823329260601,0.004851962303970003,-0.012619068058288274
150000000000.0,-1,1.4963967235,0.31384221994999995,1.5113028314999999,0.30871,-1.103,0.32138,0.5307260913499999,-9.7781126485,0.5264405852999999,2.3521,1.4945,2.1282,-0.0028999999999999027,-0.008999999999999897,0.0008399999999999519,-0.0035485687045602177,0.005470211756418486,-0.012693020990806048
150000000000.0,-1,0.44157383619999996,2.18884428,1.9472084239999998,0.22395,-1.1886,0.46157,0.49559867104999994,-9.779093313499999,0.54306285705,2.4019,1.4958,2.0665,-0.0029000000000001247,-0.009000000000000119,0.00043000000000004146,-0.007844990626715509,0.005410777291765756,-0.008997217820493564
150000000000.0,-1,-0.80941147105,4.443196982,3.42448218,0.31962,-1.2134,0.61046,0.4460848952,-9.780172044999999,0.5654318257,2.4736,1.4973,1.9824,-0.0025999999999999357,-0.008599999999999941,9.99999999995449e-06,-0.005169113561817484,0.004500298800514724,-0.011295760262444166
150000000000.0,-1,-0.7516012692999999,4.443196982,3.3837845825,0.52016,-1.1786,0.66803,0.38828450009999993,-9.780172044999999,0.60611961655,2.5719,1.4973,1.872,-0.0021999999999999797,-0.008399999999999963,-0.00025999999999992696,-0.008642552247672075,0.003988398007352956,-0.011593260371117964
150000000000.0,-1,-0.5835054816499999,4.6780662495,3.5096039019999994,0.72419,-1.1269,0.59799,0.33465193125,-9.7781126485,0.6679701580999999,2.6771,1.4945,1.755,-0.0021999999999999797,-0.00869999999999993,-2.0000000000020002e-05,-0.012256243166346215,0.0019068122139302979,-0.005868340349341139
150000000000.0,-1,-0.34259531774999996,2.576010822,3.3240620839999995,0.91453,-1.0545,0.45886,0.29381704064999997,-9.773503522999999,0.7495124528499999,2.768,1.4886,1.6531,-0.0019000000000000128,-0.008600000000000163,-0.00012999999999996348,-0.013723131881719697,0.0024019668208379308,-0.006157482472086251
150000000000.0,-1,-0.31490133815,2.5686558345,3.2252110519999997,1.0772,-0.93119,0.33367,0.26612306105,-9.766246601999999,0.8483340649,2.8376,1.48,1.5735,-0.0015000000000000568,-0.008299999999999974,-0.000280000000000058,-0.013314550460290064,0.0011640223417896944,-0.004537387289932582
150000000000.0,-1,-1.1610092934999998,0.43344412335,3.3490690414999995,1.1855,-0.75824,0.26495,0.24627440144999999,-9.756439952,0.9597474155499999,2.8904,1.4696,1.5124,-0.0013999999999998458,-0.008099999999999996,-0.00021999999999999797,-0.009375338802741773,0.0013651013802349343,-0.004555786131540174
150000000000.0,-1,-1.1610092934999998,0.43344412335,3.3490690414999995,1.1855,-0.75824,0.26495,0.24627440144999999,-9.756439952,0.9597474155499999,2.8904,1.4696,1.5124,-0.0013000000000000789,-0.008000000000000007,-0.00019000000000002348,-0.011062462446627341,0.0018902208121751585,-0.0005268385884571458
150000000000.0,-1,-1.1512026434999998,0.26380869165,3.026528323,1.234,-0.58326,0.23877,0.22881856444999998,-9.7445739055,1.0778489015,2.9324,1.4582,1.4639,-0.0013000000000000789,-0.007599999999999829,-0.00036999999999998145,-0.010621872653769682,0.002863543916878708,-0.004568128163618734
150000000000.0,-1,-0.7865227499499999,0.46544322229999996,2.2574908299999996,1.1245,-0.3856,0.24237,0.1936617242,-9.717213352,1.307030312,2.9945,1.4357,1.3924,-0.0011999999999998678,-0.007600000000000051,-0.00043999999999999595,-0.009574870868671148,0.004559849012547579,-0.006447528801665214
150000000000.0,-1,0.0127878716,0.54580871905,1.2292635774999998,1.0444,-0.38576,0.30617,0.1709691361,-9.703287909,1.4094117379999997,3.0209,1.4255,1.3619,-0.0013000000000000789,-0.007500000000000062,-0.00034000000000000696,-0.010009975754981193,0.003106082957311296,-0.0046600926619055905
150000000000.0,-1,0.0432277132,0.5316577230999999,1.1318835429999998,1.0035,-0.44253,0.40283,0.1405292945,-9.689166333,1.5067917725,3.0486,1.4159,1.3296,-0.0011999999999998678,-0.007300000000000084,-0.0005699999999999594,-0.009670103815446307,0.004444657461267765,-0.008142707484807055
150000000000.0,-1,0.27097735279999996,0.7955350613,0.63550033995,0.99244,-0.5481,0.48662,0.10341112425,-9.674260225,1.6025046765,3.0771,1.4063,1.2954,-0.0015000000000000568,-0.00749999999999984,-0.00041000000000002146,-0.007762264586139489,0.0026885980428861256,-0.005610281210774115
150000000000.0,-1,0.7357537229,0.78999430405,0.16323168924999998,0.9857,-0.645,0.54278,0.0624095206,-9.658373452,1.6975311149999999,3.1048,1.3967,1.261,-0.0013000000000000789,-0.007200000000000095,-0.0007000000000000339,-0.010688377107615166,0.003610019080207527,-0.00781127542349358
150000000000.0,-1,0.7775888918,0.7733229990499999,0.0699998677,0.96103,-0.69168,0.55756,0.0205743517,-9.641702147,1.79069429,3.1301,1.3871,1.2284,-0.0009999999999998899,-0.007099999999999884,-0.0007699999999999374,-0.00652152450386656,0.0026805793382798093,-0.008204844307192705
150000000000.0,-1,0.7031466116499999,0.7168857283,0.01850514855,0.89491,-0.72919,0.50427,-0.016465365349999997,-9.6249327755,1.8788560735,-3.1328,1.378,1.2004,-0.001100000000000101,-0.007100000000000106,-0.0007300000000000084,-0.005603578586429014,0.000271069866156326,-0.005661393814319293
150000000000.0,-1,0.32041267544999996,1.2641752515,0.15983858835,0.74465,-0.74057,0.40528,-0.043737659,-9.609732467999999,1.9548576109999998,-3.1192,1.3701,1.179,-0.0005999999999999339,-0.006799999999999917,-0.0008600000000000829,-0.0033152944897525405,0.0010480517066682182,-0.008432588416739772
150000000000.0,-1,0.33759392624999995,1.2521130719999998,0.10180283365,0.55176,-0.73058,0.30739,-0.06090910315,-9.5976702885,2.0129129789999998,-3.1113,1.364,1.1635,-0.0008000000000001339,-0.007200000000000095,-0.0006899999999999684,-0.0026234612738322838,-2.8543771919853356e-05,-0.0061301228199281965
150000000000.0,-1,-0.55924382955,1.1131528414999998,0.79026889025,0.39826,-0.71896,0.25313,-0.07148067185,-9.588648170499999,2.0549835075,-3.1068,1.3596,1.1515,-0.0023999999999999577,-0.011900000000000022,0.004510000000000014,-0.004996701559236705,0.0036490299747438115,-0.01368066502777765
150000000000.0,-1,-0.8211304178,0.75680860045,0.52003684285,0.33206,-0.75256,0.24453,-0.07953193149999999,-9.5813912495,2.0883261175,-3.1035,1.356,1.1405,-0.0005999999999999339,-0.007299999999999862,-0.0009000000000000119,-0.001158958981439584,0.0010520295047335981,-0.005102103295139049
150000000000.0,-1,-0.8119612000499999,0.7492476733,0.48595873409999996,0.36188,-0.75499,0.269,-0.0887109559,-9.573840128999999,2.1223551929999998,-3.0998,1.3525,1.1289,-0.00029999999999996696,-0.007400000000000073,-0.0010999999999999899,-0.008233105598765889,-0.0008802186888792196,-0.0034884069991250044
150000000000.0,-1,-1.228577112,0.8466080945,0.3399573289,0.46653,-0.70035,0.28191,-0.10019454305,-9.564229612,2.1648179874999998,-3.0953,1.348,1.117,-9.999999999998899e-05,-0.007400000000000073,-0.0015300000000000313,-0.009641980432731234,-0.002188332324602804,-0.002114308889074934
150000000000.0,-1,-1.7537232194999999,1.1965093665,0.18050119989999996,0.59798,-0.6138,0.26619,-0.11228614249999999,-9.551480967,2.2195390945,-3.091,1.3422,1.1061,0.00019999999999997797,-0.007399999999999851,-0.0016899999999999693,-0.005959714478155798,0.0014443549985365678,-0.0034243718704263237
150000000000.0,-1,-1.7439165694999998,1.1810148594999998,0.11519871755,0.69972,-0.49393,0.20798,-0.1220143393,-9.53598646,2.2848513835,-3.0882,1.3353,1.0978,9.999999999998899e-05,-0.007800000000000029,-0.0015800000000000258,-0.006201978884715409,-0.0011803420123093211,-0.0013219309612706454
150000000000.0,-1,-1.6915490585,1.36312435,0.11645396875,0.72905,-0.3533,0.10619,-0.12569183305,-9.5190209555,2.3544785984999996,-3.0883,1.328,1.0938,0.0004999999999999449,-0.007800000000000029,-0.0016599999999999948,-0.0076304098263317854,-0.0007850138726288591,0.0008773068889853519
150000000000.0,-1,-1.251720806,1.3779323915,0.16291787644999997,0.69544,-0.21867,-0.009453,-0.12150439349999999,-9.502055451,2.422046417,-3.0915,1.3209,1.0945,0.00029999999999996696,-0.008099999999999996,-0.0014100000000000223,-0.008724526006982813,-0.002440086898769067,0.0007492278181935319
150000000000.0,-1,-1.2629984534999998,1.361947552,0.1004985492,0.64145,-0.11699,-0.10497,-0.11023655264999999,-9.486070611499999,2.4845147775,-3.0973,1.3144,1.099,0.0004999999999999449,-0.008199999999999985,-0.0015499999999999403,-0.010107496005321348,-0.005638065787375135,0.0038405165434638455
150000000000.0,-1,-1.082065761,1.234068836,0.12233795874999999,0.59688,-0.066499,-0.16762,-0.09365350749999998,-9.4709683705,2.542079813,-3.1048,1.3084,1.106,0.000300000000000189,-0.008199999999999985,-0.0016300000000000203,-0.013337382205580006,-0.0009605862668842224,0.0015441848540538317
150000000000.0,-1,-1.082065761,1.234068836,0.12233795874999999,0.59688,-0.066499,-0.16762,-0.09365350749999998,-9.4709683705,2.542079813,-3.1048,1.3084,1.106,0.0005999999999999339,-0.008299999999999974,-0.0019500000000000073,-0.010226037600256532,0.0020543503204055735,-0.0007832144353985271
150000000000.0,-1,-1.046761821,0.64234538165,-0.06492982964999999,0.58943,-0.069562,-0.17933,-0.074922806,-9.455964196,2.5978796514999996,-3.1128,1.3026,1.1136,0.0012000000000000899,-0.007800000000000029,-0.002610000000000001,0.004438419778080682,0.007491455053264984,-0.007388542258053743
150000000000.0,-1,-1.064806057,0.33920221685,-0.39068712935,0.6457,-0.13497,-0.11352,-0.04255105435,-9.4231119185,2.715461385,-3.1259,1.2902,1.125,0.0004999999999999449,-0.008399999999999963,-0.0015999999999999348,-0.00789374419360378,-0.002067466815873109,-0.001445332087290474
150000000000.0,-1,-0.8171293045999999,0.056025391449999996,-0.8039197470499999,0.64988,-0.15737,-0.098676,-0.028919810849999995,-9.4052638155,2.7769490804999997,-3.1312,1.2837,1.1289,0.0031999999999998696,-0.0035000000000000586,-0.007330000000000059,0.003010941400311662,-0.0043931559326191305,-0.003579761460578812
150000000000.0,-1,-0.831800053,0.03860878105,-0.86236738105,0.60825,-0.17835,-0.10724,-0.01424906245,-9.3878079785,2.8352986479999998,-3.1366,1.2775,1.1327,0.000700000000000145,-0.008799999999999919,-0.0016699999999999493,-0.005281107665728868,-0.0028633625018492648,-0.0008359431752076318
150000000000.0,-1,-0.7042743764,0.03109688715,-1.034797708,0.53779,-0.21293,-0.12542,0.00306948145,-9.3719212055,2.8874700259999995,3.1405,1.2719,1.137,0.0010999999999998789,-0.008500000000000174,-0.0020600000000000618,-0.0051124211935926756,-0.0014515434411748185,-0.004039304535903732
150000000000.0,-1,-0.9734767255499999,0.3115572705,-0.8359580726,0.46087,-0.25717,-0.12448,0.021937476049999998,-9.357897695999998,2.9325806159999996,3.1341,1.2671,1.1411,0.0009000000000001229,-0.008799999999999919,-0.0018599999999999728,-0.0022828309937472646,-0.0022091316122028193,-0.0003387337662541512
150000000000.0,-1,-0.9939039774999999,0.2994558644,-0.87407652115,0.39148,-0.28548,-0.13094,0.04231569475,-9.3458355165,2.970630418,3.1273,1.263,1.1452,0.0011999999999998678,-0.008799999999999919,-0.0020700000000000163,-0.0025775238768177555,-0.0018204205838470155,-0.001288377813371877
150000000000.0,-1,-1.0831444925,0.44543765629999993,-0.6910255922499999,0.34457,-0.28096,-0.14264,0.0637824516,-9.335146267999999,3.0036788285,3.1204,1.2594,1.1496,0.0012000000000000899,-0.009000000000000119,-0.0019500000000000073,-0.003431070616221721,-0.002785125959275714,-0.0006066729003815219
150000000000.0,-1,-1.1518891089999999,0.39763023755,-0.38856889294999997,0.31167,-0.23287,-0.17446,0.0866319461,-9.325339618,3.0333929779999997,3.113,1.2562,1.1547,0.0011999999999998678,-0.009199999999999875,-0.0017699999999999383,-0.0021413536325807225,-0.002584289482824076,0.0004449119212610597
150000000000.0,-1,-1.1767979999999998,0.38864734614999996,-0.415213561,0.27776,-0.16771,-0.21899,0.11151141714999999,-9.316317499999998,3.060067066,3.1052,1.2532,1.161,0.0017000000000000348,-0.009000000000000119,-0.0018799999999999928,-0.002771722798165843,-0.002518537537164356,-0.0025445717014696
150000000000.0,-1,-1.321348021,0.12453464835,-0.24066499765,0.22989,-0.13018,-0.24764,0.13828357165,-9.308570246499999,3.082622361,3.0968,1.2507,1.1684,0.0015000000000000568,-0.009500000000000064,-0.0016400000000000858,0.0030110950050474816,-0.001144762399404975,0.0013732668487893562
150000000000.0,-1,-1.919945937,-0.90555586765,0.21495196135,0.15415,-0.12568,-0.24233,0.16512437269999997,-9.3026862565,3.0988033335,3.0884,1.2488,1.176,0.0019000000000000128,-0.009399999999999853,-0.0011299999999999644,-0.0029499800959298383,-0.001633343025881473,-0.004878719681585153
150000000000.0,-1,-1.9435799635,-0.90838018285,0.20781272015,0.054782,-0.14475,-0.19134,0.18873878589999998,-9.2999403945,3.105962188,3.0809,1.2479,1.1824,0.0020999999999999908,-0.009500000000000064,-0.0014999999999999458,0.0003870904447209611,0.00011614209631205519,-0.0014857685232021467
150000000000.0,-1,-2.434795062,-1.2753548325,0.30854662894999996,-0.023357,-0.18642,-0.10955,0.2063515293,-9.299842328,3.1049815229999997,3.0752,1.2479,1.1865,0.0022999999999999687,-0.009700000000000042,-0.0014399999999999968,0.0005705986955408804,0.00010066615279669122,-0.004513293740910029
150000000000.0,-1,-3.1737261394999994,-1.9376959734999997,0.00889463155,-0.047148,-0.24115,-0.010759,0.21676619159999996,-9.301215259,3.1002743309999996,3.0718,1.2483,1.1877,0.0019000000000000128,-0.010499999999999954,-0.0006700000000000594,0.00031507034670319456,0.0014162168497828809,-0.0006833227245586215
150000000000.0,-1,-3.176373935,-1.9369114414999997,0.0113168741,-0.006896,-0.28235,0.088081,0.21934534055,-9.301901724499999,3.0978226684999997,3.0709,1.2486,1.1858,0.0023999999999999577,-0.010599999999999943,-0.0005300000000000304,-0.0006253874752644162,0.0010794231396034082,-0.0031227164745502023
150000000000.0,-1,-3.2822857549999997,-2.109606548,-0.1636533752,0.06014,-0.28118,0.17851,0.21351038379999998,-9.3009210595,3.1013530624999994,3.0729,1.2482,1.1807,0.0026000000000001577,-0.010600000000000165,-0.00046000000000001595,0.0009390580558170658,0.0020012739026875614,-0.002646488802934055
150000000000.0,-1,-2.8721716519999996,-2.04762852,-0.61620085275,0.059105,-0.22743,0.22331,0.20102651835,-9.299253928999999,3.1070409194999997,3.077,1.2477,1.1738,0.0027999999999999137,-0.01079999999999992,-0.0005199999999999649,0.006543258193388191,0.002289525023345229,-0.0006351949506591126
150000000000.0,-1,-2.857069411,-2.046255589,-0.6130333048,-0.069826,-0.16218,0.21704,0.18590466405,-9.30062686,3.1039027915,3.0818,1.2482,1.1669,0.0029999999999998916,-0.01089999999999991,-0.00020999999999993246,0.0031150430728164036,0.0009396742899570043,-0.0038762946652641794
150000000000.0,-1,-2.3149577989999996,-1.6443790719999998,-0.3341714054,-0.26177,-0.13372,0.20217,0.1710868159,-9.3075895815,3.083799159,3.0862,1.2504,1.1608,0.0030000000000001137,-0.01110000000000011,5.999999999994898e-05,0.005685248036725765,0.0009614844710290615,-0.004483330430039345
150000000000.0,-1,-2.1765859675,-1.31605243,-0.3628852766,-0.41659,-0.1788,0.21479,0.15644548744999998,-9.319651761,3.0480048865,3.0903,1.2543,1.1547,0.0029999999999998916,-0.011199999999999877,-0.00017000000000000348,0.0036730804241686954,0.0014027910983307468,-0.004952832195272094
150000000000.0,-1,-2.1624643915,-1.301146322,-0.31786294644999996,-0.49156,-0.28156,0.24006,0.14237294469999998,-9.3344598025,3.0029923629999997,3.0942,1.2592,1.1479,0.0031000000000001027,-0.011300000000000088,-0.00031000000000003247,0.004218228144510006,0.002613846995511704,-0.0053485248308176025
150000000000.0,-1,-1.5476855029999999,-1.4459905425,-1.2204375925,-0.46732,-0.37218,0.29092,0.12706476405,-9.3491697775,2.95768564,3.0987,1.2641,1.1396,0.0019000000000000128,-0.012799999999999923,0.0011900000000000244,0.003870040445657974,0.0019748741885401433,-0.0015620681858727892
150000000000.0,-1,-1.5476855029999999,-1.4459905425,-1.2204375925,-0.46732,-0.37218,0.29092,0.12706476405,-9.3491697775,2.95768564,3.0987,1.2641,1.1396,0.0023999999999999577,-0.012299999999999978,0.0008099999999999774,-0.0005847740110198618,0.005397178602569719,-0.0037402020740779918
150000000000.0,-1,-1.570436931,-1.705768701,-1.4938469945,-0.37371,-0.43141,0.36102,0.1073239776,-9.3613300235,2.9197339044999997,3.1049,1.2683,1.1287,0.0031000000000001027,-0.011900000000000022,0.00048000000000003595,0.001147852156366591,0.006571254373665347,-0.0020927334569504907
150000000000.0,-1,-1.7548019509999997,-1.8561046454999999,0.7685569671499999,-0.151,-0.3744,0.55905,0.0432080999,-9.375353532999998,2.875898179,3.1266,1.2731,1.0969,0.0033999999999998476,-0.011500000000000066,0.00034000000000000696,0.006472219463457218,0.008350625024859948,0.00566281241186406
150000000000.0,-1,-1.7918710879999997,-1.582989443,2.1530500074999996,-0.11004,-0.097503,0.66392,-0.01175817335,-9.3787858605,2.8652089304999997,-3.1375,1.2743,1.0751,0.0040999999999999925,-0.01110000000000011,0.0004999999999999449,0.0005812731203300725,0.01030197134027544,0.0016249086955588687
150000000000.0,-1,-1.7203806094999998,-1.5784783839999998,2.1689367804999997,-0.19888,0.29062,0.71371,-0.08323884520000001,-9.383198853,2.8493221574999996,-3.1124,1.2759,1.0508,0.0039000000000000146,-0.011099999999999888,0.000980000000000092,0.010400817437543397,0.011111483199165662,0.010988826562200682
150000000000.0,-1,-1.3722445344999998,-1.193077039,2.9901456515,-0.4081,0.71563,0.71674,-0.16778197485,-9.392220971,2.8156853479999997,-3.0821,1.279,1.0255,0.0040999999999999925,-0.010499999999999954,0.0014099999999999113,0.01069510260076112,0.009864105476187879,0.010036749170138748
150000000000.0,-1,0.50407161665,-0.17260684664999998,3.731038059,-0.69207,1.1039,0.71435,-0.26315164609999997,-9.407911611,2.7552763839999996,-3.0464,1.2847,0.99879,0.0040999999999999925,-0.010199999999999987,0.0016800000000000148,0.015855972418828523,0.01006105538536084,0.012078720431482282
150000000000.0,-1,0.6075219675,-0.14946315265,3.8235147685,-1.0211,1.3851,0.71916,-0.3666118036,-9.431055305,2.6627996745,-3.0048,1.2931,0.96926,0.0048000000000001375,-0.008800000000000141,0.0008700000000000374,0.01725050062068534,0.016548803691043945,0.0019856483968632155
150000000000.0,-1,2.134515439,-0.0044718324,3.6615089104999994,-1.375,1.518,0.72362,-0.4737200349,-9.461455919999999,2.5351170915,-2.9569,1.3047,0.93503,0.0030999999999998806,-0.009299999999999864,0.0023900000000000032,0.02463608374966486,0.005698363534745843,0.011231349407510027
150000000000.0,-1,4.8881246925,-1.7480353624999998,1.1121721764999999,-1.7165,1.4822,0.7309,-0.5796514682,-9.497740525,2.372228635,-2.9019,1.3191,0.89376,0.0028000000000001357,-0.008700000000000152,0.0023900000000000032,0.022688302907215796,0.0044083514770594245,0.007403507386924524
150000000000.0,-1,4.9887409215,-1.7091029619999998,1.302715386,-1.9688,1.2477,0.74307,-0.6802676971999999,-9.5366729255,2.181783492,-2.8393,1.3356,0.84285,0.0022999999999999687,-0.008499999999999952,0.002610000000000001,0.018195409969185672,0.005546272973388833,-0.000908890362947723
150000000000.0,-1,5.9437124985,-2.6757444524999996,0.1977412906,-2.0507,0.88022,0.71456,-0.76996912475,-9.573840128999999,1.9794723024999998,-2.7706,1.3525,0.78236,0.0017000000000000348,-0.008199999999999985,0.002850000000000019,0.01441975794746364,0.003391910966088485,-0.005637578771797713
150000000000.0,-1,7.320075825999999,-4.3342451005,-0.52672497815,-1.9235,0.436,0.62956,-0.8430384739,-9.605711741499999,1.7862812975,-2.7006,1.368,0.71638,-9.999999999998899e-05,-0.009400000000000075,0.004369999999999985,0.00835771243150063,0.0014442709760842387,-0.007230697955284526
150000000000.0,-1,7.373522068499999,-4.3101207415,-0.36309121625,-1.6108,-0.067043,0.51256,-0.8964062631999999,-9.6298361005,1.6226083089999999,-2.6369,1.3806,0.65202,0.00039999999999995595,-0.008299999999999974,0.0033600000000000296,0.007793686001918321,0.0022453405558522377,-0.0138657509225375
150000000000.0,-1,7.1539511749999996,-3.928151724,-0.50118846155,-1.2544,-0.61182,0.42207,-0.93140619705,-9.646801605,1.497475455,-2.5852,1.39,0.59459,0.0004999999999999449,-0.007699999999999818,0.002549999999999941,0.004052329337746796,0.003625743785741431,-0.014515748805171036
150000000000.0,-1,3.6027670769999998,-0.816109413,-0.68669105295,-0.95681,-1.0925,0.44021,-0.9585215842999999,-9.65758892,1.4077446075,-2.5438,1.3962,0.54261,-9.999999999998899e-05,-0.008300000000000196,0.003149999999999986,0.002473009320888009,0.006075928697166333,-0.014507652906160295
150000000000.0,-1,3.6338541574999996,-0.8100685165999999,-0.62232020235,-0.75059,-1.3453,0.53117,-0.9895890515,-9.663669042999999,1.3434129835,-2.5067,1.3998,0.49175,0.00039999999999995595,-0.007699999999999818,0.0023900000000000032,0.003797602756192786,0.006576719561450783,-0.012202977505447965
150000000000.0,-1,1.698707913,0.8626517738999999,0.40265124234999994,-0.60574,-1.3521,0.64607,-1.031267314,-9.665826505999998,1.2955565315,-2.4693,1.4011,0.43994,0.00029999999999996696,-0.008000000000000007,0.0025000000000000577,0.004277939587959301,0.006178931444096092,-0.007684679245481885
150000000000.0,-1,0.28848222305,1.8392372074999999,1.1756212019999999,-0.5224,-1.2005,0.75493,-1.085792288,-9.6649439075,1.2567221974999998,-2.4291,1.4006,0.3865,0.001000000000000112,-0.007800000000000029,0.0018699999999999273,0.0043281956082845685,0.008506457034971548,-0.007355263286183078
150000000000.0,-1,-0.72650605195,1.9594667364999998,1.1563021015,-0.52614,-0.91566,0.81195,-1.1510065105,-9.662492245,1.217397531,-2.3842,1.3991,0.3309,-0.0004999999999999449,-0.010199999999999987,0.0049400000000000555,0.0032222312882328463,-0.002876514295994781,0.006849157388133076
150000000000.0,-1,-1.687528332,1.99859527,0.9649253267499999,-0.56677,-0.51858,0.77348,-1.2197511269999999,-9.659746383,1.171110143,-2.3359,1.3975,0.27547,0.0006999999999999229,-0.008800000000000141,0.0025300000000000322,0.016152912640063244,0.004792178653270973,0.009000789979175305
150000000000.0,-1,-1.6225102425,1.9969281395,1.021656797,-0.62304,-0.027559,0.66076,-1.2847692164999998,-9.657981186,1.114427706,-2.2853,1.3965,0.22257,0.0015000000000000568,-0.008399999999999963,0.0017899999999999583,0.009754960699406956,0.0046294661111137,0.009261010101724754
150000000000.0,-1,-1.565337473,2.1299063135,1.0217548635,-0.73248,0.49904,0.49918,-1.3410593875,-9.6584715185,1.0417604295,-2.2312,1.3968,0.17141,0.0007999999999999119,-0.009199999999999875,0.0027000000000000357,0.01630939755491556,0.001632410681509322,0.009119947469223177
150000000000.0,-1,-0.81690375165,2.271024007,0.44931128304999995,-0.85087,0.83697,0.32866,-1.3846989799999998,-9.6616096465,0.9520491953,-2.1731,1.3986,0.1202,0.0020000000000000018,-0.008300000000000196,0.0014999999999999458,0.01042127966897577,-0.001268624147566788,0.01028905750179998
150000000000.0,-1,-0.78687578935,2.2763195979999997,0.55332061295,-0.96657,0.9679,0.18426,-1.4147073289999998,-9.6669052375,0.8480398653999999,-2.1108,1.4018,0.066575,0.0017000000000000348,-0.008599999999999941,0.0017800000000000038,0.015715605795009857,-0.0019174105110157935,0.007645280278233635
150000000000.0,-1,-0.023643833149999998,1.7190076785,0.34637087799999994,-1.0536,0.98453,-0.006123,-1.426671442,-9.6745544245,0.7340179458499999,-2.046,1.4065,0.010853,0.0019000000000000128,-0.008199999999999985,0.0013300000000000534,0.013353878492772253,-0.0030923339951978157,0.0098993839837771
150000000000.0,-1,0.96874992025,1.1049152555,-0.19276931905,-1.1377,0.92774,-0.16689,-1.420395186,-9.683870742,0.6125037457,-1.9779,1.4124,-0.048524,0.0018000000000000238,-0.008199999999999985,0.0011599999999999389,0.011433036400933183,-0.0030810903708042847,0.007828613456378086
150000000000.0,-1,0.9510194970499999,1.1147219055,-0.06522402914999999,-1.2017,0.88089,-0.24892,-1.4026451494999999,-9.693677392,0.4849584558,-1.9037,1.4189,-0.11468,0.0013999999999998458,-0.008499999999999952,0.0014600000000000168,0.01319897121485547,-0.0018839620900545917,0.007291144152272722
150000000000.0,-1,1.2988907925,1.077750835,-0.029312076849999997,-1.2155,0.88537,-0.27337,-1.3802859874999998,-9.702503377,0.35462807729999996,-1.8223,1.425,-0.18805,0.0012000000000000899,-0.008099999999999996,0.0009700000000000264,0.009730000986781118,-0.0032012692594112213,0.006547330661047734
150000000000.0,-1,2.0677321525,1.3877390415,0.20394890005,-1.1526,0.8555,-0.283,-1.3555732294999998,-9.709760297999999,0.22895585754999997,-1.7381,1.4301,-0.26432,0.0012000000000000899,-0.008000000000000007,0.0005799999999999139,0.004012996917835299,4.0122534130659915e-05,0.003653741566321589
150000000000.0,-1,2.0416464635,1.3933288320000001,0.31931433065,-1.0536,0.76389,-0.28105,-1.3294875405,-9.715448154999999,0.11359042694999999,-1.656,1.4343,-0.33922,0.0008999999999999009,-0.008199999999999985,0.0007900000000000684,0.019997256771749683,-0.005497960234635668,0.006573950099039827
150000000000.0,-1,2.0749890735,1.7699041919999998,0.31664692185,-0.94724,0.63288,-0.26217,-1.303892184,-9.719566947999999,0.0101596894,-1.5786,1.4374,-0.41063,0.0005999999999999339,-0.008299999999999974,0.0005999999999999339,0.004743745341085459,-0.0014452828172732968,0.0012089757472280027
150000000000.0,-1,2.048609185,2.573853359,-0.023928225999999997,-0.83559,0.48067,-0.2476,-1.2794736254999999,-9.722508943,-0.08052240314999999,-1.5079,1.4397,-0.47665,0.0012000000000000899,-0.007800000000000029,-0.00039000000000000146,0.000434274317684169,-0.0014135854655132896,-0.00046969181724776377
150000000000.0,-1,2.0233080279999998,2.5762069549999995,0.054328840999999996,-0.72054,0.39547,-0.26053,-1.2541724685,-9.724862539,-0.15877947015,-1.4449,1.4415,-0.53614,0.0004999999999999449,-0.008199999999999985,0.0001500000000000945,0.002108745828885983,-0.0021145934429356306,-0.0019575554620483437
150000000000.0,-1,1.7164579494999999,2.733113355,0.05047482755,-0.62128,0.38052,-0.29883,-1.225635117,-9.7271180685,-0.22629825539999998,-1.3882,1.4434,-0.58944,0.000700000000000145,-0.008299999999999974,-0.0007200000000000539,0.0027848074696654734,-0.006020767305829011,0.005057382673860467
150000000000.0,-1,1.4991425855,2.6653494034999996,-0.13413535869999998,-0.53363,0.37975,-0.3839,-1.1897427779999998,-9.7300600635,-0.28485376255,-1.3358,1.4457,-0.63844,0.00019999999999997797,-0.008600000000000163,-0.00041000000000002146,0.005338670231355369,-0.0063100004575242785,-0.0006027152195238195
150000000000.0,-1,1.2641752515,2.5462966724999996,-0.3904419631,-0.44067,0.33574,-0.50417,-1.142474725,-9.7341788565,-0.33410275885,-1.2863,1.4491,-0.68479,0.00039999999999995595,-0.008599999999999941,-0.0008899999999999464,0.0008336659103891364,-0.006755937839745707,0.0016778830737438355
150000000000.0,-1,1.0090062185,2.3821333515,-0.71754277385,-0.34035,0.2545,-0.61282,-1.0843212905,-9.739376381,-0.37285863965,-1.2396,1.4536,-0.72906,0.00019999999999997797,-0.008599999999999941,-0.0012600000000000389,0.000707841312854729,-0.007373998190138176,0.0020630712273681517
150000000000.0,-1,0.6961936968,1.950738818,-1.1991571619999999,-0.21676,0.15168,-0.67473,-1.0190090015,-9.745456504,-0.39896394194999996,-1.1976,1.459,-0.76953,-0.00019999999999997797,-0.009040000000000048,-0.0009500000000000064,-0.0018560862544929613,-0.004847691000176901,-0.0018080013198198408
150000000000.0,-1,0.6306068215999999,1.9569170075,-1.1876833814999999,-0.074037,0.056626,-0.66215,-0.95337309305,-9.751536627,-0.4104475291,-1.1643,1.4648,-0.80227,-0.00039999999999995595,-0.00927,-0.0010799999999999699,-0.0022220256352072365,-0.004831474445083694,-0.000862938439220251
150000000000.0,-1,0.43251249159999994,1.6546760544999999,-1.3212499544999998,0.070758,-0.013419,-0.591,-0.8936996278,-9.7573225505,-0.40704462155,-1.1434,1.4705,-0.82321,-0.000500000000000167,-0.009029999999999982,-0.0016399999999999748,-0.0029378929462524628,-0.00416314676338847,0.0009242236770132806
150000000000.0,-1,-0.0033342610000000003,1.302911519,-1.6929219895,0.19102,-0.05601,-0.49108,-0.8434699665,-9.762520075,-0.39073616259999994,-1.137,1.4759,-0.83016,-0.0006999999999999229,-0.009489999999999998,-0.0014899999999999913,-0.003526919757376401,-0.000854968937129108,-0.002436550483108757
150000000000.0,-1,-0.04359055925,1.307226445,-1.7182231465,0.26973,-0.075104,-0.39111,-0.8032038616,-9.766835001,-0.3654742322,-1.1438,1.4807,-0.82405,-0.0006999999999999229,-0.009569999999999967,-0.0015900000000000913,-0.0035329340224445893,-0.002217730775686766,-0.0003629607860324846
150000000000.0,-1,-0.2994754777,1.2718244385,-1.7646086009999997,0.31114,-0.086506,-0.3071,-0.77163625525,-9.7704634615,-0.33514226374999995,-1.161,1.4849,-0.80755,-0.001100000000000101,-0.009840000000000071,-0.0015699999999999603,-0.003953710397569088,-0.0016726025565727554,-0.0013763664023684896
150000000000.0,-1,-0.6367163645499999,1.2892802755,-1.6983156469999998,0.3099,-0.098719,-0.23373,-0.74727653665,-9.773405456499999,-0.30397673005,-1.1845,1.4884,-0.78501,-0.0008999999999999009,-0.009919999999999929,-0.0017399999999999638,-0.0009086333398882207,-5.06788328615837e-05,-0.0030926866020637434
150000000000.0,-1,-0.65413297495,1.2914377385,-1.7282259295,0.29049,-0.12992,-0.16467,-0.7298697329,-9.775660985999998,-0.2741154808,-1.2115,1.4912,-0.75906,-0.0009000000000001229,-0.010010000000000074,-0.0023100000000000342,-0.004472883282121698,4.687283080606619e-05,-0.00015108429678578617
150000000000.0,-1,-0.67304019615,1.2415218899999998,-1.8444347319999999,0.27963,-0.15477,-0.097716,-0.7190431912999999,-9.7771319835,-0.24558793594999997,-1.2417,1.4932,-0.73033,-0.0010999999999998789,-0.010290000000000021,-0.0021200000000000108,-0.002564645009490274,-0.0013170236589636897,9.101651520859733e-05
150000000000.0,-1,-0.7212594942,1.1345313385,-2.2243443529999998,0.29547,-0.17018,-0.030734,-0.7148067184999999,-9.778210715,-0.21612875934999998,-1.2772,1.4946,-0.69638,-0.0015000000000000568,-0.010849999999999915,-0.0019099999999999673,-0.005733522156831983,0.0024763137633476706,-0.003103941194134041
150000000000.0,-1,-0.7198963698499999,1.1351197375,-2.2577850295,0.34119,-0.19092,0.023479,-0.7161796494999999,-9.778799114,-0.1826194363,-1.3211,1.4954,-0.65419,-0.0015000000000000568,-0.01092000000000004,-0.0022499999999999742,-0.0052408870806344154,-0.000944410980419752,0.0028808896771730375
150000000000.0,-1,-0.6527404306499999,1.0811831625,-2.4719622655,0.40305,-0.16705,0.059714,-0.72152427375,-9.778995247,-0.14344186955,-1.3745,1.4957,-0.6024,-0.0015999999999998238,-0.011419999999999986,-0.0017500000000000293,-0.004362202744121468,0.0026493079132878794,-0.0003946485644847897
150000000000.0,-1,-0.9610909265999998,-0.29428775985,-2.164916054,0.46937,-0.069901,0.08016,-0.7290655875999998,-9.778995247,-0.09846857264999999,-1.4366,1.4957,-0.54119,-0.0015000000000000568,-0.011290000000000022,-0.0019500000000000073,-0.005860856771349621,-0.0004580283946420405,0.004174310622059085
150000000000.0,-1,-0.9529906336999999,-0.29452311945,-2.2142435034999997,0.51447,0.060342,0.082594,-0.7371658805,-9.778799114,-0.04918034975,-1.5042,1.4954,-0.47312,-0.0013000000000000789,-0.011599999999999944,-0.0016199999999999548,-0.003164462767826448,-0.0022989820465657562,0.00606863222833276
150000000000.0,-1,-1.078143101,-1.2373050305,-1.8519858524999997,0.50205,0.20482,0.056325,-0.74356962295,-9.778406848,-0.00055897905,-1.57,1.4949,-0.40538,-0.0017000000000000348,-0.011940000000000062,-0.00048000000000003595,-0.0006148463491817413,0.0002274547047280695,0.0021275626542758275
150000000000.0,-1,-0.8670451531,-3.1388144655,-1.291143539,0.42252,0.34995,-0.02208,-0.7436578827999999,-9.7783087815,0.040805470649999995,-1.6256,1.4948,-0.3465,-0.0012999999999998568,-0.011799999999999922,-0.0009099999999999664,-0.001040651247686819,-0.0029258057613381627,0.006165518899871714
150000000000.0,-1,-0.8774205888,-3.1382260665,-1.319582824,0.28644,0.45956,-0.141,-0.7332824470999999,-9.778995247,0.06918591575,-1.6649,1.4956,-0.30277,-0.0015000000000000568,-0.012130000000000085,-0.0003300000000000525,0.0003921385085519091,-0.003724307968347995,0.004916063700001416
150000000000.0,-1,-0.4905874729,-3.761438674,-1.7645105345,0.13531,0.5183,-0.25685,-0.71114883805,-9.7804662445,0.0824543132,-1.6862,1.4977,-0.27627,-0.0019000000000000128,-0.012539999999999996,-4.999999999999449e-05,-0.0007312305968618649,-0.003580828016836346,0.005912214956520057
150000000000.0,-1,-0.06367457844999999,-3.1784333315,-3.55785262,0.05329,0.52016,-0.31962,-0.6815229483999999,-9.782525641,0.08531785499999998,-1.6953,1.5007,-0.26188,-0.0023999999999999577,-0.0131,0.00029999999999996696,-0.0036762934551395343,-0.0034751468714626643,0.0027458096441255186
150000000000.0,-1,-0.09546773775,-3.1762758685,-3.5624617455,0.099048,0.46066,-0.32826,-0.6497297890999999,-9.784683103999999,0.08999562704999998,-1.7084,1.5039,-0.24395,-0.0026000000000001577,-0.013560000000000016,0.0005700000000000705,-0.004073730341662918,-0.0004570219032609124,-0.0011645056030933354
150000000000.0,-1,-0.12500536755,-3.174608738,-3.579623383,0.23633,0.33684,-0.29552,-0.6201921593,-9.786448301,0.10711803795,-1.7418,1.5066,-0.20676,-0.0031999999999998696,-0.014009999999999967,0.0007099999999999884,-0.007198200457584569,-0.001437198534691042,-0.0006880556415156391
150000000000.0,-1,-0.38295948915,-2.3648736475,-5.051601548,0.40754,0.15219,-0.22889,-0.59627373995,-9.787428966,0.14155899275,-1.8039,1.5083,-0.14255,-0.0033000000000000806,-0.014170000000000016,0.0006899999999999684,-0.01050018491410909,-0.0011835033249179006,-0.0021104612721729588
150000000000.0,-1,-0.28597172065,-2.0993095655,-4.6264832705,0.59788,-0.062292,-0.1538,-0.57938668865,-9.7875270325,0.19555440764999998,-1.8963,1.5084,-0.05005,-0.0034999999999998366,-0.01422000000000001,0.0010700000000000154,-0.008798813192028021,0.00045292978601696454,-0.005350883096615355
150000000000.0,-1,0.0024516625,-1.8243310995,-3.1324401429999997,0.76912,-0.2395,-0.090335,-0.5686778268499999,-9.786448301,0.26806477775,-2.0113,1.5066,0.063164,-0.0037000000000000366,-0.013969999999999927,0.0013600000000000279,-0.00989223663902905,-0.0015606791072595438,-0.007425730864330404
150000000000.0,-1,1.8585563079999998,-1.8780715415,-0.17186154124999997,0.86047,-0.38539,-0.057667,-0.5613816792499999,-9.784192771499999,0.3526275207,-2.1316,1.5031,0.18029,-0.0038000000000000256,-0.013490000000000002,0.0016100000000000003,-0.008148265229096507,-0.003354056499113023,-0.008603449961911203
150000000000.0,-1,1.8508090545,-1.8812096694999998,-0.25923879275,0.85792,-0.57625,-0.06129,-0.5536246190999999,-9.781152709999999,0.44000477219999995,-2.2423,1.4986,0.28601,-0.0038000000000000256,-0.012780000000000014,0.0021299999999999653,-0.007872816731782084,-0.00589888010896944,-0.010695470003612595
150000000000.0,-1,3.4944035944999996,-2.7618468394999995,1.5299354665,0.80093,-0.8416,-0.14168,-0.53874793105,-9.777818449,0.5241850558,-2.3425,1.4941,0.37869,-0.0037000000000000366,-0.012070000000000025,0.0022699999999999942,-0.005474894515339779,-0.007623980259296337,-0.007258838062419226
150000000000.0,-1,6.232322207999999,-4.216467234,5.1676142175,0.77646,-0.99689,-0.35052,-0.50462078905,-9.774876454,0.6055704441499999,-2.4469,1.4903,0.47368,0.001000000000000112,-0.007989999999999942,-0.004709999999999992,-0.002621938103043453,-0.0049498312942009015,-0.006689254996048444
150000000000.0,-1,6.177012702,-4.219016963,5.089062950999999,0.74263,-1.0261,-0.53993,-0.44932108969999995,-9.772424791499999,0.6840530640999999,-2.5604,1.4872,0.57728,-0.0035000000000000586,-0.010790000000000077,0.00275000000000003,0.0007237863214393236,-0.006110674886665501,-0.006166463664174504
150000000000.0,-1,5.499078987499999,-3.0583999354999998,4.976482609,0.58738,-0.88683,-0.64177,-0.38174346455,-9.7704634615,0.7504244713,-2.671,1.4848,0.67893,-0.0033000000000000806,-0.010240000000000027,0.0024399999999999977,0.0031885563230003022,-0.004811557653545906,-0.008254620878117347
150000000000.0,-1,3.2560039329999997,-0.8466963543499999,3.7862494984999997,0.24634,-0.73061,-0.64576,-0.3123418025,-9.7700711955,0.7862089371500001,-2.7634,1.4844,0.76403,-0.0027999999999999137,-0.009759999999999991,0.0018099999999999783,0.0048447244989930915,-0.00030662976223094773,-0.01022608626739574
150000000000.0,-1,0.7049118086499999,1.1953325684999998,2.9810254669999994,-0.15396,-0.72881,-0.53098,-0.2510698533,-9.772130592,0.7826785431500001,-2.8312,1.4869,0.82481,-0.0028000000000001357,-0.009619999999999962,0.0018099999999999783,0.0021392614465127746,0.003282297668504519,-0.009782636986008342
150000000000.0,-1,-1.4081368735,2.725464168,3.093998075,-0.39477,-0.82535,-0.25683,-0.21225513259999998,-9.775562919499999,0.7503264047999999,-2.8659,1.4912,0.85164,-0.0023999999999999577,-0.009379999999999944,0.0012699999999999934,0.0054416348570398565,0.0016173465048361368,-0.009097280198005375
150000000000.0,-1,-2.0938178415,4.391614003,3.8511695214999997,-0.3488,-0.91754,0.13122,-0.20863647874999997,-9.7783087815,0.7151401446,-2.8577,1.4948,0.83443,-0.0036000000000000476,-0.009850000000000025,0.0006399999999999739,-0.01577597989580748,0.01217927411639419,-0.009211931274162755
150000000000.0,-1,-2.0594945664999997,4.391614003,3.8618587699999996,-0.039133,-0.93434,0.50887,-0.2429891737,-9.7783087815,0.7044508960999999,-2.8094,1.4947,0.77662,-0.0028999999999999027,-0.009689999999999976,0.0005500000000000504,-0.01193251083057456,0.007553987343532187,-0.007399621496944064
150000000000.0,-1,-1.996437807,4.38749521,3.8299871574999997,0.42131,-0.9063,0.76646,-0.30599689995,-9.7741899885,0.7363617351999999,-2.7478,1.4894,0.70557,-0.0029999999999998916,-0.009770000000000056,0.00012999999999996348,-0.017454603441898975,0.0067110824153397974,-0.00515124229674413
150000000000.0,-1,-0.5691191261,3.8922593849999996,3.0130932125,0.93334,-0.84761,0.86884,-0.38272412954999996,-9.7649717375,0.8179530631999999,-2.7039,1.4786,0.65292,-0.0028000000000001357,-0.009730000000000016,-0.00035999999999991594,-0.018471761837220768,0.004412973399092079,-0.001515907852191134
150000000000.0,-1,0.3068108519,2.979848669,2.70467407,1.3947,-0.69536,0.82676,-0.45868644045,-9.750065629499998,0.9465280513499998,-2.6903,1.4633,0.63178,-0.0024999999999999467,-0.009619999999999962,-0.00024000000000001798,-0.01744436278445538,0.002148122994694246,0.0014704880399039055
150000000000.0,-1,0.37070117664999996,2.9595489035,2.5423740125,1.7061,-0.41855,0.65834,-0.52258657185,-9.729765863999999,1.1087398489999998,-2.7011,1.4455,0.6377,-0.0023999999999999577,-0.009539999999999993,-9.00000000000345e-05,-0.012269068467049449,-0.002297836359808292,0.004385378924437688
150000000000.0,-1,1.576124788,2.524427843,2.0698896155,1.731,-0.085312,0.33148,-0.5616856854,-9.7065241035,1.279571692,-2.728,1.4278,0.66305,-0.0019000000000000128,-0.008960000000000079,-0.0006099999999999994,-0.009626848637408925,-0.00243339607734927,0.0027876176592847024
150000000000.0,-1,2.1228455255,2.16334699,1.2039624205,1.4421,0.16166,-0.062662,-0.56630461755,-9.6857340055,1.4269656414999998,-2.7638,1.4136,0.70042,-0.0018000000000000238,-0.008579999999999921,-0.00027999999999994696,-0.004963712146867083,-0.0013991114224563006,8.67608219654592e-05
150000000000.0,-1,2.102938026,2.1472640839999997,1.092068544,1.0788,0.2103,-0.27432,-0.54637750475,-9.669749165999999,1.5389575844999999,-2.8004,1.4035,0.73966,-0.0020999999999999908,-0.008380000000000054,-0.00043000000000004146,-0.004711301805804702,0.0010430798271536812,-0.0022228737865352954
150000000000.0,-1,1.317033095,1.0805947635,1.5603360815,0.7542,0.11372,-0.23207,-0.5238418230499999,-9.657981186,1.618489516,-2.8286,1.3964,0.76969,-0.0019000000000000128,-0.008019999999999916,-0.0007399999999999629,-0.004990517528904892,0.005546818921215779,-0.0066434606739109725
150000000000.0,-1,1.225438984,0.44866404415,0.5054739676,0.53458,-0.095962,-0.01455,-0.5158886299,-9.648861001499998,1.6745835539999998,-2.8428,1.3912,0.78373,-0.0012000000000000899,-0.008000000000000007,-0.0008400000000000629,0.004608422887312891,0.006447833079603615,-0.013727219502548849
150000000000.0,-1,1.2384818285,0.4395242463499999,0.45760770895,0.4769,-0.36182,0.25395,-0.5289412810499999,-9.639740817,1.7224400059999998,-2.8437,1.386,0.78163,-0.0013999999999998458,-0.005790000000000073,0.0010499999999999954,-0.015558418293331266,-0.008688610242539418,-0.03979291439316901
