Time,placement_label,user_acc_x(m/s^2),user_acc_y(m/s^2),user_acc_z(m/s^2),rotation_rate_x(rad/s),rotation_rate_y(rad/s),rotation_rate_z(rad/s),gravity_x(m/s^2),gravity_y(m/s^2),gravity_z(m/s^2),attitude_roll(rad),attitude_pitch(rad),attitude_yaw(rad),target_delta_x,target_delta_y,target_delta_z,target_delta_roll,target_delta_pitch,target_delta_yaw
150100000000.0,-1,-0.0361669252,0.050210048,-0.05924197265,-0.20839,0.21704,0.082688,-0.06738149215,-2.4091016389999997,-9.5058800445,-0.007088,0.2482,1.794,0.0,0.0,0.0,0.0,0.0,0.0
150100000000.0,-1,-0.026615248099999995,0.0860043205,-0.1364301148,-0.15943,0.15858,0.07406,-0.0527009371,-2.3886057405,-9.511175635499999,-0.00554,0.24605,1.7947,-1.999999999990898e-05,9.999999999998899e-05,5.0000000000105516e-05,-0.0003249867616870461,0.0005504095458774838,-8.610442545232966e-05
150100000000.0,-1,0.025369803549999997,0.11561059685,-0.22013967919999997,-0.078549,0.056564,0.058959,-0.0457186023,-2.3746802975,-9.5147060295,-0.004805,0.24458,1.7954,-2.0000000000131024e-05,0.00019999999999997797,4.999999999988347e-05,-0.0014781676716951742,0.00047595462701055524,-0.00028450737683599625
150100000000.0,-1,0.0282627653,0.11515949095,-0.22004161269999997,0.021543,-0.041296,0.044935,-0.04862137069999999,-2.374189965,-9.514804095999999,-0.00511,0.24453,1.7959,-1.999999999990898e-05,0.00019999999999997797,0.00019999999999997797,-0.0013858918512218155,0.000861984409742389,-0.0002395015612991075
150100000000.0,-1,0.0041384062999999995,0.1475704692,-0.23011304224999998,0.11637,-0.10628,0.033113,-0.05831034089999999,-2.3831140165,-9.5124505,-0.00613,0.24547,1.7962,-2.0000000000131024e-05,9.999999999998899e-05,9.999999999998899e-05,-0.00102965742270128,-2.5631890432586957e-05,-0.00015604732508636698
150100000000.0,-1,-0.06945069529999999,0.054632847150000004,-0.11332564739999999,0.17608,-0.12345,0.028835,-0.07285360284999999,-2.39674526,-9.5090181725,-0.007662,0.2469,1.7966,-1.999999999990898e-05,0.00020000000000020002,0.00019999999999997797,-0.0018797948121857533,0.0016173215349455372,0.0012639391040664832
150100000000.0,-1,-0.05877125345,0.07277514965,-0.11800341945,0.19214,-0.095967,0.032092,-0.08353304469999999,-2.4148875624999997,-9.5043109805,-0.008788,0.24881,1.797,2.4999999999941735e-05,0.00029999999999996696,0.00019999999999997797,-0.0011543458757493907,0.0008986132792485613,0.0010679887206329342
150100000000.0,-1,-0.0528970701,0.08977988075,-0.12238699199999999,0.17198,-0.035535,0.044988,-0.08940722805,-2.4319511334999997,-9.499897987999999,-0.009411,0.2506,1.7974,2.500000000016378e-05,0.00019999999999997797,0.00020000000000020002,-0.0008759124339504931,0.001333040494230442,0.0017834128290575013
150100000000.0,-1,-0.0336956494,-0.0126309652,0.01275845165,0.13792,0.020631,0.068507,-0.09005446695,-2.44577851,-9.496367593999999,-0.009483,0.25206,1.798,2.4999999999941735e-05,0.00019999999999997797,9.999999999998899e-05,-0.001538952435027885,-0.00037870440512488557,0.0011266066584148526
150100000000.0,-1,-0.035235293449999996,-0.0016867438,0.00995374975,0.10912,0.04386,0.097271,-0.08851482289999998,-2.4566638915,-9.4935236655,-0.009324,0.25321,1.799,2.4999999999941735e-05,0.00019999999999997797,9.999999999998899e-05,-0.0008097447274678093,-0.000774143545696937,0.0010345063153589379
150100000000.0,-1,0.0205351251,0.022672974799999995,0.01636729885,0.089911,0.051297,0.10579,-0.08622987345,-2.4654898765,-9.491268136,-0.009085,0.25414,1.8001,9.999999999998899e-05,0.00029999999999996696,9.999999999998899e-05,0.00045827702986822594,-0.0002986415015131527,0.000804224151366037
150100000000.0,-1,0.0205351251,0.022672974799999995,0.01636729885,0.089911,0.051297,0.10579,-0.08622987345,-2.4654898765,-9.491268136,-0.009085,0.25414,1.8001,9.999999999998899e-05,9.999999999998899e-05,9.999999999998899e-05,-0.000786153886464247,-0.001159601896204565,5.663794791190002e-05
150100000000.0,-1,0.02752726655,-0.0473268929,0.0203193788,0.071766,0.043978,0.10152,-0.08215030705,-2.473433263,-9.489208739499999,-0.008657,0.25498,1.8011,9.999999999998899e-05,0.00019999999999997797,9.999999999998899e-05,-0.0005671958750124162,-0.0001175605866385876,0.0003657172705313766
150100000000.0,-1,0.020888164499999997,-0.006629295399999999,0.010022396299999998,0.055734,0.010283,0.078035,-0.08119906199999999,-2.4848089769999997,-9.4862667445,-0.008559,0.25618,1.8029,9.999999999998899e-05,0.00019999999999997797,0.00019999999999997797,-0.0012970618565191772,0.0009231719379962922,0.0008522120709249376
150100000000.0,-1,0.04039359135,-0.00383440015,0.0092770909,0.06637,-0.006703,0.074808,-0.08215030705,-2.491085233,-9.484599614,-0.008661,0.25683,1.8036,9.999999999998899e-05,0.00019999999999997797,9.999999999998899e-05,-0.003045301199160688,0.00048474100884887683,0.0008609300008901033
150100000000.0,-1,0.050935740099999995,0.010542148749999999,0.0154356671,0.089782,-0.03015,0.077952,-0.0849059757,-2.4988324864999996,-9.482540217499999,-0.008954,0.25765,1.8044,9.999999999998899e-05,0.00020000000000020002,0.00019999999999997797,-0.002063553544301544,-0.0006404617186428485,-0.00017724170298051567
150100000000.0,-1,0.07432460034999999,0.06289004645,-0.04361017255,0.1164,-0.054623,0.074713,-0.08944645465,-2.5075604049999995,-9.4801866215,-0.009434,0.25857,1.8052,3.333333333332966e-05,0.00029999999999996696,0.00019999999999997797,-0.0007250594437849811,0.0011460375398852918,0.0002228483322890551
150100000000.0,-1,0.056143071249999996,0.08285638584999999,0.044855617099999995,0.15372,-0.073789,0.065106,-0.0963993695,-2.519524518,-9.476950427,-0.010172,0.25984,1.8058,3.333333333355171e-05,0.00029999999999996696,9.999999999998899e-05,-0.001604621639976822,0.001892934492234044,0.0005676340924158363
150100000000.0,-1,0.0326561445,0.08579838085,0.1077554702,0.17934,-0.085396,0.043813,-0.10478405525,-2.5347248254999997,-9.472831634,-0.011061,0.26144,1.8064,3.333333333332966e-05,0.00019999999999997797,0.00019999999999997797,-0.0009332208369659534,-0.0001568447111730542,0.0003713041141669843
150100000000.0,-1,-0.010885381500000001,0.028655031299999998,0.1034405442,0.16767,-0.075661,0.024685,-0.1136198469,-2.5515922634999995,-9.468222508499998,-0.011999,0.26321,1.8067,9.999999999998899e-05,0.00019999999999997797,9.999999999998899e-05,-0.0013635140922808042,-0.0008139839801113435,-0.0004951053846799502
150100000000.0,-1,-0.06732265224999999,-0.047179793149999996,0.1333312134,0.12401,-0.047819,0.011973,-0.12122000064999999,-2.5668906375,-9.464005648999999,-0.012808,0.26483,1.8069,9.999999999998899e-05,0.00019999999999997797,4.999999999988347e-05,-0.0004306368048012654,-0.0013520734406859969,0.0005391876347120989
150100000000.0,-1,-0.09625226975000001,-0.0665283136,-0.10821638274999999,0.082437,-0.041227,0.003468,-0.1283494352,-2.5765011545,-9.461259787,-0.013565,0.26585,1.8071,9.999999999998899e-05,9.999999999998899e-05,5.0000000000105516e-05,0.0012635439052901543,-0.0025239935286562876,0.0007326146322206711
150100000000.0,-1,-0.21059780875,-0.16723280244999997,0.45347910929999996,0.050628,0.071085,0.033496,-0.13177195604999997,-2.5896420655,-9.4576313265,-0.013932,0.26724,1.8075,3.333333333332966e-05,0.00019999999999997797,-9.999999999998899e-05,0.0020075518097010248,-0.001996306585988483,0.001218789068048523
150100000000.0,-1,-0.16370240844999998,0.03700049045,0.46837541064999993,-0.010988,0.2048,0.053993,-0.12030798219999998,-2.592682127,-9.456944860999998,-0.012721,0.26756,1.8081,3.333333333332966e-05,0.00019999999999997797,-9.999999999998899e-05,0.0015025531054675967,-0.0024439035065439985,0.0015171035339953398
150100000000.0,-1,-0.16060350704999998,-0.18270769615000002,0.1246032949,-0.083454,0.24744,0.06258,-0.10335228434999999,-2.5914072624999998,-9.45753326,-0.010928,0.26743,1.8088,3.333333333332966e-05,4.999999999988347e-05,-9.999999999998899e-05,0.001763183322625983,-0.0029135986362689437,0.001545473344302134
150100000000.0,-1,-0.17906942899999997,-0.25496309335,0.3575112324,-0.13878,0.31341,0.062715,-0.08099312235,-2.5875826689999997,-9.458808124499999,-0.008563,0.26702,1.8096,-1.6666666666775853e-05,5.0000000000105516e-05,-0.00019999999999997797,0.0022603444316181,-0.0024675960866478164,0.0012597558888010202
150100000000.0,-1,-0.19810413664999998,-0.106892485,0.2798229511,-0.17921,0.34763,0.046826,-0.0540346415,-2.57522629,-9.4623385185,-0.00571,0.26571,1.8102,-1.666666666655381e-05,5.0000000000105516e-05,-9.999999999998899e-05,0.0014607617671746898,-0.002678901889203722,0.0008062084470944475
150100000000.0,-1,-0.1505909174,-0.11485548479999999,0.1332135336,-0.19415,0.32876,0.025506,-0.026428921749999997,-2.5600259825,-9.466555377999999,-0.002792,0.26411,1.8106,-1.666666666655381e-05,4.999999999988347e-05,-9.999999999998899e-05,0.0004375464087092995,-0.001086857316843659,0.0007604944610876962
150100000000.0,-1,-0.09185889055,-0.0686857766,0.1289574475,-0.16437,0.27466,0.011564,-0.0009120184499999999,-2.5455121405,-9.470478038,-9.7e-05,0.26257,1.8108,-1.6666666666775853e-05,5.0000000000105516e-05,-4.999999999988347e-05,0.001611119200561728,-6.775725040686353e-05,9.05735801514651e-05
150100000000.0,-1,-0.03178335265,0.009718390149999999,0.09454591265,-0.11122,0.18221,0.009213,0.018161915799999998,-2.533646094,-9.473714232499999,0.001917,0.26132,1.8109,-1.6666666666775853e-05,5.0000000000105516e-05,-5.0000000000105516e-05,-0.0006048634601471536,-8.333224955303642e-05,-0.0006188419400496858
150100000000.0,-1,-0.02993970245,0.02676234785,0.01997614605,-0.048524,0.067473,0.002588,0.0264975683,-2.5270756384999995,-9.475381362999999,0.002797,0.26063,1.811,-1.666666666655381e-05,4.999999999988347e-05,3.333333333332966e-05,-0.001422977750903609,0.0006755764952057763,-0.0007924160528767904
150100000000.0,-1,-0.04668946064999999,0.040697597499999995,0.031185147,0.002521,-0.027983,-0.023143,0.02513444395,-2.525408508,-9.475871695499999,0.002653,0.26046,1.8109,-9.999999999998899e-05,5.0000000000105516e-05,3.333333333332966e-05,-0.0017696057722255132,0.0010818663639078352,-0.0008831501223127147
150100000000.0,-1,-0.09491856535,0.06671463995,0.025526709949999997,0.047243,-0.088418,-0.048796,0.0166516917,-2.5276640374999997,-9.475283296499999,0.001758,0.26069,1.8105,-9.999999999998899e-05,9.999999999998899e-05,3.333333333332966e-05,-0.0018552518311323318,0.0009556424041257117,-0.0010040988986714933
150100000000.0,-1,-0.1175425069,0.024183198899999998,0.08205224054999999,0.087759,-0.11076,-0.0616,0.005011198149999999,-2.5351170915,-9.4733219665,0.000529,0.26148,1.81,-9.999999999998899e-05,4.999999999988347e-05,9.999999999998899e-05,-0.001540733921446269,0.000263215632972047,-0.0009203543935717984
150100000000.0,-1,-0.115522337,0.06037954405,0.0009414384,0.11124,-0.11293,-0.066917,-0.00687446165,-2.544041143,-9.470870303999998,-0.000726,0.26242,1.8094,-0.00010000000000021103,5.0000000000105516e-05,5.0000000000105516e-05,-0.00115972621267868,0.0008267058616422407,-0.000258204693078537
150100000000.0,-1,-0.11668932835,0.08953471449999999,-0.0160044528,0.1219,-0.10564,-0.055197,-0.018436501999999997,-2.55365166,-9.468320575,-0.001947,0.26343,1.8088,-9.999999999998899e-05,9.999999999998899e-05,4.999999999988347e-05,-0.0005292802340813307,-0.00017485795195004705,-0.0004244229862322285
150100000000.0,-1,-0.12044527529999999,0.07436382695,-0.013395883899999999,0.1315,-0.089914,-0.036012,-0.029184590399999998,-2.5643409084999997,-9.46537858,-0.003084,0.26456,1.8085,-9.999999999998899e-05,9.999999999998899e-05,4.999999999988347e-05,-0.0006789114613428571,0.0007332109606421611,-2.813239998888939e-05
150100000000.0,-1,-0.09314356169999999,0.0821405004,0.012297539099999998,0.13046,-0.058233,-0.017858,-0.037186816799999994,-2.575422423,-9.4623385185,-0.00393,0.26573,1.8083,-9.999999999998899e-05,9.999999999998899e-05,5.0000000000105516e-05,-0.00035862011472143074,-0.0003793820417135052,0.0004907871889166804
150100000000.0,-1,-0.11042287899999999,0.0560155848,0.037794829099999996,0.11666,-0.015871,-0.002874,-0.0420509152,-2.5861116715,-9.459396523499999,-0.004446,0.26686,1.8083,-9.999999999998899e-05,9.999999999998899e-05,-2.4999999999941735e-05,-0.0003106742118965111,-0.0012062336678901886,7.348525478695356e-05
150100000000.0,-1,-0.06932320885,0.016190779149999997,0.039295246549999996,0.091117,0.022312,0.00997,-0.042609894249999995,-2.5953299225,-9.456846794499999,-0.004505,0.26784,1.8084,-9.999999999998899e-05,9.999999999998899e-05,-2.500000000016378e-05,0.00012013715568642835,-0.000627956439867905,0.0003921099706002823
150100000000.0,-1,-0.06314501935,-0.0192406473,0.09171179079999998,0.060247,0.05739,0.01536,-0.03965809259999999,-2.6028810429999996,-9.4548854645,-0.004194,0.26864,1.8086,-9.999999999998899e-05,9.999999999998899e-05,-2.4999999999941735e-05,0.00048416478099960747,-0.0009380033899748508,0.00016548289698255225
150100000000.0,-1,-0.0044522191,-0.028988457399999997,0.051131873099999996,0.022966,0.081946,0.013278,-0.032803244249999995,-2.6069017695,-9.453708666499999,-0.00347,0.26906,1.8088,-9.999999999998899e-05,3.333333333332966e-05,-2.4999999999941735e-05,0.0005642150595404627,-0.0015390977455842503,-0.0001665522454768753
150100000000.0,-1,0.009433997299999998,-0.0253992235,0.022555295,-0.007939,0.087452,0.002646,-0.0243989452,-2.6074901685,-9.4536106,-0.002581,0.26913,1.8088,-5.0000000000105516e-05,3.333333333332966e-05,-3.333333333332966e-05,0.0005186978784040841,-0.0006940791391412127,4.608379078568925e-05
150100000000.0,-1,0.0205155118,-0.0027850886,0.0645865969,-0.021804,0.077007,-0.011209,-0.016033872749999997,-2.606019171,-9.454002866,-0.001696,0.26897,1.8087,-4.999999999988347e-05,3.333333333332966e-05,-3.333333333332966e-05,0.0006920755436997661,-0.0003243281775824336,-0.00013975351736118802
150100000000.0,-1,0.04235492135,-0.0054328841,0.09895890514999998,-0.020749,0.065394,-0.018681,-0.008090486249999999,-2.6045481734999996,-9.4544931985,-0.000856,0.26882,1.8085,-9.999999999998899e-05,4.999999999988347e-05,-3.333333333332966e-05,-1.2501961820676755e-05,-0.0008805696737512747,3.999994165065912e-05
150100000000.0,-1,0.05803575469999999,-0.010012589649999999,0.05706489635,-0.007995,0.049388,-0.012332,-0.001176798,-2.604057841,-9.454591265,-0.000125,0.26876,1.8083,-9.999999999998899e-05,5.0000000000105516e-05,9.999999999998899e-05,-0.0002248185896743804,0.0015242880968087125,0.0004797482163698269
150100000000.0,-1,0.08478829589999999,-0.041619422600000004,0.006423355749999999,0.009004,0.028023,-0.000676,0.0039422733,-2.6053327055,-9.454198998999999,0.000417,0.2689,1.8082,-9.999999999998899e-05,9.999999999998899e-05,3.333333333332966e-05,-0.00039759870667821495,-0.0003217497240686207,0.0002802384568285493
150100000000.0,-1,0.043257133149999995,-0.07093149944999999,0.07016658075,0.032439,0.026741,0.016346,0.007021561399999999,-2.6096476315,-9.453022201,0.000743,0.26936,1.8083,-3.333333333332966e-05,9.999999999998899e-05,3.333333333332966e-05,-0.0006180311338165323,-0.0002417750939034402,0.00018069838111038627
150100000000.0,-1,0.0430315802,-0.00065704555,0.09144701124999999,0.047363,0.028739,0.024864,0.009943943099999998,-2.61445289,-9.451747336499999,0.001052,0.26986,1.8085,-3.333333333332966e-05,5.0000000000105516e-05,3.333333333332966e-05,-0.0005860363506771105,-0.0009890796503140287,0.0002605299144419204
150100000000.0,-1,0.05584887175,0.00591340995,-0.00015690639999999998,0.052703,0.02769,0.020608,0.013131104349999999,-2.619356215,-9.4503744055,0.00139,0.27038,1.8087,-3.333333333332966e-05,4.999999999988347e-05,-2.4999999999941735e-05,-6.277958291900365e-05,-0.0005414935889151984,-0.0001075147017615824
150100000000.0,-1,0.0060016698,0.00199074995,0.04714056654999999,0.051659,0.030931,0.01317,0.01569064,-2.6246518059999997,-9.448903408,0.001661,0.27095,1.8089,-4.999999999988347e-05,3.333333333332966e-05,-2.500000000016378e-05,-0.000175615760429626,0.00010625968816313502,-3.976245432039949e-05
150100000000.0,-1,0.027801852749999998,-0.0001765197,0.044022051849999994,0.043147,0.031053,0.001467,0.019181807399999997,-2.6294570644999995,-9.447530476999999,0.002031,0.27145,1.8089,-5.0000000000105516e-05,3.333333333332966e-05,-2.4999999999941735e-05,-0.0004954759330676461,-0.0007757349922852264,-5.612101382196366e-06
150100000000.0,-1,0.0296553096,-0.033028797199999994,-0.025556129899999995,0.021812,0.022735,-0.009194,0.022270902149999997,-2.6325951925,-9.446647878499999,0.002357,0.27179,1.8088,-3.333333333332966e-05,3.333333333332966e-05,-2.4999999999941735e-05,-0.0001965908272647532,-0.0003796099493729166,0.00011371815744586067
150100000000.0,-1,0.007384407449999999,-0.05331875605,0.0506415406,0.003685,0.023892,-0.012387,0.02493831095,-2.634654589,-9.4460594795,0.00264,0.272,1.8087,-3.333333333332966e-05,5.0000000000105516e-05,9.999999999998899e-05,-8.753428934465957e-05,-0.001109000456272824,0.0003675319812624367
150100000000.0,-1,-0.0019809433,-0.009924329800000001,0.08612200029999999,-0.003746,0.042986,-0.009155,0.028762904449999998,-2.6350468549999997,-9.445961413,0.003045,0.27204,1.8086,-3.333333333332966e-05,4.999999999988347e-05,-9.999999999998899e-05,-0.0006460375038837562,0.00021594770999366908,0.0010101340490584615
150100000000.0,-1,-0.0268898343,-0.00057859235,0.0701567741,-0.006921,0.070435,0.008989,0.03421540185,-2.6348507219999995,-9.445961413,0.003623,0.27202,1.8086,-1.999999999990898e-05,4.999999999988347e-05,3.333333333332966e-05,0.0006245519467025229,-0.0019345135352042409,0.0005202341238449981
150100000000.0,-1,-0.02115294405,0.004716998649999999,0.065508422,-0.002622,0.099975,0.027139,0.042099948449999994,-2.6347526555,-9.445961413,0.004457,0.27201,1.8089,-2.0000000000131024e-05,5.0000000000105516e-05,3.333333333332966e-05,-0.0011025777456822872,-0.0015548522933162001,0.0008841931795993546
150100000000.0,-1,-0.07289282945,0.0053544309,0.07669780964999999,0.002735,0.12212,0.041019,0.0508965135,-2.635242988,-9.445765279999998,0.005388,0.27206,1.8093,-1.999999999990898e-05,3.333333333332966e-05,3.333333333332966e-05,-7.437515568731179e-05,-0.0007408950629184119,0.00033553256299269363
150100000000.0,-1,-0.031744126049999995,0.0268309944,0.0004707192,-0.002584,0.12535,0.03677,0.061379822349999995,-2.6347526555,-9.4458633465,0.006498,0.27201,1.8098,-2.0000000000131024e-05,3.333333333332966e-05,5.0000000000105516e-05,-0.0005749396061922596,-0.0006663886075071179,0.00019304196812401642
150100000000.0,-1,-0.029665116249999998,0.05378947525,-0.0446987107,-0.00687,0.10217,0.019698,0.0706667199,-2.6327913254999995,-9.446353679,0.00748,0.2718,1.81,-1.999999999990898e-05,3.333333333332966e-05,4.999999999988347e-05,-0.0008358044529238051,-0.0006101135352971632,0.0001584442386262236
150100000000.0,-1,-0.0360688587,0.05492704665,-0.04861156404999999,0.012314,0.076784,0.000499,0.077668668,-2.63210486,-9.4464517455,0.008222,0.27174,1.8101,-9.999999999998899e-05,9.999999999998899e-05,9.999999999998899e-05,-0.0008230934082474328,-0.00032229613109113764,-4.722220765918106e-06
150100000000.0,-1,-0.065508422,0.05365218215,-0.00505042475,0.044313,0.059808,-0.015486,0.08286619249999999,-2.6345565225,-9.445765279999998,0.008773,0.272,1.81,-9.999999999998899e-05,5.0000000000105516e-05,9.999999999998899e-05,0.0001605608379372514,-1.1118200368809283e-05,8.261969067574482e-05
150100000000.0,-1,-0.044002438549999995,0.050406180999999994,-0.0175931301,0.06989,0.043831,-0.01977,0.08709285865,-2.6397540469999994,-9.4442942825,0.009222,0.27254,1.8098,-5.0000000000105516e-05,5.0000000000105516e-05,9.999999999998899e-05,-0.0010696120230078154,3.3956940529433766e-05,0.0002055721262464033
150100000000.0,-1,-0.011846433200000001,0.02442836515,-0.0058839899999999995,0.084775,0.02886,-0.011291,0.09025059994999998,-2.6470109679999996,-9.442234886,0.009558,0.27331,1.8097,-4.999999999988347e-05,5.0000000000105516e-05,9.999999999998899e-05,-0.0013969189941617222,-0.0004897895330482349,0.00011103005711085578
150100000000.0,-1,-0.00403053315,-0.035039160449999995,0.057329675899999995,0.094324,0.019158,0.004645,0.09217270334999998,-2.656817618,-9.439489023999998,0.009764,0.27435,1.8097,-3.333333333332966e-05,4.999999999988347e-05,9.999999999998899e-05,-0.00026030883440064656,0.00010696620837147286,0.00035135852278116164
150100000000.0,-1,0.0010002783,-0.0401091985,0.1201314625,0.090026,0.015906,0.016337,0.0934181479,-2.6670165339999996,-9.436547029,0.0099,0.27543,1.8098,-3.333333333332966e-05,4.999999999988347e-05,9.999999999998899e-05,-0.0008839910940869888,-0.0007242885611289385,0.00027175892484840314
150100000000.0,-1,-0.004795451849999999,-0.0224768418,0.17866735634999997,0.081476,0.013779,0.021648,0.09413403335,-2.676430918,-9.4338992335,0.009977,0.27642,1.81,-3.333333333332966e-05,5.0000000000105516e-05,-3.333333333332966e-05,-0.0005249791438307616,5.679279988002328e-05,0.0001817449861161724
150100000000.0,-1,-0.005452497399999999,-0.015317987299999999,0.17662757315,0.072931,0.013773,0.026964,0.09478127224999999,-2.6835897725,-9.431839836999998,0.010049,0.27718,1.8103,-5.0000000000105516e-05,-5.0000000000105516e-05,-3.333333333332966e-05,-0.0002509251089067299,-0.0002472714488903627,-6.90765386827108e-05
150100000000.0,-1,-0.0110619012,-0.028125472199999998,0.2478140455,0.056922,0.008558,0.023758,0.09500682519999999,-2.6894737624999996,-9.430172706499999,0.010074,0.27781,1.8105,-5.0000000000105516e-05,-4.999999999988347e-05,-3.333333333332966e-05,0.0001926924719629075,-0.0002821090818490024,-0.00018806891758489652
150100000000.0,-1,-0.0569766365,0.036745517549999995,0.24558793594999997,0.037726,0.001299,0.012036,0.09363389419999998,-2.6941809544999997,-9.4287997755,0.00993,0.27831,1.8107,-5.0000000000105516e-05,-4.999999999988347e-05,-5.0000000000105516e-05,0.0008525281510093907,1.141374147373142e-05,-0.0005454154211095713
150100000000.0,-1,-0.0565451439,0.038687234249999994,0.2450289569,0.015339,-0.006959,-0.006071,0.0932024016,-2.6961422845,-9.428309443,0.009886,0.27851,1.8107,-4.999999999988347e-05,-5.0000000000105516e-05,-4.999999999988347e-05,0.00011799940678591803,-0.0008024703333200378,-0.0009065135268091495
150100000000.0,-1,-0.05651572394999999,0.027066353999999997,0.18170741785,-0.00919,-0.019443,-0.025252,0.09092725880000001,-2.6963384175000003,-9.428309443,0.009644,0.27853,1.8105,-9.999999999998899e-05,-5.0000000000105516e-05,-0.00019999999999997797,0.0008058568082880968,0.000711864651780747,-0.0006914434723808011
150100000000.0,-1,-0.06046780389999999,-0.00952225715,0.1446873141,-0.028376,-0.030873,-0.046557,0.08799507044999999,-2.695063553,-9.428603642499999,0.009333,0.2784,1.8101,-9.999999999998899e-05,-5.0000000000105516e-05,-9.999999999998899e-05,0.0010681975254128173,-0.00018027208337279,-0.0005504059067492212
150100000000.0,-1,-0.05855550714999999,-0.01315071765,0.14573662564999998,-0.039034,-0.037097,-0.059338,0.08608277369999999,-2.6914350925,-9.429682373999999,0.009129,0.27801,1.8095,-9.999999999998899e-05,-5.0000000000105516e-05,-9.999999999998899e-05,9.90939376399047e-05,-7.917403494128727e-05,-9.350803495393467e-05
150100000000.0,-1,-0.028292185249999997,-0.00010787314999999999,0.16617368425,-0.03262,-0.022356,-0.048666,0.0850040422,-2.688002765,-9.430663038999999,0.009014,0.27765,1.809,-9.999999999998899e-05,-4.999999999988347e-05,-4.999999999988347e-05,-0.0002178706261012353,-0.00032274305649981905,0.00016328162533793544
150100000000.0,-1,-0.05888893325,-0.07893372585,0.19490716875,-0.016614,0.002823,-0.020949,0.08403318385,-2.6890814965,-9.4303688395,0.00891,0.27777,1.8087,-4.999999999988347e-05,-9.999999999998899e-05,-5.0000000000105516e-05,-0.0004602102814392772,-0.0007533572406530631,0.00032739364124415027
150100000000.0,-1,-0.06130136914999999,-0.07939463840000001,0.1950150419,-0.001652,0.0302,-0.002801,0.08644561975,-2.688591164,-9.430466906,0.009166,0.27772,1.8087,-5.0000000000105516e-05,-9.999999999998899e-05,-9.999999999998899e-05,-0.0005117354365409277,-0.0012523737409191327,-0.00025937540893115896
150100000000.0,-1,-0.061497502149999994,-0.030714427799999996,0.20145801095,0.00479,0.050307,-0.000626,0.0906722859,-2.68898343,-9.4303688395,0.009615,0.27775,1.8087,-9.999999999998899e-05,-4.999999999988347e-05,-0.00019999999999997797,-0.0002866884154352767,-0.001424222482508286,0.0002437216057416952
150100000000.0,-1,-0.0641551043,-0.03313667035,0.15300335329999998,0.004868,0.076883,-0.009075,0.09587961704999999,-2.691337026,-9.429682373999999,0.010168,0.27801,1.8087,-9.999999999998899e-05,-5.0000000000105516e-05,-9.999999999998899e-05,0.000703804509458561,-0.0015726918001317536,-0.00020191418638873526
150100000000.0,-1,-0.07370678139999999,-0.03294053735,0.1528464469,-0.000384,0.10035,-0.023915,0.10543129415,-2.6915331589999996,-9.429486241,0.011181,0.27803,1.8084,-9.999999999998899e-05,-9.999999999998899e-05,-9.999999999998899e-05,0.0009332322149319117,-0.0008910413450389232,-0.00020288103919416378
150100000000.0,-1,-0.041011410299999995,-0.026840801049999998,0.0957913572,-0.019536,0.10903,-0.039856,0.11658145519999999,-2.690160228,-9.4297804405,0.012363,0.27788,1.8081,-9.999999999998899e-05,-9.999999999998899e-05,-0.00019999999999997797,0.001752275257646263,-0.00018373695253992572,-0.00021571814925007426
150100000000.0,-1,0.06430220405,-0.010885381500000001,-0.03682397075,-0.034489,0.093251,-0.049469,0.12902609404999998,-2.6871201664999997,-9.430466906,0.013681,0.27756,1.8075,-0.00019999999999997797,-9.999999999998899e-05,-4.999999999988347e-05,0.000598928089676598,-0.00028514311163641004,-0.00024933185916112266
150100000000.0,-1,0.05566254539999999,-0.0146707484,-0.0358727257,-0.039863,0.06999,-0.055905,0.13767555934999998,-2.6832955729999997,-9.431447571,0.014596,0.27715,1.807,-9.999999999998899e-05,-4.999999999988347e-05,-5.0000000000105516e-05,0.0009010669376047775,-0.0007473215392539423,-0.0003386447672018289
150100000000.0,-1,0.08377821095,-0.03647093135,-0.0680777643,-0.034555,0.051997,-0.06339,0.1445696343,-2.6798632455,-9.432232102999999,0.015326,0.2768,1.8063,-9.999999999998899e-05,-5.0000000000105516e-05,-9.999999999998899e-05,-0.00030179718582645787,-0.0005356845415751543,-0.0006211175208761521
150100000000.0,-1,0.0652926757,0.0035990405499999995,-0.053044169849999996,-0.026016,0.04462,-0.074041,0.1527287671,-2.6765289845,-9.4331147015,0.01619,0.27644,1.8056,-9.999999999998899e-05,-9.999999999998899e-05,1.6666666666775853e-05,-0.0009335998432605241,-0.0003960307987249667,-0.0003270967068240843
150100000000.0,-1,0.05884970665,0.0017357770499999998,-0.052622483899999996,-0.016401,0.046734,-0.078289,0.15917173615,-2.6747637875,-9.4335069675,0.016872,0.27625,1.8047,-9.999999999998899e-05,-9.999999999998899e-05,1.666666666655381e-05,-0.0008788135609295034,0.0006113439982662339,-0.00029145132507510385
150100000000.0,-1,0.028311798549999996,0.0324403982,-0.0852590151,-0.004683,0.044519,-0.071909,0.16546760544999997,-2.673881189,-9.433605034,0.017539,0.27615,1.804,-5.0000000000105516e-05,-9.999999999998899e-05,1.666666666655381e-05,-0.0005555912666780349,-0.00036385160420748797,-0.00028438431934703357
150100000000.0,-1,-0.00048052584999999995,0.04669926729999999,-0.12277925799999999,0.005951,0.036989,-0.063414,0.17092010284999998,-2.6718217925000003,-9.4340953665,0.018115,0.27593,1.8033,-4.999999999988347e-05,-3.333333333332966e-05,1.6666666666775853e-05,-0.0003277851376511376,0.00029659494585865254,-0.0003216087287811614
150100000000.0,-1,-0.004795451849999999,0.047856451999999994,-0.12319113729999999,0.014456,0.026326,-0.060244,0.17523502884999997,-2.6729985904999998,-9.433703100499999,0.018573,0.27606,1.8027,-0.00019999999999997797,-3.333333333332966e-05,1.6666666666775853e-05,0.00011549814742406461,-0.0001945500666322708,-0.0001672597272818349
150100000000.0,-1,-0.0326169179,0.08123828859999999,-0.15208152819999998,0.015516,0.026298,-0.057053,0.179265562,-2.674273455,-9.433212767999999,0.019001,0.2762,1.8021,-5.0000000000105516e-05,-3.333333333332966e-05,1.666666666655381e-05,-0.0004866862248981141,-0.0005752417580648927,-4.6654555785244356e-05
150100000000.0,-1,-0.0846902294,0.054132707999999995,-0.12500536755,0.010188,0.035807,-0.049587,0.18105037229999998,-2.6726063245,-9.433703100499999,0.01919,0.27603,1.8016,-5.0000000000105516e-05,-1.666666666655381e-05,9.999999999998899e-05,-0.00038566807778200873,-0.0004919943627574863,0.0001067505732541274
150100000000.0,-1,-0.090025047,0.054868206749999995,-0.12531918035,0.008058,0.048445,-0.036795,0.18639499655,-2.6733908565,-9.433408901,0.019756,0.2761,1.8012,-9.999999999998899e-05,-1.6666666666775853e-05,9.999999999998899e-05,-0.0006889360129629929,-0.00045347735147482915,0.00028991127929098304
150100000000.0,-1,-0.07091188614999999,0.01083634825,-0.08093428244999999,0.011236,0.054659,-0.018697,0.19196517374999997,-2.674273455,-9.433016635,0.020348,0.2762,1.8009,-9.999999999998899e-05,-1.6666666666775853e-05,9.999999999998899e-05,0.00032707048765712177,0.0002320838625866628,0.0002287255385072795
150100000000.0,-1,-0.0489547968,0.01073828175,-0.052171378,0.026126,0.049169,-0.001687,0.19530924139999997,-2.6754502529999997,-9.432624369,0.020702,0.27633,1.8009,-9.999999999998899e-05,-1.666666666655381e-05,9.999999999998899e-05,0.0001214314825856988,-0.0010154769384687068,-6.65031811246386e-05
150100000000.0,-1,-0.052848036849999995,0.014513841999999999,-0.0533285627,0.046356,0.041577,0.010002,0.19920248145,-2.6792748465,-9.431447571,0.021118,0.27673,1.801,-0.00019999999999997797,-1.666666666655381e-05,0.00029999999999996696,-0.00029491488408883715,-0.00027443581983677134,8.212689079606372e-05
150100000000.0,-1,-0.060212830999999994,0.0087475318,-0.06275275335,0.06982,0.039354,0.011067,0.20251712914999997,-2.6853549695,-9.429682373999999,0.021473,0.27737,1.8011,-9.999999999998899e-05,-1.6666666666775853e-05,0.00019999999999997797,-0.0008176038007614572,-0.001733714835331357,-0.00016081718416423307
150100000000.0,-1,-0.055270279400000004,-0.027654752999999997,-0.004118793,0.084807,0.053152,0.001529,0.2052139579,-2.694082888,-9.427132645,0.021765,0.2783,1.8012,-9.999999999998899e-05,-4.999999999988347e-05,9.999999999998899e-05,-0.0010235525823998892,-0.0004434162205679826,-0.00017926036418884628
150100000000.0,-1,-0.06102678295,-0.019368133750000002,-0.00661948875,0.086983,0.061715,-0.010152,0.21096065479999998,-2.7024185404999996,-9.424582916,0.022381,0.27918,1.8011,-9.999999999998899e-05,-5.0000000000105516e-05,0.00019999999999997797,-0.00023829805851660613,-0.0009745093164035268,-0.00035298232533668983
150100000000.0,-1,-0.05755522885,-0.04980797535,-0.006541035549999999,0.069948,0.061911,-0.027175,0.2155697803,-2.7111464589999996,-9.421935120499999,0.022875,0.28011,1.8009,-9.999999999998899e-05,-5.0000000000105516e-05,0.00019999999999997797,-0.001475157842724284,-0.00010809259717081687,-0.00010937536293446903
150100000000.0,-1,0.09193734375,-0.21263759195,-0.10904014135,0.053923,0.044011,-0.035729,0.2243957653,-2.72232604,-9.418502793,0.023821,0.2813,1.8004,-9.999999999998899e-05,-4.999999999988347e-05,9.999999999998899e-05,-0.0003282682618372945,-0.00024015065682148062,-0.0003245864232008927
150100000000.0,-1,0.0891228352,-0.20763620045,-0.11056017209999999,0.053839,0.014254,-0.027287,0.22721027384999998,-2.7273274315,-9.4170317955,0.024123,0.28183,1.8001,-6.666666666665932e-05,-0.00019999999999997797,0.000300000000000189,-0.0008924943535898455,-0.0011758216843664737,-0.00024405440550072377
150100000000.0,-1,0.047738772199999994,-0.13583190914999999,-0.0346763144,0.0602,0.004613,-0.017734,0.22983845604999997,-2.7369379485,-9.414187867,0.024409,0.28284,1.7998,-6.666666666665932e-05,-4.999999999988347e-05,0.00019999999999997797,-0.001871133523844437,-2.8106322748300272e-05,0.000575797872212111
150100000000.0,-1,0.0695879884,-0.1489041736,0.03325435015,0.070889,0.020414,-0.009186,0.23387879584999996,-2.748411729,-9.410755539499998,0.024847,0.28406,1.7996,-6.666666666665932e-05,-5.0000000000105516e-05,0.00029999999999996696,-0.000700812766240011,-0.00010199414364286952,0.0004739258570547328
150100000000.0,-1,0.0653907422,-0.1414315063,0.03095959405,0.08055,0.051089,-0.003796,0.23807604205,-2.755864783,-9.40850001,0.025299,0.28486,1.7996,-4.999999999988347e-05,-9.999999999998899e-05,0.00029999999999996696,0.00015145083707995832,-0.0014389102868166415,-0.00036866781325178843
150100000000.0,-1,0.03227368515,-0.1438243289,0.05523105279999999,0.075288,0.08082,-0.005858,0.24649995439999997,-2.7683192285,-9.404577349999999,0.026204,0.28618,1.7994,-5.0000000000105516e-05,-0.00010000000000021103,0.00019999999999997797,0.0014150502529294284,-0.0017349170292033644,-0.0006168607725425823
150100000000.0,-1,0.04086431055,-0.06504750945,0.022751427999999997,0.058284,0.10216,-0.014324,0.25751282235,-2.7764587479999996,-9.401929554499999,0.027383,0.28704,1.7992,-9.999999999998899e-05,-9.999999999998899e-05,0.00029999999999996696,-9.877382880502106e-05,-0.0003671441249319951,0.000153861913908801
150100000000.0,-1,0.030557521399999996,-0.0610169763,0.0212804305,0.039089,0.10438,-0.016451,0.2678196115,-2.7804794745,-9.400360490499999,0.028482,0.28747,1.7991,-4.999999999988347e-05,-0.00019999999999997797,0.00019999999999997797,4.6466049323568015e-05,0.0010248161676460477,0.0007785209566244095
150100000000.0,-1,0.04084469725,-0.07283398954999999,0.0146119085,0.021968,0.082166,-0.015442,0.2783323403,-2.7852847329999997,-9.39869336,0.029605,0.28798,1.7988,-5.0000000000105516e-05,-9.999999999998899e-05,0.00019999999999997797,0.00018997592193836788,0.0008326145981767397,0.00033143726796606987
150100000000.0,-1,0.06456698359999999,0.0738048479,0.1046369555,0.016589,0.059942,-0.018685,0.28722697184999996,-2.7855789325,-9.398301093999999,0.030552,0.28801,1.7986,-9.999999999998899e-05,-9.999999999998899e-05,0.000400000000000178,5.6841978220589784e-05,0.0007570651672408335,-0.00029779155782359845
150100000000.0,-1,0.06065413025,0.07630554364999999,0.10377397029999999,0.033584,0.024894,-0.020887,0.29114963185,-2.788030595,-9.397418495499998,0.030971,0.28828,1.7984,1.4285714285744433e-05,-0.00019999999999997797,0.00029999999999996696,-0.001558656604424613,-0.0001581501401830554,-0.00014078704092966576
150100000000.0,-1,0.10894207485,-0.1095010539,-0.1330958538,0.084719,-0.012394,-0.025213,0.29448389285,-2.7967585135,-9.394770699999999,0.031335,0.2892,1.798,1.4285714285744433e-05,-9.999999999998899e-05,0.00039999999999995595,-0.0029258251196755958,-0.0011134929357057288,-0.000629844466927959
150100000000.0,-1,-0.01801481605,0.19582899385,0.0695683751,0.15304,-0.003059,-0.033684,0.2942387266,-2.8046038335,-9.392417104,0.031317,0.29004,1.7976,1.4285714285744433e-05,-0.00019999999999997797,0.0004999999999999449,-0.0015826678735328947,-0.0019693108062295295,-0.0006404916375318398
150100000000.0,-1,-0.020084019199999997,0.2138438099,0.06410607105,0.20537,0.015869,-0.04001,0.2963177364,-2.8226480694999996,-9.38692538,0.031557,0.29196,1.7972,1.4285714285522388e-05,-9.999999999998899e-05,0.00039999999999995595,-0.0025583428330835933,-0.0008629955886911844,-0.00022212935854029614
150100000000.0,-1,-0.0194760069,0.1056764604,-0.04670907395,0.23635,0.035886,-0.038893,0.29989716364999996,-2.841378771,-9.381237523,0.031957,0.29395,1.7967,1.4285714285744433e-05,-9.999999999998899e-05,0.000300000000000189,-0.0012131865577738044,-0.0010448262362123817,-0.00015176744463295255
150100000000.0,-1,0.0404426246,0.06276256,-0.011424747249999999,0.23317,0.05596,-0.027148,0.30701679155,-2.8618746694999997,-9.374765134,0.032738,0.29614,1.7962,1.4285714285744433e-05,-9.999999999998899e-05,0.00029999999999996696,-0.002193482681154102,0.0003744692821696649,0.0001753554968451504
150100000000.0,-1,0.03531374665,0.08291522575,-0.0177696498,0.20857,0.044265,-0.010162,0.31214566949999994,-2.8820763684999995,-9.3683908115,0.033306,0.29829,1.796,1.4285714285744433e-05,-9.999999999998899e-05,0.00039999999999995595,-0.0026227773560446033,0.000373759180189559,0.00047463546978965265
150100000000.0,-1,0.1126391819,0.026840801049999998,-0.047728965549999995,0.18179,0.013483,0.007844,0.31756874695,-2.8989438064999997,-9.362997154,0.033905,0.3001,1.7959,9.999999999998899e-05,-9.999999999998899e-05,0.00029999999999996696,-0.0024528265941082816,-0.0005092824718599953,0.00024044843401965776
150100000000.0,-1,0.13749903965,0.10017492974999999,0.05162220559999999,0.16674,-0.02579,0.020516,0.3197948565,-2.912771183,-9.358682228,0.034158,0.30157,1.7959,9.999999999998899e-05,-5.0000000000105516e-05,0.00029999999999996696,-0.0012527786247351624,0.00012530731213100665,4.364902768154433e-05
150100000000.0,-1,0.14332418975,0.11525755744999999,0.0471111466,0.15811,-0.061891,0.031069,0.3139697064,-2.927873424,-9.354171169,0.033552,0.30318,1.7961,9.999999999998899e-05,-4.999999999988347e-05,0.00029999999999996696,-0.0016104678084224444,-0.00018003888751061403,0.00023950183073069564
150100000000.0,-1,0.1158557631,0.16205489125,0.0645865969,0.14419,-0.073556,0.038484,0.30940961415,-2.938464606,-9.3509349745,0.033077,0.30431,1.7963,9.999999999998899e-05,-9.999999999998899e-05,0.000300000000000189,0.0006551547422376514,-0.0006538456084637101,0.0002467762405967272
150100000000.0,-1,-0.009022117999999999,0.1049899949,0.05515259959999999,0.098383,-0.04474,0.038537,0.3029078052,-2.9468002584999997,-9.348581378499999,0.03239,0.3052,1.7967,9.999999999998899e-05,-9.999999999998899e-05,0.00019999999999997797,0.00025816748487988983,-0.000800746912712702,0.0006043476741387083
150100000000.0,-1,-0.00818855275,0.10954028049999999,0.05374044199999999,0.029204,0.017148,0.024831,0.30207423995,-2.9513113174999996,-9.347110380999998,0.032306,0.30569,1.797,9.999999999998899e-05,-9.999999999998899e-05,0.00019999999999997797,0.002344734496249057,-0.0033925065735562754,-2.84523239351131e-05
150100000000.0,-1,-0.066096821,0.07473647964999999,0.02478140455,-0.047376,0.1014,0.002665,0.30761499719999996,-2.946702192,-9.3483852455,0.032894,0.3052,1.7972,-9.999999999998899e-05,-5.0000000000105516e-05,0.00029999999999996696,0.002275041232128794,-0.0004211158805409454,0.0005285936489128756
150100000000.0,-1,-0.0364415114,0.07669780964999999,-0.011395327299999999,-0.10157,0.18234,-0.014185,0.32239361875,-2.9360129434999997,-9.3513272405,0.034463,0.30405,1.7971,4.999999999988347e-05,-4.999999999988347e-05,0.00019999999999997797,-0.0002998969693630005,-0.0007212513717753666,0.0009932078177805892
150100000000.0,-1,-0.05667263035,0.0659595279,-0.0087475318,-0.11537,0.21843,-0.010916,0.34263454434999996,-2.9252256285,-9.353876969499998,0.036613,0.3029,1.797,5.0000000000105516e-05,9.999999999998899e-05,0.00029999999999996696,3.633052571766493e-05,-0.00023032195288874568,0.0005709219128781917
150100000000.0,-1,0.00732556755,0.060114764499999994,-0.0281646988,-0.082338,0.20866,0.000771,0.3634736756,-2.9144383135,-9.356524765,0.038828,0.30175,1.797,5.0000000000105516e-05,7.1428571428722165e-06,0.00029999999999996696,0.0009094023069755597,-0.0008106820823252647,0.0002994080306152891
150100000000.0,-1,0.00732556755,0.060114764499999994,-0.0281646988,-0.082338,0.20866,0.000771,0.3634736756,-2.9144383135,-9.356524765,0.038828,0.30175,1.797,4.999999999988347e-05,7.1428571428722165e-06,0.00029999999999996696,-0.0010582815457557682,-0.0005476920723979095,0.00011503169220489218
150100000000.0,-1,0.12068063489999999,0.18165838459999997,0.01675956485,-0.024835,0.16598,0.006007,0.38374402114999995,-2.9060045944999997,-9.358388028499999,0.040983,0.30084,1.7969,9.999999999998899e-05,7.1428571428722165e-06,0.000400000000000178,-0.0011143704304678037,0.0003828594280281816,-0.00012236330640956472
150100000000.0,-1,0.11417882594999999,0.17549980839999998,0.035147033599999995,0.078443,0.067003,-0.002699,0.4065640957,-2.909633055,-9.356230565499999,0.043426,0.30124,1.7968,9.999999999998899e-05,7.1428571428722165e-06,0.00029999999999996696,-0.0017036440259816654,-0.00022466370647156175,-0.0002248027037941719
150100000000.0,-1,0.16017201444999998,0.10953047384999999,0.19173962079999998,0.10612,0.029857,-0.012377,0.41547834055,-2.9177725745,-9.3532885705,0.044392,0.30211,1.7965,9.999999999998899e-05,7.1428571428722165e-06,0.00019999999999997797,-0.0004184202230205769,-0.0005018232250368904,-0.0003558393477326588
150100000000.0,-1,0.1595345822,0.1200922359,0.18841516645,0.11458,-0.006233,-0.012457,0.41612557944999995,-2.9283637564999996,-9.3499543095,0.044476,0.30323,1.7963,0.00019999999999997797,7.1428571428722165e-06,0.00019999999999997797,-0.002454050989217138,-0.0005940192475486494,2.0473666425782633e-05
150100000000.0,-1,0.12879073445,0.04780741875,0.19243589295,0.11555,-0.041303,-0.002963,0.41708663114999994,-2.9397394704999997,-9.346325849,0.044596,0.30445,1.7961,0.00019999999999997797,7.1428571428722165e-06,0.00029999999999996696,-0.0013163396597360988,0.0009569663116002491,0.0001094081515888301
150100000000.0,-1,0.034401728199999995,0.03672590425,0.25160921905,0.10373,-0.065735,0.008679,0.41241866574999997,-2.9511151844999994,-9.342991588,0.044113,0.30566,1.7961,0.00020000000000020002,7.142857142650172e-06,0.00019999999999997797,-0.00048129562988519226,-0.00023042272630813265,0.00023314333096299822
150100000000.0,-1,0.04082508395,0.04502233014999999,0.24926542969999999,0.081327,-0.061444,0.014002,0.40599530999999994,-2.9593527705,-9.340637992,0.043438,0.30655,1.7962,0.00019999999999997797,7.1428571428722165e-06,5.0000000000105516e-05,3.560298419885699e-05,-0.001531272114743798,-0.00011663236421800838
150100000000.0,-1,-0.03680435745,0.08038511004999999,0.26571118174999997,0.045119,-0.029509,0.017256,0.40102333845,-2.9648444945,-9.3391669945,0.042913,0.30713,1.7963,9.999999999998899e-05,7.1428571428722165e-06,4.999999999988347e-05,0.00033083361576868864,0.0012655771297771512,0.00035755594003983315
150100000000.0,-1,-0.16887051299999997,0.10548032739999999,0.1731658257,0.000399,0.010959,0.018399,0.39602194695,-2.9647464279999998,-9.3393631275,0.042378,0.30713,1.7967,9.999999999998899e-05,7.1428571428722165e-06,0.00019999999999997797,0.0017913174310382196,-0.000724174187074933,-2.791597907507437e-05
150100000000.0,-1,-0.17137120875,0.1024010393,0.17403861754999997,-0.043274,0.037677,0.014194,0.3985226427,-2.9617063664999996,-9.340245726,0.042642,0.3068,1.7969,9.999999999998899e-05,7.1428571428722165e-06,4.999999999988347e-05,0.00027536230849162235,6.980941588996536e-05,0.00038126773440018413
150100000000.0,-1,-0.21048993559999998,0.10713765125000001,0.10978544674999999,-0.065636,0.054749,0.0121,0.39723797155,-2.953959113,-9.3426973885,0.042493,0.30598,1.7972,5.0000000000105516e-05,7.1428571428722165e-06,5.0000000000105516e-05,-0.0004877665681774501,0.00022044080006500266,0.0004876723903974034
150100000000.0,-1,-0.17360712495,0.0988706453,0.0956736774,-0.058154,0.058976,0.009984,0.39776753065,-2.946506059,-9.3450509845,0.042539,0.30517,1.7975,4.999999999988347e-05,7.1428571428722165e-06,0.00020000000000020002,-0.00010091775778064971,0.0005899215426532489,0.0001859937860875932
150100000000.0,-1,-0.1781083773,0.09533044465,0.09660530915,-0.030446,0.048236,0.013158,0.40226878299999996,-2.9429756649999996,-9.3460316495,0.043015,0.30479,1.7976,4.999999999988347e-05,1.6666666666775853e-05,9.999999999998899e-05,-0.0005416381871199416,0.0007195867301650338,0.0002747927995326027
150100000000.0,-1,-0.09829205295,0.0653319023,0.14614850494999998,0.008963,0.022601,0.016302,0.3984638028,-2.941995,-9.346521982,0.042607,0.30469,1.798,5.0000000000105516e-05,1.666666666655381e-05,0.00019999999999997797,-8.599875714815353e-05,0.0011621319431029953,-9.58754329715844e-05
150100000000.0,-1,-0.04364939915,0.03786347565,0.1753232887,0.046198,-0.015797,0.025798,0.39634556639999996,-2.946113793,-9.3452471175,0.042386,0.30513,1.7982,0.00019999999999997797,1.666666666655381e-05,3.333333333332966e-05,-0.0016970830171005313,-0.0004883482214146362,-0.00023699976183264027
150100000000.0,-1,-0.03711817025,0.04425741144999999,0.173577705,0.071643,-0.076434,0.037368,0.3898143375,-2.9524881155,-9.3434819205,0.041697,0.30581,1.7986,9.999999999998899e-05,1.6666666666775853e-05,3.333333333332966e-05,-0.0007821675701006336,0.0009086526037120901,-0.0003537117721850863
150100000000.0,-1,0.07479531955,0.011032481249999998,0.11368849344999998,0.086391,-0.15606,0.041446,0.37889953604999993,-2.9620005659999995,-9.340932191499999,0.040542,0.30684,1.7989,9.999999999998899e-05,1.6666666666775853e-05,3.333333333332966e-05,-0.00011720163284884011,0.0009736831105817689,-0.0008065368332114964
150100000000.0,-1,0.0263798885,0.06951934185,0.1634768555,0.098006,-0.21334,0.037065,0.35953140229999997,-2.9707284844999995,-9.3389708615,0.038479,0.30776,1.7992,9.999999999998899e-05,1.666666666655381e-05,9.999999999998899e-05,-0.0014032537948168167,0.001934265824565129,-0.000527723860398191
150100000000.0,-1,0.04797413179999999,0.07924753864999999,0.16118209939999997,0.10442,-0.22384,0.020024,0.33793715899999993,-2.980437068,-9.3366172655,0.036179,0.3088,1.7994,9.999999999998899e-05,5.0000000000105516e-05,-1.999999999990898e-05,-0.001460800031740872,0.00028489217718541404,-0.00014722630188805652
150100000000.0,-1,-0.05563312545,0.1338999991,0.21568746009999998,0.10345,-0.19402,0.003072,0.3165978886,-2.987301723,-9.3352443345,0.033902,0.30954,1.7995,9.999999999998899e-05,4.999999999988347e-05,-2.0000000000131024e-05,-0.0008701643626484734,0.0006192871722157101,0.000207427120997708
150100000000.0,-1,-0.05341682254999999,0.10600007984999998,0.23866444105,0.084381,-0.13561,0.002136,0.30107396165,-2.9952451094999994,-9.333184937999999,0.032247,0.31039,1.7996,9.999999999998899e-05,4.999999999988347e-05,-1.999999999990898e-05,-6.251530813833339e-05,0.0003125400631900366,0.0007751384288075813
150100000000.0,-1,-0.04605202839999999,0.1111289578,0.23725228345,0.042932,-0.054934,0.014008,0.29369936085,-3.0003445675,-9.331812007,0.031463,0.31094,1.7997,9.999999999998899e-05,5.0000000000105516e-05,-2.0000000000131024e-05,0.0005482944834006576,-0.0002080871685299357,0.0012041888175595566
150100000000.0,-1,0.036421898099999996,0.10052796915,0.17091029619999998,-0.011339,0.02572,0.03545,0.29471925244999997,-2.9985793705,-9.3323023395,0.03157,0.31074,1.7999,0.00019999999999997797,9.999999999998899e-05,-1.999999999990898e-05,3.110106814108171e-05,-0.0010853209738017622,0.0017524447423977046
150100000000.0,-1,0.046581587499999993,0.079237732,0.1915042612,-0.050725,0.088246,0.062173,0.30132893455,-2.994362511,-9.3334791375,0.032274,0.31029,1.8005,0.00010000000000021103,9.999999999998899e-05,-9.999999999998899e-05,0.0022153108977380764,0.0007797367587114579,0.0012258558124161045
150100000000.0,-1,0.038157675149999994,0.07309876909999999,0.19320081165,-0.070957,0.12107,0.080324,0.30974304025,-2.9881843214999995,-9.335146267999999,0.033168,0.30963,1.8013,9.999999999998899e-05,9.999999999998899e-05,-9.999999999998899e-05,-0.0002478417888527318,-0.001254623926877585,0.0011537100196753747
150100000000.0,-1,0.07924753864999999,0.0613307891,0.13113452379999999,-0.06563,0.11786,0.080318,0.3231291175,-2.9815157995,-9.336813398499999,0.034594,0.30892,1.802,0.00029999999999996696,4.999999999988347e-05,-9.999999999998899e-05,-0.00107986790297121,-0.0006926496047439112,0.0005529903245589662
150100000000.0,-1,0.09504605179999999,0.03880491404999999,0.10075352209999999,-0.051826,0.080765,0.070665,0.33186684265,-2.9763182749999997,-9.3381863295,0.035524,0.30837,1.8028,0.00019999999999997797,5.0000000000105516e-05,-9.999999999998899e-05,0.000432732231059052,0.00097223246706446,-9.558217836706795e-05
150100000000.0,-1,0.09325143485,0.0352058735,0.10184206024999999,-0.036985,0.023568,0.05352,0.33367126625,-2.9726898145,-9.339265060999999,0.035712,0.30798,1.8034,9.999999999998899e-05,9.999999999998899e-05,-9.999999999998899e-05,0.00010158459292058941,0.0007102463748991372,-0.00028667225668414786
150100000000.0,-1,0.13814627855,-0.013817569850000001,0.12263215825,-0.018935,-0.030453,0.03532,0.3308175311,-2.9707284844999995,-9.340049593,0.035405,0.30776,1.8038,9.999999999998899e-05,4.999999999988347e-05,-0.00010000000000021103,-0.0002096365875635664,0.0014095878205750978,-0.00024835973305038783
150100000000.0,-1,0.12349514345,-0.0036088471999999997,0.14120595335,0.001289,-0.07173,0.013935,0.3243647554,-2.970434285,-9.340343792499999,0.034714,0.30773,1.804,9.999999999998899e-05,5.0000000000105516e-05,-9.999999999998899e-05,0.0001259734602209739,0.0009885237118270052,-0.00012163634611019047
150100000000.0,-1,0.11391404639999998,0.0085317855,0.11750328029999998,0.013019,-0.085467,0.001143,0.31929471735,-2.9721014155,-9.339951526499998,0.034172,0.30791,1.8039,0.00019999999999997797,9.999999999998899e-05,-9.999999999998899e-05,0.0005054470503529918,-6.428383923418046e-05,-8.670591074724787e-05
150100000000.0,-1,-0.024673531399999997,-0.00197113665,0.1169541079,0.009866,-0.068454,-0.003074,0.31362647365,-2.97533761,-9.339068928,0.033569,0.30826,1.8039,0.00019999999999997797,-4.999999999988347e-05,-9.999999999998899e-05,0.0009623163550260827,-0.0005628090421536669,0.00025117391798115674
150100000000.0,-1,-0.0213981103,-0.0027360553499999997,0.1173071473,-0.015642,-0.022776,0.000213,0.31035105255,-2.9746511444999997,-9.339461194,0.033217,0.30818,1.8039,0.00029999999999996696,-5.0000000000105516e-05,-0.00019999999999997797,0.001861112250583774,-0.0023749637036545312,0.00045251498071090246
150100000000.0,-1,-0.0479152919,-0.00224572285,0.0669205796,-0.066732,0.038864,0.009913,0.31112577789999996,-2.9701400854999997,-9.340834124999999,0.033296,0.30771,1.804,9.999999999998899e-05,9.999999999998899e-05,-9.999999999998899e-05,0.0027707043595202596,-0.0015921655379855792,0.00041525170451177373
150100000000.0,-1,-0.060948329749999995,-0.055387959199999996,-0.028870777599999998,-0.12209,0.10365,0.026,0.31548973714999995,-2.9613141005,-9.343579986999998,0.033752,0.30676,1.8044,0.00019999999999997797,1.999999999990898e-05,-0.00019999999999997797,0.0012651531737490895,-0.0015993827875933064,0.0013536286766643868
150100000000.0,-1,-0.07397156095,-0.07010774084999999,-0.024673531399999997,-0.16999,0.16629,0.042085,0.3285031617,-2.9466041255,-9.34769878,0.035128,0.30518,1.8048,0.000300000000000189,2.0000000000131024e-05,-9.999999999998899e-05,0.0008037191066254668,-0.0016193127463688395,0.0011997068197783928
150100000000.0,-1,-0.07312818905,-0.08634755325,0.0040991797,-0.19659,0.2098,0.052813,0.34441935464999995,-2.9303250865,-9.352209838999999,0.036811,0.30345,1.8055,0.00019999999999997797,1.999999999990898e-05,-9.999999999998899e-05,0.0034176720218073164,-0.0008251603480626812,0.0008197097555652649
150100000000.0,-1,0.07081381965,-0.0578003951,-0.0641158777,-0.20193,0.21611,0.062399,0.3649250598,-2.912967316,-9.356917031,0.038981,0.30159,1.8061,0.00019999999999997797,2.0000000000131024e-05,-9.999999999998899e-05,0.0018961560920682796,-0.0004011621464146131,0.00096243812749576
150100000000.0,-1,0.05470149369999999,-0.07516797224999999,-0.0593694591,-0.18067,0.18102,0.064453,0.3810471924,-2.8956095454999997,-9.361624223,0.04068,0.29974,1.8069,0.00019999999999997797,1.999999999990898e-05,3.333333333332966e-05,0.0010719498669377603,0.0003341997056385271,0.0005584199735813727
150100000000.0,-1,0.05231847775,-0.06981354135,-0.046758107199999996,-0.13814,0.11408,0.058994,0.39300149874999996,-2.8826647674999997,-9.365154617,0.04194,0.29836,1.8075,0.00019999999999997797,9.999999999998899e-05,3.333333333332966e-05,0.0003688279264206229,0.00019685738832464494,0.0002845228393846544
150100000000.0,-1,0.05231847775,-0.06981354135,-0.046758107199999996,-0.13814,0.11408,0.058994,0.39300149874999996,-2.8826647674999997,-9.365154617,0.04194,0.29836,1.8075,9.999999999998899e-05,9.999999999998899e-05,3.333333333332966e-05,-0.00022452816866491698,0.002758089223446669,0.0006013914609844517
150100000000.0,-1,-0.0162986523,-0.0136900834,-0.1141690193,-0.080656,0.045018,0.045025,0.39816960329999995,-2.872956184,-9.367900479,0.042478,0.29732,1.808,0.00019999999999997797,9.999999999998899e-05,9.999999999998899e-05,-0.0016256182982723466,0.0021314182622524935,0.0005687888203698421
150100000000.0,-1,-0.0701567741,-0.0028341218499999994,-0.10386223014999998,0.050405,-0.038135,0.03317,0.3923248399,-2.8733484499999995,-9.367998545499999,0.041854,0.29736,1.8088,0.00019999999999997797,9.999999999998899e-05,0.00019999999999997797,-0.001996696463482772,0.0012303239775812713,0.000609556913578363
150100000000.0,-1,-0.10050835585,-0.09080957899999999,-0.10315615135,0.091908,-0.065992,0.044817,0.38092951259999996,-2.882370568,-9.365743016,0.04065,0.29832,1.8094,0.00019999999999997797,5.0000000000105516e-05,9.999999999998899e-05,-0.0015939439149579293,0.00038547527844734475,0.0005546858784044179
150100000000.0,-1,-0.10725533105,-0.09469301239999998,-0.12223008559999998,0.10785,-0.079955,0.059682,0.3695734118999999,-2.893746282,-9.3627029545,0.039452,0.29954,1.81,0.00019999999999997797,4.999999999988347e-05,0.00019999999999997797,-0.0011097847758769208,0.0005469482973865514,-2.5860415300074657e-05
150100000000.0,-1,-0.09742906774999999,-0.08530804835,-0.12475039464999998,0.092894,-0.085229,0.063921,0.35973734194999996,-2.9030625995,-9.3601532255,0.038414,0.30054,1.8106,0.00020000000000020002,-9.999999999998899e-05,9.999999999998899e-05,-0.001245413338515744,-0.0008981013739215449,0.0004598814470412882
150100000000.0,-1,-0.12612332564999998,-0.0769625892,-0.047503412599999996,0.066246,-0.077677,0.06074,0.34489007385,-2.9124769834999995,-9.3577996295,0.036839,0.30154,1.8114,0.00019999999999997797,5.0000000000105516e-05,9.999999999998899e-05,-0.00028824315393066735,-0.0005569293030616151,-0.00011894722456985696
150100000000.0,-1,-0.11889582459999999,-0.07248095015,-0.04863117735,0.038588,-0.055185,0.045892,0.33766257279999995,-2.9169880425,-9.356720897999999,0.036073,0.30202,1.8119,5.0000000000105516e-05,4.999999999988347e-05,9.999999999998899e-05,-0.0006178037718135854,0.0015378189150569987,0.0004050968793833237
150100000000.0,-1,-0.1575536389,-0.0793554118,0.0,0.022695,-0.024216,0.025748,0.33023893874999993,-2.9212049019999995,-9.3556421665,0.035283,0.30247,1.8123,4.999999999988347e-05,-9.999999999998899e-05,0.00020000000000020002,0.0006881528153708238,-0.0007866472550370762,-7.893551842222402e-05
150100000000.0,-1,-0.1674583554,-0.08418028359999999,0.08189533415,0.019597,0.007721,0.010928,0.32622801889999997,-2.925323695,-9.3544653685,0.03486,0.30291,1.8126,9.999999999998899e-05,-5.0000000000105516e-05,0.00019999999999997797,0.0014928130845629495,-0.0019123685246469346,-0.00044173561770471936
150100000000.0,-1,-0.11598324955,-0.08164036125,0.12027856225,0.021781,0.020518,0.000321,0.3278755361,-2.9272850249999998,-9.353778903,0.035038,0.30312,1.8126,9.999999999998899e-05,-4.999999999988347e-05,9.999999999998899e-05,-0.0005170506300125055,-0.00021628558842778922,-1.9701118069592738e-05
150100000000.0,-1,-0.11578711654999999,-0.07722736875,0.1374303931,0.029251,0.019443,-0.001807,0.32737539695,-2.9322864164999998,-9.3523079055,0.034991,0.30366,1.8127,0.00019999999999997797,-9.999999999998899e-05,9.999999999998899e-05,-0.0008636403986742591,-0.0016234051123438231,-0.0002541164174874183
150100000000.0,-1,-0.08793623055,-0.06744033205,0.16966485165,0.032436,0.010954,-0.002888,0.32690467774999993,-2.937876207,-9.350542708499999,0.034947,0.30425,1.8127,4.999999999988347e-05,-9.999999999998899e-05,0.00019999999999997797,-8.722911766589903e-05,0.00024944665670667554,-0.00022568122835066318
150100000000.0,-1,-0.0628998531,-0.05743754905,0.1526699272,0.033469,-0.002844,-0.001856,0.3270125509,-2.9410143349999998,-9.349562043499999,0.034962,0.30459,1.8126,5.0000000000105516e-05,-4.999999999988347e-05,9.999999999998899e-05,-0.0003649499489059571,-7.891137913285107e-05,7.864017671638246e-06
150100000000.0,-1,-0.032911117399999995,-0.07221617059999999,0.17465643649999998,0.01957,-0.015523,-0.000824,0.3251492874,-2.9460157264999998,-9.348091045999999,0.034769,0.30512,1.8126,9.999999999998899e-05,-5.0000000000105516e-05,9.999999999998899e-05,0.0001171964863027064,0.0008080780396972909,0.00020266116154944724
150100000000.0,-1,-0.0115522337,0.0386578143,0.09285916884999999,-0.001781,-0.0218,-0.000844,0.32294279115,-2.9474867239999996,-9.34769878,0.034534,0.30528,1.8126,4.999999999988347e-05,-9.999999999998899e-05,5.0000000000105516e-05,-0.0001291046193210299,0.0002280409056496513,-8.4924342359044e-05
150100000000.0,-1,-0.0096497436,0.037294689949999994,0.093359308,-0.017777,-0.019607,-0.001907,0.32105010770000003,-2.946113793,-9.3481891125,0.03433,0.30513,1.8126,5.0000000000105516e-05,-9.999999999998899e-05,4.999999999988347e-05,0.00035250558689919886,-0.00032519946685360956,-0.00014912394689788055
150100000000.0,-1,-0.01636729885,0.07679587614999998,0.09941001105,-0.01884,-0.018535,-0.002968,0.31908877769999994,-2.9432698645,-9.349071710999999,0.034117,0.30483,1.8126,9.999999999998899e-05,-9.999999999998899e-05,0.00019999999999997797,-0.00047616871843414454,0.0005859085514134943,9.842560849432358e-06
150100000000.0,-1,-0.01154242705,0.1613586191,0.12645675174999998,-0.003908,-0.019655,-0.002967,0.316950928,-2.937876207,-9.350836908,0.033882,0.30425,1.8126,9.999999999998899e-05,-2.4999999999941735e-05,9.999999999998899e-05,-0.0011851664432256936,-0.0001700798873827125,8.96622637824307e-05
150100000000.0,-1,-0.010091042849999999,0.16338859564999997,0.12586835275,0.031304,-0.014517,0.000245,0.31550935045,-2.9399356035,-9.350248509,0.03373,0.30447,1.8126,5.0000000000105516e-05,-2.4999999999941735e-05,9.999999999998899e-05,-0.0009195736365323337,0.0003072106311912126,0.00013928757753289833
150100000000.0,-1,0.0203782187,0.1447265407,0.1294870066,0.064364,-0.013645,0.007701,0.31466597854999995,-2.9432698645,-9.349267844,0.033644,0.30483,1.8126,4.999999999988347e-05,-2.500000000016378e-05,9.999999999998899e-05,-0.0009687242816007746,0.0013589687252735239,0.0001827441250809303
150100000000.0,-1,0.0203782187,0.1447265407,0.1294870066,0.064364,-0.013645,0.007701,0.31466597854999995,-2.9432698645,-9.349267844,0.033644,0.30483,1.8126,9.999999999998899e-05,-2.4999999999941735e-05,9.999999999998899e-05,6.056967992806861e-05,0.00015369944370413613,0.00027746347857494913
150100000000.0,-1,0.02099603765,0.11316874099999999,0.10010628319999999,0.073945,-0.016912,0.014078,0.31374415345,-2.946898325,-9.3481891125,0.033549,0.30521,1.8127,5.0000000000105516e-05,-3.333333333332966e-05,1.6666666666775853e-05,-0.00020112307201802793,0.0008715698044805542,0.00023936351353137653
150100000000.0,-1,0.05845744065,0.05443671415,0.10649041235,0.041904,-0.027429,0.019365,0.30949787399999995,-2.9573914405,-9.344952917999999,0.033108,0.30634,1.813,4.999999999988347e-05,-3.333333333332966e-05,1.666666666655381e-05,0.00034669221780792014,0.0005559660452862936,0.00018393263155590256
150100000000.0,-1,0.0589771931,0.045296916349999994,0.1204060487,0.016293,-0.026298,0.023615,0.3076346105,-2.959450837,-9.344364518999999,0.03291,0.30656,1.8131,9.999999999998899e-05,-3.333333333332966e-05,1.666666666655381e-05,-3.5306482051411514e-05,0.0011162949936445177,0.00027008680681915587
150100000000.0,-1,0.0613307891,0.007639380349999999,0.15163042229999998,0.001361,-0.019915,0.028944,0.30617341964999994,-2.9607257015,-9.344070319499998,0.032755,0.3067,1.8134,0.00019999999999997797,-4.999999999988347e-05,1.6666666666775853e-05,-0.0004799243888310434,0.0005231019897729006,0.00027083846824577096
150100000000.0,-1,0.043051193499999994,0.05491724,0.17047880359999998,0.003514,-0.013544,0.026831,0.3050064283,-2.9609218344999997,-9.343972252999999,0.03263,0.30671,1.8136,9.999999999998899e-05,-5.0000000000105516e-05,1.6666666666775853e-05,0.0001635664586736585,0.00014061356452188534,0.0003006813357124133
150100000000.0,-1,0.00114737805,0.0650573161,0.12784929605,0.017387,-0.011478,0.02684,0.30366291725,-2.961412167,-9.343874186499999,0.032487,0.30677,1.8139,0.00010000000000021103,-2.4999999999941735e-05,1.666666666655381e-05,0.0004148845565956072,6.150512218883186e-05,0.0004519499183439496
150100000000.0,-1,0.0026870221,0.0675678185,0.12710399065,0.028068,-0.005166,0.02792,0.3021232732,-2.963961896,-9.3430896545,0.032325,0.30704,1.8142,9.999999999998899e-05,-2.500000000016378e-05,-9.999999999998899e-05,9.583518200745322e-05,-0.0004775041349673881,0.0005633733912667749
150100000000.0,-1,-0.0254776767,0.04404166515,0.12198491935,0.023835,0.011802,0.030085,0.30140738775,-2.966511625,-9.342403188999999,0.032251,0.30731,1.8145,0.0004999999999999449,-2.4999999999941735e-05,-0.0008999999999999009,-0.007103676239863965,-0.010897192012565116,0.0007792437606028851
150100000000.0,-1,-0.040815277299999994,-0.03475476759999999,0.12761393645,-0.007047,0.042631,0.036529,0.30238805274999997,-2.9693555535,-9.341422523999999,0.032359,0.30762,1.8149,9.999999999998899e-05,-2.4999999999941735e-05,-9.999999999998899e-05,0.002178306500482563,-0.00040895089348458313,0.0010100930335459474
150100000000.0,-1,-0.04712095325,-0.038765687449999996,0.12868286129999998,-0.057085,0.093694,0.04195,0.30868392204999995,-2.9653348269999995,-9.3425012555,0.033029,0.30719,1.8153,0.00019999999999997797,-9.999999999998899e-05,-9.999999999998899e-05,0.0006607292242306606,-0.0024847975557131807,0.0010053954564998857
150100000000.0,-1,-0.06385109815,-0.0661360476,0.16852728024999997,-0.10284,0.15006,0.045256,0.31913781095,-2.9589605045,-9.344168386,0.03414,0.3065,1.8159,9.999999999998899e-05,-9.999999999998899e-05,-9.999999999998899e-05,0.0018861484985498445,-0.0025916651354376263,0.000791683023778994
150100000000.0,-1,-0.037196623449999994,-0.04158019599999999,0.22044368534999997,-0.13261,0.18945,0.040019,0.3337791393999999,-2.9512132509999995,-9.346129716,0.035698,0.30567,1.8164,0.00019999999999997797,-9.999999999998899e-05,-9.999999999998899e-05,0.002417146399827097,-0.0011929345955095094,0.0008104615212016913
150100000000.0,-1,-0.05590771165,-0.05484859345,0.22394465939999997,-0.14426,0.21715,0.030506,0.35249022759999993,-2.937876207,-9.349562043499999,0.037683,0.30426,1.8168,9.999999999998899e-05,-0.00019999999999997797,-9.999999999998899e-05,0.00048629842720820937,-0.0031978988142717935,0.0007401795187206572
150100000000.0,-1,-0.07674684289999999,-0.06804834435,0.22726911375,-0.14101,0.2331,0.023097,0.37332935884999996,-2.9247352959999997,-9.3528963045,0.039894,0.30284,1.8171,9.999999999998899e-05,-9.999999999998899e-05,-0.000300000000000189,0.0007012738645539862,-0.0037778928645419985,0.0006506711059470205
150100000000.0,-1,-0.061781894999999996,-0.08215030705,0.33984945575,-0.14418,0.24163,0.017797,0.39457056274999996,-2.9183609735,-9.3540731025,0.042157,0.30217,1.8174,0.00019999999999997797,-0.000300000000000189,-0.00019999999999997797,0.0010505985949025853,-0.0030045411875545547,0.0008601038285500906
150100000000.0,-1,-0.08456274295,-0.095516771,0.34302681035,-0.14415,0.25225,0.015694,0.4173514107,-2.9050239294999995,-9.357211230499999,0.044573,0.30074,1.8176,9.999999999998899e-05,-0.00019999999999997797,-0.00019999999999997797,0.002127653440180677,-0.0017951442624628555,0.0004284134585544469
150100000000.0,-1,-0.10825560934999999,-0.10909898124999999,0.34614532505,-0.14733,0.25655,0.010384,0.4410442771,-2.8913926859999997,-9.360349358499999,0.047084,0.29929,1.8178,9.999999999998899e-05,-0.00019999999999997797,-0.00029999999999996696,0.0010826904413858696,-0.0005540978362814641,0.0005082080814676482
150100000000.0,-1,0.034911674,-0.020299765499999997,0.2644068973,-0.157,0.22059,0.002854,0.46532554249999997,-2.8819783019999994,-9.3621145555,0.049663,0.29828,1.8179,-0.00019999999999997797,-0.00029999999999996696,0.0005999999999999339,0.010626620741296777,0.013225845610052689,0.00013410273624338276
150100000000.0,-1,0.02021150565,-0.03509800035,0.26820207085,-0.15827,0.13256,0.004782,0.48003551749999995,-2.867072194,-9.3658410825,0.051208,0.2967,1.818,9.999999999998899e-05,-0.00019999999999997797,-0.00029999999999996696,0.00015552485479303213,0.0011199428739692152,-0.00034434742183349354
150100000000.0,-1,0.016033872749999997,-0.04867040395,0.2721345375,-0.13826,0.015823,0.004524,0.48420334375,-2.853539017,-9.3697637425,0.051631,0.29525,1.8181,9.999999999998899e-05,-0.00019999999999997797,-0.00029999999999996696,0.0012138884028209396,0.002042673283193519,-0.0009090661310377501
150100000000.0,-1,-0.0427962206,0.13359599295,0.11874872484999999,-0.091551,-0.098784,-0.010615,0.4779368944,-2.8408884385,-9.373980602,0.050942,0.2939,1.8181,0.000500000000000167,-0.00029999999999996696,-0.0010999999999998789,-0.009482924494619294,-0.01183020731203066,-0.0017676078473511936
150100000000.0,-1,-0.02750765325,0.12877112115,0.1209748344,-0.03518,-0.19219,-0.029957,0.4626581337,-2.8359851135,-9.376236131499999,0.049304,0.29338,1.8179,-4.999999999988347e-05,-0.00019999999999997797,-0.00020000000000020002,-0.000832031240845077,0.0011325319864592398,-0.0015777464520378703
150100000000.0,-1,-0.0074922806,0.12952623319999998,0.12172013979999999,0.025578,-0.23258,-0.049179,0.44264276104999994,-2.8367696455,-9.376922597,0.04717,0.29346,1.8174,-5.0000000000105516e-05,-9.999999999998899e-05,-0.00029999999999996696,-0.0016259516045312727,0.0018443373368466354,-0.0004031576236895873
150100000000.0,-1,-0.0074922806,0.12952623319999998,0.12172013979999999,0.025578,-0.23258,-0.049179,0.44264276104999994,-2.8367696455,-9.376922597,0.04717,0.29346,1.8174,2.4999999999941735e-05,-0.000300000000000189,-9.999999999998899e-05,-0.0007173735656635927,0.0013419570812933657,-0.0011418660214356502
150100000000.0,-1,-0.2453231564,0.0682935106,0.14881591374999997,0.072633,-0.20501,-0.074632,0.41351701055,-2.8391232415,-9.3776090625,0.044068,0.29372,1.817,2.500000000016378e-05,-0.00029999999999996696,-0.00029999999999996696,0.0017019166134554786,-0.00046012939245310136,-0.0008410493219500742
150100000000.0,-1,-0.22741621349999996,0.07977709775,0.14609947169999998,0.03455,-0.069053,-0.082844,0.39561006765,-2.8505970219999996,-9.3748632005,0.042174,0.29494,1.8152,2.4999999999941735e-05,-0.00029999999999996696,-0.00019999999999997797,0.0012363455538405566,-0.00031874693635369766,0.0001034229562175415
150100000000.0,-1,-0.04788587195,-0.05916351945,0.015710253299999997,-0.036827,-0.011608,-0.068905,0.39115784854999996,-2.8514796204999997,-9.374765134,0.0417,0.29503,1.8145,2.4999999999941735e-05,-0.00019999999999997797,-0.00029999999999996696,0.0014829600269900545,-0.00037041627206280126,0.00042075349693733444
150100000000.0,-1,-0.0518575652,-0.06773453154999999,0.0181423025,-0.10397,0.037307,-0.050729,0.39511973515,-2.8428497685,-9.377216796499999,0.042112,0.29411,1.814,1.6666666666775853e-05,-0.00029999999999996696,-0.00029999999999996696,0.0019840048168416335,-0.00013037638563595522,0.0003539233569631456
150100000000.0,-1,-0.040158231749999995,-0.01952504015,-0.0087671451,-0.15087,0.06812,-0.033652,0.40108217834999993,-2.829610791,-9.3809433235,0.042729,0.2927,1.8137,1.666666666655381e-05,-0.00019999999999997797,-0.000400000000000178,0.0017412965202889819,-0.000624652440790241,0.00013389447120559783
150100000000.0,-1,-0.00350097405,0.03517645355,-0.05585867839999999,-0.16156,0.078599,-0.011294,0.40886865845,-2.812939486,-9.3856505155,0.043536,0.29092,1.8136,1.666666666655381e-05,-0.00029999999999996696,-0.00019999999999997797,0.0025418079585056708,0.0008256086625109127,-0.00026986115074142947
150100000000.0,-1,-0.0035696206,0.059967664749999997,-0.08728899164999998,-0.14882,0.069904,0.009963,0.41551756715,-2.7963662475,-9.390259640999998,0.044221,0.28917,1.8137,1.6666666666775853e-05,-0.00020000000000020002,-0.00019999999999997797,0.00025151634590969696,0.0007900433752352498,0.0004487972511628968
150100000000.0,-1,-0.00877695175,0.04774857885,-0.08388608410000001,-0.12326,0.054924,0.014191,0.4207347049499999,-2.7842060015,-9.393691968499999,0.044759,0.28787,1.8139,1.6666666666775853e-05,-0.00019999999999997797,-0.00029999999999996696,-0.000796253394814983,-0.000363745251567682,-0.0003622811146199306
150100000000.0,-1,0.0373044966,0.0975761675,-0.1232892038,-0.090233,0.027283,0.005627,0.42462794499999995,-2.7715554229999997,-9.397222362499999,0.045156,0.28653,1.814,1.666666666655381e-05,-0.00019999999999997797,-9.999999999998899e-05,0.00039033664762272435,0.000977968608487867,-0.0004837432299956562
150100000000.0,-1,0.06532209565,0.04150174279999999,-0.12720205715,-0.055103,-0.012046,-0.000835,0.42578512969999993,-2.7639062359999995,-9.399477892,0.045268,0.28571,1.814,3.333333333332966e-05,-0.00019999999999997797,-0.00029999999999996696,-0.0009162311890513752,-8.006487332767875e-05,-0.0005408577064908576
150100000000.0,-1,0.06878384309999999,0.03798115545,-0.12601545249999999,-0.032761,-0.04812,-0.010484,0.4223331889,-2.7603758419999997,-9.40065469,0.044895,0.28533,1.814,3.333333333332966e-05,-0.00019999999999997797,-3.333333333332966e-05,0.0013911924832975542,0.0015248274659300787,-0.0004877108471129238
150100000000.0,-1,0.10278349865,0.020790097999999996,-0.11529678404999999,-0.015746,-0.075728,-0.014797,0.41840072224999997,-2.7570415809999997,-9.401831488,0.044473,0.28498,1.8137,3.333333333332966e-05,-0.00019999999999997797,-3.333333333332966e-05,0.0006175877130012442,0.0014463824340729126,-0.0004382313160795903
150100000000.0,-1,0.0663517939,0.006639102049999999,-0.09018195339999999,-0.002993,-0.094891,-0.011646,0.41158510049999997,-2.75566865,-9.4025179535,0.043746,0.28483,1.8136,9.999999999998899e-05,-0.00019999999999997797,-3.333333333332966e-05,0.0004120909615556445,-0.0004883592699058692,-0.0004489892560110009
150100000000.0,-1,0.0756877247,0.0068254284,-0.08983872065,0.004448,-0.10133,-0.005276,0.40224916969999996,-2.755864783,-9.402910219499999,0.042754,0.28485,1.8135,-1.999999999990898e-05,-0.00019999999999997797,-9.999999999998899e-05,-0.00011301189511098153,-0.0004900994599830177,-0.00029434890954585513
150100000000.0,-1,0.0352058735,0.04604222175,-0.0508376736,0.010874,-0.086542,-0.000986,0.39365854429999997,-2.7567473815000003,-9.403008286,0.041841,0.28495,1.8135,-2.0000000000131024e-05,-0.00019999999999997797,-2.4999999999941735e-05,0.000304490363385701,-0.0003885880009883991,-0.0001296861822884382
150100000000.0,-1,-0.053897348399999996,0.01362143685,0.02980240935,0.019501,-0.048376,-0.004089,0.3866958228,-2.7583164455,-9.402812153,0.041102,0.28511,1.8135,-1.999999999990898e-05,-0.00019999999999997797,-2.4999999999941735e-05,0.0004318852618023783,0.0007179247152151458,0.0003272614662182399
150100000000.0,-1,-0.04170768245,-0.0050406181,0.07177487134999999,0.019631,0.00153,-0.012485,0.3848325593,-2.7608661745,-9.4021256875,0.040907,0.28539,1.8134,-2.0000000000131024e-05,-0.00020000000000020002,-2.500000000016378e-05,0.00017999285359926454,-1.5225967654464156e-05,2.2858919724588755e-05
150100000000.0,-1,-0.039638479299999994,-0.04596376855,0.10356803064999999,0.007931,0.042883,-0.015581,0.38754900135,-2.7638081695000003,-9.4011450225,0.0412,0.2857,1.8133,-1.999999999990898e-05,-0.00019999999999997797,-2.4999999999941735e-05,0.0006478339739399153,0.0011078452329322808,0.0005148801407900694
150100000000.0,-1,0.0082964259,-0.095516771,0.08821081674999999,-0.012319,0.055658,-0.011302,0.39332511819999993,-2.765867566,-9.400262424,0.041817,0.28592,1.8131,3.333333333332966e-05,-0.00019999999999997797,-9.999999999998899e-05,-0.00033375688487735644,0.0012659292256973487,0.0005693441991029002
150100000000.0,-1,0.00363826715,-0.09795862685,0.0887305692,-0.030494,0.044017,-0.004951,0.3979930836,-2.7634159035,-9.400850822999999,0.042311,0.28566,1.8131,3.333333333332966e-05,-0.00029999999999996696,-9.999999999998899e-05,0.0001280573521535988,0.0005311197905115694,8.33350910625641e-06
150100000000.0,-1,0.043570945949999995,-0.11548311039999999,0.07348122844999999,-0.041225,0.022795,0.002444,0.40190593695,-2.7628275044999997,-9.400850822999999,0.042726,0.28559,1.8131,3.333333333332966e-05,-0.00029999999999996696,9.999999999998899e-05,0.0008214006318270073,0.0013478891192222342,-5.711857186896374e-05
150100000000.0,-1,0.011866046499999998,-0.08250334645,0.09711525495,-0.039148,0.004694,0.010913,0.40292582855,-2.7616507065,-9.4011450225,0.042834,0.28547,1.8132,-9.999999999998899e-05,-0.00019999999999997797,-3.333333333332966e-05,0.0024804877316427776,0.0019100543949035487,0.00020967166669594306
150100000000.0,-1,-0.01756371015,-0.06926436894999999,0.0701567741,-0.034923,-0.004947,0.021529,0.40169019064999995,-2.7603758419999997,-9.4015372885,0.0427,0.28534,1.8134,9.999999999998899e-05,-0.00039999999999995595,-3.333333333332966e-05,0.001898163061271052,0.0005016279776965948,0.0002222454023175502
150100000000.0,-1,-0.028713871199999998,-0.10461734219999999,0.0850236555,-0.029609,-0.005048,0.032167,0.39967002074999997,-2.7604739085,-9.401635355,0.042485,0.28535,1.8137,9.999999999998899e-05,-0.00029999999999996696,-3.333333333332966e-05,-0.0001108644964134542,-0.0016286284850732802,0.00020601510430878767
150100000000.0,-1,-0.050504247499999995,-0.09070170585,0.06951934185,-0.025334,-0.000832,0.033242,0.397365458,-2.7606700414999996,-9.401635355,0.04224,0.28536,1.8141,-3.333333333332966e-05,-0.000300000000000189,-9.999999999998899e-05,0.0013450702595900754,-9.044391993540124e-05,-0.0005603845583010275
150100000000.0,-1,-0.055427185799999994,-0.05792788155,0.0390696936,-0.028501,0.002458,0.020484,0.39555122775,-2.75959131,-9.402027621,0.042046,0.28525,1.8144,-3.333333333332966e-05,-0.00039999999999995595,-0.00019999999999997797,-0.0005720082533959281,-0.0016911214949062447,-6.704243880685523e-05
150100000000.0,-1,-0.072961476,-0.024124358999999998,0.0294591766,-0.024197,0.002576,0.002403,0.39393313049999995,-2.7579241795,-9.40261602,0.041872,0.28508,1.8145,-3.333333333332966e-05,-0.00029999999999996696,-0.00010000000000021103,0.00021597360002084676,0.00038870720968309236,-0.00043030560577955734
150100000000.0,-1,-0.0788650793,0.01466094175,-0.009688970199999999,-0.013484,0.001648,-0.020997,0.392658266,-2.755864783,-9.4033024855,0.041733,0.28486,1.8144,-9.999999999998899e-05,-0.00029999999999996696,5.0000000000105516e-05,-0.0006947703888495749,0.001886846128664743,-0.0005151106369115227
150100000000.0,-1,-0.0774529217,0.030096608849999998,-0.052230217899999994,0.002572,0.003889,-0.045453,0.39229541994999995,-2.7545899185,-9.4036947515,0.041693,0.28472,1.8141,4.999999999988347e-05,-0.00039999999999995595,5.0000000000105516e-05,-0.0010301786972434779,0.0008440276575543137,-0.0006208617231660413
150100000000.0,-1,-0.04908228325,0.0366572577,-0.032999377249999996,0.017538,0.002888,-0.061406,0.39309956525,-2.7546879849999995,-9.403596684999998,0.041779,0.28473,1.8135,5.0000000000105516e-05,-0.000400000000000178,-1.2499999999970868e-05,0.0013529852979000667,-0.0009947914769612431,-0.0003477771786049577
150100000000.0,-1,0.0037363336499999997,0.00863965865,0.017200864099999998,0.026061,-0.002448,-0.061416,0.39489418219999994,-2.7567473815000003,-9.402910219499999,0.041973,0.28495,1.8129,-9.999999999998899e-05,-0.00029999999999996696,-1.2499999999970868e-05,0.0010742266604810147,0.0009893473819337917,-0.0004401443673662797
150100000000.0,-1,0.047934905199999996,0.020123245799999998,-0.010728475099999999,0.009984,-0.02369,-0.048704,0.3957375541,-2.7574338469999997,-9.4027140865,0.042063,0.28502,1.8123,-4.999999999988347e-05,-0.00029999999999996696,-1.2500000000192912e-05,-0.0004729194315045149,0.0011856882067826646,-0.0003908167009442354
150100000000.0,-1,0.08436660994999999,0.029047297299999997,-0.055270279400000004,-0.015711,-0.052315,-0.036011,0.39431558985,-2.755472517,-9.4033024855,0.04191,0.28481,1.8118,-5.0000000000105516e-05,-0.00029999999999996696,-1.2499999999970868e-05,-0.0007073325002662223,0.0024693156998372157,8.5642290533261e-05
150100000000.0,-1,0.12631945865,0.08059104969999999,-0.0101596894,-0.028575,-0.074573,-0.030747,0.39142262809999995,-2.7510595245,-9.404773483,0.041596,0.28434,1.8114,5.0000000000105516e-05,-0.00029999999999996696,-1.2499999999970868e-05,-0.00039537013807583454,0.0012054837408355112,-0.00029177285732968905
150100000000.0,-1,0.13345869985,0.07820803374999999,-0.009169217749999998,-0.020086,-0.085292,-0.020132,0.38428338689999997,-2.7486078619999996,-9.405754148,0.040834,0.28409,1.8112,4.999999999988347e-05,-0.00029999999999996696,-1.2500000000192912e-05,-0.00024964573413877034,0.001092875788379466,-0.0006686760523925833
150100000000.0,-1,0.11828781229999999,0.12981062605,0.0323227184,-0.004124,-0.094971,-0.010577,0.3786543698,-2.7451755345,-9.406930946,0.040231,0.28372,1.811,4.999999999988347e-05,-0.00029999999999996696,-1.2499999999970868e-05,-0.0010459277074003626,0.0010044108185083278,-0.0005981112432797697
150100000000.0,-1,0.0983018596,0.143373223,0.03072423445,0.010793,-0.10036,-0.007394,0.37170145494999995,-2.7429200049999998,-9.407911611,0.039489,0.28348,1.8108,5.0000000000105516e-05,-0.000300000000000189,-1.2499999999970868e-05,-6.195332561320654e-05,-0.00236035461445816,-0.00065850345617674
150100000000.0,-1,0.10717687784999999,0.14552087935,0.0304398416,0.026808,-0.094066,-0.006312,0.36282643670000003,-2.745077468,-9.407617411499999,0.038549,0.28371,1.8108,9.999999999998899e-05,-0.00029999999999996696,-2.4999999999941735e-05,0.000669112286235285,-0.0006182475639124885,-0.0005035470524135943
150100000000.0,-1,0.04553227595,0.14648193104999999,0.0838076309,0.028972,-0.081341,-0.007347,0.35504976325,-2.7478233299999997,-9.407127079,0.037725,0.284,1.8107,-4.999999999988347e-05,-0.00029999999999996696,-2.4999999999941735e-05,-0.0007708818182530774,0.00038999256680583017,8.924561053370861e-05
150100000000.0,-1,-0.008257199299999999,0.15714175959999999,0.09332988804999999,0.019403,-0.068561,-0.009448,0.34838124125,-2.7467445985,-9.407715477999998,0.037015,0.28389,1.8106,-5.0000000000105516e-05,-0.00019999999999997797,-2.500000000016378e-05,-0.0005151803663503429,0.0010631683610113907,6.761469643834506e-05
150100000000.0,-1,-0.00665871535,0.16027008094999998,0.12560357319999998,0.017301,-0.055811,-0.011547,0.34304642365,-2.7455678005,-9.408205810499998,0.036446,0.28376,1.8105,-3.333333333332966e-05,-0.00019999999999997797,-2.4999999999941735e-05,0.00019867158196373857,0.00096264384665945,-0.0003474627150097248
150100000000.0,-1,-0.019417167,0.16196663139999998,0.11056017209999999,0.026921,-0.046313,-0.010459,0.33843729814999995,-2.7448813349999996,-9.408598076499999,0.035956,0.28369,1.8104,-3.333333333332966e-05,-0.00019999999999997797,-2.4999999999941735e-05,9.576990383064476e-05,0.0006362234262045074,-0.0002076677356483425
150100000000.0,-1,-0.01791674955,0.1689881928,0.046238354749999995,0.032271,-0.041016,-0.012573,0.33439695834999994,-2.7442929359999995,-9.408892276,0.035525,0.28362,1.8102,-3.333333333332966e-05,-0.00029999999999996696,-2.500000000016378e-05,0.0010475367975240069,4.3039182043402846e-05,-0.000503520282908218
150100000000.0,-1,-0.06889171625,0.16436926065000002,0.013356657299999998,0.02913,-0.020799,-0.019974,0.33074888454999996,-2.743508404,-9.409284542,0.035137,0.28355,1.8101,-4.999999999988347e-05,-0.00019999999999997797,-2.4999999999941735e-05,0.0006839358912573701,-0.0006722195823938293,-0.00038073698467673556
150100000000.0,-1,-0.06524364245,0.11627744904999998,0.0235947999,0.021757,0.016395,-0.026274,0.3306998513,-2.7433122709999997,-9.409284542,0.035132,0.28352,1.8099,-5.0000000000105516e-05,-0.00019999999999997797,-2.4999999999941735e-05,0.00019939254485429325,-0.0005981746687857559,-0.00031793778454457244
150100000000.0,-1,-0.0565255306,0.0939869336,-0.10788295665,-0.004861,0.037734,-0.029423,0.3333476468,-2.7407625419999997,-9.4099710075,0.035411,0.28325,1.8096,-6.666666666665932e-05,-0.000300000000000189,3.333333333332966e-05,0.0014128191221298714,-0.0020925629323800266,-0.0006862348633996374
150100000000.0,-1,-0.0617230551,0.09109397185,-0.10722591109999999,-0.035755,0.046438,-0.042176,0.33855497794999995,-2.7379186134999998,-9.410657473,0.03596,0.28295,1.8092,-6.666666666665932e-05,-0.00019999999999997797,3.333333333332966e-05,0.0008568297287095406,-0.00123013258698923,-0.00031827186090761794
150100000000.0,-1,-0.0407564374,0.09070170585,-0.15719079285,-0.038905,0.059256,-0.052785,0.34511562679999996,-2.7338978869999995,-9.4115400715,0.036653,0.28252,1.8087,-6.666666666665932e-05,-9.999999999998899e-05,3.333333333332966e-05,-9.822257450520233e-05,0.0003150046439865939,-0.00018691125637126937
150100000000.0,-1,-0.0375398562,0.10353861069999999,0.022368968649999998,-0.014327,0.069826,-0.061264,0.35238235445,-2.729386828,-9.412618802999999,0.03742,0.28204,1.8081,-9.999999999998899e-05,-0.00019999999999997797,5.0000000000105516e-05,-0.00040242385983879636,0.0010271890329287547,0.0002218682673107708
150100000000.0,-1,-0.044737937299999996,0.10389165009999998,0.02199631595,0.012297,0.05272,-0.057041,0.35958043554999997,-2.729779094,-9.412226536999999,0.038185,0.28208,1.8075,-4.999999999988347e-05,-0.00019999999999997797,4.999999999988347e-05,-0.0020261803993634753,0.0006065147621328038,-0.0002629233948508586
150100000000.0,-1,0.06967624825,0.0419920753,0.06817583079999999,0.03355,0.019721,-0.051792,0.3656115253,-2.7317404239999994,-9.4113439385,0.038829,0.28229,1.8069,-5.0000000000105516e-05,-0.00019999999999997797,-3.333333333332966e-05,-0.0008018177585607522,0.002451369567814332,-0.000418000064799362
150100000000.0,-1,0.09605613674999999,0.0126898051,0.10458792224999998,0.048407,-0.015333,-0.051867,0.36901443285,-2.7362514829999998,-9.4099710075,0.039196,0.28277,1.8063,-0.00010000000000021103,-0.00019999999999997797,-3.333333333332966e-05,8.247682564249681e-05,0.0016378537218777467,-0.0009911338503852257
150100000000.0,-1,0.0991844581,0.0170831843,0.10343073755,0.047245,-0.060898,-0.056225,0.36589591814999994,-2.7406644754999996,-9.4087942095,0.038869,0.28324,1.8057,3.333333333332966e-05,-0.00019999999999997797,-3.333333333332966e-05,-0.0012222897420516854,0.0008891574543765657,-0.0012306968929724355
150100000000.0,-1,0.116503002,0.0016573238499999997,0.06677347985,0.037523,-0.11494,-0.057413,0.35800156489999996,-2.7441948695000002,-9.408009677499999,0.038034,0.28362,1.8051,3.333333333355171e-05,-0.00019999999999997797,9.999999999998899e-05,0.0006742907207951676,0.001756547107193196,-0.0012091541874378747
150100000000.0,-1,0.15080666369999998,0.0023241760499999996,0.027164420499999998,0.033136,-0.16689,-0.056469,0.34898925355,-2.747234931,-9.407519344999999,0.037079,0.28394,1.8043,3.333333333332966e-05,-0.00019999999999997797,5.0000000000105516e-05,-0.00020535762261331136,8.749803249497035e-06,-0.001645761828875214
150100000000.0,-1,0.11903311769999998,0.0408545039,0.0104342756,0.043692,-0.20836,-0.046987,0.33422043865,-2.7500788595,-9.407225145499998,0.035513,0.28424,1.8037,2.4999999999941735e-05,-0.00020000000000020002,5.0000000000105516e-05,-0.0016025038535293357,0.0013736307053875407,-0.0006210312340946683
150100000000.0,-1,0.090417313,0.0648219565,0.0050013915,0.061771,-0.22547,-0.037448,0.3165978886,-2.7538053865,-9.406734813,0.033644,0.28464,1.8032,2.500000000016378e-05,-9.999999999998899e-05,9.999999999998899e-05,-0.002016884700311583,0.0021629035551236075,-0.0004667986582314876
150100000000.0,-1,0.07144144525,0.06573397495,-0.028635417999999996,0.076677,-0.2309,-0.028947,0.2974160812,-2.7589048445,-9.4058522145,0.03161,0.28518,1.8028,2.4999999999941735e-05,-9.999999999998899e-05,9.999999999998899e-05,-0.0011340545111974132,0.0012728735961735627,-0.00011407346968062004
150100000000.0,-1,0.09176082405,0.0734321952,-0.030273128549999997,0.083095,-0.21719,-0.021468,0.2770967024,-2.766652098,-9.404185084,0.029457,0.286,1.8025,2.4999999999941735e-05,-0.00019999999999997797,4.999999999988347e-05,-0.001171597609210151,0.00042243075417469633,-0.00018997664328015973
150100000000.0,-1,0.0426785408,0.0731379957,-0.040207265,0.085301,-0.17382,-0.008605,0.25988603164999996,-2.7744974179999997,-9.402419886999999,0.027633,0.28684,1.8024,1.1111111111183902e-05,-9.999999999998899e-05,5.0000000000105516e-05,-0.0008345210058572361,-2.489745044509384e-05,0.00028845188183623804
150100000000.0,-1,-0.0317343194,0.046444294399999995,-0.00095124505,0.071549,-0.10603,0.009627,0.2472060332,-2.780577541,-9.400948889499999,0.02629,0.28749,1.8025,1.1111111110961858e-05,-5.0000000000105516e-05,9.999999999998899e-05,-0.0004928760477072025,0.0005615853735245757,0.0005166678286246534
150100000000.0,-1,-0.02589936265,0.05098477334999999,-0.00214765635,0.039656,-0.038182,0.029982,0.24137107644999997,-2.7851866664999996,-9.3997720915,0.025673,0.28797,1.8027,1.1111111111183902e-05,-4.999999999988347e-05,4.999999999988347e-05,2.0730975572091914e-05,-0.000653815324022311,0.0006019140220546171
150100000000.0,-1,-0.047081726649999996,0.0788650793,-0.10108694819999998,0.001347,0.015967,0.041795,0.23921361345,-2.7834214695,-9.400360490499999,0.025442,0.28779,1.8032,1.1111111111183902e-05,-9.999999999998899e-05,5.0000000000105516e-05,7.777411745557572e-05,-0.00017874196557432498,0.0007900851076712151
150100000000.0,-1,-0.032685564449999996,0.1000670566,-0.09087822554999998,-0.022043,0.056326,0.046135,0.24142991634999997,-2.7786162109999997,-9.4017334215,0.025674,0.28727,1.8037,1.1111111110961858e-05,-9.999999999998899e-05,9.999999999998899e-05,0.00014356947755322924,-0.000256758529843637,0.0003851533633770915
150100000000.0,-1,-0.03843226135,0.09750752095,-0.09027021325,-0.028387,0.078646,0.042993,0.24717661325,-2.7760664819999996,-9.4023218205,0.026283,0.287,1.8041,1.1111111111183902e-05,-3.333333333332966e-05,0.00019999999999997797,0.00024407446790353227,-0.00026601327866737634,0.00025176113534536304
150100000000.0,-1,0.0755504316,0.11118779770000001,-0.14875707385,-0.01771,0.072329,0.03128,0.25545342584999997,-2.7700844255,-9.403792818,0.027158,0.28637,1.8044,1.1111111111183902e-05,-3.333333333332966e-05,0.00019999999999997797,0.0007196018463400122,0.00029679378672087253,7.882382727737725e-05
150100000000.0,-1,0.0755504316,0.11118779770000001,-0.14875707385,-0.01771,0.072329,0.03128,0.25545342584999997,-2.7700844255,-9.403792818,0.027158,0.28637,1.8044,1.1111111110961858e-05,-3.333333333332966e-05,0.00019999999999997797,0.00011867814355737138,-0.0005077174624148473,6.106311148751375e-05
150100000000.0,-1,0.06840138375,0.08864230934999999,-0.13845028469999998,0.003594,0.046889,0.018464,0.2617002619,-2.7665540315,-9.4046754165,0.027819,0.28599,1.8046,1.1111111111183902e-05,-2.4999999999941735e-05,0.00019999999999997797,-0.00014278389419969395,-5.36899008778402e-05,-7.832425853376845e-05
150100000000.0,-1,0.07967903125,0.04062895095,-0.0025987622499999996,0.072896,0.020165,0.009912,0.2710754193,-2.7718496225,-9.402910219499999,0.028821,0.28655,1.8047,9.999999999998899e-05,-2.500000000016378e-05,0.00019999999999997797,-0.0014295619246748048,-0.00013681403932963576,0.00036015793787205763
150100000000.0,-1,0.09723293475,0.018475728599999998,0.01787752295,0.095252,0.006226,0.018395,0.27416451405,-2.7801852749999996,-9.400262424,0.029158,0.28744,1.8047,0.0001500000000000945,-2.4999999999941735e-05,0.00019999999999997797,-0.0023028117230864953,0.0002031262610382445,0.0002872063757445309
150100000000.0,-1,0.09863528569999999,0.028252958649999996,0.015023787799999999,0.10373,-0.011916,0.028993,0.27276216309999995,-2.7899919249999994,-9.397418495499998,0.029017,0.28848,1.805,0.00014999999999987246,-2.4999999999941735e-05,0.00010000000000021103,-0.003375202100071917,-0.002567551095011167,7.621047748192222e-05
150100000000.0,-1,0.069627215,0.0292826569,0.0902407933,0.10154,-0.033148,0.0332,0.271251939,-2.7997985749999996,-9.394574567,0.028865,0.28953,1.8052,9.999999999998899e-05,-9.999999999998899e-05,9.999999999998899e-05,-0.001484668473443529,0.0006958547083413258,1.9345780401525126e-05
150100000000.0,-1,0.04770935225,0.0487586638,0.15589631505,0.10682,-0.053318,0.033155,0.267133146,-2.8098994244999997,-9.3917306385,0.028436,0.2906,1.8055,0.00019999999999997797,-2.4999999999941735e-05,0.00019999999999997797,-0.0014927985515225117,-0.00011395360167321122,-0.00047099303164699347
150100000000.0,-1,0.05484859345,0.059624432,0.15283664025,0.11852,-0.072429,0.029924,0.2599939048,-2.8206867394999997,-9.3885925105,0.027685,0.29176,1.8058,3.333333333332966e-05,-2.500000000016378e-05,9.999999999998899e-05,-0.0026249556213036596,0.0006777363413481563,-0.0006573880383168723
150100000000.0,-1,0.06644005374999999,0.11166832354999999,0.13153659645,0.13447,-0.11057,0.016014,0.2536391956,-2.830395323,-9.3858466485,0.027016,0.29279,1.8058,3.333333333332966e-05,-2.4999999999941735e-05,9.999999999998899e-05,-0.0024183105431700436,0.0007231153852300665,-0.0009367676157807925
150100000000.0,-1,0.06644005374999999,0.11166832354999999,0.13153659645,0.13447,-0.11057,0.016014,0.2536391956,-2.830395323,-9.3858466485,0.027016,0.29279,1.8058,3.333333333332966e-05,-2.4999999999941735e-05,9.999999999998899e-05,-0.0012097952463269168,0.0003862365528806144,-0.0013383665709508635
150100000000.0,-1,0.026154335549999998,0.07825706699999999,0.11074649844999998,0.14507,-0.16027,-0.008561,0.24035118484999998,-2.842947835,-9.382414321,0.025611,0.29412,1.8058,-9.999999999998899e-05,-4.999999999988347e-05,0.00029999999999996696,0.00027015621717385585,0.003448777045528484,-0.0009112354160526748
150100000000.0,-1,0.03437230825,0.0688819096,0.2358303192,0.13976,-0.19169,-0.057562,0.208489379,-2.8705045215,-9.374765134,0.022235,0.29706,1.8048,9.999999999998899e-05,-5.0000000000105516e-05,-1.999999999990898e-05,-0.0011507501054199287,9.528415377824118e-06,-0.001190377145865118
150100000000.0,-1,-0.025242317099999998,-0.106892485,0.2108037484,0.11416,-0.1937,-0.058637,0.1911904484,-2.8859990284999997,-9.370450208,0.020401,0.29871,1.8042,9.999999999998899e-05,-5.0000000000105516e-05,-2.0000000000131024e-05,-0.00030108400566714044,0.0013368109819644758,-0.00029105686541897047
150100000000.0,-1,-0.00969877685,-0.09933155785,0.20877377184999998,0.070422,-0.17352,-0.039457,0.17564690814999998,-2.8935501489999997,-9.3683908115,0.018747,0.29952,1.8037,9.999999999998899e-05,-4.999999999988347e-05,-1.999999999990898e-05,-0.0006407294203190639,-0.0006118159297088255,0.0003309389762574111
150100000000.0,-1,-0.045600922499999995,-0.07820803374999999,0.19886905534999996,0.024582,-0.13326,-0.010658,0.16111345284999998,-2.9003167375,-9.366527547999999,0.0172,0.30024,1.8036,9.999999999998899e-05,-9.999999999998899e-05,-2.0000000000131024e-05,0.0005878024265969506,-0.0001204279752977655,0.0008228631944259823
150100000000.0,-1,-0.14516783995,0.032156005349999996,0.18606157045,-0.016915,-0.055918,0.021417,0.14981619205,-2.9002186709999997,-9.3668217475,0.015993,0.30023,1.8038,4.999999999988347e-05,-5.0000000000105516e-05,-1.999999999990898e-05,0.0001985032969994971,-0.0011033349076483567,0.0007984863724235514
150100000000.0,-1,-0.14487364044999998,0.0283412185,0.18723836844999997,-0.049844,0.030973,0.048197,0.14951218589999998,-2.8963940774999997,-9.367998545499999,0.015959,0.29983,1.8043,5.0000000000105516e-05,-4.999999999988347e-05,3.333333333332966e-05,0.0006437004858428352,-0.0016654893447483055,0.0006104119508674594
150100000000.0,-1,-0.13752845959999999,0.07027445389999999,0.11403172619999999,-0.07317,0.10311,0.056864,0.15264050725,-2.8891371564999995,-9.370156008499999,0.016289,0.29905,1.805,9.999999999998899e-05,2.4999999999941735e-05,3.333333333332966e-05,0.0005203998105743346,-0.001636144449371324,0.000734852169474387
150100000000.0,-1,-0.06456698359999999,0.17786321105,0.0157494799,-0.0848,0.14351,0.049506,0.16243735059999997,-2.8773691765,-9.373588336,0.017327,0.29779,1.8056,-9.999999999998899e-05,2.4999999999941735e-05,3.333333333332966e-05,0.001694629675043191,0.00017340979528790434,0.0005949095395899884
150100000000.0,-1,-0.077080269,0.1695373652,0.01807365595,-0.090109,0.14258,0.035675,0.174950636,-2.869033524,-9.375941932,0.018657,0.2969,1.806,9.999999999998899e-05,2.500000000016378e-05,-0.00019999999999997797,-0.0012895624963006336,-0.002357204786668232,0.0004990609035679383
150100000000.0,-1,-0.03861858769999999,0.15688678669999997,-0.07672722959999999,-0.086944,0.12036,0.027116,0.1852672318,-2.8563829454999996,-9.379668459,0.019749,0.29555,1.8063,9.999999999998899e-05,2.4999999999941735e-05,5.0000000000105516e-05,-0.0010373368979189612,-0.0013184638041607855,0.0002173586455309212
150100000000.0,-1,0.01726951065,0.17486237615,-0.10731417095,-0.066762,0.078945,0.023836,0.19356365769999997,-2.844713032,-9.383002719999999,0.020627,0.29431,1.8066,5.0000000000105516e-05,9.999999999998899e-05,4.999999999988347e-05,-0.0005498374294647945,0.00047589406067438667,0.00025623224093852814
150100000000.0,-1,0.01493552795,0.17078280975,-0.10613737294999999,-0.0349,0.016241,0.024767,0.1958976404,-2.8405942389999996,-9.384179518,0.020872,0.29387,1.8069,4.999999999988347e-05,9.999999999998899e-05,4.999999999988347e-05,-0.0016577085586350626,-0.0003331429833828281,5.5725557521354996e-05
150100000000.0,-1,0.008276812599999999,0.20109516489999998,-0.12796697585,0.008713,-0.041191,0.023584,0.19269086584999998,-2.834906382,-9.385944714999999,0.020526,0.29326,1.8071,-1.999999999990898e-05,9.999999999998899e-05,5.0000000000105516e-05,-0.0013783681460525221,0.0004496079708091738,0.00012249127932778547
150100000000.0,-1,0.033430869849999996,0.1910923819,-0.06565552175,0.054511,-0.076362,0.022453,0.18563007785,-2.8391232415,-9.3848659835,0.019778,0.29371,1.8073,-2.0000000000131024e-05,0.00019999999999997797,9.999999999998899e-05,-0.0014845664495856115,-0.00043384466064622096,0.0002780985587449575
150100000000.0,-1,-0.00120621795,0.21406936285,-0.0206920315,0.084293,-0.089297,0.024565,0.17643144014999998,-2.841378771,-9.384375651,0.018798,0.29396,1.8076,-1.999999999990898e-05,0.00019999999999997797,9.999999999998899e-05,-0.0007709567269137407,-0.0012371701296116644,0.00019543422302321922
150100000000.0,-1,-0.12426006214999999,0.1489041736,0.09802727339999999,0.092872,-0.057614,0.037403,0.16451636039999998,-2.8434381674999996,-9.383983384999999,0.01753,0.29417,1.808,-2.0000000000131024e-05,9.999999999998899e-05,9.999999999998899e-05,2.120475359773666e-05,-0.0017878178511354648,0.0007698189361354385
150100000000.0,-1,-0.1227988713,0.1564945207,0.09574232395,0.072755,0.018749,0.047144,0.16304536289999996,-2.8509892879999996,-9.381629789,0.017378,0.29498,1.8085,-1.999999999990898e-05,0.00019999999999997797,0.0001500000000000945,0.0004925216801323073,-0.0015137241243607935,0.0014348400641177456
150100000000.0,-1,-0.1426279176,0.14379490895,0.13034018515,0.031352,0.11642,0.0548,0.16672285664999997,-2.8526564184999996,-9.3811394565,0.01777,0.29516,1.8092,-0.00019999999999997797,9.999999999998899e-05,0.00014999999999987246,0.0048753241018793525,0.0002617571481466907,0.0009843819296157796
150100000000.0,-1,-0.15422918455,0.09365350749999998,0.17193018779999997,-0.022813,0.22165,0.050769,0.17547038845,-2.849224091,-9.3819239885,0.018701,0.29479,1.81,-9.999999999998899e-05,0.00019999999999997797,-9.999999999998899e-05,-0.00016775437383725889,-0.0033571451416001263,0.0010531168273787417
150100000000.0,-1,-0.17949111494999997,0.0879460372,0.17315601904999997,-0.073825,0.2962,0.036033,0.20073231885,-2.8435362339999997,-9.383198853,0.02139,0.29418,1.8104,-0.0004999999999999449,0.00019999999999997797,0.0009000000000001229,0.011243717720750945,0.007488054836700453,0.00116032660291579
150100000000.0,-1,-0.1019499334,0.05511337299999999,0.12218105234999999,-0.10898,0.30809,0.025414,0.2272004672,-2.8334353845,-9.3856505155,0.024202,0.29311,1.8108,-9.999999999998899e-05,9.999999999998899e-05,2.4999999999941735e-05,0.0007518266904733562,-0.001411429767056216,0.0004053342175858454
150100000000.0,-1,-0.1019499334,0.05511337299999999,0.12218105234999999,-0.10898,0.30809,0.025414,0.2272004672,-2.8334353845,-9.3856505155,0.024202,0.29311,1.8108,-9.999999999998899e-05,0.00020000000000020002,2.4999999999941735e-05,0.0014477830143965198,-0.00025630088708394894,-0.00024139808057514756
150100000000.0,-1,0.04551266265,0.050210048,0.0797280645,-0.088956,0.17566,-0.0036,0.2735074685,-2.8117626879999995,-9.3909461065,0.029117,0.2908,1.811,-0.00019999999999997797,0.00029999999999996696,2.500000000016378e-05,0.0001075129528579355,0.0011080884188208184,-0.0004841975476416599
150100000000.0,-1,0.06426297745,0.05935965245,0.07751176159999999,-0.11546,0.26366,0.013611,0.2547571537,-2.8208828725,-9.388690577,0.027128,0.29178,1.8109,-0.00019999999999997797,0.00019999999999997797,2.4999999999941735e-05,0.0006367546418227232,0.0014843736569625232,-0.0017426840321163178
150100000000.0,-1,0.1044996624,0.09588942369999999,0.0372456567,0.032253,-0.04928,-0.051943,0.2844124633,-2.806074831,-9.3923190375,0.030272,0.2902,1.8102,-0.000300000000000189,0.00029999999999996696,0.00019999999999997797,-0.002300238544772182,0.0010119839144799858,-0.0017600880252597872
150100000000.0,-1,0.058624153699999994,0.1416276393,0.0749031927,0.10575,-0.12784,-0.079757,0.27596893764999997,-2.814116284,-9.390161574499999,0.02938,0.29106,1.8094,-9.999999999998899e-05,0.00019999999999997797,9.999999999998899e-05,-0.0029341853062777035,-0.00016522800725837783,-0.0013500573912266778
150100000000.0,-1,-0.00787473995,0.13879351745,0.10321499124999998,0.16763,-0.15646,-0.11384,0.26420095764999996,-2.8261784635,-9.38692538,0.028138,0.29233,1.8083,-0.00029999999999996696,0.00019999999999997797,0.00019999999999997797,-0.0026618197178481795,-0.00010894383292958665,-0.0015692127945511891
150100000000.0,-1,-0.23250586485,0.17756901155000002,0.01572005995,0.19974,-0.13409,-0.14463,0.2456761958,-2.837063845,-9.3840814515,0.026174,0.2935,1.8071,-0.00039999999999995595,0.00029999999999996696,0.00019999999999997797,-0.001416292288507981,-0.0016083401859281476,-0.0014206774082593937
150100000000.0,-1,-0.2564635108,0.1038524235,0.0479152919,0.19566,-0.065029,-0.16043,0.23611471205,-2.853539017,-9.379276192999999,0.025168,0.29526,1.8056,0.00019999999999997797,0.00029999999999996696,-0.0008999999999999009,-0.013356709616226592,-0.01332937223475561,-0.0006483171340705418
150100000000.0,-1,-0.26060191709999997,0.11998436274999999,0.04288448045,0.16703,0.017747,-0.15281,0.24025311835,-2.8697199894999996,-9.3742748015,0.025623,0.29698,1.8039,-0.00039999999999995595,0.000300000000000189,0.0004999999999999449,-0.0003651861249449606,-0.0012191137668333685,0.0002164204569203576
150100000000.0,-1,-0.13586132909999998,-0.00681562175,0.14738414285,0.12766,0.094009,-0.12498,0.24225367494999997,-2.8840376985,-9.369861809,0.025848,0.2985,1.8027,-0.0007999999999999119,0.00039999999999995595,0.0004999999999999449,0.011202026168588897,0.012638009739251999,-0.000146916664440902
150100000000.0,-1,-0.15032613784999999,0.00169655045,0.1443735013,0.081799,0.12894,-0.091938,0.2567184837,-2.892569484,-9.3668217475,0.027401,0.29941,1.8017,-0.00020000000000020002,0.00019999999999997797,-9.999999999998899e-05,0.0005345876270744787,-0.002350891424147905,-0.0006674531857585597
150100000000.0,-1,-0.0071000146,-0.06685193304999999,0.173381572,0.037981,0.11831,-0.065381,0.2706047001,-2.8995322055,-9.3642720185,0.02889,0.30016,1.8009,-0.00019999999999997797,0.00019999999999997797,-9.999999999998899e-05,0.0007024037176865949,0.0006629111888116768,-0.0008806324275967281
150100000000.0,-1,0.11192329644999999,-0.0999886034,0.26567195514999997,0.001581,0.07276,-0.052729,0.28326508525,-2.9043374639999997,-9.362408754999999,0.030247,0.30066,1.8002,-0.00029999999999996696,0.00019999999999997797,-9.999999999998899e-05,0.0008666001221658837,0.001841327482962729,-0.0006992638379599986
150100000000.0,-1,0.18910163195000002,-0.10843212905,0.3674944021,-0.026318,0.00182,-0.052897,0.286746446,-2.9022780674999997,-9.362997154,0.030616,0.30045,1.7997,-9.999999999998899e-05,0.00019999999999997797,-0.00019999999999997797,0.0008981027882232206,0.0017135697013748175,-0.0016437404617292845
150100000000.0,-1,0.23960587944999998,-0.08672020594999999,0.3696910917,-0.043575,-0.087142,-0.059485,0.28846260975,-2.9027684,-9.362801021,0.0308,0.3005,1.7989,-0.00019999999999997797,9.999999999998899e-05,-9.999999999998899e-05,-0.0018720799623931361,-0.0004904328394075286,-0.0013044612374047831
150100000000.0,-1,0.1308991642,-0.0089044382,0.20479227194999997,-0.04053,-0.16239,-0.0671,0.27671424305,-2.8985515404999997,-9.364370085,0.02954,0.30005,1.7982,-0.00029999999999996696,0.00029999999999996696,-9.999999999998899e-05,0.00016751383345670057,0.002573708657504614,-0.0009895561987047219
150100000000.0,-1,0.14575623894999998,-0.01034601575,0.2056650638,-0.002155,-0.18054,-0.071386,0.2618571683,-2.897080543,-9.3652526835,0.027953,0.2999,1.7975,-0.00019999999999997797,0.00020000000000020002,-9.999999999998899e-05,-0.002715713596621372,0.0004911124623305785,0.0001975429492419023
150100000000.0,-1,0.0059232166000000004,0.019113160849999998,0.22787712605,0.0438,-0.14152,-0.067031,0.24936349619999998,-2.8999244714999994,-9.364762351,0.026621,0.3002,1.7968,-9.999999999998899e-05,9.999999999998899e-05,-9.999999999998899e-05,-0.0010063351046577518,-0.0025636513238422864,-0.0004952761910902159
150100000000.0,-1,-0.1243875486,-0.010463695549999999,0.12454445499999998,0.066341,-0.067497,-0.050902,0.23796816889999997,-2.907867858,-9.362604888,0.025411,0.30105,1.7963,-9.999999999998899e-05,0.00019999999999997797,-9.999999999998899e-05,0.0008414452183331811,-0.0026899074600281736,-1.0946553737095632e-05
150100000000.0,-1,-0.12485826779999999,-0.005021004799999999,0.1228380979,0.054735,0.01505,-0.021999,0.23842908145,-2.913359582,-9.360839691,0.025465,0.30163,1.796,-9.999999999998899e-05,0.00019999999999997797,-9.999999999998899e-05,0.00022664493038671019,-0.0007989761633184767,0.0009307928444286101
150100000000.0,-1,-0.07794325419999999,-0.03447037475,0.0761388306,0.012104,0.067956,0.016402,0.2419496688,-2.9169880425,-9.359662893,0.025844,0.30202,1.7961,-0.00019999999999997797,0.00029999999999996696,-0.00020000000000020002,0.0005803123879824512,0.002066348648646965,0.0014329091453654935
150100000000.0,-1,-0.07794325419999999,-0.03447037475,0.0761388306,0.012104,0.067956,0.016402,0.2419496688,-2.9169880425,-9.359662893,0.025844,0.30202,1.7961,-0.00020000000000020002,0.00029999999999996696,-9.999999999998899e-05,0.0018437910260062362,0.0028319947677168944,0.0008508569401507599
150100000000.0,-1,0.11095243809999998,-0.042276468149999996,-0.08376840429999999,-0.046655,0.065782,0.054675,0.24802979179999998,-2.915320912,-9.360055159,0.026493,0.30184,1.7965,-0.00014999999999987246,0.00019999999999997797,-9.999999999998899e-05,0.0013182241358697944,0.00015193339832975106,9.529065913106705e-05
150100000000.0,-1,0.1308991642,-0.0568001168,-0.0013631243499999997,-0.10024,-0.017982,0.081064,0.24633324134999998,-2.898257341,-9.36535075,0.026296,0.30002,1.7982,-0.0001500000000000945,0.00019999999999997797,-9.999999999998899e-05,0.0011450921985652895,0.0019857059128642884,-0.0004168250154324149
150100000000.0,-1,0.0696076017,0.00469738535,0.061821121599999994,-0.074672,-0.050813,0.061849,0.24433268474999997,-2.8910004199999997,-9.3676062795,0.026076,0.29925,1.7988,-9.999999999998899e-05,0.00019999999999997797,-9.999999999998899e-05,-0.0003536275150178292,-0.000427614728043757,-0.00041313403256515446
150100000000.0,-1,0.075903471,0.00044129925,0.06329211909999999,-0.03621,-0.054969,0.029939,0.23803681544999997,-2.8867835605,-9.369077276999999,0.025401,0.2988,1.7992,-0.00019999999999997797,0.00019999999999997797,-0.00019999999999997797,0.0006842535491990431,-0.000382812371783503,-0.0005868332230675455
150100000000.0,-1,0.038775494099999995,-0.018436501999999997,0.16374163505,-0.00195,-0.029414,-0.004007,0.2353596,-2.8873719595000003,-9.3689792105,0.025116,0.29886,1.7992,-0.00029999999999996696,0.000300000000000189,-9.999999999998899e-05,0.0009179604783581263,0.0011005592230468597,-0.00016624537718124
150100000000.0,-1,0.08293483904999999,-0.09081938565,0.10029260955,0.003496,-0.003783,-0.03054,0.23818391519999998,-2.8929617499999996,-9.3672140135,0.025422,0.29945,1.7989,-9.999999999998899e-05,9.999999999998899e-05,-0.00019999999999997797,0.0004880583161456231,-0.0007660511177562945,-0.0005937639271985234
150100000000.0,-1,0.08274851269999998,-0.09218251,0.10070448885,-0.021052,-0.013189,-0.035886,0.23837024154999997,-2.891588819,-9.3676062795,0.025441,0.29931,1.7985,-9.999999999998899e-05,0.00019999999999997797,-0.00019999999999997797,-0.00017680796290114875,0.0005581580516373918,-0.00015706261263770394
150100000000.0,-1,0.16203527794999997,-0.1551804296,0.029214010349999996,-0.057389,-0.038519,-0.032762,0.24003737204999998,-2.890412021,-9.367998545499999,0.025618,0.29918,1.798,-9.999999999998899e-05,0.00019999999999997797,-9.999999999998899e-05,0.00048229222668433325,0.0003223893247079612,-0.00017836058999808058
150100000000.0,-1,0.08719092514999999,-0.079826131,-0.0815521014,-0.091555,-0.046897,-0.028535,0.24141030305,-2.885508696,-9.3693714765,0.025761,0.29866,1.7976,-0.00019999999999997797,0.00019999999999997797,-9.999999999998899e-05,0.0011946601871120066,-8.358149498288725e-05,-0.00023002961960427726
150100000000.0,-1,0.08909341524999999,-0.08947587459999999,-0.07854145985,-0.10536,-0.02135,-0.0338,0.23950781294999998,-2.875898179,-9.372411538,0.025549,0.29763,1.7973,-9.999999999998899e-05,0.00019999999999997797,-0.00019999999999997797,0.0020576717769623665,-0.0011910425396464142,-0.0002419576380295052
150100000000.0,-1,0.05069057385,-0.00932612415,-0.05938907239999999,-0.10631,0.024303,-0.040079,0.24289110719999996,-2.865306997,-9.375549666,0.025902,0.29651,1.7969,-9.999999999998899e-05,0.00019999999999997797,-4.999999999988347e-05,0.0011813349023661601,-0.000773097664781508,1.6688826318389527e-05
150100000000.0,-1,0.0609581364,0.10060642235,-0.19513272169999998,-0.11153,0.065771,-0.051687,0.2519328385,-2.8499105565,-9.380060725,0.026852,0.29486,1.7963,-9.999999999998899e-05,0.00019999999999997797,-5.0000000000105516e-05,0.0007526819364520043,-0.0015975164260517705,-0.00031808426381600696
150100000000.0,-1,0.05149471914999999,0.0897504608,-0.1920926602,-0.11466,0.087057,-0.06015,0.26139625575,-2.8390251749999997,-9.3831007865,0.027851,0.29371,1.7958,-0.00019999999999997797,0.00029999999999996696,5.0000000000105516e-05,0.0014518482108699104,-0.0015713697128623139,-5.447681260914439e-05
150100000000.0,-1,-0.014709975,0.1377834325,-0.24397964534999997,-0.1136,0.087029,-0.056958,0.27104599935,-2.8236287345,-9.3874157125,0.028865,0.29206,1.7952,-0.00010000000000021103,0.000300000000000189,4.999999999988347e-05,-0.0003144030395901276,-0.00213364535827143,0.0001475499290911758
150100000000.0,-1,-0.10186167355,0.22843610509999998,-0.1719105745,-0.083756,0.086828,-0.046314,0.27679269624999997,-2.8032309024999997,-9.393397769,0.029458,0.2899,1.7948,-9.999999999998899e-05,0.00029999999999996696,9.999999999998899e-05,-0.0012289037020765115,-0.0023151198757169755,6.101269978191215e-05
150100000000.0,-1,-0.1293693268,0.19035688315,-0.11054055880000001,-0.017612,0.10969,-0.019653,0.28454975639999996,-2.7953855825000002,-9.3954571655,0.030276,0.28906,1.7946,-0.00029999999999996696,0.0004999999999999449,0.00029999999999996696,-0.002007059301379732,0.00012088070494775671,0.0012793743498750315
150100000000.0,-1,-0.14102943364999998,0.1945247094,-0.11213904275,0.065587,0.12928,0.01126,0.2962000566,-2.799602442,-9.3938881015,0.031521,0.2895,1.7947,-0.00029999999999996696,0.0004999999999999449,0.00029999999999996696,-0.0020302550981451395,0.001446453064623654,0.0011213309490054196
150100000000.0,-1,0.04023668495,0.04398282525,-0.019436780299999998,0.13702,0.13092,0.03681,0.3072227312,-2.807643895,-9.391142239499999,0.032703,0.29036,1.7949,-9.999999999998899e-05,0.0004999999999999449,0.00029999999999996696,-0.0011968590786074484,0.0006226040904055985,0.0003986756868427782
150100000000.0,-1,0.03209716545,0.0598009517,-0.024447978449999998,0.17316,0.089259,0.057999,0.31536225069999996,-2.8234326015,-9.386140847999998,0.033586,0.29205,1.7954,-0.00019999999999997797,0.000400000000000178,0.00019999999999997797,-0.0008223830439929025,0.0011213270862753255,6.661377567739046e-05
150100000000.0,-1,0.12628023205,-0.02266316815,-0.0529951366,0.17614,0.003343,0.061024,0.3187357383,-2.840790372,-9.3807471905,0.033965,0.29389,1.7959,-9.999999999998899e-05,0.00039999999999995595,9.999999999998899e-05,-0.0006890354170341895,0.0006568017496291212,-0.0005418675511419252
150100000000.0,-1,0.17643144014999998,-0.07718814214999999,-0.058702606899999996,0.15571,-0.077067,0.047009,0.31528379749999996,-2.8575597434999995,-9.375843865499998,0.033614,0.29567,1.7963,-0.00029999999999996696,0.00039999999999995595,9.999999999998899e-05,0.00021860884383645418,0.0007524361345405683,-0.0011092649851447145
150100000000.0,-1,0.1021460664,-0.0318519992,-0.004059953099999999,0.12261,-0.12016,0.012865,0.3041238298,-2.8699161225,-9.372411538,0.032438,0.297,1.7965,-9.999999999998899e-05,0.00039999999999995595,9.999999999998899e-05,8.799919982394044e-05,-0.0005367809647984778,-0.00042450081815602336
150100000000.0,-1,0.0320285189,-0.00965955025,-0.0031577413,0.087484,-0.11445,-0.022233,0.2938856872,-2.87923244,-9.369861809,0.031355,0.29799,1.7963,-0.00029999999999996696,0.0004999999999999449,9.999999999998899e-05,-0.0009306945645385922,0.00052276574259702,0.000169863331252601
150100000000.0,-1,-0.060624710299999995,0.010551955399999998,0.043776885599999996,0.059896,-0.065408,-0.042339,0.28612862705,-2.885508696,-9.368194678499998,0.030533,0.29866,1.7959,-9.999999999998899e-05,0.000300000000000189,0.00020000000000020002,-0.0013263040365153467,-0.0008729352756584596,0.0005465970653878299
150100000000.0,-1,-0.0739225277,-0.00150041745,0.1162872557,0.041905,0.004608,-0.035803,0.285961914,-2.8896274889999995,-9.366919814,0.03052,0.2991,1.7955,-0.00020000000000020002,0.0004999999999999449,9.999999999998899e-05,-0.0019750324966838484,-0.0010958137611907226,0.001154251428975725
150100000000.0,-1,-0.05227925115,-0.020005566,0.1552981094,0.037739,0.073347,-0.007993,0.29079659244999995,-2.8946288804999996,-9.365154617,0.031041,0.29963,1.7954,-9.999999999998899e-05,0.00039999999999995595,9.999999999998899e-05,0.0006182585352704217,-0.0016729685205136846,-1.6129030108766318e-05
150100000000.0,-1,0.0223787753,-0.05427000109999999,0.22060059175,0.03458,0.11768,0.02189,0.3014368077,-2.9006109369999997,-9.362997154,0.032183,0.30027,1.7955,-9.999999999998899e-05,0.00029999999999996696,9.999999999998899e-05,0.0009778345815076306,-0.0015148267653577463,-0.00041772596845186805
150100000000.0,-1,0.07883565934999999,-0.031038047249999996,0.1762647271,0.020687,0.11659,0.03252,0.31172398355000003,-2.9030625995,-9.361918422499999,0.033285,0.30053,1.7958,-9.999999999998899e-05,0.00039999999999995595,9.999999999998899e-05,0.00014335411369137407,0.0006936043384653257,0.00032011541510482133
150100000000.0,-1,0.13814627855,-0.0109638347,0.16005433465,-0.00178,0.076488,0.018596,0.32288395125,-2.904925863,-9.3609377575,0.034479,0.30073,1.7959,-9.999999999998899e-05,0.000300000000000189,5.0000000000105516e-05,-0.0009278106959582644,-0.002038020110413097,-0.0011501061422748288
150100000000.0,-1,0.19813355659999998,0.014288289049999998,0.10531361435,-0.02857,0.003599,-0.004977,0.32978783284999996,-2.9030625995,-9.3613300235,0.035214,0.30053,1.7958,-0.00019999999999997797,0.0004999999999999449,4.999999999988347e-05,0.0002866151037800302,0.002861657162707143,-0.0001909144365086074
150100000000.0,-1,0.21777627655,0.015984839499999997,0.05730025595,-0.042587,-0.076813,-0.022182,0.32496296105,-2.899238006,-9.3627029545,0.034694,0.30012,1.7956,-4.999999999988347e-05,0.00039999999999995595,9.999999999998899e-05,-0.00031498743586305666,-0.00020920454459161242,-0.000699863164832476
150100000000.0,-1,0.17117507574999996,0.00779628675,0.0910449386,-0.029888,-0.12246,-0.022282,0.3187357383,-2.8962960109999996,-9.363781686,0.034027,0.29981,1.7953,-5.0000000000105516e-05,0.00039999999999995595,9.999999999998899e-05,-0.0013882709087640888,0.0005037199507385015,0.0005049792674949177
150100000000.0,-1,0.10807908964999999,0.0299298958,0.13806782534999998,0.006385,-0.1142,-0.012681,0.3103020193,-2.8960998780000002,-9.364173952,0.033125,0.29979,1.795,-0.00019999999999997797,0.0004999999999999449,9.999999999998899e-05,-0.0017209888403809104,0.0019351480080604944,0.0009318228220148994
150100000000.0,-1,0.06897997609999999,0.08266025285,0.20857763885,0.064068,-0.066841,0.005524,0.30272147885,-2.9006109369999997,-9.362997154,0.032321,0.30028,1.795,-0.0008999999999999009,0.0008000000000001339,0.00039999999999995595,-0.005310161545885372,0.01451636984652871,0.00403586718868558
150100000000.0,-1,0.01630845895,0.0341467553,0.27039876045,0.10897,-0.002531,0.032273,0.30076995549999996,-2.9113982519999997,-9.359662893,0.032124,0.30142,1.7952,-0.00010000000000021103,0.0004999999999999449,0.00019999999999997797,-0.0011000169872855126,0.001630478660239909,0.0010613952803113502
150100000000.0,-1,0.0103362091,-0.005452497399999999,0.30446706255,0.12073,0.051354,0.059017,0.30344717094999996,-2.9252256285,-9.355249900499999,0.032425,0.3029,1.7957,0.0009000000000001229,0.00019999999999997797,-0.00039999999999995595,0.0040864328129433525,-0.01654882381331002,-0.0017626677660701334
150100000000.0,-1,0.07995361745,-0.0593106192,0.2739193478,0.098314,0.065054,0.082443,0.3071638913,-2.9354245444999996,-9.352013706,0.032833,0.30399,1.7965,4.999999999988347e-05,0.00039999999999995595,-9.999999999998899e-05,0.0004606243717111269,-0.0013539279622425404,0.00021896486774428126
150100000000.0,-1,0.11302164125,-0.10649041235,0.28167640795,0.053468,0.051416,0.086655,0.31285174829999995,-2.9463099259999996,-9.3483852455,0.033453,0.30515,1.7973,5.0000000000105516e-05,0.00019999999999997797,9.999999999998899e-05,0.007056494177636319,-0.0069189582208024625,-0.0012760317261487214
150100000000.0,-1,0.10309731144999999,-0.09773307389999998,0.2664662938,0.00224,0.031568,0.073833,0.31662730855,-2.9518997165,-9.346521982,0.033864,0.30575,1.798,-9.999999999998899e-05,0.000400000000000178,-9.999999999998899e-05,0.0018964643365342315,0.0007107538449264705,0.0005914145312403002
150100000000.0,-1,0.10826541599999999,-0.1136002336,0.34875389394999995,-0.037218,0.021273,0.053589,0.31700976789999996,-2.949448054,-9.3472084475,0.033902,0.30549,1.7987,0.00029999999999996696,0.00029999999999996696,-9.999999999998899e-05,0.0024144970508272467,0.00021748023966239316,0.0008528120011408458
150100000000.0,-1,0.08615142024999999,-0.15001232504999998,0.36303237635,-0.065979,0.021548,0.032308,0.32026557569999997,-2.94984032,-9.3470123145,0.03425,0.30554,1.799,0.00029999999999996696,0.0017000000000000348,-0.00019999999999997797,-0.008349639315582524,0.008155386536510933,-0.020166649408159154
150100000000.0,-1,0.03229329845,-0.16193721144999998,0.33488729084999996,-0.091527,0.035525,0.020633,0.3235409968,-2.9476828569999998,-9.347600713499999,0.034599,0.3053,1.7992,9.999999999998899e-05,0.00029999999999996696,-0.00029999999999996696,-0.0007063584623560604,-0.0007012618562802775,-0.00019899644418244766
150100000000.0,-1,0.04054069109999999,-0.1916611676,0.31750990705,-0.10214,0.061019,0.020688,0.32921904714999994,-2.9447408619999997,-9.348287179,0.035202,0.30499,1.7994,-0.0002500000000000835,0.00029999999999996696,-0.00029999999999996696,0.0001975264110631314,-0.0018572776163308102,0.0009909802915165217
150100000000.0,-1,0.04570879565,-0.18560065789999997,0.31019414614999996,-0.1053,0.081157,0.023924,0.3372114669,-2.9409162684999997,-9.3491697775,0.036053,0.30458,1.7997,-0.00024999999999986144,-0.0013000000000000789,-9.999999999998899e-05,0.010601353544645697,-0.008195448878726364,0.020785195470177195
150100000000.0,-1,0.0376967626,-0.167693715,0.2205515585,-0.10104,0.078988,0.028175,0.34507640019999997,-2.9362090765,-9.3503465755,0.036888,0.30408,1.7999,-4.999999999988347e-05,0.000400000000000178,-0.000400000000000178,-0.005500127425029255,0.006695529549945789,0.0015461695309978568
150100000000.0,-1,0.06258604029999999,-0.15359175229999997,0.2178841497,-0.078702,0.055512,0.035573,0.35161743575,-2.932972882,-9.351131107499999,0.037583,0.30373,1.8003,-5.0000000000105516e-05,0.00029999999999996696,-9.999999999998899e-05,-0.001975365964444642,0.0032775441299439656,0.0008898451507556443
150100000000.0,-1,0.0612327226,-0.15874024355,0.19696656524999998,-0.038283,0.013881,0.050381,0.3541573581,-2.9330709485,-9.351033040999999,0.037856,0.30374,1.8007,0.00019999999999997797,0.00019999999999997797,-0.00019999999999997797,-0.000583535778447275,0.000715424387121244,0.00033874175425453734
150100000000.0,-1,0.08060085635,-0.15162061565,0.23436912834999998,0.008513,-0.038381,0.065166,0.35185279534999997,-2.9376800739999998,-9.34966011,0.037615,0.30423,1.8013,0.00019999999999997797,3.333333333332966e-05,9.999999999998899e-05,0.008261208587645286,-0.006232133196431455,-0.0012166512471420976
150100000000.0,-1,0.07434421364999999,-0.17397977765,0.29379742735,0.051076,-0.083139,0.071458,0.34479200735,-2.9474867239999996,-9.346914248,0.036871,0.30528,1.802,0.00029999999999996696,3.333333333332966e-05,-0.00039999999999995595,-0.0017233819915507542,-0.00016805506081829513,-0.00013006477992008603
150100000000.0,-1,0.039403119699999996,-0.20900913144999997,0.3979930836,0.072357,-0.11499,0.06501,0.33365165294999993,-2.9613141005,-9.342893521499999,0.035696,0.30676,1.8026,9.999999999998899e-05,3.333333333332966e-05,-0.00019999999999997797,0.0019275977830726654,0.001790887754459236,-0.00021964408508343136
150100000000.0,-1,0.00644296905,-0.2430480136,0.39590426714999993,0.055292,-0.12858,0.047956,0.3203636422,-2.9750434104999997,-9.3389708615,0.034291,0.30823,1.8031,9.999999999998899e-05,9.999999999998899e-05,-0.0005999999999999339,-0.005856166676361629,0.006798262707572,0.0007578738276816793
150100000000.0,-1,0.0006276255999999999,-0.29146344465,0.38802952719999995,0.004125,-0.10903,0.019301,0.30882121514999994,-2.9854384594999996,-9.3360288665,0.033066,0.30934,1.8034,9.999999999998899e-05,-0.00019999999999997797,-0.000600000000000156,-0.00046649419432115424,-0.0023590624411697902,-0.00022108641213428037
150100000000.0,-1,-0.04123696325,-0.3611396929,0.45433228785,-0.070389,-0.059748,-0.007198,0.30115241485,-2.9909301834999997,-9.334557869,0.032251,0.30992,1.8034,3.333333333332966e-05,-9.999999999998899e-05,-0.00039999999999995595,0.003082161886320378,0.0014032528269389832,-0.00018907912922462577
150100000000.0,-1,-0.0604874172,-0.3330926739,0.41428192924999996,-0.15343,-0.004104,-0.029431,0.29900475849999997,-2.987693989,-9.335636600499999,0.032018,0.30958,1.8033,3.333333333355171e-05,-9.999999999998899e-05,-0.0004999999999999449,0.0030035317785589988,-3.465869591323667e-08,-0.0004728014628797711
150100000000.0,-1,-0.05983037164999999,-0.32517870735,0.30685007849999996,-0.22265,0.043974,-0.039977,0.30193694685,-2.9766124745,-9.339068928,0.03232,0.30839,1.803,3.333333333332966e-05,-0.00019999999999997797,-0.0004999999999999449,0.003355906466065206,-0.00028947061582984546,-0.00044377184271814085
150100000000.0,-1,-0.08035569009999999,-0.2456761958,0.27616507064999996,-0.2599,0.080195,-0.042032,0.30855643559999996,-2.9589605045,-9.344462585499999,0.033008,0.30651,1.8027,2.4999999999941735e-05,-0.00020000000000020002,-0.000500000000000167,0.002466628142437477,0.0007601427337899924,-0.0003014116096252961
150100000000.0,-1,-0.1019303201,-0.07927695859999999,0.10915782115,-0.26842,0.078155,-0.04842,0.31560741695,-2.9355226109999997,-9.351719506499999,0.033736,0.304,1.8023,2.500000000016378e-05,-9.999999999998899e-05,-0.00029999999999996696,0.0016140173147686787,0.0006246838748380501,-0.00047559200091290554
150100000000.0,-1,-0.1017734137,0.012905551399999998,-0.062566427,-0.2365,0.036732,-0.057015,0.31964775674999996,-2.9113982519999997,-9.359074494,0.034141,0.30142,1.8019,2.4999999999941735e-05,-9.999999999998899e-05,-0.00029999999999996696,0.000635614038360266,0.0012026481858449234,-0.0006629225085676982
150100000000.0,-1,-0.0876910643,0.09654646924999999,-0.09178043735,-0.15555,-0.018761,-0.053928,0.31902993779999994,-2.8917849519999996,-9.365154617,0.034052,0.29933,1.8014,2.4999999999941735e-05,-0.00019999999999997797,-0.00019999999999997797,-0.001929146345949484,0.0009635962621856731,-0.00045125262476650163
150100000000.0,-1,-0.0580749813,0.17482314954999997,-0.08237586,-0.046901,-0.080838,-0.035957,0.31409719285,-2.8846260975,-9.367508212999999,0.033518,0.29856,1.801,3.333333333332966e-05,-5.0000000000105516e-05,-9.999999999998899e-05,-0.00120882452423543,0.0022440195699140464,-0.00041317971221935257
150100000000.0,-1,-0.00075511205,0.16188817819999998,-0.12443658185,0.052115,-0.14929,-0.011622,0.3021232732,-2.8873719595000003,-9.367115947,0.032242,0.29886,1.8008,3.333333333332966e-05,-4.999999999988347e-05,-0.00019999999999997797,-0.0020467034430380893,0.0020815655499788477,-0.0003508579936796763
