Time,placement_label,user_acc_x(m/s^2),user_acc_y(m/s^2),user_acc_z(m/s^2),rotation_rate_x(rad/s),rotation_rate_y(rad/s),rotation_rate_z(rad/s),gravity_x(m/s^2),gravity_y(m/s^2),gravity_z(m/s^2),attitude_roll(rad),attitude_pitch(rad),attitude_yaw(rad),target_delta_x,target_delta_y,target_delta_z,target_delta_roll,target_delta_pitch,target_delta_yaw
150000000000.0,-1,0.044335864649999994,0.13969572925,-0.051759498699999996,0.015872,-0.046062,-0.002014,-0.781001606,-9.5657006095,2.0145801094999998,-2.7718,1.3486,-2.4709,0.0,0.0,0.0,0.0,0.0,0.0
150000000000.0,-1,0.030694814499999997,0.14561894585,-0.037294689949999994,0.006817,-0.030559,-0.010778,-0.7788833695999999,-9.565602542999999,2.015658841,-2.7728,1.3486,-2.4702,9.999999999998899e-05,-0.00010000000000021103,-0.00014999999999998348,-0.0010062166504720693,0.00035281967731881636,0.00011817509087830302
150000000000.0,-1,0.028655031299999998,0.1454326195,-0.03898143375,0.017578,-0.021737,-0.01557,-0.7768435864,-9.56540641,2.0173259715,-2.774,1.3485,-2.4693,-1.4285714285744433e-05,-9.999999999976694e-05,2.0000000000020002e-05,-0.00024175323613984112,0.0002586743891670462,-0.00033737266690359036
150000000000.0,-1,-0.013611630199999999,0.14538358624999997,-0.0223395487,0.018303,-0.00599,-0.016985,-0.77542162215,-9.565112210499999,2.019581501,-2.775,1.3484,-2.4684,-1.4285714285744433e-05,-0.00010000000000021103,-4.999999999999449e-05,-0.0005393084020781647,0.00014973512293736668,-7.344387768259963e-05
150000000000.0,-1,-0.06374322499999999,0.15395459835,-0.00399130655,0.021663,0.003765,-0.014671,-0.77542162215,-9.564523811499999,2.02213123,-2.7754,1.3481,-2.4679,-1.4285714285744433e-05,-3.333333333310762e-05,2.0000000000020002e-05,0.00013858210758788125,-0.0004672669607894697,-0.0002956026454734584
150000000000.0,-1,-0.1172090808,0.1779318576,0.030018155649999996,0.025337,0.003877,-0.014622,-0.7764219004499999,-9.563641212999999,2.025857757,-2.7756,1.3477,-2.4676,-1.4285714285522388e-05,-3.333333333355171e-05,3.999999999992898e-05,-0.00022984112996016215,0.0002623654536584308,-0.0001680117059001951
150000000000.0,-1,-0.15289548014999998,0.1710672026,-0.0093751574,0.016807,0.002419,-0.01592,-0.7747057367,-9.5633470135,2.0278190869999997,-2.7767,1.3476,-2.4665,-1.4285714285744433e-05,-3.333333333310762e-05,0.00010000000000010001,0.0001799901288510597,-0.001067981880154445,-0.00039310469947562154
150000000000.0,-1,-0.09735061454999999,0.16680130985,-0.014288289049999998,0.009452,0.00217,-0.012405,-0.7754804620499999,-9.5629547475,2.0292900845,-2.7766,1.3474,-2.4665,-1.4285714285744433e-05,-0.00010000000000021103,-0.0001100000000000545,0.00018442270729002175,3.4940730202492887e-06,-0.0002467809670672061
150000000000.0,-1,-0.09735061454999999,0.16680130985,-0.014288289049999998,0.009452,0.00217,-0.012405,-0.7754804620499999,-9.5629547475,2.0292900845,-2.7766,1.3474,-2.4665,-1.4285714285744433e-05,-9.999999999998899e-05,-0.00010999999999994348,-0.0016935536235351822,0.0011170708333640977,-4.946890268087145e-05
150000000000.0,-1,-0.0761780572,0.1279571692,-0.0114933938,0.007089,-0.000292,-0.016011,-0.77555891525,-9.5627586145,2.0303688159999997,-2.7767,1.3473,-2.4663,3.333333333332966e-05,-5.0000000000105516e-05,9.999999999998899e-05,-0.00023169602593386962,-0.0004519244874598982,-0.000263034317663724
150000000000.0,-1,-0.0081787461,0.1186212384,0.03550987965,0.007156,-0.002743,-0.011163,-0.7756177551499999,-9.562268282,2.0328204784999997,-2.7771,1.3471,-2.466,3.333333333332966e-05,-4.999999999988347e-05,-6.0000000000060005e-05,-0.0006817456312457892,-0.00016668320172952278,-0.0001317785150716233
150000000000.0,-1,0.00630567595,0.1152085242,0.00246146915,0.007447,-0.012466,-0.0026,-0.7749999362,-9.561974082499999,2.034291476,-2.7776,1.347,-2.4656,3.333333333332966e-05,-9.999999999998899e-05,-2.999999999997449e-05,0.00024701147850691996,-0.00018710365072394097,-0.00025065553890168957
150000000000.0,-1,0.00587418335,0.11500258455,0.00132389775,0.007756,-0.022128,-0.002459,-0.7745684436,-9.5617779495,2.0353702075,-2.778,1.3469,-2.4654,-9.999999999998899e-05,5.0000000000105516e-05,0.00019000000000002348,0.0008175940066732501,-0.0008030769021669659,-0.00046762396222943536
150000000000.0,-1,0.03315628365,0.0928297489,-0.03772618255,-0.003149,-0.026085,-0.002551,-0.7731170594,-9.561876016,2.0353702075,-2.7786,1.3469,-2.465,9.999999999998899e-05,4.999999999988347e-05,-0.00021999999999999797,0.0033059425352193195,0.001809743399773911,-0.0015936979958959263
150000000000.0,-1,0.03990325885,0.1009496551,-0.05767290864999999,-0.006941,-0.022581,-0.001448,-0.7719304547499999,-9.562268282,2.034291476,-2.7789,1.3471,-2.465,9.999999999998899e-05,-9.999999999998899e-05,-6.0000000000060005e-05,0.0006402643466809632,-0.00041492491489081296,-0.00014998149665856886
150000000000.0,-1,0.053701215399999995,0.1262508121,-0.06582223479999999,-0.009344,-0.023837,-0.005073,-0.7700181580000001,-9.562660547999998,2.0328204784999997,-2.7795,1.3473,-2.4646,3.333333333332966e-05,-9.999999999998899e-05,-0.00017000000000000348,-0.001868545045995651,0.0009725031528153849,-0.00015654895637418065
150000000000.0,-1,0.0501904347,0.1267215313,-0.05324030285,-0.011726,-0.02514,-0.006168,-0.7681450878499999,-9.563150880499999,2.031349481,-2.7801,1.3475,-2.4643,3.333333333355171e-05,-4.999999999988347e-05,-9.99999999995449e-06,0.0004360540593264517,0.0003975455163249819,-0.0004286563399613641
150000000000.0,-1,0.062429133899999996,0.14075484745,-0.0314597332,-0.005647,-0.023765,-0.0037,-0.7661739512,-9.56344508,2.0307610819999997,-2.7808,1.3476,-2.4638,3.333333333332966e-05,-5.0000000000105516e-05,-4.999999999999449e-05,-0.00011643971946906362,0.000357668033441616,-7.91579316929969e-05
150000000000.0,-1,0.0244185585,0.13546906309999998,0.0041384062999999995,0.001778,-0.025958,-0.003569,-0.76483044015,-9.5633470135,2.031545614,-2.7815,1.3476,-2.4634,3.333333333332966e-05,-9.999999999998899e-05,0.00012999999999996348,0.0005390547137111845,-0.0014761917953658443,0.00014804872853213524
150000000000.0,-1,-0.0053348176,0.13673412095,-0.01256231865,0.006789,-0.029442,-0.00225,-0.76394784165,-9.5633470135,2.0322320795,-2.782,1.3476,-2.4632,3.333333333332966e-05,-0.00029999999999996696,2.999999999997449e-05,-0.0032376929969410995,-0.0004913116701572573,0.0013223825414048207
150000000000.0,-1,-0.014572681899999999,0.17087106959999998,-0.0478956786,0.007978,-0.028189,-0.003454,-0.7635457689999999,-9.563150880499999,2.0330166115,-2.7823,1.3475,-2.4632,3.333333333332966e-05,-5.0000000000105516e-05,-0.00013999999999991797,0.00123889502719976,0.0007064201313748963,-0.00047567931787462214
150000000000.0,-1,-0.01369989005,0.1632022693,-0.046758107199999996,0.011543,-0.024428,-0.007069,-0.7629181434,-9.5629547475,2.0340953429999997,-2.7828,1.3474,-2.463,5.0000000000105516e-05,-4.999999999988347e-05,-6.0000000000060005e-05,-0.00018353635677437197,-0.0004437652228810318,-2.6536765963758313e-05
150000000000.0,-1,-0.02203554255,0.16201566465,-0.06817583079999999,0.01268,-0.02201,-0.002275,-0.7626631705,-9.562856681,2.0348798749999997,-2.783,1.3473,-2.463,4.999999999988347e-05,-0.00010000000000021103,-4.999999999999449e-05,-0.00019370978364952052,0.00019674071815933836,9.051254491909688e-05
150000000000.0,-1,-0.040599530999999994,0.13671450764999998,-0.047817225399999996,0.009974,-0.013586,-0.008446,-0.76265336385,-9.562660547999998,2.0355663405,-2.7831,1.3473,-2.463,1.999999999990898e-05,-0.00019999999999997797,-2.999999999997449e-05,-0.0006325259859214505,1.8315924566358888e-05,0.00011647274040571531
150000000000.0,-1,-0.040599530999999994,0.13671450764999998,-0.047817225399999996,0.009974,-0.013586,-0.008446,-0.76265336385,-9.562660547999998,2.0355663405,-2.7831,1.3473,-2.463,2.0000000000131024e-05,-9.999999999998899e-05,2.999999999997449e-05,-8.33828647661683e-05,-0.0007151984666360356,0.000209528714253171
150000000000.0,-1,-0.04350229939999999,0.13685180075,-0.05407386809999999,0.003738,-0.010139,-0.009781,-0.7626043306,-9.562660547999998,2.0357624734999997,-2.7832,1.3473,-2.4631,1.999999999990898e-05,-9.999999999998899e-05,0.00019000000000002348,0.000270265551036708,-0.0012235937522802054,0.0001172258086121758
150000000000.0,-1,-0.05066115389999999,0.1291928071,-0.03199909895,0.008556,-0.007584,-0.008548,-0.7638203551999999,-9.562464414999999,2.036056673,-2.7827,1.3472,-2.4636,2.0000000000131024e-05,-9.999999999998899e-05,-0.0001100000000000545,-0.0002222662746040882,0.0005438697364914535,-0.0001471122837486405
150000000000.0,-1,-0.05129858615,0.12907512729999998,-0.032783630949999996,0.009469,0.002106,-0.00747,-0.76318292295,-9.5623663485,2.036841205,-2.7831,1.3471,-2.4632,1.999999999990898e-05,-9.999999999998899e-05,-4.499999999996174e-05,-0.00016819339351714646,-0.0005719114148439175,-2.9534890355176202e-05
150000000000.0,-1,-0.085121722,0.10776527685,-0.03754966285,0.008211,0.003295,-0.009909,-0.7642126211999999,-9.5621702155,2.0374296039999997,-2.7827,1.347,-2.4635,1.999999999990898e-05,-9.999999999998899e-05,-4.499999999996174e-05,0.0004110764704217118,0.00021038334813239246,-0.00033679024599742036
150000000000.0,-1,-0.07409904739999999,0.13585152245,-0.024369525249999996,0.006962,0.00451,-0.015958,-0.7643204943499999,-9.561974082499999,2.0383122025,-2.7828,1.3469,-2.4633,2.0000000000131024e-05,-9.999999999998899e-05,2.0000000000020002e-05,-0.00021475952206850835,-8.170324777956317e-05,3.747768724249312e-06
150000000000.0,-1,-0.0545642006,0.14695265024999998,-0.03792231555,0.008266,0.00214,-0.01711,-0.76410474805,-9.561876016,2.0389986679999996,-2.7831,1.3469,-2.463,1.999999999990898e-05,-9.999999999998899e-05,-9.00000000000345e-05,0.0007687686605684085,0.0005815319297199917,-0.0005626749121039332
150000000000.0,-1,-0.048464464299999996,0.14677613055,-0.02501676415,0.008117,0.006989,-0.019587,-0.7624278108999999,-9.5617779495,2.0397831999999996,-2.7839,1.3469,-2.4621,2.0000000000131024e-05,-9.999999999998899e-05,-4.0000000000040004e-05,0.00032009505899321944,5.323055589068204e-05,-0.00023254924995441684
150000000000.0,-1,-0.029439563299999996,0.14325554319999997,-0.01840708205,0.01044,0.010651,-0.014794,-0.7618394119,-9.5615818165,2.0410580645,-2.7843,1.3468,-2.4615,1.999999999990898e-05,-9.999999999998899e-05,-9.999999999998899e-05,0.0002020505165358788,0.00025962918113986433,-0.0002782575195934278
150000000000.0,-1,-0.011209000949999999,0.14286327719999997,-0.0234378935,0.008098,0.008122,-0.015878,-0.7607704870499999,-9.561483749999999,2.0419406629999997,-2.7849,1.3467,-2.4608,-4.999999999988347e-05,-9.999999999998899e-05,-0.000140000000000029,-4.2190884659731864e-05,0.0001182825533587728,-0.00037112092661573115
150000000000.0,-1,-0.017259704,0.14136285975,-0.03307783045,0.014303,0.005909,-0.018169,-0.7596623356,-9.5613856835,2.0430193945,-2.7856,1.3467,-2.46,-5.0000000000105516e-05,-9.999999999998899e-05,4.0000000000040004e-05,0.00019398644525825404,-0.0005087096310498751,-0.00013620338686060052
150000000000.0,-1,0.00856120545,0.13122278365,-0.021741343049999997,0.007064,0.002038,-0.014603,-0.7582501779999999,-9.5611895505,2.0440981259999997,-2.7864,1.3466,-2.4592,-2.4999999999941735e-05,-9.999999999998899e-05,-4.999999999999449e-05,-0.0005066652484635448,-0.00021152730678841714,-0.00011803448730907107
150000000000.0,-1,0.009688970199999999,0.11992552285,-0.02250626175,0.008368,-0.000332,-0.015755,-0.756681114,-9.5611895505,2.0449807245,-2.7872,1.3466,-2.4583,-2.500000000016378e-05,-9.999999999998899e-05,-4.0000000000040004e-05,0.0001518352291767222,-0.0004999468669912854,3.9142992659169096e-05
150000000000.0,-1,0.03303860385,0.12216143904999999,-0.02564438975,0.014571,-0.002554,-0.016844,-0.75459229755,-9.560993417499999,2.0465497884999997,-2.7883,1.3465,-2.4572,-2.4999999999941735e-05,-9.999999999998899e-05,1.0000000000065512e-05,-0.00024135826273408156,-0.0002716797226407497,-6.175356336957094e-05
150000000000.0,-1,0.0130428445,0.15311122645,-0.05331875605,0.015826,-0.003751,-0.013201,-0.7531507199999999,-9.5607972845,2.0478246529999997,-2.7892,1.3464,-2.4564,-2.4999999999941735e-05,-0.00019999999999997797,-2.0000000000020002e-05,-0.0013403568760863571,7.832332583723733e-05,-0.00013542200602190135
150000000000.0,-1,0.043894565399999995,0.14769795565,-0.03086152755,0.014602,-0.003788,-0.013217,-0.7509344171,-9.560699218,2.0494917835,-2.7904,1.3463,-2.4552,-9.999999999998899e-05,-9.999999999998899e-05,2.0000000000020002e-05,0.00011564947423448046,0.0006912769609752623,-0.0003661264912828699
150000000000.0,-1,0.043894565399999995,0.14769795565,-0.03086152755,0.014602,-0.003788,-0.013217,-0.7509344171,-9.560699218,2.0494917835,-2.7904,1.3463,-2.4552,-2.4999999999941735e-05,-0.00010000000000021103,-4.0000000000040004e-05,5.4146516379915965e-05,6.170637056168715e-05,-0.00022453345677142522
150000000000.0,-1,0.01921122735,0.16776236155,-0.03148915315,0.014738,-0.00868,-0.004724,-0.7500420119499999,-9.5604050185,2.051158914,-2.791,1.3462,-2.4546,-2.500000000016378e-05,0.00010000000000021103,-0.00017000000000000348,0.002703151529869885,0.0014096557056806347,-0.0014010684149026176
150000000000.0,-1,0.033734876,0.14480499389999998,-0.0490920899,0.011149,-0.01118,-0.008347,-0.7485612077999999,-9.560306952,2.051943446,-2.7918,1.3462,-2.4539,-2.4999999999941735e-05,-0.00010000000000021103,-4.999999999999449e-05,0.0007576035453218388,-0.0002524358491819978,-0.0004129569980722003
150000000000.0,-1,0.06306656615,0.13851893125,-0.0367160976,0.013596,-0.011115,-0.007112,-0.74660968445,-9.560110818999998,2.0534144435,-2.7929,1.3461,-2.453,-2.4999999999941735e-05,-9.999999999998899e-05,-9.99999999995449e-06,-0.000370259383488003,-1.381560155633288e-05,-0.0003580817457993213
150000000000.0,-1,0.045375369549999996,0.13941133639999997,-0.02990047585,0.016133,-0.013421,-0.011858,-0.7453740465500001,-9.5598166195,2.0552777069999997,-2.7937,1.346,-2.4523,-5.0000000000105516e-05,-0.00019999999999997797,1.999999999990898e-05,-0.0005628934635415472,-0.0008511144072951282,0.0001957343227472208
150000000000.0,-1,0.024516625,0.13163466294999998,-0.028635417999999996,0.017393,-0.014601,-0.010622,-0.74366768945,-9.559522419999999,2.057239037,-2.7947,1.3458,-2.4514,-5.0000000000105516e-05,-9.999999999998899e-05,0.0001300000000000745,0.0004879147027367914,-0.0014008445478874698,-0.00025338449201894875
150000000000.0,-1,0.03188141915,0.14544242615,-0.0370299104,0.016249,-0.017045,-0.011806,-0.7414611931999999,-9.559326287,2.059200367,-2.796,1.3457,-2.4503,-4.999999999988347e-05,-9.999999999998899e-05,-0.00021000000000004349,-0.0007733724789111829,0.0010380682622750381,-0.00026768072661331743
150000000000.0,-1,0.0254188368,0.1566514271,-0.022574908299999998,0.013803,-0.01711,-0.013042,-0.7388918508999999,-9.559130153999998,2.060965564,-2.7973,1.3456,-2.4491,-5.0000000000105516e-05,-0.00019999999999997797,-2.0000000000020002e-05,-0.0017352484926982381,-8.318916714200597e-05,0.0002364332883635356
150000000000.0,-1,0.03388197575,0.1313502701,-0.013425303849999999,0.010276,-0.022078,-0.00941,-0.7368814876499999,-9.558934021,2.0624365614999998,-2.7984,1.3456,-2.4482,-9.999999999998899e-05,-9.999999999998899e-05,0.0002300000000000635,0.000569775816761986,-0.001477388039772931,-6.509266923204748e-05
150000000000.0,-1,0.02644853505,0.13252706809999998,-0.0018240368999999999,0.015218,-0.02312,-0.011735,-0.73497899755,-9.5586398215,2.0645940245,-2.7996,1.3454,-2.4473,9.999999999998899e-05,-9.999999999998899e-05,-0.000140000000000029,0.0003273096628386707,-2.1834821655630776e-05,-7.330358268387016e-06
150000000000.0,-1,0.06037954405,0.13812666525,-0.011424747249999999,0.011511,-0.022166,-0.002065,-0.7328509545,-9.558443688499999,2.0663592215,-2.8008,1.3453,-2.4464,-9.999999999998899e-05,-0.00019999999999997797,2.999999999997449e-05,-0.0016995172076299525,-0.00011908119233572378,9.655589903001527e-05
150000000000.0,-1,0.0335191297,0.11123683095,-0.008257199299999999,0.015229,-0.023245,-0.004406,-0.7312818904999999,-9.558149489,2.0681244184999996,-2.8017,1.3452,-2.4457,-9.999999999998899e-05,-9.999999999998899e-05,-4.999999999999449e-05,-0.0005181233210500569,-0.00027326906046543087,2.055180106985688e-05
150000000000.0,-1,0.03209716545,0.11081514499999999,-0.0106696352,0.022548,-0.02178,-0.009141,-0.7298501196,-9.557757223,2.070576081,-2.8027,1.345,-2.4449,-9.999999999998899e-05,-0.00019999999999997797,0.0001100000000000545,-0.0016250113037281633,-0.001042757410068429,0.0004500776900737691
150000000000.0,-1,0.0182207557,0.11417882594999999,0.012836904849999999,0.01864,-0.014653,-0.008091,-0.7283987353999999,-9.557168824,2.0735180759999996,-2.8038,1.3448,-2.444,-9.999999999998899e-05,-0.00019999999999997797,0.000140000000000029,-0.0016407623031582386,-0.0012641163336526429,0.0007216419204607583
150000000000.0,-1,0.0223787753,0.1344295582,-0.02221206225,0.017403,-0.014734,-0.002092,-0.7274671036499999,-9.556776558,2.0756755389999997,-2.8045,1.3446,-2.4435,-9.999999999998899e-05,-9.999999999998899e-05,-3.0000000000085514e-05,-4.753498546294921e-05,-0.00010512273094609448,-4.65298125633673e-05
150000000000.0,-1,0.0223787753,0.1344295582,-0.02221206225,0.017403,-0.014734,-0.002092,-0.7274671036499999,-9.556776558,2.0756755389999997,-2.8045,1.3446,-2.4435,-3.333333333332966e-05,-9.999999999998899e-05,-4.999999999999449e-05,0.000574649932508775,-3.5477162652064465e-05,-0.0002813653046249698
150000000000.0,-1,-0.00911037785,0.15208152819999998,-0.020603771649999998,0.013657,-0.012412,-0.004581,-0.7266629583499999,-9.556482358499998,2.0773426694999997,-2.8051,1.3444,-2.443,-3.333333333332966e-05,-0.00020000000000020002,-0.00010999999999994348,-0.0007806573775619441,0.00014501720351667302,0.00014701827616470098
150000000000.0,-1,-0.035451039749999996,0.14392239539999999,-0.011424747249999999,0.011026,-0.006412,-0.009514,-0.7266531516999999,-9.5560900925,2.0791078665,-2.8054,1.3443,-2.4428,-3.333333333332966e-05,-9.999999999998899e-05,-0.00014999999999998348,0.0015165236580576558,0.0015676755782256802,-0.001006064139585039
150000000000.0,-1,-0.03494109395,0.14357916264999998,-0.00444241245,0.009797,-0.006467,-0.007123,-0.72672179825,-9.555795892999999,2.0806769304999997,-2.8056,1.3441,-2.4426,-6.666666666665932e-05,-9.999999999998899e-05,-7.00000000000145e-05,-0.00010762378025175323,0.00019859496877305816,4.807481522250967e-05
150000000000.0,-1,-0.0357746592,0.14359877594999998,-0.01116977435,0.016074,-0.011112,-0.006972,-0.7264766319999999,-9.555305560499999,2.082736327,-2.806,1.3439,-2.4423,-6.666666666665932e-05,-9.999999999998899e-05,-0.000180000000000069,0.0021800100074638173,0.0010327668220144748,-0.000729559511471134
150000000000.0,-1,-0.0344409548,0.12596641925,-0.019446586949999997,0.01734,-0.012274,-0.008142,-0.7263197256,-9.5549132945,2.0847957235,-2.8063,1.3437,-2.4421,-6.666666666665932e-05,-0.00029999999999996696,0.00014999999999998348,-0.0028233845867287055,-0.0015323942983043182,0.0012289932789033564
150000000000.0,-1,-0.0031185146999999996,0.14315747669999998,-0.011209000949999999,0.019594,-0.00617,-0.006995,-0.7256136468,-9.554422962,2.0871493195,-2.807,1.3435,-2.4415,-6.666666666665932e-05,-9.999999999998899e-05,-0.00014999999999998348,0.0018640406945535926,0.0010979484540933893,-0.0010109618310889523
150000000000.0,-1,-0.015396440499999999,0.13375289934999998,-0.0211235241,0.013469,-0.006364,-0.005871,-0.7254567404,-9.554030696,2.0891106495,-2.8074,1.3433,-2.4412,-6.666666666665932e-05,-9.999999999998899e-05,-0.00012999999999996348,0.00029702760272876105,-0.0005187064629705862,-0.0004495010348950501
150000000000.0,-1,-0.03301899055,0.12937913345,-0.05341682254999999,0.010986,-0.005212,-0.008327,-0.7257901665000001,-9.553834562999999,2.089797115,-2.8073,1.3432,-2.4412,-6.666666666665932e-05,-0.00019999999999997797,9.99999999995449e-06,-0.001451098090734737,0.0004566855279055648,-0.0001513236708725607
150000000000.0,-1,-0.03070462115,0.12839846845,-0.03792231555,0.01332,-0.001515,-0.008347,-0.7257117133,-9.55363843,2.090973913,-2.8075,1.3431,-2.441,-5.0000000000105516e-05,-9.999999999998899e-05,-0.00010999999999994348,-0.00010892663586470341,6.919107594116625e-05,-0.0001861438449966002
150000000000.0,-1,-0.03554910625,0.1462956047,-0.025791489499999997,0.013135,0.00455,-0.012045,-0.7256528734000001,-9.553246163999999,2.092542977,-2.8078,1.343,-2.4407,-4.999999999988347e-05,-9.999999999998899e-05,-9.00000000000345e-05,0.000685279175467457,0.0006269144956116968,-0.0005097691383388891
150000000000.0,-1,-0.0323423317,0.16325130254999998,-0.0146903617,0.015736,-0.000215,-0.010739,-0.7254273204499999,-9.552853897999999,2.094504307,-2.8082,1.3428,-2.4403,-9.999999999998899e-05,-0.00019999999999997797,7.00000000000145e-05,-0.0011854837550147046,-0.0010246743941231262,0.0005615848585560634
150000000000.0,-1,-0.01118938765,0.1347041444,-0.02138830365,0.020619,0.001081,-0.012996,-0.7245741418999999,-9.552461631999998,2.0967598365,-2.8089,1.3426,-2.4395,-9.999999999998899e-05,-9.999999999998899e-05,-4.0000000000040004e-05,0.0002061717915879946,4.130797446011414e-05,-9.266673596242114e-05
150000000000.0,-1,-0.0045110589999999996,0.13286049419999998,-0.03458805455,0.025551,4e-06,-0.010508,-0.7236228968499999,-9.551971299499998,2.0993095655,-2.8096,1.3424,-2.4387,-0.00019999999999997797,-0.00019999999999997797,6.0000000000060005e-05,-0.0018649727199497868,-1.8649389554425966e-05,0.0003222780689235982
150000000000.0,-1,0.008335652499999999,0.14026451495,-0.018740508149999998,0.025739,-0.006052,-0.008014,-0.72270107175,-9.5513829005,2.1019573609999997,-2.8104,1.3422,-2.4379,-9.999999999998899e-05,-0.00019999999999997797,-9.999999999998899e-05,-0.00014772758098335892,5.361407998893952e-06,0.00017329438834279287
150000000000.0,-1,0.020525318449999996,0.14812944825,-0.0341467553,0.024512,-0.006098,-0.006827,-0.7217302133999999,-9.550892568,2.104703223,-2.8112,1.3419,-2.4372,-5.0000000000105516e-05,-0.00010000000000021103,-6.0000000000060005e-05,0.0009618898653160901,-0.00041190593680551224,-0.0003803601801419809
150000000000.0,-1,0.020525318449999996,0.14812944825,-0.0341467553,0.024512,-0.006098,-0.006827,-0.7217302133999999,-9.550892568,2.104703223,-2.8112,1.3419,-2.4372,-4.999999999988347e-05,-0.00019999999999997797,-9.99999999995449e-06,-0.0003993148117569234,-0.0007425896239081631,0.00014842035128204145
150000000000.0,-1,0.03256788465,0.12983023935,-0.04926860959999999,0.020944,-0.009868,-0.00201,-0.7207495484,-9.5504022355,2.1072529519999996,-2.812,1.3417,-2.4365,-9.999999999998899e-05,-0.00019999999999997797,-4.999999999999449e-05,0.000277673588822136,-0.00037926014113698336,-0.00033663164921060584
150000000000.0,-1,0.01840708205,0.11120741099999999,-0.028478511599999996,0.017466,-0.016008,-0.003173,-0.7199061765,-9.5500099695,2.109214282,-2.8127,1.3415,-2.436,-9.999999999998899e-05,-0.00019999999999997797,-2.999999999997449e-05,-0.00044419395467354406,-0.0008055044281822799,8.021684303383125e-05
150000000000.0,-1,0.040491657849999994,0.12000397604999999,-0.03347009644999999,0.02104,-0.012221,-0.010398,-0.71805271965,-9.549715769999999,2.1113717449999996,-2.8138,1.3414,-2.435,-0.00010000000000021103,-0.00019999999999997797,3.999999999992898e-05,-0.0001963653517991215,-0.0005770599922769737,-0.00013040640196937403
150000000000.0,-1,0.0393835064,0.11966074329999998,-0.035372586549999994,0.019738,-0.009843,-0.010449,-0.7169445682,-9.549323503999998,2.1132350085,-2.8145,1.3412,-2.4343,-9.999999999998899e-05,-0.00014999999999987246,-0.00022999999999995246,0.002316288115144838,0.0016299908123174056,-0.001207946646895497
150000000000.0,-1,0.038687234249999994,0.12667249805,-0.00244185585,0.022226,-0.010977,-0.0104,-0.714904785,-9.548931238,2.1160789369999997,-2.8158,1.341,-2.4332,-9.999999999998899e-05,-0.0001500000000000945,9.99999999995449e-06,-0.0015029246607225488,-0.00019075428697212793,0.00021480848396482344
150000000000.0,-1,0.03182257925,0.15366039885,-0.0117483667,0.026973,-0.005989,-0.01161,-0.71326707445,-9.548342839,2.1191189985,-2.8169,1.3408,-2.4321,-9.999999999998899e-05,-0.00019999999999997797,-2.999999999997449e-05,-0.00019096975116306147,-0.0001930526332756255,-0.00024591126477124803
150000000000.0,-1,0.015651413399999998,0.15785764505,-0.0341075287,0.022033,-0.004938,-0.010488,-0.711766657,-9.547950573,2.121570661,-2.8179,1.3406,-2.4311,-0.00019999999999997797,-0.00029999999999996696,-9.99999999995449e-06,-0.000909171678423748,-0.00024649125689335527,-0.00016392380211716073
150000000000.0,-1,-0.0193583271,0.16727202905,-0.05832014755,0.017099,-0.003869,-0.011773,-0.71116845135,-9.547656373499999,2.1231397249999997,-2.8184,1.3404,-2.4307,-9.999999999998899e-05,-0.00019999999999997797,-6.0000000000060005e-05,0.00012918131767158947,-0.0005350077995418534,-0.00021766127109845712
150000000000.0,-1,-0.01913277415,0.16020143439999998,-0.04396321195,0.017063,-0.002653,-0.012993,-0.7099033934999999,-9.5472641075,2.125101055,-2.8192,1.3403,-2.4299,-4.999999999988347e-05,-0.00020000000000020002,-0.00019000000000002348,0.0005453533059276428,0.0005504266196258989,-0.0003600805680590291
150000000000.0,-1,-0.02038802535,0.12241641194999998,-0.035039160449999995,0.02326,-0.004892,-0.011675,-0.70850104255,-9.5468718415,2.127258518,-2.8201,1.3401,-2.429,-5.0000000000105516e-05,-0.00019999999999997797,1.0000000000065512e-05,-0.001244062769559573,-0.0009888908722879286,0.00036435702132342485
150000000000.0,-1,-0.038834334,0.13507679709999998,-0.01736757715,0.030575,-0.003444,-0.014003,-0.7086089157,-9.546087309499999,2.1308869785,-2.8205,1.3398,-2.4285,-0.00029999999999996696,-0.00039999999999995595,0.00026999999999999247,-0.0032355284895853043,-0.0025972661017432674,0.0012877373319586383
150000000000.0,-1,-0.040285718199999994,0.1343118784,-0.021270623849999996,0.041894,-0.012808,-0.008906,-0.7071575314999999,-9.5453027775,2.134711572,-2.8217,1.3394,-2.4275,-4.999999999988347e-05,-0.00029999999999996696,-0.00021000000000004349,-0.0002639136306037404,-0.00037625197338853056,-0.00027176893925950907
150000000000.0,-1,-0.00683523505,0.14332418975,-0.03392120235,0.035858,-0.01548,-0.008853,-0.7063337729,-9.544420179,2.1388303649999996,-2.8226,1.339,-2.4267,-5.0000000000105516e-05,-0.00019999999999997797,9.00000000000345e-05,0.000734350897325875,-0.0008078652682290688,-0.00045904069255531255
150000000000.0,-1,-0.0033734876,0.13888177729999998,-0.0821601137,0.034672,-0.016725,-0.008851,-0.70546098105,-9.5439298465,2.141576227,-2.8234,1.3388,-2.4261,-9.999999999998899e-05,-9.999999999998899e-05,-0.000280000000000058,0.0017891718826865688,0.0017961727876505407,-0.001162601512739947
150000000000.0,-1,0.021486370149999996,0.16130958584999996,-0.08872076254999998,0.028482,-0.014459,-0.013779,-0.70353887765,-9.543635647,2.14373369,-2.8245,1.3386,-2.4251,-0.00029999999999996696,-0.00029999999999996696,8.000000000008001e-05,-0.002919428125671697,-0.00027502522330458135,3.63265487717257e-05
150000000000.0,-1,0.021486370149999996,0.16130958584999996,-0.08872076254999998,0.028482,-0.014459,-0.013779,-0.70353887765,-9.543635647,2.14373369,-2.8245,1.3386,-2.4251,-9.999999999998899e-05,-0.00019999999999997797,-0.0001100000000000545,0.0016995721006265452,0.0010850190132900561,-0.0006493169386572184
150000000000.0,-1,0.0104342756,0.19265163924999998,-0.0748835794,0.025744,-0.00614,-0.005512,-0.7025091794,-9.543243381,2.14569502,-2.8252,1.3385,-2.4244,-0.00019999999999997797,-0.00019999999999997797,9.999999999998899e-05,0.0005873036488064365,0.0009831288005492933,-0.00025867233014187363
150000000000.0,-1,-0.02250626175,0.16464384684999997,-0.06571436165,0.027115,-0.010961,-0.001816,-0.7026464725,-9.5427530485,2.1477544164999998,-2.8254,1.3383,-2.4243,9.999999999998899e-05,-0.00020000000000020002,-0.00025999999999992696,0.0010778546650032084,-0.000370626709082833,3.406206298883774e-05
150000000000.0,-1,-0.049964881749999995,0.1460210185,-0.0393835064,0.039341,-0.009321,-0.010096,-0.70271511905,-9.541968516499999,2.1513828769999996,-2.8259,1.3379,-2.4239,-0.00020000000000020002,-0.00029999999999996696,2.999999999997449e-05,-0.0010214661762439903,0.00022491518193268334,0.0002337843106641202
150000000000.0,-1,-0.06536132224999999,0.12327939715,-0.03682397075,0.038343,-0.016622,-0.007599,-0.70302893185,-9.5409878515,2.1552074704999997,-2.8263,1.3375,-2.4236,-9.999999999998899e-05,-0.00029999999999996696,-0.00014999999999998348,0.00010829008002133378,-0.0002085178879371874,-0.0001364047766925225
150000000000.0,-1,-0.034950900599999994,0.13271339445,-0.06111504279999999,0.03834,-0.01663,-0.006395,-0.7039605635999999,-9.540105253,2.1589339975,-2.8264,1.3371,-2.4236,-9.999999999998899e-05,-0.00029999999999996696,4.999999999999449e-05,-0.0016344386716924397,-0.00034842075289209795,0.0005398474594024982
150000000000.0,-1,-0.03639247815,0.13201712229999998,-0.06463563015,0.029969,-0.022902,-0.010029,-0.7025189860500001,-9.539418787499999,2.162366325,-2.8275,1.3368,-2.4228,-9.999999999998899e-05,-0.00029999999999996696,-6.0000000000060005e-05,-0.0009592824811868184,-0.001282023939966237,0.000757023201643392
150000000000.0,-1,0.0081591328,0.14570720569999998,-0.09079977234999999,0.029773,-0.016872,-0.008914,-0.7012735415,-9.539026521499999,2.1644257215,-2.8283,1.3367,-2.4221,-0.00019999999999997797,-0.00029999999999996696,4.0000000000040004e-05,-0.0015832144065033305,-0.000995584805356886,0.00027370820021399567
150000000000.0,-1,0.0081983594,0.13076187109999998,-0.08756357784999999,0.024527,-0.00615,-0.009136,-0.7002732631999999,-9.5388303885,2.1659947855,-2.8289,1.3365,-2.4216,-9.999999999998899e-05,-0.00019999999999997797,-7.999999999996898e-05,0.0008442316847863118,0.0017079635593870712,-0.0004987621539886966
150000000000.0,-1,-0.019985952699999997,0.1264077185,-0.062144741049999994,0.020735,-0.002647,-0.008033,-0.6999202238,-9.538438122499999,2.1675638495,-2.8293,1.3364,-2.4212,-9.999999999998899e-05,-0.000400000000000178,3.999999999992898e-05,0.00018836852906267687,-0.0010364079761964184,0.0002648350063614302
150000000000.0,-1,-0.05106322654999999,0.1562003212,-0.0395011862,0.028008,0.0,-0.009176,-0.7001163568,-9.537849723499999,2.170015512,-2.8295,1.3361,-2.4209,-9.999999999998899e-05,-0.00019999999999997797,-9.999999999998899e-05,-5.726131974470583e-05,0.00019134680621513134,-0.0006219449561464252
150000000000.0,-1,-0.07253979005,0.13852873789999998,-0.02478140455,0.030311,0.004932,-0.012823,-0.70047920285,-9.537163258,2.1732517065,-2.8298,1.3358,-2.4206,-0.00019999999999997797,-0.00039999999999995595,-3.999999999992898e-05,-0.000983998489776372,-0.0006956255965846481,0.00017730286947914564
150000000000.0,-1,-0.07078439969999999,0.1440793018,-0.0045895122,0.037813,0.000323,-0.012656,-0.70104798855,-9.5360845265,2.177664699,-2.8301,1.3353,-2.4201,-9.999999999998899e-05,-0.00019999999999997797,-0.0003500000000000725,0.0017116962155880877,0.001751388622822203,-0.0004922715067308125
150000000000.0,-1,-0.0676854983,0.1363908882,-0.0033146476999999994,0.040102,0.00521,-0.010288,-0.7014500611999999,-9.535005795,2.182371891,-2.8306,1.3349,-2.4196,-9.999999999998899e-05,-0.0004999999999999449,0.0001300000000000745,-0.0030717552886381227,-0.0020467213752994873,0.0008806329101975763
150000000000.0,-1,-0.029027683999999998,0.17929498195,-0.05667263035,0.043828,0.004093,-0.016136,-0.70224439985,-9.53402513,2.1861964845,-2.8308,1.3345,-2.4193,-9.999999999998899e-05,-0.00029999999999996696,5.999999999994898e-05,-0.000809341243169559,-0.0016546049245453887,0.0007469701389433148
150000000000.0,-1,-0.029027683999999998,0.17929498195,-0.05667263035,0.043828,0.004093,-0.016136,-0.70224439985,-9.53402513,2.1861964845,-2.8308,1.3345,-2.4193,-5.0000000000105516e-05,-9.999999999998899e-05,-0.0004999999999999449,0.0027542535440434612,0.0022433528004999204,-0.0012620750376393097
150000000000.0,-1,-0.02789991925,0.1787163896,-0.04681694709999999,0.046187,0.006538,-0.010123,-0.70218555995,-9.533044465,2.1907075435,-2.8314,1.334,-2.4186,-4.999999999988347e-05,-0.000300000000000189,-0.0002500000000000835,-0.000346304858533486,0.0012369566283638722,-0.00046933118993219836
150000000000.0,-1,0.0014513841999999999,0.15948554895,-0.06088948985,0.042547,0.005202,-0.007747,-0.7016069676,-9.5321618665,2.1944340705,-2.8321,1.3337,-2.4177,-0.00029999999999996696,-0.00019999999999997797,0.00024000000000001798,0.0013279174401021887,-0.0012667209422165815,-0.0008919391742714389
150000000000.0,-1,-0.00306948145,0.1531602597,-0.0172400907,0.036466,0.003818,-0.009013,-0.7011264417499999,-9.531279267999999,2.19865093,-2.8329,1.3332,-2.4169,-9.999999999998899e-05,-0.00029999999999996696,-0.00012999999999996348,0.0004730879472554239,0.0005675216725526955,-0.0009365211863259226
150000000000.0,-1,0.0065508421999999995,0.1370185138,-0.01654381855,0.041336,0.005209,-0.013779,-0.6998221572999999,-9.5303966695,2.2028677895,-2.834,1.3329,-2.4157,-0.000300000000000189,-0.00029999999999996696,-1.0000000000065512e-05,-0.000900857752507811,0.00040406995812558577,0.00038163441715077795
150000000000.0,-1,0.008257199299999999,0.13355676635,-0.03141069995,0.042519,0.006445,-0.012578,-0.6988414923,-9.5294160045,2.2071827154999997,-2.835,1.3325,-2.4147,-9.999999999998899e-05,-0.00029999999999996696,-0.00015999999999993797,0.00026341005484242785,0.00011044198920640014,-0.00012596522073371474
150000000000.0,-1,0.021103910799999997,0.1351552503,-0.008757338449999999,0.037691,0.003855,-0.008997,-0.6977627608,-9.528533406,2.211595708,-2.836,1.3321,-2.4135,-0.00029999999999996696,-0.00029999999999996696,7.999999999996898e-05,-0.0011813528364430503,-0.00024631683414666483,0.0003138452918061141
150000000000.0,-1,0.01644575205,0.12906532065,-0.04605202839999999,0.038887,0.005135,-0.013812,-0.69639963645,-9.5278469405,2.2150280354999996,-2.837,1.3318,-2.4125,-9.999999999998899e-05,-0.00029999999999996696,-4.999999999999449e-05,-7.093782444256291e-05,-0.0006378494171819238,0.00021898215928706222
150000000000.0,-1,0.028311798549999996,0.13618494855,-0.028478511599999996,0.038885,0.005126,-0.012609,-0.6947913458499999,-9.526964342,2.219048762,-2.8382,1.3314,-2.4112,-0.00019999999999997797,-0.000400000000000178,9.99999999995449e-06,-0.0004792559991708689,-0.0020845960456303825,1.717323421424055e-05
150000000000.0,-1,0.01069905515,0.11521833085,-0.02944936995,0.031602,0.002445,-0.006654,-0.6940950736999999,-9.52617981,2.222579156,-2.8389,1.3311,-2.4104,-0.00019999999999997797,-0.00029999999999996696,-0.00017999999999995797,-0.0010073606916616296,0.0005108119934520428,1.5664972030648983e-05
150000000000.0,-1,0.019064127599999998,0.12447580844999999,-0.0079629998,0.037719,0.002612,-0.004167,-0.6934870613999999,-9.5252972115,2.2265998825,-2.8397,1.3307,-2.4096,-0.00019999999999997797,-0.00039999999999995595,0.00012999999999996348,-0.0011983212769530738,-0.0005659109516455985,0.0006189594537522325
150000000000.0,-1,0.0190445143,0.13398825895,-0.0284588983,0.036649,-0.002256,-0.004113,-0.69271233605,-9.524512679499999,2.230424476,-2.8405,1.3303,-2.4088,-0.0006999999999999229,-0.0012000000000000899,-0.00034999999999996145,-0.017760865642368895,0.001980336980786923,0.006479473453242068
150000000000.0,-1,0.036421898099999996,0.1360182355,-0.02054493175,0.039168,-0.004623,-0.000437,-0.6918395441999999,-9.5235320145,2.2347394019999998,-2.8414,1.3299,-2.4079,0.00019999999999997797,0.000500000000000167,2.0000000000020002e-05,0.017268289233410616,-0.0008256984115777577,-0.007322491991683666
150000000000.0,-1,0.059575398749999994,0.14267695084999998,-0.032067745499999994,0.044025,-0.003276,0.000812,-0.6907411993999999,-9.522551349499999,2.2392504609999997,-2.8424,1.3295,-2.4069,-9.999999999998899e-05,-0.000400000000000178,-0.00014999999999998348,0.0005789458748506338,-0.000730950853622625,-0.0008337000840779041
150000000000.0,-1,0.06119349599999999,0.1395290162,-0.05441710085,0.045337,-0.00562,-0.00395,-0.6893682684,-9.521668751,2.2434673204999998,-2.8435,1.3291,-2.4059,-0.000300000000000189,-0.00029999999999996696,5.999999999994898e-05,-0.0011613610829237508,-0.0011733455382370028,0.0008623524843995867
150000000000.0,-1,0.038128255199999996,0.152003075,-0.0448752304,0.045376,-0.006828,-0.003933,-0.68845624995,-9.520688086,2.2479783794999997,-2.8444,1.3287,-2.405,-9.999999999998899e-05,-0.00039999999999995595,-0.00036000000000002697,0.0004288064729585095,0.0010401748249087017,-0.0009208635012987187
150000000000.0,-1,0.038128255199999996,0.152003075,-0.0448752304,0.045376,-0.006828,-0.003933,-0.68845624995,-9.520688086,2.2479783794999997,-2.8444,1.3287,-2.405,-0.00029999999999996696,-0.00039999999999995595,-0.00017999999999995797,0.00019330482863222365,-0.0005383552760169774,-0.0008618132782225452
150000000000.0,-1,0.0170047311,0.12802581575,-0.037196623449999994,0.046549,-0.005646,-0.002628,-0.68782862435,-9.5196093545,2.252783638,-2.8453,1.3282,-2.4042,-0.00019999999999997797,-0.00039999999999995595,-2.999999999997449e-05,-0.0006630882258278348,-0.00045296365966951413,7.14498678062725e-05
150000000000.0,-1,0.015072821049999999,0.14299076365,-0.03931485985,0.049132,-0.009134,-0.010966,-0.6865047266,-9.518530623,2.2574908299999996,-2.8464,1.3278,-2.4031,-0.00029999999999996696,-0.00019999999999997797,-0.000180000000000069,0.0020140027495405555,0.0017032474744582693,-0.0015691091918275113
150000000000.0,-1,0.0117287534,0.14606024509999999,-0.053818895199999994,0.052886,-0.011429,-0.012086,-0.6849552759,-9.517451891499999,2.262786421,-2.8477,1.3273,-2.402,-0.00029999999999996696,-0.000400000000000178,-0.00021999999999999797,-0.0006584864293872617,0.0012479149637645293,-0.00044426727127167
150000000000.0,-1,0.02941995,0.15466067714999998,-0.04653255425,0.049253,-0.012739,-0.01332,-0.68304297915,-9.5162750935,2.268082012,-2.8491,1.3268,-2.4007,-0.00029999999999996696,-0.00039999999999995595,2.0000000000020002e-05,-0.0007086576636463615,-0.0006809592557053268,0.00010773785635187494
150000000000.0,-1,0.018828768,0.177500365,-0.0477583855,0.04924,-0.012783,-0.007304,-0.6818759877999999,-9.515196362,2.272985337,-2.8501,1.3264,-2.3997,-0.00029999999999996696,-0.00039999999999995595,-8.999999999992347e-05,8.721364479136184e-05,-0.0006235782087675723,0.000247601646854001
150000000000.0,-1,0.03707894365,0.16720338249999997,-0.0757269513,0.059078,-0.013686,-0.008362,-0.6803657636999999,-9.514019564,2.2783789945,-2.8514,1.3259,-2.3985,-0.001100000000000101,-0.0015000000000000568,6.0000000000060005e-05,-0.02348243324724031,0.001435350919116285,0.007921007946200653
150000000000.0,-1,0.0261249156,0.14911011324999998,-0.0691761091,0.055208,-0.007767,-0.007295,-0.6791497390999999,-9.512842766,2.2836745855,-2.8525,1.3254,-2.3975,-0.00039999999999995595,-0.00039999999999995595,5.999999999994898e-05,-0.0028075793200410537,-0.0002703104825152458,0.0018106177220800213
150000000000.0,-1,-0.00171616375,0.14212777845,-0.06983315464999999,0.061292,-0.006374,-0.007233,-0.6785417268,-9.5115679015,2.2892643759999998,-2.8534,1.3248,-2.3966,0.00029999999999996696,0.0004999999999999449,9.999999999998899e-05,0.0186368421488321,-0.0031232439710879856,-0.008300991645578737
150000000000.0,-1,-0.0020593965,0.14864920069999998,-0.07420692055,0.067315,-0.002513,-0.014425,-0.677443382,-9.510096904,2.2954425654999997,-2.8546,1.3243,-2.3954,-0.00019999999999997797,-0.00039999999999995595,-9.999999999998899e-05,0.0003307871595061851,-0.0014719093153092722,-0.00047027957839063106
150000000000.0,-1,0.013474337099999999,0.12702553744999998,-0.054858400099999996,0.06744,-0.007441,-0.001119,-0.6768157563999999,-9.50852784,2.3021110874999997,-2.8557,1.3236,-2.3944,-0.0004999999999999449,-0.0004999999999999449,0.00016999999999989246,-0.002539123169745583,-0.002707632359829182,0.0009984213136680076
150000000000.0,-1,0.0038834333999999996,0.1462563781,-0.06810718425,0.07132,-0.013324,-0.007,-0.6760508377,-9.506958776,2.3087796094999997,-2.8567,1.323,-2.3934,-0.000300000000000189,-0.00039999999999995595,-0.00010999999999994348,0.0014517174207919759,-0.00024030448358280943,-0.001229671491136397
150000000000.0,-1,0.02427145875,0.1489434002,-0.07257901665,0.073904,-0.018143,0.001525,-0.6753447588999999,-9.5052916455,2.3158403974999997,-2.8578,1.3223,-2.3925,-9.999999999998899e-05,-0.00029999999999996696,-0.00041000000000002146,0.0037750700300829276,0.0020892541472370407,-0.002401029994688386
150000000000.0,-1,0.06373341834999999,0.14518745325,-0.08594548059999998,0.072765,-0.020569,-0.002066,-0.67380511485,-9.503820648,2.322410853,-2.8592,1.3216,-2.3913,-0.00029999999999996696,-0.000400000000000178,-0.00027999999999994696,0.001437562018406835,0.0003511273895531186,-0.0009766005170548375
150000000000.0,-1,0.049454935949999994,0.12650578499999998,-0.096301303,0.064303,-0.024469,0.00028,-0.6722458575,-9.502447716999999,2.3282948429999997,-2.8605,1.3211,-2.3902,-0.00039999999999995595,-0.0004999999999999449,-0.000200000000000089,-0.0018717214637220536,0.0010673546213084695,-9.100899076575075e-05
150000000000.0,-1,0.08434699664999999,0.1147574183,-0.112580342,0.055778,-0.025909,-0.003424,-0.6700295545999999,-9.5015651185,2.3329039684999997,-2.8619,1.3207,-2.3891,-0.00019999999999997797,-0.00029999999999996696,-0.00045999999999990493,0.0023745970390871562,0.002521210360525883,-0.0016641164451058899
150000000000.0,-1,0.08434699664999999,0.1147574183,-0.112580342,0.055778,-0.025909,-0.003424,-0.6700295545999999,-9.5015651185,2.3329039684999997,-2.8619,1.3207,-2.3891,-0.0012000000000000899,-0.0019000000000000128,-0.00012000000000000899,-0.027709294598774914,-0.0005325347930305036,0.010360246392011607
150000000000.0,-1,0.0795907714,0.10752991725,-0.09833127954999998,0.04827,-0.021318,-0.001185,-0.6678132517,-9.5007805865,2.336728562,-2.8632,1.3204,-2.388,-0.00029999999999996696,-9.999999999998899e-05,7.00000000000145e-05,-0.0002298096854032039,0.00016832936417854327,0.00015022385411445072
150000000000.0,-1,0.06835235049999999,0.10670615865,-0.06301753289999999,0.040923,-0.022835,0.004862,-0.66764653865,-9.4996037885,2.341435754,-2.8638,1.3199,-2.3877,-0.00039999999999995595,-0.0005999999999999339,-2.0000000000020002e-05,-0.0004893776172090192,-0.002985941054273633,0.0003451423491758199
150000000000.0,-1,0.031528379749999995,0.06638121385,-0.027546879849999997,0.043455,-0.025158,0.002522,-0.6667443268499998,-9.4986231235,2.345554547,-2.8646,1.3195,-2.3871,-0.0004999999999999449,-0.000600000000000156,-0.00024999999999997247,-0.0015391517447476133,0.002424524020331109,-0.0006224533416103739
150000000000.0,-1,0.0195544601,0.08891689555,-0.0127094184,0.052173,-0.029757,0.006314,-0.6662834142999999,-9.497348258999999,2.3508501379999998,-2.8654,1.319,-2.3866,-0.00039999999999995595,-0.00039999999999995595,-0.00017000000000000348,-0.00333662459607198,0.0014150282911657985,0.0007726874820650487
150000000000.0,-1,0.018956254449999998,0.1117565834,-0.03305821715,0.058224,-0.027138,0.003952,-0.6656852086499999,-9.495975327999998,2.3566360614999997,-2.8663,1.3184,-2.386,-0.000600000000000156,-0.0005999999999999339,0.00013999999999991797,0.0029017323844306997,-0.0014827749831498593,-0.001979693185706566
150000000000.0,-1,0.02205515585,0.15379769194999998,-0.0473661195,0.066749,-0.025698,0.007655,-0.6654988823,-9.494308197499999,2.3633045835,-2.8671,1.3177,-2.3855,-0.00039999999999995595,-0.0004999999999999449,-0.00025999999999992696,-0.003929150618099619,0.001473192157895653,0.0013253362436795868
150000000000.0,-1,0.0374221764,0.18503187219999997,-0.08503346214999999,0.074146,-0.026648,0.002956,-0.6647045436499999,-9.492641067,2.370267305,-2.8682,1.3171,-2.3847,0.00029999999999996696,0.0004999999999999449,-0.0001100000000000545,0.025726061109318632,-0.002231541286846994,-0.01071151817916638
150000000000.0,-1,0.006894074949999999,0.19475026235,-0.07978690439999998,0.076412,-0.0205,-0.001913,-0.66425343775,-9.49087587,2.3776222925,-2.8692,1.3163,-2.3839,-0.0004999999999999449,-0.0004999999999999449,-9.99999999995449e-06,-0.0018950387346090558,-0.0023898645438671373,-5.58443224210059e-05
150000000000.0,-1,-0.0155925735,0.19704501845,-0.08872076254999998,0.075126,-0.018069,-0.009183,-0.6636160054999999,-9.489110672999999,2.384781147,-2.8702,1.3156,-2.383,-0.00019999999999997797,-0.000400000000000178,-0.0008700000000000374,0.008118742484242825,0.0028273753766929755,-0.0043850287468787386
150000000000.0,-1,-0.013346850649999999,0.19112180185,-0.1002631896,0.077456,-0.01438,-0.008001,-0.66301779985,-9.487345476,2.391841935,-2.8712,1.3149,-2.3821,-0.00019999999999997797,-0.0004999999999999449,-0.00021000000000004349,0.0005129921143334215,0.0013513624484717823,-0.0012234348847623977
150000000000.0,-1,-0.035039160449999995,0.18770908764999997,-0.07563869145,0.081078,-0.013105,-0.001954,-0.66317470625,-9.4854822125,2.3993930555,-2.8719,1.3141,-2.3815,-0.0004999999999999449,-0.0004999999999999449,0.0001300000000000745,-0.0009683015973760423,-0.001949617200141418,0.0009028372315844635
150000000000.0,-1,-0.0031773546,0.15864217705,-0.07558965819999999,0.081296,-0.020396,0.004167,-0.66301779985,-9.483422816,2.4072383755,-2.8728,1.3134,-2.3807,-0.0015000000000000568,-0.0021999999999999797,-6.0000000000060005e-05,-0.03619795107565804,0.0009191329582518559,0.015171184351205014
150000000000.0,-1,0.03994248545,0.13744019975,-0.07244172355,0.087429,-0.020175,-0.000566,-0.6618311952,-9.481461486,2.415574028,-2.8742,1.3125,-2.3796,-0.00029999999999996696,-0.00029999999999996696,4.999999999999449e-05,0.001122405673574578,-0.0023230782386107762,-0.002843456048153392
150000000000.0,-1,0.0450125235,0.12802581575,-0.061978028,0.085024,-0.02144,-0.002987,-0.66046807085,-9.479304023,2.42420388,-2.8756,1.3117,-2.3784,-0.000600000000000156,-0.000600000000000156,-9.999999999998899e-05,-0.0007748594104970419,0.0015166941112028098,0.0001451411060804375
150000000000.0,-1,0.0450125235,0.12802581575,-0.061978028,0.085024,-0.02144,-0.002987,-0.66046807085,-9.479304023,2.42420388,-2.8756,1.3117,-2.3784,-0.0004999999999999449,-0.0007999999999999119,-0.0005999999999999339,-0.0004484799652313409,0.0010693790911693313,-0.0010033706208667503
150000000000.0,-1,0.05074941374999999,0.11237440235,-0.0595263655,0.082567,-0.02154,0.00059,-0.6590264933,-9.477342692999999,2.4324414659999998,-2.877,1.3109,-2.3772,-0.0004999999999999449,-0.00039999999999995595,5.999999999994898e-05,-2.3176782287803732e-05,-0.0009765373823722445,0.0006297092290421524
150000000000.0,-1,0.030233901949999996,0.12798658915,-0.0493078362,0.080118,-0.021614,0.000558,-0.65811447485,-9.475283296499999,2.4406790519999997,-2.8782,1.3101,-2.3762,-0.0005999999999999339,-0.0008000000000001339,2.999999999997449e-05,-0.004553572128614736,0.00010611458770104498,0.0004594818749881213
150000000000.0,-1,0.05938907239999999,0.12371088974999998,-0.052406737599999996,0.080066,-0.02045,0.006556,-0.65703574335,-9.473223899999999,2.4488185715,-2.8795,1.3093,-2.3751,-0.000300000000000189,-0.0006999999999999229,-0.00042999999999993044,-0.002793473616429454,0.00072677030399948,0.0003420967623419813
150000000000.0,-1,0.02042725195,0.11286473485,-0.07718814214999999,0.080083,-0.021624,-0.001746,-0.6562414047,-9.471360636499998,2.4562716255,-2.8805,1.3085,-2.3743,-0.0005999999999999339,-0.0005999999999999339,-0.00024000000000001798,0.004352016913102386,-0.0003063545581072358,-0.0010855459609193652
150000000000.0,-1,-0.0131605243,0.1062844727,-0.0456597624,0.073888,-0.019376,-0.004267,-0.65542745275,-9.4693993065,2.4639208124999996,-2.8816,1.3078,-2.3734,-0.00039999999999995595,-0.000600000000000156,-0.00036999999999998145,-0.0058642707556932905,0.0006925866195419683,0.0004917629089753461
150000000000.0,-1,-0.0126701918,0.13971534254999998,-0.026615248099999995,0.081233,-0.019163,-0.002968,-0.65501557345,-9.467241843499998,2.472452598,-2.8826,1.3069,-2.3725,-0.0007999999999999119,-0.0008999999999999009,-0.00014999999999998348,0.0013085783433726128,0.00011804587603303496,-0.0001470830831489245
150000000000.0,-1,0.00754131385,0.14128440655,-0.019985952699999997,0.087433,-0.021393,-0.002853,-0.6542800746999999,-9.4648882475,2.4815727825,-2.8838,1.306,-2.3715,-0.000600000000000156,-0.0008999999999999009,-0.00012000000000000899,-0.0024838790444863257,-0.0025454635007702286,-0.0011311442209103184
150000000000.0,-1,0.0065508421999999995,0.16674246995,-0.0569962498,0.092442,-0.024886,-0.00033,-0.6537407089499999,-9.4625346515,2.4906929669999998,-2.8849,1.3051,-2.3706,-0.00039999999999995595,-0.000400000000000178,-0.000200000000000089,0.0010956463412379325,0.0004624965760717803,-0.0011614304450957569
150000000000.0,-1,0.029988735699999998,0.1532975528,-0.1267803712,0.096267,-0.029614,0.000991,-0.6530836634,-9.460279122,2.4993228189999996,-2.886,1.3042,-2.3698,-0.0006999999999999229,-0.0005999999999999339,-6.999999999990347e-05,-0.0023604268102908055,0.002119044389830682,0.0011688902480933017
150000000000.0,-1,0.0503277278,0.1670464761,-0.11852317189999999,0.10121,-0.030665,-0.000131,-0.6515734393,-9.4580235925,2.5082468705,-2.8874,1.3034,-2.3687,-0.0008000000000001339,-0.0009999999999998899,-0.00021999999999999797,0.0004895838031231392,-0.0007291846707877525,-0.0020084611931938667
150000000000.0,-1,0.037902702249999996,0.1691254859,-0.10041028934999999,0.1086,-0.031633,-0.002424,-0.6500730218499999,-9.4554738635,2.5182496535,-2.889,1.3024,-2.3674,-0.0005999999999999339,-0.000700000000000145,-6.0000000000060005e-05,-0.00606484394236273,-0.00020394621164565585,0.0014739391735854035
150000000000.0,-1,0.0030008349,0.14654077094999998,-0.12045508195,0.11713,-0.030157,-0.003533,-0.64899429035,-9.452826068,2.528546636,-2.8904,1.3013,-2.3663,-0.0004999999999999449,-0.0006999999999999229,-0.00017999999999995797,0.0011668501015715815,0.00024868105092634707,0.0013669824921356266
150000000000.0,-1,-0.02311427405,0.12342649689999999,-0.07354987499999999,0.11936,-0.022802,-0.008419,-0.6483176315,-9.449786006499998,2.5402165494999998,-2.8917,1.3002,-2.3652,-0.000600000000000156,-0.0006999999999999229,-0.00043999999999999595,-0.0035607952191845094,0.00031150249295630594,-0.0013396938495264799
150000000000.0,-1,-0.02399687255,0.12019030239999999,-0.08579838085,0.1193,-0.021647,-0.001218,-0.6474252263499999,-9.4464517455,2.5523767955,-2.8932,1.2989,-2.3639,-0.0007999999999999119,-0.0008000000000001339,-4.999999999999449e-05,0.004615064145995218,-0.0016599735710971508,-0.0032959758442090425
150000000000.0,-1,-0.025732649599999997,0.15179713535,-0.09533044465,0.12057,-0.022817,-0.001184,-0.6473369664999999,-9.443411683999999,2.563850576,-2.8943,1.2978,-2.363,-0.0005999999999999339,-0.0005999999999999339,-3.0000000000085514e-05,-0.004902728574843751,-0.0011642365964796841,0.0017638904090206964
150000000000.0,-1,-0.025732649599999997,0.15179713535,-0.09533044465,0.12057,-0.022817,-0.001184,-0.6473369664999999,-9.443411683999999,2.563850576,-2.8943,1.2978,-2.363,-0.001000000000000112,-0.0009000000000001229,-0.00019999999999997797,-0.00031733543534695485,0.0019423460091192446,-0.0014406574350100954
150000000000.0,-1,-0.0025105023999999997,0.14048026125,-0.1297027529,0.1194,-0.02534,0.008461,-0.64766058595,-9.440469688999999,2.5746378909999996,-2.8952,1.2967,-2.3623,-0.0007999999999999119,-0.0006999999999999229,-0.00029000000000001247,0.00013270978444346326,-0.00024227150015865284,-0.00251450160746991
150000000000.0,-1,0.01921122735,0.16572257835,-0.14703110344999998,0.12567,-0.029994,0.009814,-0.6478371056499999,-9.436939295,2.5872884695,-2.8962,1.2953,-2.3615,-0.0009000000000001229,-0.0008999999999999009,-7.00000000000145e-05,-0.0010418092989210592,-0.0026809601604169675,0.0009093324394218172
150000000000.0,-1,0.04862137069999999,0.10595104659999999,-0.15005155165,0.12571,-0.031202,0.009831,-0.6470231537,-9.4340953665,2.5980757844999998,-2.8975,1.2943,-2.3605,-0.0006999999999999229,-0.000600000000000156,-0.0005899999999999794,-0.005016983364988015,0.003471210936268676,-0.001383319705043462
150000000000.0,-1,0.049955075099999996,0.10196954669999998,-0.13588094239999998,0.13042,-0.024989,0.006197,-0.64611113525,-9.4309572385,2.609549565,-2.8989,1.2931,-2.3594,-0.0008999999999999009,-0.0006999999999999229,-0.00013999999999991797,-0.001905384271678745,-0.001099963609255683,0.00015480243865306775
150000000000.0,-1,0.03370545605,0.08475887594999999,-0.11606170275,0.1317,-0.026116,0.000214,-0.6452677633499999,-9.427721044,2.6216117445,-2.9003,1.2919,-2.3583,-0.0008000000000001339,-0.0007999999999999119,-0.00044000000000010697,-0.002335656833369004,0.00028579476075862864,-0.0007500255520018762
150000000000.0,-1,0.01632807225,0.0548780134,-0.11634609559999999,0.12326,-0.031267,0.008595,-0.64495395055,-9.424582916,2.6327913254999995,-2.9014,1.2907,-2.3575,-0.0009999999999998899,-0.0008000000000001339,-0.00019999999999997797,-0.0003077239048474567,0.00032630358400598247,-0.0018436979052660618
150000000000.0,-1,0.051337812749999996,0.05661379045,-0.08326826514999999,0.11502,-0.042458,0.017063,-0.6441988384999999,-9.421542854499998,2.64387284,-2.9026,1.2896,-2.3566,-0.001100000000000101,-0.0008999999999999009,-0.00024999999999997247,-0.0009129690458036244,-0.002019162001381858,-0.0008028260715886582
150000000000.0,-1,0.10324441119999998,0.05347566245,-0.06409626439999999,0.11064,-0.059593,0.028073,-0.6431299136499999,-9.418502793,2.6547582215,-2.9039,1.2885,-2.3559,-0.0010999999999998789,-0.001100000000000101,-0.00026999999999999247,-0.005570411197956204,0.002898428304496825,-0.0004962276569759894
150000000000.0,-1,0.2311819671,0.07522681214999999,-0.04477716389999999,0.1174,-0.080002,0.036871,-0.6366967512499999,-9.415560798,2.6667223344999997,-2.9072,1.2874,-2.3535,-0.0009000000000001229,-0.00029999999999996696,-7.00000000000145e-05,-0.0026260392739003713,-0.0010186811504282467,0.0004684550002651555
150000000000.0,-1,0.29133595819999997,0.0799830374,-0.08673981925,0.12666,-0.10151,0.040906,-0.63236221195,-9.41242267,2.6788825805000003,-2.9098,1.2863,-2.3521,-0.0010999999999998789,-0.0008999999999999009,-0.00039000000000000146,-0.0003574430680908236,0.00031092191272952263,-0.003090491445569832
150000000000.0,-1,0.25657138394999995,0.1524345676,-0.10233239274999999,0.13664,-0.10728,0.04473,-0.6287239447999999,-9.408892276,2.6922196245,-2.9122,1.285,-2.3509,-0.001000000000000112,-0.000700000000000145,-0.000140000000000029,-0.002602366565230607,-0.001061382797265642,0.0004594620948723538
150000000000.0,-1,0.24025311835,0.18164857795,-0.12110232085,0.15039,-0.11529,0.040214,-0.6251249042499999,-9.404969615999999,2.7065373335,-2.9146,1.2836,-2.3498,-0.0015000000000000568,-0.0010999999999998789,-0.00026999999999999247,0.005165191048976503,0.00011575569955746268,-0.005928231518154803
150000000000.0,-1,0.23464371455,0.23203514565,-0.14775679555,0.15557,-0.12355,0.034382,-0.6208590115,-9.400948889499999,2.7216395744999997,-2.9173,1.2821,-2.3484,-0.0010999999999998789,-0.0008000000000001339,-0.00025999999999992696,-0.0046949622271341696,0.0003070251734897944,-0.0014217198813089027
150000000000.0,-1,0.21320637764999997,0.2592289861,-0.1650459195,0.14941,-0.12251,0.031877,-0.6167794451,-9.3970262295,2.7361534164999997,-2.9199,1.2807,-2.3472,-0.001100000000000101,-0.0008999999999999009,-0.0007600000000000939,-5.001072344934521e-05,0.0006030508231225085,-0.0019466747317316013
150000000000.0,-1,0.18962138439999998,0.21906094769999998,-0.1971921182,0.13962,-0.1228,0.030544,-0.6130921447,-9.3934958355,2.749000128,-2.9222,1.2795,-2.3463,-0.0011999999999998678,-0.001000000000000112,-0.00039999999999995595,-0.003278220718043068,-0.0004586964122739179,-0.0021873820123308185
150000000000.0,-1,0.18962138439999998,0.21906094769999998,-0.1971921182,0.13962,-0.1228,0.030544,-0.6130921447,-9.3934958355,2.749000128,-2.9222,1.2795,-2.3463,-0.0014000000000000679,-0.0005999999999999339,-0.00019999999999997797,-0.0032044774827530986,0.002475298036989315,-0.0010962239004719265
150000000000.0,-1,0.17025325065,0.20151685085,-0.16040737405,0.14214,-0.12514,0.03061,-0.6092871645,-9.389867375,2.762141039,-2.9245,1.2782,-2.3453,-0.0014000000000000679,-0.0008999999999999009,-4.0000000000040004e-05,-0.0005797522069206362,-0.0019878893828801925,-0.0025670189260291743
150000000000.0,-1,0.1476685357,0.17213612744999998,-0.15393498504999997,0.13983,-0.13012,0.040273,-0.6067570488,-9.3860427815,2.7755761495,-2.9264,1.2769,-2.3449,-0.0017000000000000348,-0.0009000000000001229,-7.00000000000145e-05,-0.0014929837147661384,0.001274629100170399,-0.0014194999846361966
150000000000.0,-1,0.15134602945,0.1543958976,-0.11147219055,0.1525,-0.14303,0.040624,-0.6040013801499999,-9.381825921999999,2.7905803239999996,-2.9284,1.2754,-2.3443,-0.0012999999999998568,-0.0007999999999999119,-0.00047999999999992493,-0.004388698183769524,-0.0011435927484479969,-0.002849925133400877
150000000000.0,-1,0.1738915178,0.14508938675,-0.12990869254999998,0.1614,-0.15371,0.049315,-0.6012555181499999,-9.377314862999999,2.8063690304999995,-2.9305,1.2738,-2.3439,-0.0014000000000000679,-0.001000000000000112,-0.0006300000000000194,0.0016774801860068855,-0.0005442625880760499,-0.006026348004880777
150000000000.0,-1,0.15864217705,0.15107144325,-0.1106386253,0.16655,-0.16206,0.05672,-0.5990196019499999,-9.372313471499998,2.8232364684999998,-2.9325,1.2721,-2.3437,-0.0017000000000000348,-0.0006999999999999229,-0.0002300000000000635,-0.013067241754264103,0.004952827055053177,0.004631553103108033
150000000000.0,-1,0.17697080589999997,0.14605043845,-0.12608409905,0.16936,-0.17416,0.070162,-0.5974505379499999,-9.36731208,2.8402019729999997,-2.9343,1.2703,-2.3439,-0.0012999999999998568,-0.0006999999999999229,-0.00027999999999994696,0.0017152222783123339,-0.0021183187331894615,-0.00504332327777135
150000000000.0,-1,0.20475304535,0.10591182,-0.15921096275,0.18068,-0.18351,0.072851,-0.595459788,-9.362212622,2.8574616769999994,-2.9361,1.2686,-2.344,-0.0018000000000000238,-0.0009000000000001229,-0.00019999999999997797,-0.0024019809090451982,0.00027240213404500224,-0.003094680674362582
150000000000.0,-1,0.21575610664999997,0.07220636394999999,-0.1633003358,0.18349,-0.19559,0.083886,-0.5937436242499999,-9.356917031,2.8750155804999995,-2.9379,1.2668,-2.3444,-0.0016000000000000458,-0.0008999999999999009,-0.0006700000000000594,-0.002038195658958575,0.0029673716162954555,-0.005058162943810007
150000000000.0,-1,0.20157569074999998,0.07226520384999999,-0.19407360349999997,0.18752,-0.20764,0.094937,-0.5930277387999999,-9.351621439999999,2.8924714175,-2.9394,1.265,-2.3453,-0.0016000000000000458,-0.001000000000000112,-0.00046999999999997044,5.575619392983455e-05,-0.002304084272853446,-0.002778305600479758
150000000000.0,-1,0.22734756694999997,0.0644100772,-0.2107645218,0.18296,-0.21869,0.099844,-0.59605799365,-9.3452471175,2.9122808504999997,-2.9397,1.2628,-2.3474,-0.0020999999999999908,-0.0008999999999999009,0.00041000000000002146,-0.001774494799631654,-0.0010572665782493385,-0.003925131278245786
150000000000.0,-1,0.25941531245,0.08775971084999999,-0.23650697804999998,0.17858,-0.23582,0.10965,-0.59490080895,-9.340343792499999,2.9283637564999996,-2.9412,1.2612,-2.3486,-0.0017000000000000348,-0.0009000000000001229,-0.0005700000000000705,-0.0030786902501911406,0.001170875467906063,-0.004107282138546164
150000000000.0,-1,0.2719972444,0.12459348824999998,-0.22164009664999998,0.17309,-0.25663,0.1219,-0.5941751168499999,-9.3352443345,2.9446427954999996,-2.9425,1.2595,-2.3502,-0.0014999999999998348,-0.0009999999999998899,-0.0005499999999999394,-0.0030299058872738094,-0.0011996812501937626,-0.004033433830788358
150000000000.0,-1,0.28844299645,0.158475464,-0.21453027539999997,0.16653,-0.2823,0.1342,-0.5931061919999999,-9.330242943,2.9607257015,-2.9439,1.2578,-2.3519,-0.0017000000000000348,-0.001000000000000112,-0.0006099999999999994,-0.0023296628139819475,0.0003513552704970113,-0.004115476192882994
150000000000.0,-1,0.28204906064999996,0.10365629049999998,-0.2337709227,0.15752,-0.30801,0.14166,-0.5924001132,-9.325535751,2.9756318094999994,-2.9451,1.2563,-2.3542,-0.0017000000000000348,-0.0011999999999998678,-0.00046000000000001595,-0.0035660905356607042,0.0003364752780250502,-0.002313815390200258
150000000000.0,-1,0.28204906064999996,0.10365629049999998,-0.2337709227,0.15752,-0.30801,0.14166,-0.5924001132,-9.325535751,2.9756318094999994,-2.9451,1.2563,-2.3542,-0.0016000000000000458,-0.0009000000000001229,-0.00029999999999996696,0.002767466769767024,-0.0007312321215064976,-0.006459578152882894
150000000000.0,-1,0.30917425454999997,0.0575650355,-0.269486742,0.14474,-0.33018,0.1442,-0.5907918226,-9.3215150245,2.9885765875,-2.9464,1.2549,-2.3566,-0.0018000000000000238,-0.0010999999999998789,0.00012999999999996348,-0.002958554685353665,-0.0021931668175314556,-0.002899697947555513
150000000000.0,-1,0.2987497856,0.01921122735,-0.22821055215,0.13925,-0.34965,0.13959,-0.5883009335,-9.3175923645,3.0013252324999997,-2.948,1.2536,-2.359,-0.0011999999999998678,-0.001100000000000101,-0.0008299999999999974,-0.001958824159292938,0.001480362395753998,-0.004415002954992531
150000000000.0,-1,0.31362647365,-0.00116699135,-0.17017479745,0.13744,-0.36895,0.1266,-0.5837212279499999,-9.3134735715,3.0147603430000003,-2.9503,1.2523,-2.3608,-0.0014000000000000679,-0.0011999999999998678,-0.00041999999999997595,-0.003023859280588459,-0.0018217802729632027,-0.002940164380255794
150000000000.0,-1,0.31794139964999996,-0.038049802,-0.1650655328,0.14295,-0.38683,0.11489,-0.5772586456,-9.3093547785,3.028685786,-2.9533,1.251,-2.3622,-0.0014000000000000679,-0.0013000000000000789,-0.00045000000000006146,-0.0006127149882562133,0.0003212003027026622,-0.003154631843587108
150000000000.0,-1,0.2815685348,0.02103526425,-0.21520693424999998,0.16159,-0.3947,0.11044,-0.5703645706499999,-9.305039852499998,3.0433957609999998,-2.9563,1.2496,-2.3636,-0.0011999999999998678,-0.0014000000000000679,-0.0007299999999998974,-0.005538772620156562,0.0018320968310994168,-0.0018072404577051948
150000000000.0,-1,0.21391245644999998,0.10428391609999998,-0.189464478,0.17607,-0.38697,0.10571,-0.5645100005999999,-9.299646195,3.0607535314999996,-2.9592,1.2478,-2.365,-0.0013000000000000789,-0.0010999999999998789,9.999999999998899e-05,0.0006233304521705563,-0.0018370940012304438,-0.004911930580706603
150000000000.0,-1,0.07583482445,0.20946023735,-0.2167073517,0.1798,-0.38801,0.097355,-0.5617052987,-9.293173806,3.0807590974999997,-2.9612,1.2458,-2.3672,-0.0015000000000000568,-0.0014000000000000679,-0.000160000000000049,-0.002927606870315236,0.001980189079531902,-0.0034498159028766295
150000000000.0,-1,-0.0030596748,0.26635842065,-0.2218460363,0.16546,-0.40062,0.10937,-0.55928305615,-9.2869956165,3.0999801314999997,-2.9631,1.2438,-2.3698,-0.0009999999999998899,-0.0013000000000000789,-0.0005600000000000049,0.0001825385200677765,-0.0017810456813678321,-0.006250115854246285
150000000000.0,-1,-0.1575928655,0.3811256456,-0.18474747935,0.15557,-0.39855,0.11643,-0.56051869405,-9.2811116265,3.1172398354999995,-2.9637,1.2419,-2.3736,-0.001100000000000101,-0.0011999999999998678,-0.00021000000000004349,-0.0033368126955202193,-0.0001230143561099517,-0.005587099292799547
150000000000.0,-1,-0.29917147154999996,0.39338395809999993,-0.10882439504999998,0.14531,-0.38436,0.1173,-0.5649905264499999,-9.274933437,3.1346956725,-2.9633,1.24,-2.3782,-0.0014000000000000679,-0.0012000000000000899,0.0002700000000001035,-1.1332095438021383e-05,-0.0002830564476126174,-0.006696851202854681
150000000000.0,-1,-0.4898225542,0.3134009207,-0.10662770545,0.14089,-0.36025,0.10727,-0.5636274021,-9.269539779499999,3.1509747114999995,-2.9646,1.2383,-2.3809,-0.0013999999999998458,-0.0012999999999998568,0.00031999999999998696,-0.001191141573035015,-0.00051904790331192,-0.006738360711426861
150000000000.0,-1,-0.5841723338499999,0.21897268785000001,-0.07038232705,0.14268,-0.3383,0.088937,-0.5611561263,-9.264146122,3.1672537504999996,-2.9662,1.2366,-2.3831,-0.0009000000000001229,-0.0014000000000000679,-0.00034000000000000696,0.0022119605183408275,-0.0008231754835583693,-0.008049292167974453
150000000000.0,-1,-0.6199567997,0.15622974115,0.06220358094999999,0.12996,-0.32287,0.075313,-0.5578414785999999,-9.2591447305,3.1823559915,-2.9681,1.2351,-2.3848,-0.0011999999999998678,-0.0013000000000000789,0.00039999999999995595,0.0029318369165574065,0.003224893792885375,-0.007749573446959701
150000000000.0,-1,-0.7026856990999999,0.0734518085,0.20211505649999997,0.10359,-0.34186,0.082444,-0.55426205135,-9.254927871,3.1952027029999996,-2.9698,1.2338,-2.3867,-0.0009000000000001229,-0.0014000000000000679,0.00043999999999999595,-0.0036954742911039506,-0.002577046740268152,-0.005650780998517124
150000000000.0,-1,-0.72701599775,0.194367803,0.24768655905,0.080752,-0.39588,0.10215,-0.550741464,-9.251495543499999,3.205793885,-2.9715,1.2327,-2.3893,0.0029000000000001247,0.0019000000000000128,0.0010000000000000009,0.03478353946909274,0.004390098727204084,0.013552051292140543
150000000000.0,-1,-0.72701599775,0.194367803,0.24768655905,0.080752,-0.39588,0.10215,-0.550741464,-9.251495543499999,3.205793885,-2.9715,1.2327,-2.3893,-0.000600000000000156,-0.0014999999999998348,-0.00029000000000001247,0.0007957487537961772,0.001125543036774701,-0.005509814118013878
150000000000.0,-1,-0.6865831798,0.06176228169999999,0.29727878809999997,0.061037,-0.47298,0.1511,-0.5485251610999999,-9.248455481999999,3.2148160029999997,-2.9726,1.2318,-2.3933,-0.0006999999999999229,-0.0018000000000000238,-0.00042999999999993044,-0.005346205502575252,0.00609687317243357,-0.005584930091031559
150000000000.0,-1,-0.6027069023499999,-0.11286473485,0.2465587943,0.047548,-0.55357,0.20619,-0.54920181995,-9.2456115535,3.2229555225,-2.9728,1.2309,-2.3991,-0.00039999999999995595,-0.0018000000000000238,-0.00031000000000003247,-0.0009190715198599264,0.0015242305674347811,-0.004391761493450552
150000000000.0,-1,-0.44940934954999995,-0.18185451760000002,0.10402894319999999,0.035766,-0.60982,0.24653,-0.55196729525,-9.242963758,3.2302124435,-2.9724,1.2301,-2.4063,-0.00019999999999997797,-0.0019000000000000128,0.00022999999999995246,0.000568346436217837,-0.0013881302147464858,-0.0038213938625064614
150000000000.0,-1,-0.45478339375,-0.23097602745,0.005972249849999999,0.01589,-0.64207,0.2756,-0.5566156473499999,-9.240610162,3.2359003004999995,-2.9712,1.2294,-2.4147,-0.00029999999999996696,-0.0021999999999999797,-2.999999999997449e-05,-0.005283757822086788,-0.0028325872830989862,-0.0024868493704546246
150000000000.0,-1,-0.5117698369,-0.20970540359999998,0.054976079899999995,0.008031,-0.62795,0.29695,-0.5635293356,-9.2385507655,3.2406074925,-2.9694,1.2288,-2.4238,-9.999999999998899e-05,-0.0020999999999999908,-9.99999999995449e-06,-0.000927601957160018,-0.001287730759993,-0.002653206282600795
150000000000.0,-1,-0.58238752355,-0.13722445345,0.1310756839,0.00363,-0.6051,0.29416,-0.5717669216,-9.236687502,3.2446282189999995,-2.9672,1.2282,-2.4331,0.0004999999999999449,-0.0017000000000000348,-0.0003300000000000525,0.008830891054006251,0.0034036953235752065,-0.0041768289651589185
150000000000.0,-1,-0.6500828285,-0.0597224985,0.2270239475,-0.002007,-0.58232,0.29617,-0.5805340667,-9.2348242385,3.2481586129999998,-2.9647,1.2276,-2.4424,0.00039999999999995595,-0.0018000000000000238,-0.0006599999999999939,0.005542697607283209,0.005503669050277882,-0.00397076584494549
150000000000.0,-1,-0.9164902824,0.015317987299999999,0.3604336141,0.002481,-0.5675,0.27196,-0.5882617068999999,-9.233157108,3.2516890069999995,-2.9626,1.2271,-2.4511,0.00019999999999997797,-0.0025999999999999357,0.00029000000000001247,-0.009028585366756658,-0.009090660745598944,0.0018622772798018161
150000000000.0,-1,-0.9903735834999999,0.10301885825,0.36212035789999997,0.031572,-0.51686,0.24396,-0.5943418299,-9.230803512,3.2572787974999997,-2.9611,1.2264,-2.4588,0.00019999999999997797,-0.0022999999999999687,0.00038000000000004697,0.003544951495059845,-0.006479229126261199,-0.0018635568898539567
150000000000.0,-1,-1.042446895,0.2444013313,0.31997137619999994,0.047452,-0.43639,0.21537,-0.6005984726,-9.227861517,3.2643395854999997,-2.9596,1.2255,-2.4655,0.00039999999999995595,-0.0024000000000001798,-1.0000000000065512e-05,-0.00045108359652656915,-0.0011946718930362366,-0.0024625396652786513
150000000000.0,-1,-1.042446895,0.2444013313,0.31997137619999994,0.047452,-0.43639,0.21537,-0.6005984726,-9.227861517,3.2643395854999997,-2.9596,1.2255,-2.4655,0.000300000000000189,-0.0026999999999999247,-0.0007500000000000284,-0.006173019239691602,0.0019759147876696748,-0.0010613999457480539
150000000000.0,-1,-1.0083197529999999,0.37416292409999996,0.145530686,0.061715,-0.38129,0.1787,-0.628998531,-9.221192995,3.2778727625,-2.952,1.2235,-2.4773,0.0005999999999999339,-0.0024999999999999467,-0.00014999999999998348,-0.0013534249327145087,-0.004187690218278695,-0.0003618316036653191
150000000000.0,-1,-1.1031500585,0.6313619336499999,0.10466637545,0.089128,-0.27477,0.10537,-0.6333722969,-9.213641874499999,3.2980744614999997,-2.9519,1.2213,-2.4847,0.0004999999999999449,-0.0024999999999999467,-0.0004899999999999904,0.003490914658008659,0.0044653712556006475,-0.005707306822972491
150000000000.0,-1,-1.293693268,0.52127248075,0.34834201465,0.090391,-0.23455,0.065119,-0.6320974323999999,-9.210013413999999,3.3086656435,-2.9528,1.2202,-2.4864,0.00039999999999995595,-0.0030000000000001137,-0.0005800000000000249,-0.012629100219916367,-0.0016519306308431236,0.001041588212555844
150000000000.0,-1,-1.1620880249999999,0.2823138402,0.2140987828,0.094166,-0.19672,0.032165,-0.65986005855,-9.201775828,3.326023414,-2.9457,1.2177,-2.4952,0.000600000000000156,-0.0027999999999999137,3.0000000000085514e-05,0.0018845058170340323,-0.006764810885494299,-0.002911158680414694
150000000000.0,-1,-1.1620880249999999,0.2823138402,0.2140987828,0.094166,-0.19672,0.032165,-0.65986005855,-9.201775828,3.326023414,-2.9457,1.2177,-2.4952,0.0008999999999999009,-0.0024999999999999467,-0.00024000000000001798,0.008901630322731391,-8.84715599323016e-05,-0.006206507329774347
150000000000.0,-1,-1.111681844,0.3310136641,0.2247095781,0.10579,-0.17438,0.000725,-0.6543389146,-9.198049301,3.3373010615,-2.948,1.2167,-2.4948,0.0006999999999999229,-0.0029000000000001247,-0.00012999999999996348,-0.005851903370087896,-0.0038990573504400494,0.0013646595153495866
150000000000.0,-1,-1.0800063645,0.3363484817,0.24507799014999998,0.1278,-0.17114,-0.020681,-0.6468270207,-9.1938324415,3.3504419725,-2.9509,1.2154,-2.4937,0.0009000000000001229,-0.0026999999999999247,0.00011999999999989797,0.003509330677290201,-0.0009944214041570643,-0.0019022471921248396
150000000000.0,-1,-0.9936097779999998,0.336368095,0.2205907851,0.14508,-0.17282,-0.050502,-0.6362750652999999,-9.1891252495,3.3654461469999997,-2.9547,1.214,-2.4916,0.0008999999999999009,-0.0029000000000001247,-0.00037999999999993594,0.0018517586261554975,0.0013037553797992096,-0.004132312577560082
150000000000.0,-1,-0.88755085825,0.42744245355,0.141608026,0.15473,-0.16635,-0.068499,-0.64862163765,-9.179710865499999,3.3884917745,-2.9525,1.2113,-2.495,0.0009000000000001229,-0.0030999999999998806,-0.00038000000000004697,-0.002775293329695394,-0.0014819234228840017,-0.0013685820273767746
150000000000.0,-1,-0.8282696589999999,0.47089571969999994,0.10370532374999998,0.15243,-0.16993,-0.08412,-0.63489232765,-9.174709473999998,3.4046727469999998,-2.9572,1.2098,-2.4918,0.0010999999999998789,-0.0030000000000001137,-0.00025999999999992696,-0.00015369427757461196,-0.0034650504324005293,-0.000667543561222228
150000000000.0,-1,-0.7729503463499999,0.45472455385,0.044198571549999996,0.13902,-0.17016,-0.10836,-0.6186819352,-9.170198415,3.4197749879999995,-2.9626,1.2085,-2.488,0.0008000000000001339,-0.0037000000000000366,-0.00043999999999999595,-0.009030871513902028,-0.0011973109338008214,-0.00036227585008230534
150000000000.0,-1,-0.8011444650999999,0.35809963139999995,0.06925456229999999,0.12067,-0.17065,-0.11823,-0.6012653248,-9.1663738215,3.433112032,-2.9682,1.2074,-2.484,0.0008999999999999009,-0.0035999999999998256,-0.000140000000000029,-0.0033264450917074306,-0.0030622623759581913,-0.0015004099499074108
150000000000.0,-1,-0.7515522360499999,0.35350031255000003,0.11543407715,0.11105,-0.17569,-0.13032,-0.582318877,-9.162941494,3.445468411,-2.9742,1.2065,-2.4796,0.0012000000000000899,-0.0034000000000000696,-0.00021999999999999797,0.0008994166293803119,0.0010313989498784704,-0.0033259606048181567
150000000000.0,-1,-0.6736678217500001,0.3306998513,0.05351488905,0.10284,-0.18678,-0.13507,-0.5819462243,-9.157057503999999,3.4611590509999997,-2.975,1.2048,-2.4801,0.0009999999999998899,-0.0039000000000000146,-0.00041999999999997595,-0.004518974976515544,-0.0023907871708253037,-0.0010085569243027948
150000000000.0,-1,-0.6183190891499999,0.31228296259999994,-0.01630845895,0.10342,-0.20489,-0.13481,-0.5614209058499999,-9.154115508999999,3.4724366985,-2.9813,1.2039,-2.4756,0.0015000000000000568,-0.0035000000000000586,-3.0000000000085514e-05,0.004175922175374325,-0.0018742492764944885,-0.002064635932079284
150000000000.0,-1,-0.61459256215,0.27202666435,-0.0709609194,0.11754,-0.22371,-0.14759,-0.5394147832499999,-9.150781248,3.4845969445,-2.988,1.203,-2.4709,0.0016000000000000458,-0.0039000000000000146,-6.999999999990347e-05,0.0034708524319571055,-0.005939316074419443,-0.0020054113955465525
150000000000.0,-1,-0.6448362707499999,0.22475861134999997,-0.12541724685,0.134,-0.24013,-0.14834,-0.51619263605,-9.1467605215,3.4987185204999998,-2.9951,1.2019,-2.466,0.0013999999999998458,-0.0038000000000000256,-0.0001100000000000545,0.0022520041807752023,-0.0009947382343618028,-0.0020162955902263135
150000000000.0,-1,-0.6461797818,0.1702042174,-0.19171020084999998,0.13695,-0.25574,-0.15048,-0.51097549825,-9.1426417285,3.5101923009999996,-2.997,1.2007,-2.4661,0.001000000000000112,-0.0046999999999999265,-0.00026999999999999247,-0.010067102619609525,-0.0004266432744186588,-0.001696102756965967
150000000000.0,-1,-0.6871323522,0.14510900005,-0.2656425352,0.14203,-0.26033,-0.16237,-0.48572337449999997,-9.1381306695,3.5253926084999994,-3.0047,1.1994,-2.4609,0.0019000000000000128,-0.0040999999999999925,-9.999999999998899e-05,0.006042026179676974,-0.003958936333450236,-0.0029741609061337826
150000000000.0,-1,-0.6871323522,0.14510900005,-0.2656425352,0.14203,-0.26033,-0.16237,-0.48572337449999997,-9.1381306695,3.5253926084999994,-3.0047,1.1994,-2.4609,0.0011999999999998678,-0.0044999999999999485,0.00029999999999996696,-0.0008229178616989685,-0.0038124972792936695,-0.003605162733673062
150000000000.0,-1,-0.76820392775,0.1171894675,-0.3219130929,0.12479,-0.25717,-0.16987,-0.45972594534999994,-9.1342080095,3.5391219185,-3.0124,1.1983,-2.4555,0.0015000000000000568,-0.0050000000000001155,-0.0011900000000000244,-0.006935137489327836,0.0004366138997951019,-0.002645947669634552
150000000000.0,-1,-0.90357492435,0.13369405944999999,-0.330091839,0.11352,-0.249,-0.17736,-0.43299301744999996,-9.1306776155,3.5516744305,-3.0203,1.1973,-2.4499,0.0018000000000000238,-0.0045999999999999375,-0.00013999999999991797,0.006703539775767986,-0.002316614908827175,-0.00415731985680079
150000000000.0,-1,-1.003416428,0.1095206672,-0.2917674508,0.10341,-0.23965,-0.17522,-0.40677003535,-9.127441421,3.5629520779999995,-3.0279,1.1964,-2.4445,0.0013000000000000789,-0.005400000000000071,-0.000280000000000058,-0.009809729734986172,-0.003258088027568995,-0.0014043271604027296
150000000000.0,-1,-1.041858496,0.027811659399999997,-0.30155448749999997,0.097264,-0.2399,-0.16688,-0.38090009264999997,-9.124401359499998,3.5735432599999997,-3.0354,1.1956,-2.4392,0.0022999999999999687,-0.0045999999999999375,-0.00020999999999993246,0.010444474025033346,-0.0012537518832929084,-0.004678273044765646
150000000000.0,-1,-1.1212923609999998,-0.14287308385,-0.32815012229999996,0.092509,-0.24622,-0.14759,-0.39123630174999996,-9.124205226499999,3.5730529275,-3.0325,1.1955,-2.4437,0.0018000000000000238,-0.00529999999999986,-7.00000000000145e-05,0.0014188144902518296,-0.005520025872571832,-0.002397007391593764
150000000000.0,-1,-1.1904292435,-0.21431452909999998,-0.35293152684999995,0.090979,-0.27531,-0.14359,-0.36711194275000003,-9.121263231499999,3.5830557104999996,-3.0395,1.1947,-2.4392,0.0020999999999999908,-0.00550000000000006,-0.0006300000000000194,0.0007425941084362453,2.5510664145356188e-05,-0.003679095214042416
150000000000.0,-1,-1.2278906465,-0.25500231994999994,-0.399326788,0.092075,-0.31041,-0.13225,-0.3422324717,-9.1183212365,3.5930584934999996,-3.0466,1.1939,-2.435,0.0018000000000000238,-0.006000000000000005,-0.00029999999999996696,-0.006200354722122325,-0.00490894583748136,-0.0005642517617143739
150000000000.0,-1,-1.252505338,-0.25903285309999996,-0.46061835049999994,0.094188,-0.33815,-0.13183,-0.3167940216,-9.1151831085,3.6033554759999995,-3.0539,1.193,-2.431,-0.0038000000000000256,-0.008299999999999974,0.002409999999999912,-0.04826885526147917,-0.01702303452219356,-0.014423750390408774
150000000000.0,-1,-1.2197511269999999,-0.1577301586,-0.5010021352,0.093137,-0.34426,-0.12693,-0.3288758144,-9.116850239,3.5980598849999996,-3.0504,1.1935,-2.4371,0.0020999999999999908,-0.006299999999999972,-0.00029999999999996696,-0.0006990981879608782,-0.001234170460859385,-0.0019017685617157554
150000000000.0,-1,-1.2096502775,-0.07100995265,-0.5751600225,0.083508,-0.34934,-0.133,-0.3027312855,-9.113908244,3.6077684684999998,-3.0579,1.1927,-2.4331,0.0021999999999999797,-0.006400000000000183,-0.00029000000000001247,0.00021991372114249508,-0.0022619184879042464,-0.0033213869447288324
150000000000.0,-1,-1.224262186,0.0752366188,-0.65478021385,0.067724,-0.35338,-0.14158,-0.275566865,-9.111554647999998,3.6158099214999995,-3.0655,1.192,-2.4289,0.0020999999999999908,-0.006599999999999939,-0.00012999999999996348,0.007589620702228794,-0.003042823441985698,-0.0055033039316110255
150000000000.0,-1,-1.2274983805,0.2269847209,-0.687250032,0.027262,-0.35211,-0.15297,-0.24745119944999996,-9.110475916499999,3.620419047,-3.0734,1.1917,-2.4245,0.0022999999999999687,-0.006799999999999917,-0.00026999999999999247,0.002575860171186939,-0.003243461719990126,-0.0037588003731263697
150000000000.0,-1,-1.1888601795,0.44170132264999995,-0.7301541257499999,-0.021075,-0.37279,-0.16896,-0.2519916784,-9.116065706999999,3.6061994045,-3.0718,1.1933,-2.4289,0.0025999999999999357,-0.007000000000000117,-0.00026999999999999247,0.00223671907658618,-0.00014091041713726327,-0.0025177665197744226
150000000000.0,-1,-1.2555453994999999,0.49302932875,-0.7511697767,-0.07322,-0.39006,-0.17303,-0.22018871245,-9.118713502499999,3.6014922125,-3.0805,1.194,-2.424,0.0029000000000001247,-0.007099999999999884,-0.00041000000000002146,-0.00645779272565794,0.0009190057661834228,0.0029439762340386366
150000000000.0,-1,-1.3422361854999998,0.3487440873,-0.7344984717,-0.12434,-0.40127,-0.17476,-0.1878365741,-9.123518761,3.59119523,-3.0893,1.1953,-2.4191,0.0020999999999999908,-0.007500000000000062,0.00024999999999997247,0.011940058997361058,-0.002068429625885715,-0.005439212836003904
150000000000.0,-1,-1.3422361854999998,0.3487440873,-0.7344984717,-0.12434,-0.40127,-0.17476,-0.1878365741,-9.123518761,3.59119523,-3.0893,1.1953,-2.4191,0.0025999999999999357,-0.007300000000000084,-0.000140000000000029,0.0008539963989124821,0.003924770527282906,-0.0017382615225565168
150000000000.0,-1,-1.4402046189999997,0.1885426529,-0.686269367,-0.16238,-0.40377,-0.15943,-0.15640626085,-9.1296969505,3.5769755874999998,-3.0979,1.1971,-2.4146,0.0026000000000001577,-0.00749999999999984,0.00021000000000004349,0.005580761880815244,0.0028458053735247457,-0.0006880330696703574
150000000000.0,-1,-1.4371645575,-0.006913688249999999,-0.6659205682499999,-0.17833,-0.40565,-0.13194,-0.17117507574999996,-9.143132061,3.5417697139999995,-3.0933,1.2008,-2.4224,0.0024999999999999467,-0.007600000000000051,0.00021999999999999797,0.007311602712097853,0.0010530286780761067,-0.002837972682109946
150000000000.0,-1,-1.5886772999999998,-0.17960879475,-0.7353320369499999,-0.17603,-0.4034,-0.099452,-0.14534435965,-9.149996715999999,3.5251964755,-3.1004,1.2028,-2.4194,0.0025999999999999357,-0.007600000000000051,0.0005800000000000249,0.0045483562808672495,0.003023742500565696,-0.0005482810604156008
150000000000.0,-1,-1.712044957,-0.312047603,-0.74986549225,-0.1549,-0.37637,-0.071877,-0.12324017055,-9.156076839,3.5100942345,-3.1065,1.2045,-2.4173,0.0026999999999999247,-0.00770000000000004,0.0004999999999999449,0.0037341300098441277,0.0032731809135959633,-0.0038652355954269524
150000000000.0,-1,-1.8025603364999998,-0.30756596395,-0.8457647225999999,-0.14065,-0.32531,-0.051953,-0.1048723151,-9.1614704965,3.4965610574999997,-3.1116,1.206,-2.4157,0.0026000000000001577,-0.007699999999999818,0.0005800000000000249,0.00440022752287228,0.0026720703354963238,-0.0021018996160631076
150000000000.0,-1,-1.9634874629999999,-0.2296521297,-0.8520802052,-0.19076,-0.25434,-0.045186,-0.15174810209999998,-9.1771611365,3.4535098639999995,-3.0977,1.2106,-2.4313,0.0026999999999999247,-0.007500000000000062,0.0007000000000000339,0.007215115304890496,0.00527754087215726,-0.0006416709251171326
150000000000.0,-1,-2.0381160694999996,-0.11196252305,-0.73240965525,-0.31167,-0.19288,-0.024824,-0.14116672675,-9.187458119,3.4266396429999997,-3.1004,1.2135,-2.4307,0.0027999999999999137,-0.007500000000000062,0.0007899999999999574,0.0030963053806849494,0.005482678477358061,-0.002560077963802865
150000000000.0,-1,-2.0459613895,-0.06155634204999999,-0.5211449942999999,-0.42817,-0.15689,0.026035,-0.13631243499999998,-9.2020700275,3.3873149765,-3.1014,1.2178,-2.4316,0.0029000000000001247,-0.007199999999999873,0.0009299999999999864,0.00969474264058201,0.004691429133345304,-0.0010883583040599554
150000000000.0,-1,-1.9506407515,-0.17178308805,-0.31086099835,-0.49266,-0.14015,0.11516,-0.14038219475,-9.2191335985,3.3402430565,-3.0996,1.2229,-2.4351,0.0027999999999999137,-0.007100000000000106,0.0010299999999999754,0.008472954129941979,0.006354495430682894,-0.00011591951664380318
150000000000.0,-1,-1.6880186645,-0.45141971279999993,-0.20614558965000002,-0.50061,-0.12766,0.19309,-0.18170741785,-9.238256565999999,3.2852277500000002,-3.0863,1.2286,-2.4496,0.0028000000000001357,-0.006799999999999917,0.0012300000000000644,0.009930371982126207,0.00556158388484973,-0.0024191049941886256
150000000000.0,-1,-1.057549136,-1.315464031,-0.13728329334999997,-0.49398,-0.1111,0.27115,-0.20253674245,-9.254927871,3.236586766,-3.0791,1.2338,-2.4586,0.0022999999999999687,-0.006800000000000139,0.0015899999999999803,0.016634943146273562,0.009088447325589888,-0.0034462923956937175
150000000000.0,-1,-0.8875802782,-1.3903868369999999,0.09660530915,-0.47426,-0.080732,0.33355,-0.23111332055,-9.2707165775,3.189318713,-3.0693,1.2387,-2.47,0.0022999999999999687,-0.00649999999999995,0.0013800000000000479,0.015166141949501277,0.00680692184738052,-0.0036247562352551554
150000000000.0,-1,-0.7791579557999999,-1.1484567815,0.1940932168,-0.47937,-0.041506,0.40392,-0.26770193169999995,-9.2858188185,3.1420506599999998,-3.0566,1.2434,-2.484,0.0022999999999999687,-0.005900000000000016,0.0014599999999999058,0.011480371110307086,0.0061289049495882875,-0.0031406607918844642
150000000000.0,-1,-0.5663830707499999,-0.9204129423999999,0.0655280353,-0.50152,-0.005144,0.46446,-0.31183185669999997,-9.3009210595,3.09301741,-3.0411,1.2482,-2.5005,0.0020999999999999908,-0.005900000000000016,0.0014500000000000624,0.011746320384928177,0.006443869398674362,-0.0027399146861277757
150000000000.0,-1,-0.43815131535,-0.7344004051999999,0.12012165584999998,-0.5604,0.028795,0.53899,-0.36419936769999994,-9.316807832499999,3.0389827685,-3.0223,1.2534,-2.5201,0.0018000000000000238,-0.005600000000000049,0.0013799999999999368,0.014364806657123808,0.006919842011378741,-0.006366217057973245
150000000000.0,-1,-0.43815131535,-0.7344004051999999,0.12012165584999998,-0.5604,0.028795,0.53899,-0.36419936769999994,-9.316807832499999,3.0389827685,-3.0223,1.2534,-2.5201,0.0018000000000000238,-0.005699999999999816,0.0014900000000001024,0.014013606042641236,0.005768002241361758,-0.006674923104240449
150000000000.0,-1,-0.2570715231,-0.66652858055,0.5751502158499999,-0.6737,0.080666,0.58004,-0.42348056694999997,-9.334950135,2.9748472775,-3.0002,1.2594,-2.5426,0.0019000000000000128,-0.00550000000000006,0.0013199999999999878,0.012946744743545624,0.00658973232479676,-0.010022933600882133
150000000000.0,-1,0.0207116448,-0.4642860375999999,1.1816032585,-0.85992,0.15353,0.58853,-0.48638042005,-9.35750543,2.893354016,-2.975,1.267,-2.5675,0.0016000000000000458,-0.00550000000000006,0.0015499999999999403,0.01283867017401863,0.005735161682682621,-0.007707744534103611
150000000000.0,-1,0.17582342785,-0.226141349,1.7575478129999997,-1.0455,0.20713,0.58888,-0.5512612164499999,-9.3846698505,2.791953255,-2.9467,1.2764,-2.595,0.0015999999999998238,-0.005600000000000049,0.0013800000000000479,0.011154329682216302,0.0066573187295666525,-0.00632982005753302
150000000000.0,-1,0.4139975363999999,-0.05579003184999999,2.1459892194999997,-1.1841,0.20751,0.62431,-0.61900555465,-9.4144820665,2.674861854,-2.9142,1.287,-2.6265,0.0015000000000000568,-0.005699999999999816,0.0014399999999999968,0.01090416403792882,0.004255418721995641,-0.0061865481758243135
150000000000.0,-1,1.11403544,-0.099635564,2.0842073245,-1.2731,0.14996,0.68648,-0.6909569457,-9.4446865485,2.5476696035,-2.8768,1.2983,-2.6636,0.0014000000000000679,-0.005700000000000038,0.0012900000000000134,0.006968181905323778,0.005704325681942679,-0.0049427119483742565
150000000000.0,-1,2.056650638,-0.45362620904999995,1.6474191335,-1.3564,0.027344,0.74484,-0.7666250570999998,-9.474400697999998,2.412239767,-2.8339,1.3097,-2.7073,0.0015000000000000568,-0.005800000000000027,0.0013599999999999168,0.010088914038589358,0.0041080636683721306,-0.0018166840404063578
150000000000.0,-1,2.7928358534999997,-0.7267316049,1.1290396145,-1.431,-0.13107,0.77495,-0.8421656820499999,-9.503134182499998,2.269847209,-2.7863,1.3213,-2.7575,0.0015999999999998238,-0.006000000000000005,0.0011700000000000044,0.00939957201285524,0.0028304711739799426,-0.0006586886343877829
150000000000.0,-1,3.2864045479999997,-0.8488342040499999,0.9839992609999999,-1.4661,-0.29901,0.78407,-0.9159607232999999,-9.5300044035,2.1236300575,-2.7344,1.3327,-2.8138,0.0014000000000000679,-0.006199999999999983,0.0012400000000000189,0.008082515543993196,0.0037946836547668727,0.0039242628763238585
150000000000.0,-1,3.4498814034999996,-0.46953259534999997,0.8217384300999999,-1.4431,-0.48318,0.77374,-0.9854702584999999,-9.5539326295,1.9802568344999998,-2.6798,1.3433,-2.8747,0.0018000000000000238,-0.006299999999999972,0.0012400000000000189,0.007943262209932689,0.0019348177514821874,0.0015390138955289068
150000000000.0,-1,3.1315575444999997,-0.25721862284999997,0.7006459158999999,-1.3753,-0.6068,0.76798,-1.0521554784999998,-9.5741343285,1.8437482665,-2.623,1.3526,-2.9393,0.0018000000000000238,-0.006400000000000183,0.0013300000000000534,0.011046443121227378,-0.00025987455708853524,0.0031315080103637705
150000000000.0,-1,2.576010822,-0.06820525075,0.47365138835,-1.2611,-0.61419,0.76361,-1.1185464989999998,-9.5898249685,1.7187134789999998,-2.5647,1.3601,-3.0058,0.0017000000000000348,-0.006399999999999961,0.0012299999999999534,0.009371507495321563,0.0006934040065811331,0.004331406860243803
150000000000.0,-1,2.214537703,0.0702352273,0.47401423439999996,-1.1511,-0.55952,0.68611,-1.1812109924999998,-9.601985214499999,1.6052505385,-2.5072,1.3661,-3.0708,0.0017000000000000348,-0.006399999999999961,0.0013499999999999623,0.00924499520772093,0.0005832154658720334,0.005118395044744872
150000000000.0,-1,1.9663313914999998,0.1617312718,0.5033753445,-1.0607,-0.42659,0.56875,-1.234657235,-9.612282197,1.5003193834999997,-2.453,1.3713,-3.1312,0.0016999999999998128,-0.006299999999999972,0.0012600000000000389,0.011637842369269569,-0.0002553049192008938,0.004228935640764764
150000000000.0,-1,1.575144123,0.18571833769999999,0.7308503979,-0.95097,-0.20716,0.4396,-1.2790813595,-9.621108181999999,1.402939349,-2.4023,1.376,3.0974,0.0017000000000000348,-0.006199999999999983,0.0010900000000000354,0.007857719892372161,0.0017413632334173368,0.0028738460424020396
150000000000.0,-1,1.575144123,0.18571833769999999,0.7308503979,-0.95097,-0.20716,0.4396,-1.2790813595,-9.621108181999999,1.402939349,-2.4023,1.376,3.0974,0.0015000000000000568,-0.006199999999999983,0.0012499999999999734,0.010673599559375635,0.0019339474657418254,0.0031812514171756234
150000000000.0,-1,1.089518815,-0.008472945599999998,0.9690048931499999,-0.85384,0.060108,0.32765,-1.3151698315,-9.628953502,1.3131104349999998,-2.3554,1.3801,3.0495,0.0015000000000000568,-0.006199999999999983,0.0010499999999999954,0.011284217850117129,0.0007892689736683778,0.00198342933791551
150000000000.0,-1,1.0835367585,0.1002828029,0.85403172855,-0.81501,0.27242,0.21689,-1.3436091165,-9.6365046225,1.225635117,-2.3103,1.3843,3.0061,0.0013999999999998458,-0.006099999999999994,0.0010299999999999754,0.008950730030813592,0.0014729881142145906,0.00030418000665166645
150000000000.0,-1,0.82520017755,0.28045057669999995,0.7036075242000001,-0.82517,0.36971,0.092663,-1.3607707539999998,-9.645036408,1.1362965354999999,-2.2666,1.389,2.9654,0.0013000000000000789,-0.006099999999999994,0.001060000000000061,0.009873084048131364,0.0012453746844212077,0.0007493502344373404
150000000000.0,-1,0.43940656655,0.31223392935,0.7110801915,-0.87421,0.41478,0.007146,-1.368223808,-9.6547449915,1.041662363,-2.2215,1.3945,2.924,0.0013000000000000789,-0.006099999999999994,0.0010000000000000009,0.007721909997114862,0.0005600738869120381,0.0003664828665135289
150000000000.0,-1,0.05937926574999999,0.3538827719,0.8522371115999999,-0.91241,0.46225,-0.031336,-1.3704793375,-9.664649707999999,0.9417718260999999,-2.1729,1.4004,2.8794,0.0012999999999998568,-0.006000000000000005,0.0009299999999999864,0.008918767387861903,-0.0007251977580140512,-6.957712989352771e-05
150000000000.0,-1,-0.37691859274999995,0.7127865485999999,0.6576633689499999,-0.94365,0.51932,-0.03136,-1.3720484015,-9.673966025499999,0.8378115294499999,-2.119,1.4061,2.8303,0.0012000000000000899,-0.006099999999999994,0.0008699999999999264,0.009119597488844278,-0.0017269405604007915,0.00014392990869271927
150000000000.0,-1,-0.36889675304999997,0.5774940052,0.59305715875,-0.97618,0.53745,0.00043,-1.3757749284999998,-9.6822036115,0.73003644595,-2.0587,1.4113,2.775,0.0010999999999998789,-0.006000000000000005,0.0007400000000000739,0.004920621722388274,-0.0017967834044367859,0.001002721020239239
150000000000.0,-1,-0.31650962874999994,0.3660626312,0.55318331985,-0.99093,0.49677,0.047728,-1.3832279825,-9.688774066999999,0.62012351275,-1.9923,1.4156,2.7133,0.001000000000000112,-0.006299999999999972,0.0005499999999999394,0.0048596309021173845,-0.0036458326222130744,0.0031077907828143125
150000000000.0,-1,0.06979392805,0.08840694975,0.6905058398,-0.98584,0.41074,0.097136,-1.394701763,-9.693481259,0.5112402777999999,-1.9221,1.4187,2.647,0.0008999999999999009,-0.006300000000000194,0.0008500000000000174,0.003974991644223769,-0.002310691688698796,0.004480370120913069
150000000000.0,-1,0.4121931128,0.05904583965,0.75106190355,-0.96735,0.29021,0.12676,-1.408823339,-9.696423253999999,0.40563246394999997,-1.8511,1.4207,2.5787,0.0008000000000001339,-0.006299999999999972,0.0005500000000000504,0.004340978980297283,-0.004224753404547421,0.002784951311524342
150000000000.0,-1,0.6872892585999999,0.10249910579999999,0.7266139250999999,-0.92964,0.18503,0.11913,-1.422356516,-9.698188451,0.30513391475,-1.7821,1.4219,2.5111,0.0008999999999999009,-0.006299999999999972,0.0004999999999999449,0.00308105327062691,-0.0025900343598805886,0.00360372023330946
150000000000.0,-1,0.9630424499499999,0.31105713134999996,0.41628248585,-0.89687,0.1223,0.07233,-1.4316728335,-9.699365249,0.20935236419999997,-1.716,1.4227,2.4457,0.000700000000000145,-0.00649999999999995,0.00043999999999999595,-0.0007302728101183931,-0.0009335887615664618,0.005306607867833435
150000000000.0,-1,1.002828029,0.4984131796,0.5538599786999999,-0.86423,0.068512,-0.041971,-1.430986368,-9.700934313,0.1177190266,-1.6529,1.4239,2.3828,0.0008999999999999009,-0.006399999999999961,0.00036000000000002697,0.004677029850802983,-0.002919352983504986,0.0039382587615675035
150000000000.0,-1,0.9918445809999998,0.5059446867999999,0.6600659982,-0.76372,0.039824,-0.16654,-1.416668659,-9.703680175,0.034401728199999995,-1.5951,1.4258,2.3249,0.0006999999999999229,-0.006399999999999961,0.00027999999999994696,0.003379438830176662,-0.0016574870915979645,0.0045395675583974615
150000000000.0,-1,1.0497038159999998,0.3338968192,0.5280292626,-0.58349,0.12213,-0.26152,-1.3916617015,-9.7073086355,-0.03243059155,-1.5475,1.4284,2.2778,0.000600000000000156,-0.006600000000000161,0.000160000000000049,0.0019720369596185616,-0.0010787756257841785,0.005127934097547193
150000000000.0,-1,1.0497038159999998,0.3338968192,0.5280292626,-0.58349,0.12213,-0.26152,-1.3916617015,-9.7073086355,-0.03243059155,-1.5475,1.4284,2.2778,0.0006999999999999229,-0.00649999999999995,-2.999999999997449e-05,0.004275256506214964,-0.0022026560970791476,0.004647897060230832
150000000000.0,-1,1.018322536,0.33804503215,0.5801418007,-0.43861,0.27196,-0.31462,-1.3601823549999998,-9.711525494999998,-0.08454312964999999,-1.5087,1.4314,2.2412,0.0005999999999999339,-0.006799999999999917,-0.00014999999999998348,0.0036998581839926548,-0.0017632244662539875,0.00469862722603942
150000000000.0,-1,1.271922505,0.5139665265,0.40845677915,-0.33981,0.36582,-0.34229,-1.3247803484999998,-9.715938487499999,-0.12699611749999998,-1.4752,1.4347,2.2111,0.000700000000000145,-0.00670000000000015,-0.0003500000000000725,0.003975234299480546,-0.0018046222929088973,0.004615458333973255
150000000000.0,-1,1.5573940865,0.77781444475,0.2674861854,-0.28711,0.4023,-0.31803,-1.290359007,-9.719959214,-0.16363376189999998,-1.4447,1.4378,2.1845,0.0004999999999999449,-0.006999999999999895,-0.0004999999999999449,0.002360706192522155,-0.003614402223254709,0.005349557300229346
150000000000.0,-1,1.2698631084999998,0.8632793994999999,0.5226552184,-0.23663,0.43006,-0.26842,-1.2606448575,-9.723293475,-0.1952504015,-1.4171,1.4403,2.1613,0.0004999999999999449,-0.007200000000000095,-0.0006099999999999994,0.001115151971251116,-0.0021632584791129172,0.005230292848325213
150000000000.0,-1,0.8194044474,0.74151022645,0.7612706262,-0.22248,0.44473,-0.23234,-1.2344611019999998,-9.726039337,-0.224376152,-1.391,1.4425,2.1397,0.00029999999999996696,-0.00749999999999984,-0.0007800000000000029,-0.002314660190438911,-0.0031940626498083713,0.006511649696962607
150000000000.0,-1,0.5784550569,0.48782199759999995,0.33431850515,-0.23242,0.44666,-0.20603,-1.211317408,-9.728294866499999,-0.25396281504999996,-1.3641,1.4443,2.1174,0.000300000000000189,-0.007600000000000051,-0.0011400000000000299,0.0008602136529940463,-0.004375860112989516,0.005605354659220296
150000000000.0,-1,0.19072953585,0.49544176465,0.0879852638,-0.25239,0.45683,-0.19201,-1.1897427779999998,-9.7300600635,-0.2855108081,-1.3353,1.4457,2.0932,0.00019999999999997797,-0.007800000000000029,-0.0011499999999999844,-0.0024121393939222635,-0.0024884369326161337,0.005303763870308842
150000000000.0,-1,0.004903325,0.8093035979,0.029312076849999997,-0.27634,0.47656,-0.17938,-1.1692468795,-9.7314329945,-0.31960853015,-1.304,1.4469,2.0668,0.00019999999999997797,-0.008099999999999996,-0.0012199999999999989,-0.0007275087297924365,-0.003118416867839535,0.005099822282847555
150000000000.0,-1,0.01205237285,0.838272442,0.1959172537,-0.27915,0.48864,-0.18921,-1.1482606485,-9.732707859,-0.35482421029999994,-1.2711,1.4479,2.0389,-5.0000000000105516e-05,-0.008499999999999952,-0.0012499999999999734,-0.004526689277566165,-0.0011494406882999186,0.005713592872362394
150000000000.0,-1,0.12223989225,0.9723293475,-0.24163585599999998,-0.2452,0.50325,-0.22866,-1.123645957,-9.7343749895,-0.38743132155,-1.2388,1.4493,2.0117,-4.999999999988347e-05,-0.008499999999999952,-0.0014100000000000223,-0.0038562461622233535,-0.0019047131202658552,0.004920885112902784
150000000000.0,-1,0.10752991725,1.105601721,-0.2829218525,-0.18706,0.52829,-0.27154,-1.09442214,-9.736532452499999,-0.41469380854999993,-1.2086,1.4512,1.9869,-0.00019999999999997797,-0.008800000000000141,-0.0013699999999999823,-0.0015089055744712532,-0.0031773555307033075,0.004207616761921162
150000000000.0,-1,-0.024928504299999998,1.2025894895,-0.30128970795,-0.090938,0.55323,-0.3079,-1.0605891975,-9.7394744475,-0.43298321079999996,-1.1832,1.4537,1.9672,-9.999999999998899e-05,-0.008999999999999897,-0.0014300000000000423,-0.003483892899547314,-0.0005249400495890288,0.006106766001332531
150000000000.0,-1,-0.10349938409999998,1.444127279,-0.42297062115,0.017916,0.56277,-0.33544,-1.0237161934999999,-9.743102908,-0.44013225864999994,-1.1647,1.4569,1.9547,-0.000400000000000178,-0.009300000000000086,-0.0013699999999999823,-0.0020857142128258843,0.0006400344645560718,0.005099263281088895
150000000000.0,-1,-0.13637127489999998,1.728912395,-0.47357293515,0.12924,0.56978,-0.33645,-0.9860586575,-9.747221700999999,-0.43577810604999995,-1.1547,1.4606,1.9507,-0.0004999999999999449,-0.009400000000000075,-0.0014800000000000368,-0.0034342560696234425,-0.0026981243782173703,0.007959779235560571
150000000000.0,-1,-0.18850342629999997,1.9284777224999998,-0.5512121832,0.22875,0.56185,-0.32657,-0.9490385537499999,-9.751536627,-0.42023456579999996,-1.1539,1.4648,1.956,-0.0004999999999999449,-0.009799999999999809,-0.0010700000000000154,-0.0010261470188555055,0.0021905153815093836,0.005332004185394812
150000000000.0,-1,-0.18850342629999997,1.9284777224999998,-0.5512121832,0.22875,0.56185,-0.32657,-0.9490385537499999,-9.751536627,-0.42023456579999996,-1.1539,1.4648,1.956,-0.000700000000000145,-0.009700000000000042,-0.0011200000000000099,-0.0026454325294507086,-0.0004501281891815534,0.005419750430356807
150000000000.0,-1,-0.24500934359999998,2.0041850605,-0.9954730414999999,0.3069,0.53012,-0.29138,-0.91528406445,-9.755851553,-0.39552180779999996,-1.1629,1.4689,1.9708,-0.0008999999999999009,-0.010000000000000009,-0.0007499999999999174,0.001219505726913761,0.0010915958719250884,0.002905886819316361
150000000000.0,-1,-0.3037511771,1.8102095235,-1.326643612,0.35889,0.51215,-0.26276,-0.8849717093,-9.7598722795,-0.36420917434999994,-1.1804,1.4731,1.9939,-0.0009999999999998899,-0.010199999999999987,-0.0007000000000000339,0.0011590322461265679,0.0016173991607375537,0.0027104719725210558
150000000000.0,-1,-0.44499635704999996,1.6943929869999999,-1.5389575844999999,0.38055,0.52224,-0.23133,-0.8580426484,-9.76350074,-0.32972899294999997,-1.2039,1.4769,2.0231,-0.0009000000000001229,-0.010000000000000009,-0.0007099999999999884,-0.0027071079999081427,0.00034328662134530674,0.005895975123071828
150000000000.0,-1,-0.58578062445,1.5610225469999999,-1.6909606595,0.38352,0.54139,-0.19185,-0.835330447,-9.7665408015,-0.294591766,-1.2318,1.4804,2.0568,-0.0008999999999999009,-0.010099999999999998,-0.0008799999999999919,-0.000422532139486842,-0.0008748606897290845,0.008661966603213944
150000000000.0,-1,-0.6030305217999999,1.5634742094999998,-1.7248916684999998,0.37109,0.58047,-0.13242,-0.8180805496499999,-9.768992464,-0.26067056364999996,-1.2623,1.4831,2.0936,-0.0014000000000000679,-0.010599999999999943,-0.00031999999999998696,-0.0011687051062070353,0.0017699006821338958,0.002892782789332138
150000000000.0,-1,-0.7733131924,1.025971723,-1.8927815164999997,0.35625,0.61959,-0.08745,-0.8062635363999999,-9.770757661,-0.22815171225,-1.295,1.4852,2.133,-0.0014000000000000679,-0.010800000000000143,-0.0007599999999999829,-0.00203411941845677,-0.0008174619236833713,0.00826636871147679
150000000000.0,-1,-0.8322511588999999,0.70612783325,-1.9090605555,0.32832,0.68359,-0.028574,-0.8002912865499999,-9.771934458999999,-0.19857485584999998,-1.3276,1.4866,2.1728,-0.0016000000000000458,-0.011399999999999855,-0.0001100000000000545,-0.0024653536135799126,0.0003869818380175527,0.0027952490740692504
150000000000.0,-1,-0.80252720275,0.41228137265,-1.9473064905,0.26849,0.74911,0.020226,-0.7997911474,-9.772424791499999,-0.17511734905,-1.3552,1.4872,2.2084,-0.0018999999999997907,-0.011800000000000033,-0.00017999999999995797,-0.003872703684706602,0.0010413806051046137,0.0027433073235028083
150000000000.0,-1,-0.77432327735,0.2500891883,-1.90837409,0.18879,0.7477,0.048047,-0.80286062885,-9.772424791499999,-0.15958361545,-1.3746,1.4872,2.2359,-0.0019000000000000128,-0.0121,-0.00014999999999998348,-0.002839009813640825,0.00023760170008690906,0.00027227131626084145
150000000000.0,-1,-0.67688440295,-0.11104069794999999,-1.8486515915,0.09949,0.66384,0.070887,-0.80841119275,-9.772032525499998,-0.15302296659999998,-1.3837,1.4868,2.2525,-0.0020999999999999908,-0.012399999999999967,-8.000000000008001e-05,-0.005463892620048538,0.00038171757948890495,-0.00018277496361385204
150000000000.0,-1,-0.43548390655,-0.4990800318,-1.8275672939999998,0.032961,0.55636,0.11241,-0.8177373169,-9.771346059999999,-0.15318967965,-1.3856,1.4859,2.2606,-0.002200000000000202,-0.012500000000000178,-0.00012000000000000899,-0.009756251850614017,0.00047081032704832104,-0.0011923075919386683
150000000000.0,-1,-0.32256033179999993,-0.9879219209999999,-1.9380882394999999,0.023363,0.47126,0.13875,-0.8309959076999999,-9.770169262,-0.15520984955,-1.3861,1.4845,2.2664,-0.0021999999999999797,-0.012399999999999967,-0.00017000000000000348,-0.010003747301802646,-0.0007300614659440097,-0.00040176526082857933
150000000000.0,-1,-0.2736643749,-1.3819531179999998,-2.0730277435,0.072509,0.39184,0.12851,-0.84412701205,-9.7690905305,-0.1527091538,-1.3918,1.4832,2.2765,-0.0024999999999999467,-0.012499999999999956,0.00043999999999999595,-0.012550657956189815,-0.0017740106904409192,-0.004979249781694506
150000000000.0,-1,-0.0891228352,-1.6056428044999997,-2.170015512,0.13284,0.34669,0.10589,-0.8553948529,-9.768207932,-0.14369684244999997,-1.4044,1.4822,2.2929,-0.0027999999999999137,-0.012299999999999978,0.0011400000000000299,-0.012501860403544951,-0.00434391227891151,-0.006726103806429684
150000000000.0,-1,-0.0891228352,-1.6056428044999997,-2.170015512,0.13284,0.34669,0.10589,-0.8553948529,-9.768207932,-0.14369684244999997,-1.4044,1.4822,2.2929,-0.0028000000000001357,-0.011700000000000044,0.0019000000000000128,-0.013160424152025119,-0.006590047028210977,-0.007374548319023511
150000000000.0,-1,0.5464657646,-1.4028412825,-2.272396938,0.19293,0.31004,0.077142,-0.8636912788,-9.7677175995,-0.12808465565,-1.4236,1.4816,2.3156,-0.0029999999999998916,-0.011099999999999888,0.002449999999999952,-0.007928685730944629,-0.00643089364263294,-0.007014669390806638
150000000000.0,-1,0.49792284709999995,-1.135806203,-2.3842908145,0.27388,0.23283,0.061276,-0.8700754079499999,-9.7674234,-0.10420546289999999,-1.4516,1.4813,2.3465,-0.0028000000000001357,-0.010199999999999987,0.0026200000000000667,-0.004273042543330163,-0.005885589035851568,-0.0030084180521363635
150000000000.0,-1,0.039177566750000004,-1.000866699,-2.77920461,0.40144,0.075804,0.078447,-0.8775971085,-9.767031134,-0.0672147791,-1.4944,1.4809,2.3907,-0.0026999999999999247,-0.009700000000000042,0.0027000000000000357,0.0002409742449995811,-0.0018398071500731472,-0.005653622995673402
150000000000.0,-1,-0.27254641679999997,-0.9203050692499999,-3.334064867,0.54131,-0.081962,0.08256,-0.8862465737999999,-9.7665408015,-0.0137685366,-1.5553,1.4803,2.4514,-0.0021999999999999797,-0.009300000000000086,0.0024999999999999467,0.005382074038784435,-0.00047443252419610005,-0.008410692529054131
150000000000.0,-1,-0.71828807925,-0.7648794734,-3.6109065964999996,0.66439,-0.21107,0.064385,-0.8934544615499999,-9.765756269499999,0.054142514649999994,-1.6313,1.4794,2.5258,-0.0020000000000000018,-0.009099999999999886,0.0021799999999999597,0.006121222092114742,0.0023799417144501067,-0.009242412085165519
150000000000.0,-1,-0.7179448464999999,-0.7657228452999999,-3.6937727889999996,0.80499,-0.34639,-0.023247,-0.89380750095,-9.764873670999998,0.1370381271,-1.7229,1.4785,2.6145,-0.0017000000000000348,-0.009000000000000119,0.0015500000000000513,0.0024255588359964886,0.005292726356968203,-0.007545864695383653
150000000000.0,-1,-0.7384995848999999,-0.7024895661,-3.123614158,0.98508,-0.51826,-0.23977,-0.8742922674499999,-9.764677537999999,0.2395176196,-1.8382,1.4782,2.7252,-0.0012999999999998568,-0.008999999999999897,0.0008700000000000374,-0.0031619491555046064,0.0033516899013665835,0.0003829013516472024
150000000000.0,-1,-0.48759644464999996,-0.39005950375,-2.4384235225,1.1042,-0.69658,-0.48951,-0.82757338685,-9.765069804,0.35842325085,-1.9795,1.4787,2.8601,-0.0014000000000000679,-0.009300000000000086,0.0006399999999999739,-0.007226877500413176,0.0044887194890150806,0.0020030916501085905
150000000000.0,-1,-0.2496184691,-0.06886229629999999,-1.6902741940000001,1.0142,-0.78661,-0.61818,-0.7616334722499999,-9.76546207,0.47522045235,-2.1286,1.4791,3.0016,-0.001100000000000101,-0.009400000000000075,0.00024000000000001798,-0.011139822601373695,0.002036572283469207,0.007181108502946287
150000000000.0,-1,0.5585671707,-0.5071214848,-0.5481328951,0.57931,-0.68288,-0.57257,-0.6953307115999999,-9.766246601999999,0.5544189577499999,-2.2439,1.48,3.1096,-0.0007999999999999119,-0.009399999999999853,-0.0003300000000000525,-0.013467310865180826,-0.0022673667424901733,0.012471566841946835
150000000000.0,-1,1.9334791139999998,-2.0124226465,0.84004744565,0.02055,-0.55281,-0.34251,-0.64942578295,-9.768207932,0.5749246629,-2.2954,1.4822,-3.128,-0.001000000000000112,-0.009600000000000053,-0.00014999999999998348,-0.0188059299703196,-0.0030162018609480867,0.010757729532302918
150000000000.0,-1,3.6377768175,-4.899304273499999,2.2426827885,-0.36505,-0.66687,-0.060958,-0.6318130395499999,-9.770855727499999,0.5492116266,-2.2864,1.4853,3.1394,-0.0006999999999999229,-0.009200000000000097,-0.00046000000000001595,-0.017097237877682137,-0.005870123522199622,0.012620663668771126
150000000000.0,-1,4.8543898164999995,-7.135710805999999,3.4820472154999997,-0.43841,-0.84764,0.22454,-0.64346333975,-9.772326725,0.5084649958499999,-2.2395,1.4871,3.0837,-0.0007999999999999119,-0.008729999999999905,-0.00039000000000000146,-0.014853566047396516,-0.005931766803572991,0.010184975785230588
150000000000.0,-1,5.0522880135,-6.926044629,3.4712599004999998,-0.20847,-0.81085,0.4473,-0.6805226700999999,-9.770953794,0.48545859494999993,-2.1904,1.4855,3.0255,-0.00029999999999996696,-0.007859999999999978,-0.0008699999999999264,-0.006499973200626119,-0.005825873806233561,0.009327380752929049
150000000000.0,-1,1.6081925334999998,-1.708514563,2.8634437335,0.18161,-0.5605,0.55971,-0.73382181285,-9.766442735,0.49831511309999993,-2.1673,1.4802,2.9955,-0.0008000000000001339,-0.007610000000000006,-0.00046000000000001595,-0.00861102952541204,-0.0007450313089591987,0.004439147017268663
150000000000.0,-1,1.6081925334999998,-1.708514563,2.8634437335,0.18161,-0.5605,0.55971,-0.73382181285,-9.766442735,0.49831511309999993,-2.1673,1.4802,2.9955,-0.0009999999999998899,-0.007340000000000013,-0.000300000000000078,-0.007941517347594962,0.002027063748702318,0.00019396964482343293
150000000000.0,-1,-0.81680568515,1.3257610135,3.070069849,0.65035,-0.14793,0.46876,-0.7852184655,-9.759381947,0.55569382225,-2.1867,1.4725,3.0121,-0.001100000000000101,-0.007009999999999961,-0.00041999999999997595,-0.005269147179998379,0.004186494437975918,-0.003997036848644608
150000000000.0,-1,-2.0382141359999997,3.4245802465,3.0538888765,1.1204,0.35442,0.16962,-0.81325567785,-9.7506540285,0.6584969342,-2.2514,1.4639,3.0797,-0.0014000000000000679,-0.007020000000000026,-0.00034999999999996145,-0.00896814359111242,0.007604323417590653,-0.006583378910688165
150000000000.0,-1,-2.3148597325,4.7531851885,3.2351157685,1.4893,0.76974,-0.21988,-0.8056555241,-9.740749312,0.7992615883,-2.3522,1.4548,-3.0948,-0.0013999999999998458,-0.007010000000000072,-0.00036999999999998145,-0.010258303988930573,0.007619650281531776,-0.006649945391662637
150000000000.0,-1,-1.4864920069999998,5.747187232499999,3.304056518,1.6243,0.94327,-0.58266,-0.7628200768999999,-9.729765863999999,0.9588353971,-2.4696,1.4455,-2.9668,-0.0015000000000000568,-0.007169999999999899,-0.00021000000000004349,-0.011637998944797223,0.007197067968064408,-0.007111950742678008
150000000000.0,-1,-0.45658781735,5.1532965084999995,3.0430034950000002,1.4883,0.92019,-0.80193,-0.6942715933999999,-9.718782416,1.1107992455,-2.583,1.4368,-2.8423,-0.0014000000000000679,-0.007090000000000041,-0.00017999999999995797,-0.010434242245001668,0.008177229528616436,-0.007026204509653411
150000000000.0,-1,0.4781526407,4.2899190425,2.8227461359999997,1.23,0.82984,-0.75841,-0.62330086735,-9.707995101,1.2395605600000001,-2.6757,1.4288,-2.7395,-0.0009999999999998899,-0.006809999999999983,-0.0003300000000000525,-0.0060272737215321115,0.006879823882182112,-0.004356711439664984
150000000000.0,-1,1.198568763,3.5255887414999996,2.575618556,0.9338,0.67861,-0.4822,-0.5750031161,-9.6976981185,1.339392257,-2.7361,1.4216,-2.6707,-0.000700000000000145,-0.006659999999999999,-0.00022999999999995246,-0.002328359202204311,0.004546501191018626,-0.004562033145950828
150000000000.0,-1,2.069791549,2.715265252,2.2897547085,0.7237,0.3949,-0.074371,-0.5635293356,-9.6874992025,1.4159821934999999,-2.7628,1.4148,-2.6385,-0.00039999999999995595,-0.006469999999999976,-0.000300000000000078,0.0003461934054178606,0.002941561262161274,-0.0024516341633460392
150000000000.0,-1,2.6899640949999997,1.7074358314999998,2.0901893809999996,0.69106,0.004071,0.34338,-0.5902230369,-9.6753389565,1.4863939405,-2.7636,1.407,-2.6366,3.333333333332966e-05,-0.006380000000000052,-0.0005499999999999394,-0.0007312006131710014,0.0027335962552954562,-0.0012780945267665267
150000000000.0,-1,2.5419817465,0.5787296431,2.111764011,0.79859,-0.35527,0.67234,-0.6475723260999999,-9.6588637845,1.5673968695,-2.7498,1.397,-2.6535,3.333333333332966e-05,-0.00651999999999997,-0.0005500000000000504,0.0002825853176353643,0.0012401025235349028,-0.0014527296215849361
150000000000.0,-1,2.1377516334999997,-0.2647991633,1.7801031079999998,0.96081,-0.57547,0.87856,-0.72440742885,-9.636896888499999,1.6662479015,-2.7315,1.3844,-2.6779,3.333333333332966e-05,-0.006700000000000039,-0.0005299999999999194,0.0013456621356513487,-0.0018048145477866928,0.0009450444483825038
150000000000.0,-1,1.9261241265,-0.5612738061,1.0243045925,1.0461,-0.64229,0.94923,-0.8092545646499999,-9.610222800499999,1.777553379,-2.7144,1.3703,-2.7022,0.00039999999999995595,-0.006859999999999977,-0.0008600000000000829,-0.003064926320093031,-0.0012362163598218512,0.0009023323356158741
150000000000.0,-1,1.4774698889999998,-0.7469529171999999,0.40728978779999997,0.9211,-0.60107,0.90967,-0.8922580502499999,-9.582862247,1.8824845339999998,-2.699,1.3567,-2.7247,0.000600000000000156,-0.006990000000000052,-0.0015899999999999803,-0.007664492104506149,-0.005077292190176497,0.006195293532605728
150000000000.0,-1,1.0050835585,-0.9936097779999998,0.0768449094,0.59317,-0.49404,0.78102,-0.9646605471999999,-9.5607972845,1.957211207,-2.6837,1.3464,-2.7461,0.00019999999999997797,-0.007419999999999982,-0.001040000000000041,-0.009104633246959537,-0.0028082654898340387,0.002981268951164573
150000000000.0,-1,0.6252621973499999,-1.0847135565,-0.12273022474999999,0.25079,-0.35727,0.65777,-1.026756255,-9.5464795755,1.9954571419999998,-2.6664,1.3399,-2.7681,0.0004999999999999449,-0.007319999999999993,-0.0016799999999999038,-0.011098340852305766,-0.0039434533874089794,0.0069133098656242176
150000000000.0,-1,0.6252621973499999,-1.0847135565,-0.12273022474999999,0.25079,-0.35727,0.65777,-1.026756255,-9.5464795755,1.9954571419999998,-2.6664,1.3399,-2.7681,0.00019999999999997797,-0.007530000000000037,-0.0010300000000000864,-0.009350438174015485,-0.00016307057648523582,0.0018341698460755396
150000000000.0,-1,0.25672829035,-0.5973426648,-0.0341075287,0.030243,-0.26956,0.4755,-1.0739262415,-9.538928454999999,2.0063425235,-2.6501,1.3366,-2.788,0.0009000000000001229,-0.008939999999999948,-0.0046399999999999775,0.043373139057823806,0.0010378361580949402,0.08133705332538899
150000000000.0,-1,-0.046444294399999995,0.13861699775,0.125917386,-0.049081,-0.18829,0.27115,-1.102659726,-9.53598646,2.0047734595,-2.6387,1.3353,-2.802,0.0004999999999999449,-0.007299999999999973,-0.0014100000000000223,-0.01007424873080498,9.931474052238265e-05,0.002085541949095493
150000000000.0,-1,0.02317311395,0.25211916484999997,0.55324215975,0.024947,-0.072073,0.056353,-1.111681844,-9.5347115955,2.005852191,-2.6355,1.3348,-2.8065,0.0006999999999999229,-0.007090000000000041,-0.0009899999999999354,-0.007443828135997643,-0.0007143199762671415,-0.0005253765147026357
150000000000.0,-1,0.26919254249999996,0.6967036426,1.1362965354999999,0.20379,0.023012,-0.13989,-1.1020713269999998,-9.5325541325,2.021738964,-2.6425,1.3338,-2.7993,0.0004999999999999449,-0.00537999999999994,0.0014100000000000223,-0.05812600503762999,-0.004785793967525764,-0.06893483069487916
150000000000.0,-1,-0.0079237732,1.4530513305,1.7927536865,0.43943,0.10128,-0.27979,-1.0787315,-9.527160475,2.059004234,-2.659,1.3315,-2.7814,0.000600000000000156,-0.006960000000000077,-0.000980000000000092,-0.004011502078992368,0.0008365258595048886,0.00014602180444489576
150000000000.0,-1,-0.11249208214999999,2.2856359155,1.440008486,0.70055,0.18226,-0.35321,-1.0478405524999999,-9.5168634925,2.1218648605,-2.6829,1.3271,-2.755,0.0008999999999999009,-0.007000000000000006,-0.0012499999999999734,-0.004300088180217987,-0.00032383139638092473,0.001579222110537959
150000000000.0,-1,-0.16702686279999998,2.3499675395,0.79270093945,0.90531,0.25741,-0.35873,-1.016557339,-9.500976719499999,2.20649625,-2.7098,1.3205,-2.7246,0.0009000000000001229,-0.007029999999999981,-0.0012699999999999934,-0.005519749575203958,-0.0010266421361557754,0.001844923237861007
150000000000.0,-1,-0.4124873123,2.305935681,0.1798147344,0.9758,0.27384,-0.32914,-0.9889025859999999,-9.4813634195,2.3015226885,-2.7358,1.3125,-2.6948,0.0005999999999999339,-0.007009999999999961,-0.0010499999999999954,-0.0025897484761523426,0.0004290227802963287,-0.0011225945650066294
150000000000.0,-1,-0.6577908553999999,2.090385514,-0.2548552202,0.9413,0.23604,-0.2617,-0.9666709104499999,-9.460279122,2.395568462,-2.7581,1.3042,-2.669,0.0014000000000000679,-0.006950000000000012,-0.0017800000000000038,-0.00400709769380625,-0.003872968202441651,0.0012375643033397665
150000000000.0,-1,-0.7167092085999999,1.686939933,-0.32594362605,0.83598,0.18874,-0.18064,-0.9515980893999999,-9.439881289999999,2.480690184,-2.7753,1.2964,-2.6488,0.0005999999999999339,-0.007319999999999993,-0.0016899999999999693,-0.013890161934926759,0.0004333017672972783,0.002570152343372989
150000000000.0,-1,-0.64267880775,1.2406392915,-0.20226215625,0.71561,0.15186,-0.098722,-0.9440861954999998,-9.421052522,2.5541419925,-2.7875,1.2894,-2.6343,0.0013000000000000789,-0.006890000000000063,-0.0018900000000000583,-0.002775902902019345,-0.0036858130699795044,5.9813587341306373e-05
150000000000.0,-1,-0.5814951184,0.7257705532,0.0708628529,0.60234,0.1264,-0.061389,-0.9407715477999999,-9.4042831505,2.616218087,-2.7964,1.2834,-2.6236,0.0009999999999998899,-0.007099999999999995,-0.0013999999999999568,-0.0022076196782527813,-0.0034819885377617155,-0.001347498119017576
150000000000.0,-1,-0.4845465765,0.24981460209999998,0.23802700879999997,0.51067,0.11619,-0.037214,-0.9398497227,-9.389671241999999,2.6684875315,-2.803,1.2781,-2.6155,0.001000000000000112,-0.007159999999999944,-0.0012799999999999478,-0.0016590667545892668,-0.003145231287901895,-0.003890070179747518
150000000000.0,-1,-0.2620533013,-0.11595382959999999,0.558782917,0.44506,0.097196,-0.025799,-0.9401341155499999,-9.376726463999999,2.713500055,-2.8081,1.2736,-2.609,0.0008999999999999009,-0.007070000000000021,-0.0015600000000000058,-0.004430491236313117,-0.0009642151258524301,-0.0031574184112717063
150000000000.0,-1,-0.2620533013,-0.11595382959999999,0.558782917,0.44506,0.097196,-0.025799,-0.9401341155499999,-9.376726463999999,2.713500055,-2.8081,1.2736,-2.609,0.001000000000000112,-0.007379999999999942,-0.0009500000000000064,0.000473070441534551,-0.003172089801869893,-0.00497280373704001
150000000000.0,-1,-0.18230562349999999,-0.1800108674,0.5858100444,0.40814,0.063404,-0.021007,-0.9401341155499999,-9.364762351,2.7545899185,-2.8127,1.2695,-2.6033,0.0015999999999998238,-0.007060000000000066,-0.0012199999999999989,0.006641021626851762,-0.005983456081321226,-0.004995853643261938
150000000000.0,-1,-0.1068728717,-0.11734637389999998,0.42947243009999997,0.34847,-0.022771,-0.055485,-0.9356524764999999,-9.354367301999998,2.7910706564999996,-2.8181,1.2659,-2.5976,0.001100000000000101,-0.007469999999999977,-0.0013199999999999878,-0.0037835820596652248,-0.0019634208117902396,-0.004095865028803214
150000000000.0,-1,-0.12129845384999999,0.1297615928,0.2796464314,0.28544,-0.11735,-0.11155,-0.9231686110499999,-9.346423915499999,2.8218635375,-2.8254,1.2632,-2.591,0.0010999999999998789,-0.007510000000000017,-0.0009900000000000464,-0.0005860387067051498,0.001270421742353367,-0.00825555004775369
150000000000.0,-1,-0.20366450719999998,0.42140155715,0.19839833614999997,0.23326,-0.16812,-0.16327,-0.90320227165,-9.340441858999998,2.848047293,-2.8345,1.2612,-2.5833,0.0016000000000000458,-0.007769999999999944,-0.0016300000000000203,-0.0052411462903618755,-0.0019182959059096394,-0.003314324254502843
150000000000.0,-1,-0.24819650485,0.5328835543499999,0.1827175028,0.18361,-0.22121,-0.21853,-0.8764791503999999,-9.336323066,2.869621923,-2.8452,1.2598,-2.5744,0.005700000000000038,-0.005240000000000022,-0.0019599999999999618,0.05157761245798609,-0.012402343888668454,-0.004269038548354143
150000000000.0,-1,0.03992287215,0.7253390606,-0.033862362449999996,0.15767,-0.2895,-0.24438,-0.84422507855,-9.333577204,2.8883526245,-2.8572,1.2589,-2.5648,0.0018000000000000238,-0.00819000000000003,-0.0013300000000000534,-0.0051409795176331485,-0.0009442244380886144,-0.004769373298517898
150000000000.0,-1,0.14142169964999998,0.7783145839,-0.26029791095,0.15014,-0.36108,-0.23866,-0.8094016643999999,-9.331027474999999,2.906494927,-2.87,1.2581,-2.5552,0.0022999999999999687,-0.008569999999999967,-0.0008000000000000229,-0.0031023021048310895,-0.0027573521555144254,-0.0020038983997743287
150000000000.0,-1,0.08395473064999999,0.7159246765999999,-0.1700080844,0.17236,-0.40791,-0.18958,-0.77677493985,-9.3275951475,2.9263043599999996,-2.8821,1.2569,-2.5469,0.0022999999999999687,-0.008360000000000034,-0.0011199999999998989,-0.0025612398053693752,0.0019006968055332862,-0.0035245786796487266
150000000000.0,-1,0.005246557749999999,0.5629409365999999,-0.21863926174999998,0.20359,-0.43165,-0.11904,-0.74968897255,-9.322593756,2.949251921,-2.8927,1.2553,-2.5406,0.0031000000000001027,-0.00878000000000001,-0.001060000000000061,-0.00127171010556415,-0.005037352276813678,0.003354179389452039
150000000000.0,-1,-0.14410872175,0.45006639509999996,-0.25827774104999995,0.23345,-0.45192,-0.032929,-0.7302227723,-9.315925234,2.974945344,-2.9009,1.2531,-2.537,0.0027999999999999137,-0.00875999999999999,-0.0007300000000000084,0.0004939893734010603,0.00019159212283414995,0.0004834133763478299
150000000000.0,-1,-0.53027498545,0.28559906794999995,-0.0291061372,0.27463,-0.47753,0.004082,-0.7148655584,-9.3075895815,3.00475756,-2.908,1.2504,-2.5348,0.0024999999999999467,-0.009120000000000017,-0.0019200000000000328,-0.013183209520027939,0.0019395233851140503,-0.006926199229046137
150000000000.0,-1,-0.7761178943,0.23941955310000002,0.06932320885,0.32005,-0.51983,0.026947,-0.7008028222999999,-9.297390665499998,3.0392769679999994,-2.915,1.2471,-2.5332,0.005600000000000049,-0.00649999999999995,-0.002889999999999948,-0.02347083509078396,-0.005864654416066317,-0.021884280656727206
150000000000.0,-1,-0.96129686625,0.15599438155,0.06100716965,0.35377,-0.53936,0.027678,-0.6862105270999999,-9.2858188185,3.0778171025,-2.9222,1.2434,-2.5316,0.0036000000000000476,-0.009589999999999987,-0.00034000000000000696,0.005014055225511571,-0.0012359693412591355,0.0036982789996384824
150000000000.0,-1,-1.3118355705,0.04458103089999999,0.09453610599999998,0.33839,-0.51669,0.00431,-0.7160423563999999,-9.269637845999998,3.119691498,-2.916,1.2383,-2.5426,0.0038000000000000256,-0.009630000000000027,-0.00032999999999994145,0.005091644480837321,-0.002453889882131355,0.0006588958030242509
150000000000.0,-1,-1.8122689199999997,-0.0195348468,0.10125366125,0.25772,-0.44387,-0.039915,-0.6977725674499999,-9.260419595,3.1509747114999995,-2.9237,1.2355,-2.5397,0.0034000000000000696,-0.009990000000000054,4.999999999999449e-05,0.0003526941429543573,-0.001196125727571662,0.000322571222021395
