Time,placement_label,user_acc_x(m/s^2),user_acc_y(m/s^2),user_acc_z(m/s^2),rotation_rate_x(rad/s),rotation_rate_y(rad/s),rotation_rate_z(rad/s),gravity_x(m/s^2),gravity_y(m/s^2),gravity_z(m/s^2),attitude_roll(rad),attitude_pitch(rad),attitude_yaw(rad),target_delta_x,target_delta_y,target_delta_z,target_delta_roll,target_delta_pitch,target_delta_yaw
1504282296.0,-1.0,0.17239110035,-0.016141745899999997,-0.09886083864999999,0.096807,-0.05539,0.102276,-2.20776130785,-9.4403520092,1.4750770664,-2.159812,1.29662,-0.852166,0.0,0.0,0.0,0.0,0.0,0.0
1504282296.01,-1.0,0.17848102999999998,-0.0385205212,-0.09468320575,0.084,-0.056349,0.101186,-2.2135472313499998,-9.43773363365,1.4831675526499999,-2.161131,1.295633,-0.851406,0.0008263396226415095,3.343490566037736e-05,3.897641509433962e-05,0.008553336819054902,-0.010787602838977284,-0.010007147865101373
1504282296.02,-1.0,0.16637962389999997,-0.07158854499999999,-0.09032905315,0.069042,-0.059422,0.100096,-2.2192547016499997,-9.4353310044,1.48989491455,-2.162033,1.294734,-0.851086,0.0008263396226415095,3.343490566037736e-05,3.897641509433962e-05,0.008753468075527016,-0.010812431785427234,-0.010206859925042
1504282296.03,-1.0,0.16958639844999998,-0.0838272442,-0.0925943893,0.053064,-0.059285,0.094729,-2.2245600992999996,-9.433271607899998,1.4950041792,-2.162512,1.293965,-0.851199,0.0008263396226415097,3.343490566037736e-05,3.897641509433961e-05,0.008958370456710218,-0.01083265910460618,-0.010411341756606518
1504282296.04,-1.0,0.1566122005,-0.10721610444999999,-0.0815128748,0.032821,-0.058048,0.09042,-2.2295418775,-9.431575057449999,1.4982796002999998,-2.162491,1.293333,-0.851824,0.0008263396226415093,3.343490566037736e-05,3.8976415094339625e-05,0.009168098516200152,-0.010848025147549345,-0.010620647915950077
1504282296.05,-1.0,0.13584171579999998,-0.1347825976,-0.06895055615,0.017904,-0.060049,0.082924,-2.2340529365,-9.43020212645,1.5002311236499999,-2.162158,1.29282,-0.852804,0.0008263396226415093,3.343490566037736e-05,3.8976415094339625e-05,0.009382699100616954,-0.010858262698423937,-0.010834825252256763
1504282296.06,-1.0,0.1175425069,-0.15895598985,-0.048356591149999996,-0.012954,-0.055523,0.073254,-2.2379069499499997,-9.42937836785,1.4996917579,-2.161194,1.292514,-0.854409,0.0008263396226415101,3.343490566037736e-05,3.89764150943396e-05,0.00960221027152508,-0.010863097214388828,-0.011053911829661756
1504282296.07,-1.0,0.09145681789999999,-0.15548443575,-0.0514849125,-0.028912,-0.057509,0.06042,-2.2410058513499997,-9.42894687525,1.4977304278999999,-2.159949,1.292356,-0.856305,0.0008263396226415093,3.343490566037736e-05,3.8976415094339625e-05,0.009826660139361176,-0.010862247128134994,-0.011277935761177416
1504282296.08,-1.0,0.0648807964,-0.1702826706,-0.0354412331,-0.04913,-0.057331,0.049709,-2.2434477071999996,-9.42896648855,1.4939548676499999,-2.15828,1.292362,-0.858644,0.0008263396226415093,3.343490566037736e-05,3.8976415094339625e-05,0.010056065606467435,-0.010855424219188059,-0.011506913951728759
1504282296.09,-1.0,0.06039915735,-0.18972925754999997,-0.01726951065,-0.069353,-0.055027,0.043265,-2.2452521308,-9.42941759445,1.4883552704999998,-2.15618,1.292531,-0.86142,0.0008263396226415093,3.343490566037736e-05,3.8976415094339625e-05,0.010290431017021873,-0.010842334060348513,-0.011740850748081177
1504282296.1,-1.0,0.07631535029999999,-0.1697727248,-0.0098458766,-0.087448,-0.054869,0.034693,-2.2460660827499996,-9.43037864615,1.4810787362,-2.153759,1.292886,-0.864523,0.0008263396226415093,3.343490566037736e-05,3.8976415094339625e-05,0.010529746712473531,-0.010822676545883647,-0.011979736494277526
1504282296.11,-1.0,0.08924051499999999,-0.1304872849,-0.0206331916,-0.104493,-0.056851,0.026126,-2.24596801625,-9.4318006104,1.4721252647499998,-2.150993,1.293416,-0.867997,0.0008263396226415101,3.343490566037736e-05,3.8976415094339625e-05,0.010773987492168846,-0.010796146508294191,-0.012223545992263496
1504282296.12,-1.0,0.09891967855,-0.10007686325,-0.025556129899999995,-0.118312,-0.055663,0.017559,-2.2450167712,-9.433634453949999,1.461779249,-2.147958,1.2941,-0.87175,0.0008263396226415101,3.343490566037736e-05,3.897641509433957e-05,0.011023110980106443,-0.010762434430631407,-0.012472236868642739
1504282296.13,-1.0,0.09764481405,-0.07810996725,-0.00485429175,-0.130011,-0.055559,0.010065,-2.2434477071999996,-9.4357036571,1.4507958009999997,-2.144835,1.294872,-0.875595,0.0008263396226415084,3.343490566037736e-05,3.897641509433968e-05,0.011277055900315247,-0.01072122726142033,-0.012725747850053981
1504282296.14,-1.0,0.09489895205,-0.0834742048,-0.0072373077,-0.118283,-0.059913,0.004755,-2.2413098575,-9.437821893499999,1.44031249215,-2.141967,1.295666,-0.879211,0.0008263396226415101,3.343490566037736e-05,3.897641509433957e-05,0.0115357402651457,-0.010672209339217309,-0.01298399695146557
1504282296.15,-1.0,0.10127327454999999,-0.08587683404999999,-0.0331857036,-0.113002,-0.068478,0.001576,-2.23855418885,-9.440057809699999,1.4299076364999999,-2.139232,1.296506,-0.882758,0.0008263396226415084,3.343490566037736e-05,3.897641509433968e-05,0.011799059482888286,-0.010615063433726313,-0.013246879583787674
1504282296.16,-1.0,0.13349792645,-0.07663896975000001,-0.0716866115,-0.098092,-0.074989,-0.003726,-2.23470998205,-9.44240159905,1.4203657660499998,-2.136977,1.297392,-0.88587,0.0008263396226415101,3.343490566037736e-05,3.897641509433957e-05,0.012066884393568844,-0.01054947191013933,-0.013514266589674584
1504282296.17,-1.0,0.1520619149,-0.0246146915,-0.11229594914999999,-0.081056,-0.083646,-0.011155,-2.23008124325,-9.4447453884,1.41204972685,-2.135259,1.298278,-0.888481,0.0008263396226415101,3.343490566037736e-05,3.897641509433957e-05,0.012339059244536155,-0.010475118022955199,-0.01378600221910764
1504282296.18,-1.0,0.13693025395,0.0197702064,-0.14040180805,-0.075707,-0.086878,-0.019681,-2.2249719785999997,-9.44708917775,1.4043907331999999,-2.133838,1.299168,-0.890831,0.0008263396226415084,3.343490566037736e-05,3.897641509433968e-05,0.012615399620582224,-0.010391687344943445,-0.014061902059517628
1504282296.19,-1.0,0.09547754439999999,0.007511893899999999,-0.13973495584999998,-0.071462,-0.093299,-0.026068,-2.21988232725,-9.449344707249999,1.3972809119499998,-2.132583,1.300025,-0.893057,0.0008263396226415084,3.343490566037736e-05,3.897641509433957e-05,0.012895690346797495,-0.010298869336148764,-0.014341750938636988
1504282296.2,-1.0,0.06853867685,-0.02591897595,-0.0926924558,-0.073599,-0.095409,-0.029271,-2.21464557615,-9.4515315902,1.3907987163,-2.13155,1.30086,-0.895093,0.0008263396226415101,3.343490566037736e-05,3.897641509433968e-05,0.013179683386145724,-0.01019635905676819,-0.014625300822079579
1504282296.21,-1.0,0.0637039984,-0.019985952699999997,-0.0287530978,-0.081012,-0.091082,-0.033562,-2.20905578565,-9.45371847315,1.38476762655,-2.13073,1.3017,-0.896898,0.0008263396226415101,3.343490566037736e-05,3.897641509433957e-05,0.013467095757856873,-0.010083859026487563,-0.014912268731730016
1504282296.22,-1.0,0.07656051655,-0.01372931,0.018338435499999996,-0.089566,-0.092079,-0.031441,-2.2033581219999996,-9.455944582699999,1.3786776968999999,-2.129909,1.302552,-0.898726,0.0008263396226415101,3.343490566037736e-05,3.897641509433968e-05,0.013757607507093095,-0.009961081231253388,-0.015202334715409105
1504282296.23,-1.0,0.0992040714,-0.0075315072,0.03881472069999999,-0.094886,-0.090969,-0.032521,-2.1972779989999998,-9.458249145449999,1.3725681539499999,-2.129158,1.30344,-0.900483,0.0008263396226415101,3.343490566037736e-05,3.897641509433957e-05,0.014050859760884826,-0.009827749276595021,-0.015495139902812038
1504282296.24,-1.0,0.09313375505,0.006452775699999999,0.042815833899999996,-0.099155,-0.089871,-0.030397,-2.19150188215,-9.460553708199999,1.3658800186499997,-2.128144,1.304332,-0.902507,0.0008263396226415101,3.343490566037736e-05,3.897641509433957e-05,0.014346452910037222,-0.009683600684380345,-0.015790284687415168
1504282296.25,-1.0,0.08444506315,0.0018240368999999999,0.0442868314,-0.100241,-0.093058,-0.031462,-2.18581402515,-9.462819044349999,1.35930956315,-2.127149,1.30521,-0.904547,0.0008263396226415066,3.343490566037736e-05,3.897641509433968e-05,0.01464394496133925,-0.009528389327319697,-0.016087327078681213
1504282296.26,-1.0,0.08116964204999999,-0.02548748335,0.036451318049999994,-0.104541,-0.095157,-0.028265,-2.1802830745499997,-9.46513341375,1.3520330288499998,-2.125879,1.306111,-0.906873,0.0008263396226415101,3.343490566037736e-05,3.897641509433968e-05,0.014942850108938588,-0.009361887992617834,-0.01638578127344026
1504282296.27,-1.0,0.0658418481,-0.06880345639999999,0.04285506049999999,-0.112036,-0.097229,-0.026141,-2.17498748355,-9.4674575898,1.34428577535,-2.124393,1.307018,-0.90944,0.0008263396226415101,3.343490566037736e-05,3.897641509433957e-05,0.015242637577962403,-0.009183891062880312,-0.016685116499502772
1504282296.28,-1.0,0.071000146,-0.11185464989999999,0.0714904785,-0.114227,-0.100415,-0.019736,-2.1699762853999998,-9.469732732599999,1.33630316225,-2.122763,1.307912,-0.912202,0.0008263396226415101,3.343490566037736e-05,3.897641509433957e-05,0.01554273079712043,-0.008994217298783136,-0.01698475618827011
1504282296.29,-1.0,0.0748835794,-0.14116672675,0.10518612789999998,-0.116417,-0.103601,-0.013331,-2.16531812665,-9.471860775649999,1.32879126835,-2.121208,1.308745,-0.914921,0.0008263396226415101,3.343490566037736e-05,3.897641509433957e-05,0.015842506959982017,-0.008792712704062122,-0.01728407753600747
1504282296.3,-1.0,0.0842195102,-0.14202971195,0.12134748709999998,-0.09937,-0.104811,-0.010099,-2.1608953274999996,-9.47368481255,1.3229563115999998,-2.120156,1.309466,-0.917155,0.0008263396226415066,3.343490566037736e-05,3.897641509433979e-05,0.016141297036536995,-0.00857925344920818,-0.017582411515404628
1504282296.31,-1.0,0.07882585269999999,-0.09388886709999998,0.0806302763,-0.094073,-0.109118,-0.009016,-2.15684518105,-9.4754402029,1.31698406175,-2.118979,1.310159,-0.919547,0.0008263396226415101,3.343490566037736e-05,3.897641509433957e-05,0.016438386297304486,-0.008353748825839169,-0.017879043399686934
1504282296.32,-1.0,0.07992419749999999,-0.047081726649999996,0.0226925881,-0.079183,-0.115634,-0.010047,-2.1528538745,-9.4770484935,1.31192383035,-2.118091,1.310797,-0.92168,0.0008263396226415101,3.343490566037736e-05,3.897641509433957e-05,0.016733015411338148,-0.00811614419924478,-0.018173213860617876
1504282296.33,-1.0,0.05684915005,-0.00909076455,-0.0174950636,-0.070663,-0.118898,-0.012163,-2.14907831425,-9.4785391043,1.3073637380999998,-2.117324,1.311387,-0.92371,0.0008263396226415101,3.343490566037736e-05,3.897641509433957e-05,0.017024382176726638,-0.007866423922065158,-0.018464120699002162
1504282296.34,-1.0,0.01660265845,-0.009002504699999999,-0.029596469699999996,-0.061064,-0.121105,-0.015345,-2.1457930865,-9.479813968799998,1.30347049805,-2.116677,1.311897,-0.925631,0.0008263396226415101,3.343490566037736e-05,3.897641509433957e-05,0.0173116439373045,-0.007604614167735724,-0.018750921261394105
1504282296.35,-1.0,-0.0043247326499999995,-0.03496070725,0.0157690932,-0.055716,-0.12221,-0.019603,-2.14237056565,-9.480941733549999,1.3008913490999998,-2.116507,1.312346,-0.927076,0.0008263396226415066,3.343490566037736e-05,3.897641509433979e-05,0.01759392073208943,-0.007330785638214321,-0.01903273558953633
1504282296.36,-1.0,-0.013807763199999998,-0.032930730699999994,0.046012801799999996,-0.048251,-0.123336,-0.020656,-2.13887939825,-9.48192239855,1.29952822475,-2.116766,1.312736,-0.928105,0.0008263396226415101,3.343490566037736e-05,3.897641509433957e-05,0.01787029921420752,-0.007045056096933067,-0.019308650339285638
1504282296.37,-1.0,-0.0177500365,-0.01728912395,0.04812123155,-0.035439,-0.122376,-0.020635,-2.13538823085,-9.48274615715,1.2992144119499998,-2.117384,1.313068,-0.928769,0.0008263396226415101,3.343490566037736e-05,3.897641509433957e-05,0.01813983736372382,-0.006747592674941627,-0.019577723493440224
1504282296.38,-1.0,-0.018828768,-0.00467777205,0.03700049045,-0.034378,-0.124514,-0.022764,-2.13191667675,-9.48355030245,1.29911634545,-2.118073,1.313386,-0.929362,0.0008263396226415066,3.343490566037736e-05,3.897641509433957e-05,0.01840157000378284,-0.006438613896141199,-0.019838989877884794
1504282296.39,-1.0,-0.0055505638999999996,0.0347939942,0.00887501825,-0.0205,-0.123563,-0.022741,-2.1282784096,-9.484256381249999,1.2998518442,-2.119084,1.313672,-0.929609,0.0008263396226415101,3.343490566037736e-05,3.897641509433979e-05,0.018654515111971803,-0.0061183913664810685,-0.02009146747295054
1504282296.4,-1.0,0.01362143685,0.07385388115,-0.014415775499999998,-0.0109,-0.122579,-0.020592,-2.1247087889999996,-9.48486439355,1.30129342175,-2.120328,1.313914,-0.929602,0.0008263396226415101,3.343490566037736e-05,3.897641509433957e-05,0.018897680899057356,-0.00578725107224809,-0.020334164492151863
1504282296.41,-1.0,0.013425303849999999,0.05580964515,-0.02499715085,-0.000218,-0.1216,-0.021642,-2.12107052185,-9.485374339349999,1.303499918,-2.121844,1.31412,-0.929309,0.0008263396226415101,3.343490566037736e-05,3.897641509433957e-05,0.019130073605603537,-0.005445574234269834,-0.020566087178806924
1504282296.42,-1.0,0.0022555294999999998,0.04006016525,-0.03241097825,0.007249,-0.121661,-0.021629,-2.11754012785,-9.485786218649999,1.3062751999499997,-2.123538,1.314284,-0.928812,0.0008263396226415101,3.343490566037736e-05,3.897641509433957e-05,0.019350705944097435,-0.005093797668139111,-0.02078624824815911
1504282296.43,-1.0,-0.02025073225,0.0012748644999999999,-0.0228887211,0.014717,-0.121723,-0.021616,-2.1141764468999997,-9.4860509982,1.30976636735,-2.125444,1.314391,-0.92809,0.0008263396226415101,3.343490566037736e-05,3.897641509433957e-05,0.019558606090676944,-0.004732413605585073,-0.020993675879110496
1504282296.44,-1.0,-0.04692482025,-0.018485535249999997,-0.0328718908,0.021126,-0.120709,-0.021606,-2.1111461920499996,-9.4861882913,1.3136203807999998,-2.127402,1.314448,-0.927287,0.0008263396226415101,3.343490566037736e-05,3.897641509433979e-05,0.01975282710736337,-0.0043619689387996985,-0.02118742313644728
1504282296.45,-1.0,-0.0599382448,-0.04447315775,-0.030626167949999998,0.025444,-0.114351,-0.021609,-2.10830226355,-9.486247131199999,1.3178078203499999,-2.129434,1.314469,-0.926351,0.0008263396226415101,3.343490566037736e-05,3.897641509433957e-05,0.01993245665367671,-0.0039830638580535815,-0.021366577682461196
1504282296.46,-1.0,-0.056574563849999995,-0.06369419174999999,-0.02493831095,0.021218,-0.108988,-0.021625,-2.1053896885,-9.4863255844,1.3218481601499998,-2.131435,1.314504,-0.925407,0.0008263396226415101,3.343490566037736e-05,3.897641509433957e-05,0.020096626826802966,-0.003596349862971193,-0.02153027161711385
1504282296.47,-1.0,-0.0673520722,-0.08681827245,-0.02240819525,0.010609,-0.101441,-0.021656,-2.10269285975,-9.486551137349998,1.3245547955499999,-2.132934,1.314593,-0.924911,0.0008263396226415101,3.343490566037736e-05,3.897641509433957e-05,0.020244523953056426,-0.003202527139391398,-0.021677691269498922
1504282296.48,-1.0,-0.07690374929999999,-0.09070170585,0.005246557749999999,0.003167,-0.096055,-0.018476,-2.10047655685,-9.486698237099999,1.3269770381,-2.134236,1.314654,-0.92455,0.0008263396226415101,3.343490566037736e-05,3.897641509433957e-05,0.020375398141288248,-0.0028023413064584,-0.021808086751252787
1504282296.49,-1.0,-0.0736479415,-0.08364091785,0.028154892149999996,-0.003183,-0.089609,-0.018497,-2.0983485138,-9.48688456345,1.3290560479,-2.135403,1.314726,-0.924277,0.0008263396226415032,3.343490566037736e-05,3.897641509433979e-05,0.020488572402040217,-0.0023965795521156963,-0.021920781075704387
1504282296.5,-1.0,-0.070411747,-0.05557428555,0.0395404128,-0.010582,-0.081023,-0.018525,-2.09633815055,-9.487119923049999,1.3305368520499998,-2.136338,1.314821,-0.92418,0.0008263396226415101,3.343490566037736e-05,3.897641509433957e-05,0.020583451135330555,-0.001986066189159086,-0.0220151786456656
1504282296.51,-1.0,-0.06644005374999999,-0.03360738955,0.023349633649999996,-0.020161,-0.078812,-0.019612,-2.0943277872999997,-9.487541608999999,1.3307231784,-2.136836,1.31499,-0.92448,0.0008263396226415101,3.343490566037736e-05,3.897641509433979e-05,0.020659527795524157,-0.0015716576779316593,-0.022090772918297752
1504282296.52,-1.0,-0.08052240314999999,-0.045159623249999996,0.0165732385,-0.02649,-0.072362,-0.023903,-2.0922095509,-9.48810058805,1.3300170995999998,-2.137053,1.315218,-0.925002,0.0008263396226415101,3.343490566037736e-05,3.897641509433957e-05,0.020716391553950886,-0.0011542371750794533,-0.022147153067732517
1504282296.53,-1.0,-0.10850077559999999,-0.07478551289999999,0.02778223945,-0.029643,-0.069134,-0.028182,-2.0901305410999997,-9.48870860035,1.3289874013499998,-2.137152,1.315461,-0.925606,0.0008263396226415101,3.343490566037736e-05,3.897641509433957e-05,0.0207537327987094,-0.0007347086801363645,-0.022184009484872314
1504282296.54,-1.0,-0.12905551399999998,-0.09217270334999998,0.01273883835,-0.038076,-0.061596,-0.036748,-2.0876690719499997,-9.48957158555,1.3266730319499997,-2.136895,1.315811,-0.92651,0.0008263396226415101,3.343490566037736e-05,3.897641509433957e-05,0.020771347335941215,-0.0003139908624218979,-0.022201137978670626
1504282296.55,-1.0,-0.14854132755,-0.07695278254999999,0.01744603035,-0.036946,-0.058401,-0.044221,-2.0849526298999996,-9.4904247641,1.3247999618,-2.136847,1.316158,-0.927163,0.0008263396226415101,3.343490566037736e-05,3.897641509433957e-05,0.020769139187059138,0.0001069893405012401,-0.022198442573350463
1504282296.56,-1.0,-0.15244437425,-0.042815833899999996,0.011365907350000001,-0.04435,-0.053007,-0.048511,-2.0819517949999997,-9.49149368895,1.3218971934,-2.136508,1.316589,-0.928046,0.0008263396226415101,3.343490566037736e-05,3.897641509433957e-05,0.020747121910750788,0.0005273032552035595,-0.022175936830419407
1504282296.57,-1.0,-0.14875707385,-0.0234967334,0.015317987299999999,-0.050698,-0.047624,-0.050664,-2.0787548271,-9.4926999069,1.3182491196,-2.135951,1.31708,-0.929111,0.0008263396226415101,3.343490566037736e-05,3.897641509433957e-05,0.020705418415926324,0.0009460270342682708,-0.02213374366160803
1504282296.58,-1.0,-0.12792774924999997,-0.015053207749999999,0.04019745835,-0.054928,-0.042262,-0.049612,-2.0753421129,-9.4939747714,1.3144735593499999,-2.135398,1.317596,-0.930109,0.0008263396226415101,3.343490566037736e-05,3.897641509433957e-05,0.020644259270381826,0.0013622481454582669,-0.022072093637537482
1504282296.59,-1.0,-0.09289839545,0.0184953419,0.03962867265,-0.053781,-0.033744,-0.051759,-2.0714586795,-9.49533789575,1.31070780575,-2.134945,1.318154,-0.930946,0.0008263396226415032,3.3434905660377576e-05,3.897641509433957e-05,0.020563979548469558,0.0017750716879305628,-0.02199132183539043
1504282296.6,-1.0,-0.0837291777,0.0542307745,0.02593858925,-0.048472,-0.031643,-0.050693,-2.0676144727,-9.4966617935,1.3071872184,-2.13457,1.318694,-0.931666,0.0008263396226415101,3.343490566037714e-05,3.8976415094340005e-05,0.020465014297740725,0.002183626439992592,-0.021891863305550263
1504282296.61,-1.0,-0.07797267414999999,0.0658810747,-0.01538663385,-0.042088,-0.033826,-0.050677,-2.0637898792,-9.49798569125,1.3036175978,-2.134171,1.319236,-0.932397,0.0008263396226415101,3.343490566037714e-05,3.897641509433957e-05,0.020347892737991424,0.0025870705502257785,-0.021774247270650804
1504282296.62,-1.0,-0.09210405679999999,0.0691564958,-0.0432669398,-0.024974,-0.029702,-0.052788,-2.06013199875,-9.499162489249999,1.3008227025499999,-2.134003,1.319718,-0.932828,0.0008263396226415101,3.3434905660377576e-05,3.897641509433957e-05,0.020213231335102888,0.0029845967933743722,-0.021639090199413902
1504282296.63,-1.0,-0.0948891454,0.07178467799999999,-0.058702606899999996,-0.015346,-0.027648,-0.054908,-2.0562975986,-9.50030006065,1.2986063996500001,-2.134073,1.320184,-0.932987,0.0008263396226415101,3.3434905660377576e-05,3.897641509433957e-05,0.020061725915462625,0.003375437323820396,-0.021487087921071013
1504282296.64,-1.0,-0.10384261684999999,0.055495832349999996,-0.05950675219999999,-0.012111,-0.024475,-0.057041,-2.0524337784999998,-9.5013689855,1.29686081595,-2.134316,1.320626,-0.932942,0.0008263396226415101,3.343490566037714e-05,3.897641509433957e-05,0.019894143003943432,0.0037588678723008417,-0.02131900696334399
1504282296.65,-1.0,-0.12086696124999999,0.02731152025,-0.030469261549999998,-0.011005,-0.02022,-0.058113,-2.04857976505,-9.5023692638,1.2956545979999998,-2.134747,1.321036,-0.932667,0.0008263396226415101,3.343490566037714e-05,3.897641509433957e-05,0.01971131057898723,0.004134211345189209,-0.021135675307526913
1504282296.66,-1.0,-0.1353906099,-0.0052171378,-0.014847268099999998,0.006095,-0.017163,-0.059154,-2.0448238181,-9.503202829049998,1.2954486583499998,-2.135501,1.321382,-0.932024,0.0008263396226415101,3.3434905660377576e-05,3.897641509433957e-05,0.019514108442257094,0.004500840799761985,-0.020937972758137913
1504282296.67,-1.0,-0.14879630045,-0.0221434157,0.00622722275,-0.001285,-0.007509,-0.061316,-2.04069521845,-9.504085427549999,1.29546827165,-2.136423,1.321747,-0.931173,0.0008263396226415101,3.3434905660377576e-05,3.897641509433957e-05,0.019303458397900708,0.004858181782783522,-0.020726821122184602
1504282296.68,-1.0,-0.13838163814999999,-0.01434712895,-0.0159063863,-0.008711,-0.002119,-0.061337,-2.0370569513,-9.504997445999999,1.2945562532,-2.136914,1.322123,-0.930646,0.0008263396226415101,3.343490566037714e-05,3.897641509433957e-05,0.019080314428241207,0.0052057140331081,-0.020503174384852274
1504282296.69,-1.0,-0.17460740325000002,-0.062007447949999996,0.0572512227,-0.018292,0.001155,-0.060289,-2.03375211025,-9.505821204599998,1.2936736547,-2.13734,1.322466,-0.930187,0.0008263396226415101,3.343490566037714e-05,3.8976415094340005e-05,0.01884565303944552,0.005542972561372483,-0.020268009055175118
1504282296.7,-1.0,-0.16990021125,-0.060193217699999996,0.0212215906,-0.02036,0.010761,-0.058173,-2.0308199218999996,-9.506733223049999,1.2915554183,-2.13725,1.322846,-0.930154,0.0008263396226415032,3.3434905660377576e-05,3.897641509433957e-05,0.018600463933414635,0.00586954813092988,-0.020022314837923383
1504282296.71,-1.0,-0.1480411884,-0.07403040085,0.0373633365,-0.023558,0.015043,-0.05178,-2.02798580005,-9.507566788299998,1.2899275143999998,-2.13731,1.323189,-0.929943,0.0008263396226415101,3.3434905660377576e-05,3.897641509433957e-05,0.018345741141720717,0.006185087173739667,-0.01976708576754288
1504282296.72,-1.0,-0.12287732449999998,-0.0378928956,0.05995785809999999,-0.022448,0.023553,-0.046454,-2.02547529765,-9.508380740249999,1.2878288912999998,-2.137135,1.32353,-0.929879,0.0008263396226415101,3.343490566037714e-05,3.897641509433957e-05,0.018082474735051646,0.006489291182749213,-0.019503311917598687
1504282296.73,-1.0,-0.1175817335,0.011964112999999998,0.05119071299999999,-0.021367,0.027803,-0.042188,-2.0235826142,-9.5090181725,1.2861127275500002,-2.136957,1.323795,-0.929768,0.0008263396226415101,3.343490566037714e-05,3.897641509433957e-05,0.017811643198226923,0.006781915628456758,-0.019231971775789614
1504282296.74,-1.0,-0.10930492089999999,0.00051975245,0.035784465849999995,-0.016055,0.030946,-0.032576,-2.0222881364,-9.50953792495,1.2843181106,-2.136615,1.324011,-0.929789,0.0008263396226415101,3.3434905660377576e-05,3.897641509433957e-05,0.017534206537424657,0.00706276845164866,-0.018954025351178683
1504282296.75,-1.0,-0.08921109504999998,0.01197391965,-0.013052651149999999,-0.006451,0.035123,-0.026161,-2.0215820576,-9.509920384299999,1.2825725269000001,-2.136157,1.324172,-0.929894,0.0008263396226415101,3.3434905660377576e-05,3.897641509433957e-05,0.017251100163619304,0.007331708186994801,-0.018670408057625765
1504282296.76,-1.0,-0.08305251885,0.017465643649999998,-0.03869704089999999,0.001003,0.036123,-0.021879,-2.0213074713999997,-9.5101753572,1.2811407559999999,-2.135711,1.324277,-0.929954,0.0008263396226415032,3.343490566037714e-05,3.897641509433957e-05,0.016963229574987082,0.007588641773279559,-0.018382025396198765
1504282296.77,-1.0,-0.0760015375,0.0293022702,-0.022447421849999996,-0.008576,0.045781,-0.011238,-2.0219154837,-9.51034207025,1.27895387305,-2.134804,1.324346,-0.930383,0.0008263396226415171,3.343490566037714e-05,3.897641509433957e-05,0.016671465841846533,0.007833522105759494,-0.01808974844010841
1504282296.78,-1.0,-0.10656886554999999,-0.0079629998,0.0135135637,0.010598,0.044554,-0.006931,-2.0233668679,-9.5100380641,1.2789048398,-2.134461,1.32422,-0.930252,0.0008263396226415032,3.3434905660377576e-05,3.8976415094340005e-05,0.016376641880749387,0.00806634538463391,-0.017794410108803616
1504282296.79,-1.0,-0.10885381499999999,-0.053063783149999995,-0.00828661925,0.022311,0.047644,0.002692,-2.02557336415,-9.509528118299999,1.2791598127,-2.13406,1.324009,-0.930146,0.0008263396226415171,3.3434905660377576e-05,3.897641509433957e-05,0.016079549490028544,0.008287148311116432,-0.017496802203517292
1504282296.8,-1.0,-0.0793357985,-0.044198571549999996,-0.032999377249999996,0.031914,0.051821,0.009107,-2.02816231975,-9.50881223285,1.2803758373,-2.133914,1.323711,-0.929747,0.0008263396226415032,3.343490566037714e-05,3.897641509433957e-05,0.015780937107372273,0.00849600517928173,-0.017197673164840666
1504282296.81,-1.0,-0.06622430745,-0.04912150985,-0.0364022848,0.040416,0.051745,0.015527,-2.0310945081,-9.507929634349999,1.28228813405,-2.133932,1.323343,-0.929172,0.0008263396226415171,3.343490566037714e-05,3.897641509433957e-05,0.015481508240912545,0.008693024908001945,-0.016897726503811494
1504282296.82,-1.0,-0.057211996099999995,-0.013846989799999999,-0.05085728689999999,0.051062,0.051653,0.019816,-2.0344287691,-9.506841096199999,1.2850634159999998,-2.134171,1.322891,-0.928371,0.0008263396226415032,3.3434905660377576e-05,3.897641509433957e-05,0.015181920518685166,0.008878348052968832,-0.01659761985137498
1504282296.83,-1.0,-0.05545660575,0.0226533615,-0.05182814524999999,0.062789,0.052619,0.023038,-2.0382729759,-9.5054877785,1.2890253026,-2.134708,1.322325,-0.927259,0.0008263396226415171,3.3434905660377576e-05,3.897641509433957e-05,0.014882785297005041,0.009052143834282989,-0.016297964566757694
1504282296.84,-1.0,-0.0564078508,0.042953127,-0.04990604184999999,0.072402,0.05467,0.024119,-2.04240157555,-9.503948134449999,1.2938403677499999,-2.135476,1.321688,-0.925882,0.0008263396226415032,3.343490566037714e-05,3.897641509433957e-05,0.014584667766009307,0.009214607210514592,-0.015999325843013112
1504282296.85,-1.0,-0.06400800455,0.07496203259999999,-0.0385205212,0.070299,0.060014,0.026242,-2.04693224785,-9.50228100395,1.29892021245,-2.136248,1.320999,-0.92446,0.0008263396226415171,3.343490566037714e-05,3.897641509433957e-05,0.014288087490149204,0.009365956025547462,-0.01570222324750936
1504282296.86,-1.0,-0.07877681945,0.054122901349999995,-0.0414821295,0.064962,0.061121,0.028367,-2.05191402605,-9.500594260149999,1.30337243155,-2.136696,1.320305,-0.923338,0.0008263396226415032,3.3434905660377576e-05,3.897641509433957e-05,0.013993519322365477,0.009506428250176668,-0.015407131636108073
1504282296.87,-1.0,-0.07255940335,0.0028635417999999997,-0.00701175475,0.064965,0.062186,0.029434,-2.05677812445,-9.49886828975,1.3082659499,-2.137319,1.319597,-0.922033,0.0008263396226415032,3.3434905660377576e-05,3.8976415094340005e-05,0.013701394632922748,0.009636279336205256,-0.015114482381999084
1504282296.88,-1.0,-0.07008812754999999,-0.03733391655,0.012866324799999999,0.063914,0.06539,0.031563,-2.0616520295,-9.49712270605,1.31321830815,-2.137961,1.318884,-0.920683,0.0008263396226415171,3.343490566037714e-05,3.897641509433957e-05,0.013412102796996006,0.009755779696963396,-0.014824664863283599
1504282296.89,-1.0,-0.0683327372,-0.04182536225,0.0273409402,0.058606,0.070758,0.034747,-2.06683974735,-9.4953280891,1.3180529866,-2.138484,1.31815,-0.919412,0.0008263396226415032,3.343490566037714e-05,3.897641509433957e-05,0.013125992888938232,0.009865212324602801,-0.01453802815724392
1504282296.9,-1.0,-0.05341682254999999,-0.027870499299999997,0.012434832199999999,0.075621,0.066351,0.039055,-2.0721843715999997,-9.493425599,1.32337799755,-2.139142,1.317373,-0.918023,0.0008263396226415171,3.3434905660377576e-05,3.897641509433957e-05,0.012843375535465551,0.009964870551357086,-0.014254882893528387
1504282296.91,-1.0,-0.027321326899999998,-0.0070705946499999995,-0.020790097999999996,0.078805,0.066322,0.042263,-2.0774799626,-9.491474075649998,1.32906585455,-2.139932,1.31658,-0.916513,0.0008263396226415032,3.3434905660377576e-05,3.897641509433957e-05,0.012564524884554285,0.010055055959115267,-0.01397550322304808
1504282296.92,-1.0,0.0050308114499999996,0.042090141799999994,-0.05681973009999999,0.088368,0.064108,0.046553,-2.0827461336499997,-9.4894637124,1.3351753974999998,-2.140865,1.315766,-0.914861,0.0008263396226415171,3.343490566037714e-05,3.897641509433957e-05,0.01228968065153202,0.010136076439229535,-0.013700128864070016
1504282296.93,-1.0,0.022231675549999996,0.0806498896,-0.0751385523,0.097929,0.059766,0.047645,-2.08812017785,-9.48731605605,1.3419714059499999,-2.142,1.314902,-0.913042,0.0008263396226415032,3.343490566037714e-05,3.897641509433957e-05,0.012019050208493365,0.010208244402349465,-0.013428967191627783
1504282296.94,-1.0,0.023869386099999997,0.11060920535,-0.09756636084999999,0.096829,0.056577,0.048716,-2.0936609351,-9.4851095598,1.3489831607,-2.143166,1.314011,-0.911216,0.0008263396226415171,3.3434905660377576e-05,3.897641509433957e-05,0.01175281068768097,0.010271875136312447,-0.013162195340907124
1504282296.95,-1.0,0.02374189965,0.1059902732,-0.1008908152,0.09473,0.059794,0.046572,-2.09906439925,-9.483030549999999,1.35515154355,-2.144073,1.31318,-0.909633,0.0008263396226415032,3.3434905660377576e-05,3.897641509433957e-05,0.011491111073786753,0.010327285308671996,-0.01289996229954582
1504282296.96,-1.0,0.008786758399999999,0.0869457589,-0.08458235625,0.092583,0.057682,0.045505,-2.10445805675,-9.4808927003,1.3617416123500001,-2.145112,1.312325,-0.907933,0.0008263396226415171,3.343490566037714e-05,3.897641509433957e-05,0.011234074264143912,0.010374791609224054,-0.012642390967825934
1504282296.97,-1.0,-0.016985117799999998,0.04461045085,-0.0560351981,0.084055,0.05669,0.04229,-2.1098124876499997,-9.478813690499999,1.3679099952,-2.146016,1.311497,-0.90637,0.0008263396226415032,3.343490566037714e-05,3.8976415094340005e-05,0.010981799079500476,0.01041470952703305,-0.012389580169445802
1504282296.98,-1.0,-0.034499794699999996,0.011905273099999999,-0.04531652965,0.071317,0.061064,0.035857,-2.1148923323499997,-9.47694062035,1.3730486798,-2.14663,1.310752,-0.905083,0.0008263396226415032,3.3434905660377576e-05,3.897641509433957e-05,0.010734362211438198,0.010447352255695153,-0.01214160659893948
1504282296.99,-1.0,-0.0319108391,-0.002353596,-0.0334014499,0.06597,0.05685,0.031586,-2.1194328113,-9.475244069899999,1.37774606515,-2.147209,1.310081,-0.903864,0.0008263396226415171,3.3434905660377576e-05,3.897641509433957e-05,0.01049182009553129,0.010473029720132754,-0.011898526694838263
1504282297.0,-1.0,-0.032067745499999994,-0.01915238745,-0.0252227038,0.060668,0.059029,0.028371,-2.1236104441999997,-9.473714232499999,1.3818354382,-2.147664,1.309475,-0.902764,0.0008263396226415032,3.343490566037714e-05,3.897641509433957e-05,0.010254210702038247,0.010492047717856723,-0.011660378430357499
1504282297.01,-1.0,-0.025193283849999998,-0.0235163467,-0.028233345349999998,0.059596,0.055846,0.024106,-2.1271898714499997,-9.47233149485,1.3857384848999998,-2.148184,1.308934,-0.901609,0.0008263396226415171,3.343490566037714e-05,3.8976415094340005e-05,0.010021555238256319,0.010504707167464877,-0.011427183015756515
1504282297.02,-1.0,-0.0197113665,-0.017730423199999998,-0.0559763582,0.047882,0.058075,0.023014,-2.1305731657,-9.471233150049999,1.3880528543,-2.14822,1.308501,-0.900938,0.0008263396226415032,3.3434905660377576e-05,3.897641509433957e-05,0.009793859758731038,0.010511303457098276,-0.011198946508541807
1504282297.03,-1.0,-0.009080957899999999,-0.0223787753,-0.06953895515,0.045755,0.059158,0.023009,-2.133730907,-9.4701838385,1.3903868369999999,-2.148313,1.308088,-0.900206,0.0008263396226415171,3.3434905660377576e-05,3.897641509433957e-05,0.009571116681225789,0.010512125885606016,-0.010975661329442388
1504282297.04,-1.0,0.010502922149999998,-0.05515259959999999,-0.0814932615,0.039357,0.059212,0.02193,-2.13640812245,-9.46942872645,1.3914263419000001,-2.148078,1.307791,-0.899807,0.0008263396226415032,3.343490566037714e-05,3.897641509433957e-05,0.009353306207847911,0.01050745718931978,-0.010757307683534223
1504282297.05,-1.0,0.016985117799999998,-0.08446467645,-0.08503346214999999,0.040434,0.061334,0.022995,-2.13899707805,-9.46870303435,1.39241681355,-2.147849,1.307505,-0.899391,0.0008263396226415171,3.343490566037714e-05,3.897641509433957e-05,0.009140397651944632,0.010497573147510764,-0.010543854887131832
1504282297.06,-1.0,0.02666428135,-0.1107955317,-0.09620323649999998,0.036147,0.059238,0.022991,-2.1413408674,-9.4681048287,1.3928188861999997,-2.147481,1.307274,-0.899122,0.0008263396226415032,3.3434905660377576e-05,3.897641509433957e-05,0.008932350672356426,0.010482742259879663,-0.010335262602049755
1504282297.07,-1.0,0.03782424905,-0.12381876289999999,-0.10156747405,0.03189,0.060341,0.021913,-2.14337084395,-9.4676537228,1.39278946625,-2.147039,1.307096,-0.898925,0.002031999999999992,-0.000258,-0.00034319999999999967,0.00031267602837892206,0.0007508144856385179,-0.006771998505490928
1504282297.08,-1.0,0.03170489945,-0.1040877831,-0.10971680019999999,0.02447,0.064668,0.01869,-2.14533217395,-9.46733010335,1.391955901,-2.146349,1.30697,-0.898961,0.0018960000000000088,-0.00031420000000000016,-0.0003332000000000001,0.0005356265178888542,0.0006779389042856909,-0.005961086046637143
1504282297.09,-1.0,0.0182992089,-0.08716150519999999,-0.11002080634999999,0.009555,0.06586,0.015459,-2.1471954374499997,-9.46719281025,1.3900141843,-2.145317,1.306917,-0.899321,0.0017449999999999966,-0.0003801999999999998,-0.0003118000000000001,0.0010686091723517421,0.0005452515598296515,-0.005303847966263153
1504282297.1,-1.0,0.023634026499999995,-0.07995361745,-0.10124385459999999,0.004268,0.07017,0.012239,-2.1487841147499998,-9.467222230199999,1.38737619545,-2.144111,1.306927,-0.899819,0.001584000000000002,-0.0004512000000000001,-0.00028399999999999996,0.0016799681315529114,0.0003780441691723091,-0.004805602780261986
1504282297.11,-1.0,0.0135135637,-0.06860732339999999,-0.0710589859,-0.007433,0.073466,0.010078,-2.1503433721,-9.46733991,1.3841301942999997,-2.142715,1.306975,-0.9005,0.0014259999999999967,-0.0005175,-0.00025969999999999986,0.002320665322017579,0.00023422846134724118,-0.004411214085966009
1504282297.12,-1.0,0.02205515585,-0.04627758135,-0.059820565,-0.018042,0.077821,0.004714,-2.15154959005,-9.46768314275,1.37992314145,-2.141075,1.307108,-0.901379,0.0012729999999999964,-0.0005776000000000002,-0.0002425000000000001,0.0028091446402371822,0.00017745031031446423,-0.00393549109507807
1504282297.13,-1.0,0.037382949799999995,-6.864654999999999e-05,-0.0672540057,-0.024417,0.080007,0.002564,-2.152363542,-9.4682421218,1.3747942635000001,-2.139213,1.307328,-0.902448,0.001135000000000011,-0.0006350499999999999,-0.00023689999999999996,0.003183573904230963,0.0002402569430186574,-0.003341846007723359
1504282297.14,-1.0,0.04725824635,0.0533285627,-0.0727457297,-0.031843,0.082206,-0.00279,-2.15280484125,-9.46897762055,1.36905737325,-2.137224,1.307614,-0.903638,0.001008999999999996,-0.00069313,-0.00024130000000000006,0.003521443802548374,0.0003505710874276424,-0.0026214228234137105
1504282297.15,-1.0,0.05546641239999999,0.03617673185,-0.05859473375,-0.028622,0.084312,-0.003856,-2.15294213435,-9.46978176585,1.3632812563999999,-2.135285,1.307928,-0.904743,0.00037800000000000333,-0.00067804,-7.539999999999999e-05,0.003739218693033619,0.0005211994716560753,-0.0018419243020014742
1504282297.16,-1.0,0.029400336699999995,-0.03476457425,-0.061173882699999994,-0.03395,0.083293,-0.007067,-2.1529127143999998,-9.47066436435,1.3571815200999997,-2.133267,1.308275,-0.90594,0.00026999999999999247,-0.0007150799999999999,-9.160000000000006e-05,0.003962699535446923,0.0006149661937637774,-0.0011248698641448396
1504282297.17,-1.0,0.0048444850999999995,-0.1258389328,-0.0463658412,-0.037133,0.084388,-0.009209,-2.1527460013499997,-9.4716156094,1.35075816435,-2.131161,1.308651,-0.907221,0.00017000000000000348,-0.0007391000000000001,-0.00010749999999999996,0.004158780685462826,0.000613905521037017,-0.0004159210997423113
1504282297.18,-1.0,-0.010600988649999999,-0.17996183414999997,-0.02215322235,-0.040346,0.084412,-0.007081,-2.15270677475,-9.472557047799999,1.3441975154999999,-2.12898,1.309021,-0.908591,7.000000000000062e-05,-0.0007415,-0.00012279999999999995,0.004159832584257783,0.000548841588912552,0.00028215412977394827
1504282297.19,-1.0,-0.0009610516999999999,-0.18169761119999997,0.00534462425,-0.037177,0.081188,-0.006003,-2.1524812218,-9.47337099975,1.33885289125,-2.127239,1.309341,-0.909536,-5.000000000000837e-05,-0.0007241000000000001,-0.0001357000000000001,0.003990164471382229,0.0003859002588089133,0.00092306730202385
1504282297.2,-1.0,0.0361276986,-0.12881034775,0.0205743517,-0.040373,0.084407,-0.001745,-2.1523047021,-9.4741849517,1.3333513606,-2.12543,1.309663,-0.910554,-0.00021500000000000685,-0.0006695999999999998,-0.00015864999999999998,0.0034543400228495003,9.594904274257132e-05,0.0017039214062974928
1504282297.21,-1.0,0.09409480674999998,-0.03607866535,0.04246279449999999,-0.037232,0.082241,0.006802,-2.1522066356,-9.47488122385,1.32851668215,-2.123826,1.309939,-0.911394,-0.00021499999999999297,-0.0006696000000000002,-0.00015864999999999998,0.0034544859416150153,9.006510779441257e-05,0.0017042366025666889
1504282297.22,-1.0,0.14139227969999998,0.05969307855,0.0388539473,-0.039416,0.081184,0.015337,-2.152363542,-9.475489236149999,1.32389775,-2.122238,1.310181,-0.912244,-0.00036599999999999133,-0.0006074000000000001,-0.00018484999999999997,0.002727579304007355,-0.00014977364360202472,0.0023668725779191213
1504282297.23,-1.0,0.1874050815,0.13341947325,0.024153778949999996,-0.041594,0.080128,0.022804,-2.1528931011,-9.47603840855,1.3191415247499998,-2.120525,1.310396,-0.91324,-0.00044000000000000983,-0.0005715,-0.00020549999999999995,0.0022377821584644852,-0.000277039015093683,0.0027105335901634886
1504282297.24,-1.0,0.212019773,0.15563153549999997,0.01407254275,-0.034202,0.075796,0.031361,-2.1538639594499998,-9.47641106125,1.3148560187,-2.118875,1.310544,-0.914206,-0.0005299999999999888,-0.00039409999999999966,-0.00011136000000000002,0.0018206410804251227,-0.0002801215737544549,0.0030148655780211087
1504282297.25,-1.0,0.21179422005,0.1505909174,0.024663724749999998,-0.043844,0.074802,0.037747,-2.1554330234499997,-9.476754294,1.3098055939499997,-2.116841,1.31068,-0.915572,-0.0005700000000000011,-0.0003813000000000002,-0.00013035,0.0014381621080659102,-0.00020970527999519817,0.0032282826082639104
1504282297.26,-1.0,0.18927815164999998,0.12356378999999999,0.0391481468,-0.038519,0.074756,0.039889,-2.15761009975,-9.476813133899999,1.3057946741,-2.115033,1.310703,-0.916727,-0.0006050000000000083,-0.00038000000000000013,-0.00014832000000000002,0.00121127339758198,-0.00012640884572623357,0.003365402346265922
1504282297.27,-1.0,0.14773718225,0.062958693,0.057006056449999995,-0.04071,0.069442,0.043095,-2.1603657683999997,-9.476813133899999,1.3012541951499998,-2.112927,1.310702,-0.918215,-0.0006369999999999987,-0.0003807000000000003,-0.00016305,0.0010032878455297212,-6.373326785658051e-05,0.0034405953151314117
1504282297.28,-1.0,0.1250151742,-0.019015094349999997,0.0736479415,-0.040724,0.069439,0.046295,-2.16353331635,-9.47668564745,1.29688042925,-2.110795,1.310654,-0.919751,-0.0006680000000000019,-0.0003771999999999994,-0.000175658,0.0007714674830778812,-4.6318305079839917e-05,0.003459526652083822
1504282297.29,-1.0,0.10419565625,-0.10161650729999999,0.084729456,-0.040731,0.068373,0.046294,-2.1667989307999997,-9.4765385477,1.2925262766499999,-2.10865,1.310593,-0.921295,-0.0007049999999999973,-0.0003704999999999993,-0.00018481200000000002,0.0005578109960755473,-5.44558402131301e-05,0.003472944083677154
1504282297.3,-1.0,0.0952814114,-0.12607429239999998,0.09462436584999999,-0.038596,0.068355,0.046296,-2.1701528051,-9.476322801399998,1.2884761302,-2.106588,1.310508,-0.922771,-0.0007489999999999997,-0.0003669000000000016,-0.00018706999999999996,0.0003700940788435858,-8.740350439540023e-05,0.0035011336838207674
1504282297.31,-1.0,0.1175228936,-0.06406684445,0.06951934185,-0.035413,0.06726,0.048436,-2.1735459059999997,-9.47607763515,1.2845534701999999,-2.104568,1.310411,-0.924223,-0.0007979999999999932,-0.00036689999999999987,-0.00018441000000000003,0.0002966492172895574,-0.00012097547962430788,0.003578305117412417
1504282297.32,-1.0,0.13275262105,-0.0174950636,0.05392676835,-0.037591,0.063013,0.050573,-2.1769488135499997,-9.4758128556,1.2806896500999998,-2.102566,1.310308,-0.925702,-0.0008449999999999985,-0.0003723999999999984,-0.00017836000000000002,0.0002443775204203913,-9.734967842489617e-05,0.0037407400062045015
1504282297.33,-1.0,0.13673412095,-0.015808319799999998,0.050298307849999994,-0.033348,0.059781,0.050584,-2.1803321078,-9.4755578827,1.27683563665,-2.10057,1.310206,-0.92718,-0.0008280000000000093,-0.0002543000000000007,4.450000000000027e-06,0.0002632986823767336,-3.930802385765375e-05,0.003934251016913248
1504282297.34,-1.0,0.1224262186,-0.050602313999999995,0.0677051116,-0.040792,0.061975,0.049497,-2.18383308185,-9.4753225231,1.2725991638499998,-2.098426,1.310113,-0.928809,-0.0008699999999999958,-0.00028000000000000073,1.659000000000003e-05,0.0004662608839096638,4.839210069151889e-05,0.004148561599657263
1504282297.35,-1.0,0.10390145675,-0.09629149634999999,0.09154507775,-0.03759,0.061948,0.049501,-2.1874517357,-9.47497929035,1.2689608967000001,-2.096461,1.309975,-0.930258,-0.0009149999999999991,-0.00031799999999999884,2.922999999999999e-05,0.0006995628848325275,0.00010086342614434862,0.004372858578721384
1504282297.36,-1.0,0.0992236847,-0.11866046499999999,0.09046634625,-0.031162,0.065091,0.049504,-2.19101154965,-9.47460663765,1.26555798915,-2.094592,1.309831,-0.93158,-0.0009620000000000045,-0.0003630000000000005,4.312000000000001e-05,0.0009539560067728381,9.118283342157696e-05,0.004599010423173233
1504282297.37,-1.0,0.1088734283,-0.10335228434999999,0.08082640929999999,-0.024745,0.066105,0.048444,-2.19436542395,-9.474204564999999,1.26277290055,-2.092977,1.30967,-0.932626,-0.001013,-0.0004170000000000007,6.035999999999997e-05,0.0013657207159796236,7.600310001487642e-05,0.004807269121453794
1504282297.38,-1.0,0.11379636659999999,-0.1005181625,0.046895400299999994,-0.009795,0.067048,0.047399,-2.1976408450499996,-9.47374365245,1.2604879511,-2.09155,1.309491,-0.93345,-0.0010629999999999945,-0.000477,7.707000000000005e-05,0.0018078093304820797,1.801622696850913e-05,0.005004784326613665
1504282297.39,-1.0,0.11967054995,-0.08274851269999998,-0.0029812216,0.002992,0.063748,0.04529,-2.2006809065499997,-9.473253319949999,1.2588894671500002,-2.090408,1.309296,-0.93398,-0.0011099999999999999,-0.000536,8.719000000000001e-05,0.0022515287559290442,-5.653863895438427e-05,0.00524637478559109
1504282297.4,-1.0,0.13196808905,-0.02695848085,-0.0448752304,0.013715,0.067927,0.041029,-2.20340715525,-9.47278260075,1.25769305585,-2.089464,1.309109,-0.934264,-0.0011499999999999982,-0.000586999999999999,9.286999999999994e-05,0.002616966489967343,-5.946869224260354e-05,0.005465266836319205
1504282297.41,-1.0,0.12535840694999997,0.01673995155,-0.04359055925,0.022299,0.072122,0.037833,-2.2060647573999996,-9.47219420175,1.25745769625,-2.088864,1.308878,-0.934159,-0.0011810000000000015,-0.0006290000000000011,9.360999999999999e-05,0.0028675210307957943,-4.58926427111539e-05,0.005579523562323718
1504282297.42,-1.0,0.12894764085,0.02103526425,-0.023702673049999998,0.027679,0.075278,0.033565,-2.2083104802499998,-9.47154696285,1.2583599080499999,-2.088735,1.308624,-0.933538,-0.0012100000000000027,-0.0006659999999999999,9.161000000000003e-05,0.0031174914136633536,-2.221852891359788e-05,0.0055879947991551715
1504282297.43,-1.0,0.12045508195,0.0151610809,-0.0014709974999999999,0.034122,0.078425,0.030366,-2.2104385232999997,-9.470909530599998,1.2594680594999998,-2.088701,1.308371,-0.932803,-0.0011479999999999962,-0.0006750000000000003,0.000196038,0.003386305299315273,-6.837875875298494e-06,0.00548993695703015
1504282297.44,-1.0,0.11863104505,0.0054721106999999995,0.006913688249999999,0.041612,0.078368,0.026108,-2.21221352695,-9.47019364515,1.26171378235,-2.089121,1.308092,-0.931592,-0.0011629999999999974,-0.0007269999999999985,0.000195942,0.0038024066348449903,-7.626535480276253e-05,0.005252202830449915
1504282297.45,-1.0,0.111599677,0.007021561399999999,-0.012523092049999998,0.049152,0.084704,0.021838,-2.2137041377499997,-9.469507179649998,1.26424389805,-2.089691,1.307822,-0.930166,-0.0011670000000000014,-0.0007960000000000016,0.00020704,0.0044012125111132505,-9.358069522580337e-05,0.004969601893725306
1504282297.46,-1.0,0.11006003295,-0.015935806249999997,-0.0322050386,0.059847,0.086749,0.019717,-2.21486132245,-9.4688501341,1.2671662797499998,-2.090461,1.307563,-0.928477,-0.0011620000000000102,-0.0008710000000000002,0.00022840999999999996,0.005007318002865135,-3.213669407120534e-05,0.004724636953436945
1504282297.47,-1.0,0.1211513541,-0.0308713342,-0.027870499299999997,0.072645,0.083451,0.015473,-2.2154791414,-9.468124441999999,1.2715106257,-2.09182,1.307278,-0.926228,-0.0011449999999999932,-0.0009429999999999994,0.00025161,0.005696873778174183,6.035546528493363e-05,0.004471909055814738
1504282297.48,-1.0,0.13420400524999998,-0.012974197949999999,-0.03956983275,0.085451,0.083347,0.014426,-2.2158125675,-9.467310490049998,1.2769238964999998,-2.09359,1.306963,-0.923542,-0.001118999999999995,-0.001003999999999998,0.0002634000000000001,0.006158477477002711,0.0001800762120660604,0.004229771978796926
1504282297.49,-1.0,0.14315747669999998,0.013082071099999999,-0.06412568434999999,0.101469,0.083218,0.011249,-2.2159302472999998,-9.4664376982,1.2832197658,-2.095698,1.306619,-0.920478,-0.0010890000000000066,-0.0010460000000000018,0.00026389999999999986,0.0063778439464994285,0.00031134981264591133,0.004047961760430985
1504282297.5,-1.0,0.1430397969,0.02101565095,-0.0770606557,0.099339,0.083237,0.010176,-2.2159694739,-9.465545293049999,1.2897313813999998,-2.097887,1.306271,-0.917346,-0.0010509999999999964,-0.001072,0.00025529999999999997,0.0063986393604402725,0.0004259995625444102,0.003947206724646879
1504282297.51,-1.0,0.13434129835,-0.020603771649999998,-0.0731772223,0.102552,0.084277,0.00911,-2.21580276085,-9.464623467949998,1.2967627494499998,-2.100288,1.305911,-0.91399,-0.0010090000000000099,-0.0010879999999999987,0.00024200000000000003,0.006238253666648985,0.0005209093868823178,0.003873405790059903
1504282297.52,-1.0,0.11943519035,-0.042806027249999996,-0.048640984,0.100456,0.088558,0.008029,-2.215714501,-9.4636722229,1.3037941175,-2.102667,1.305543,-0.91064,-0.0009639999999999926,-0.0010920000000000027,0.00022550000000000022,0.0059932079556599405,0.0005962361715223796,0.0038401039570121753
1504282297.53,-1.0,0.10465656879999999,-0.06518480255,-0.00481506515,0.095113,0.087536,0.00802,-2.21574392095,-9.4626915579,1.3108549055,-2.105024,1.305161,-0.907309,-0.0009249999999999953,-0.0010929999999999968,0.0002103999999999999,0.005722500634607108,0.0006454336652332859,0.003811340719454104
1504282297.54,-1.0,0.09979247039999999,-0.0815128748,0.007178467799999999,0.08981,0.090778,0.006935,-2.21566546775,-9.46177953945,1.3175626540999998,-2.107279,1.304806,-0.904065,-0.0008800000000000058,-0.0011130000000000029,0.00024399999999999986,0.005608802967084214,0.0006960934907156435,0.003656803482820603
1504282297.55,-1.0,0.09927271794999999,-0.07505029245,0.0106696352,0.08769,0.091862,0.00586,-2.2155968211999997,-9.4609067476,1.3239467832499998,-2.109419,1.304467,-0.900924,-0.0008480000000000015,-0.0011409999999999997,0.00023689999999999996,0.005738728499581791,0.0007415538533317445,0.0033985470122447348
1504282297.56,-1.0,0.15022807135,0.0203193788,-0.02864522465,0.086609,0.090804,0.006923,-2.2129784456499997,-9.46066158135,1.33004651955,-2.111965,1.304373,-0.897408,-0.0008159999999999973,-0.0011779999999999985,0.0002301,0.005996083467166846,0.0007961526821327336,0.0030634746272434343
1504282297.57,-1.0,0.15220901465,0.019015094349999997,-0.0346567011,0.084478,0.091886,0.007985,-2.21495938895,-9.45934749025,1.3360579959999999,-2.113562,1.303866,-0.894799,-0.0007830000000000059,-0.0012110000000000003,0.00022080000000000016,0.006252430891701355,0.000868940012936692,0.0027772336159346267
1504282297.58,-1.0,0.17193999445,0.062105514449999996,-0.07118647234999999,0.083384,0.088698,0.007986,-2.2143415699999998,-9.4587492846,1.3413143604,-2.115426,1.303635,-0.891962,-0.0007489999999999997,-0.0012260000000000014,0.00021080000000000014,0.006256218495746646,0.0008726525986912925,0.0025663275368682514
1504282297.59,-1.0,0.16128997255,0.05745716234999999,-0.0951833449,0.07698,0.086623,0.004774,-2.21372375105,-9.45828837205,1.34556063985,-2.11695,1.303458,-0.889475,-0.0007139999999999924,-0.001236000000000001,0.0002015999999999997,0.006346835727035538,0.0008313208288461826,0.002357427784271393
1504282297.6,-1.0,0.14201009865,0.02138830365,-0.0752562321,0.063111,0.091015,0.003665,-2.2131451586999997,-9.4579843659,1.3486693479,-2.118094,1.303339,-0.88734,-0.000681000000000001,-0.0012539999999999982,0.00019700000000000013,0.0064544455389194955,0.0007427790090610564,0.0020612835546275354
1504282297.61,-1.0,0.1097560268,-0.049013636699999995,-0.0422274349,0.053518,0.091096,0.001511,-2.21260579295,-9.457758812949999,1.3511013971,-2.119001,1.303253,-0.885459,-0.0006560000000000038,-0.0012710000000000013,0.0001998000000000004,0.006424127422131054,0.0005832208753977497,0.0016866967027587831
1504282297.62,-1.0,0.09100571199999999,-0.11019732605,-0.00467777205,0.025816,0.094523,-0.000679,-2.2119683607,-9.45777842625,1.3520134155499999,-2.11943,1.303261,-0.884061,-0.0006329999999999947,-0.0012819999999999984,0.0002034999999999997,0.006165518758382671,0.0004297644655251176,0.0014079191556793935
1504282297.63,-1.0,0.08470003605,-0.15295432004999998,0.03539219984999999,0.013034,0.097824,0.000358,-2.21135054175,-9.457964752599999,1.3517486359999997,-2.119468,1.303332,-0.883057,-0.0005980000000000013,-0.0012879999999999975,0.00019739999999999949,0.005815178713847402,0.0004112219424043939,0.001190480273498773
1504282297.64,-1.0,0.07367736144999999,-0.2116078937,0.06153672875,0.002328,0.092585,-0.000721,-2.2106542696,-9.458268758749998,1.3507385510499998,-2.119276,1.30345,-0.882321,-0.00044600000000000195,-0.0012890000000000054,0.0001694000000000001,0.005473618642079847,0.0005078679306245171,0.001035594056316369
1504282297.65,-1.0,0.0782962936,-0.27579241795,0.0692741756,-0.004074,0.093701,0.001399,-2.20974225115,-9.458729671299999,1.3489929673499998,-2.118884,1.303629,-0.881817,-0.0004159999999999997,-0.0012929999999999955,0.00014990000000000055,0.005129970908826165,0.0006008210760728439,0.0010745861060313944
1504282297.66,-1.0,0.0870242121,-0.3155976103,0.03139108665,-0.007299,0.089467,-0.000737,-2.2084379667,-9.45948478335,1.34587445265,-2.118117,1.303918,-0.88171,-0.00039000000000000146,-0.0013060000000000016,0.00013159999999999995,0.004971208814574801,0.000669338072160075,0.0011619768871951042
1504282297.67,-1.0,0.07040194035,-0.31368531355,0.012748645,-0.01056,0.082035,-0.000732,-2.20723174875,-9.460200668799999,1.3428245845,-2.11735,1.304195,-0.881648,-0.00037700000000000233,-0.001361000000000001,0.00012069999999999963,0.005282622306650886,0.0006848542115127643,0.0011968300313566216
1504282297.68,-1.0,0.07906121229999999,-0.29313057515,-0.00344213415,-0.01803,0.079969,-0.003946,-2.205711718,-9.461142107199999,1.3386567582499997,-2.116278,1.304561,-0.881934,-0.0003779999999999964,-0.001457,0.0001177000000000001,0.006036113679216193,0.0006282651195428368,0.001150490719439956
1504282297.69,-1.0,0.09433016635000001,-0.20520415124999997,-0.006452775699999999,-0.023403,0.074686,-0.005015,-2.20407400745,-9.46213257885,1.3343320255999997,-2.115174,1.304945,-0.882306,-0.0004009999999999986,-0.001565999999999998,0.00012039999999999967,0.00692239911201975,0.00047007257032616323,0.00102244775903515
1504282297.7,-1.0,0.1225635117,-0.06758743179999999,-0.0070411747,-0.025561,0.070444,-0.007149,-2.20223035725,-9.463132857149999,1.33028187915,-2.114198,1.305334,-0.882607,-0.0004369999999999999,-0.0016610000000000028,0.0001250000000000001,0.007627298743464905,0.00023011887801316355,0.0008917409735142989
1504282297.71,-1.0,0.14838442115,0.042913900399999996,-0.0234967334,-0.016048,0.058645,-0.008181,-2.20007289425,-9.464103715499999,1.3269868447499997,-2.113534,1.305709,-0.882684,-0.0004709999999999992,-0.0017290000000000014,0.00013200000000000017,0.008090519578128008,1.702511043721877e-05,0.0007951205637740655
1504282297.72,-1.0,0.1551804296,0.1004985492,-0.053505082399999994,-0.008634,0.047934,-0.014556,-2.1974349053999997,-9.465123607099999,1.3240742696999999,-2.113094,1.306106,-0.882614,-0.0004960000000000034,-0.0017729999999999968,0.00013599999999999984,0.008424303534894317,-0.00014569936645014714,0.0007820402365050771
1504282297.73,-1.0,0.1434320629,0.1365870212,-0.09164314424999999,-0.006527,0.041529,-0.01988,-2.19452233035,-9.46619253195,1.32122053455,-2.112724,1.306526,-0.882531,-0.0005080000000000015,-0.001805000000000001,0.00012830000000000046,0.008728155861044584,-0.00035934789529346034,0.0009127777316717545
1504282297.74,-1.0,0.12114154744999998,0.15979936175,-0.10484289515,0.00939,0.027551,-0.025166,-2.1913743956999996,-9.4671045504,1.3199064434499999,-2.112919,1.306882,-0.881992,-0.0002309999999999951,-0.0018820000000000017,2.4699999999999896e-05,0.00917801621453651,-0.0006472616945281118,0.0010477874678083143
1504282297.75,-1.0,0.12235757205,0.14459905425,-0.10893226819999999,0.007232,0.022245,-0.029432,-2.1875105756,-9.468222508499998,1.3183079594999998,-2.113164,1.307319,-0.88146,-0.00023200000000000304,-0.0019399999999999973,-7.899999999999921e-06,0.009582284914900985,-0.0009071189392104717,0.0012956930062746341
1504282297.76,-1.0,0.0981057266,0.12363243654999999,-0.08991717384999999,0.008276,0.016913,-0.033691,-2.18359772225,-9.46925220675,1.31739594105,-2.11365,1.307722,-0.880759,-0.0002390000000000031,-0.0019829999999999987,-2.7700000000000294e-05,0.009392599947089408,-0.0009191875425484941,0.0018066667268211711
1504282297.77,-1.0,0.079629998,0.08571992765,-0.08801468375,0.010391,0.014764,-0.033685,-2.1796456422999997,-9.4702426784,1.316836962,-2.114262,1.30811,-0.879968,-0.00025999999999999635,-0.002005,-4.359999999999954e-05,0.008713672651930793,-0.0007856606817711054,0.002459669044786672
1504282297.78,-1.0,0.10157728069999998,0.04978836204999999,-0.09520295819999999,-0.001405,0.00953,-0.030495,-2.1754091695,-9.4714194764,1.3153463511999999,-2.114624,1.308574,-0.879481,-0.00029699999999999865,-0.002012,-6.970000000000066e-05,0.007781758623071955,-0.0007261519099568403,0.003038212147863484
1504282297.79,-1.0,0.08228760014999999,-0.025046184099999997,-0.05406406144999999,-0.014256,0.006435,-0.026244,-2.1715257361,-9.47260608105,1.31325753475,-2.114712,1.309039,-0.879316,-0.00035400000000000015,-0.002020999999999995,-0.00010340000000000002,0.007024670860969806,-0.0006851119145951934,0.0033453451281678648
1504282297.8,-1.0,0.0704313603,-0.061821121599999994,-0.01171894675,-0.031339,0.007637,-0.022007,-2.1680541819999997,-9.4738319123,1.3101292133999998,-2.114362,1.309524,-0.879607,-0.00042500000000000177,-0.002031000000000005,-0.0001386,0.006578923679441129,-0.0005930790842663125,0.003477562233717646
1504282297.81,-1.0,0.07269669645,-0.1009104285,0.0202213123,-0.03887,0.004494,-0.014545,-2.16508276705,-9.474998903649999,1.3066086260499998,-2.113781,1.309984,-0.880175,-0.0005080000000000015,-0.002016000000000004,-0.00016739999999999984,0.005817565033255034,-0.00039995701218886737,0.003677538353576759
1504282297.82,-1.0,0.07665858304999999,-0.1158557631,0.0394619596,-0.055965,0.006757,-0.006041,-2.1626016846,-9.476214928249998,1.3018916274,-2.112687,1.310465,-0.88128,-0.0006069999999999964,-0.0019720000000000015,-0.00019789999999999999,0.004789386219966385,-0.0002861752622538294,0.00393918658998893
1504282297.83,-1.0,0.08457254959999999,-0.0974192611,0.04819968475,-0.075199,0.009037,0.003527,-2.1610914605,-9.477450566149999,1.2953996250999997,-2.110788,1.310955,-0.883171,-0.0007290000000000005,-0.0019259999999999972,-0.00024859999999999986,0.004250572776692829,-0.0004611524897519814,0.004179576549886765
1504282297.84,-1.0,0.07446189345,-0.06817583079999999,0.06745994535,-0.088045,0.010197,0.014175,-2.16070900115,-9.47854891095,1.28795637775,-2.108328,1.311393,-0.885651,-0.0014829999999999982,-0.0034300000000000025,-0.0006334999999999995,0.007273403045901183,-0.001259341061723207,0.008132476957543822
1504282297.85,-1.0,0.11688546135,-0.0094928372,0.05546641239999999,-0.097694,0.010266,0.023763,-2.16094436075,-9.47962764245,1.2796011119499997,-2.105423,1.311822,-0.88858,-0.0004390000000000019,-0.0007444999999999952,-0.00015780000000000047,0.0011817723333489294,-0.0003119599534662232,0.0016062610719398407
1504282297.86,-1.0,0.1383129916,0.0033244543499999996,0.05162220559999999,-0.103077,0.011364,0.03549,-2.1620132855999996,-9.4806181141,1.2704220875499999,-2.102057,1.312216,-0.891981,-0.0004390000000000019,-0.0007444999999999952,-0.00015780000000000004,0.0011812821651804306,-0.0003138575800973875,0.0016059083179691402
1504282297.87,-1.0,0.16142726564999998,0.009688970199999999,0.0727849563,-0.107383,0.012454,0.045085,-2.16372944935,-9.48145167935,1.2612332565,-2.098546,1.312549,-0.895556,-0.0018830000000000027,-0.0024430000000000007,-0.00045629999999999976,0.0021653750544581296,-0.0012196299333842031,0.0037328633268636224
1504282297.88,-1.0,0.13840125144999998,-0.018338435499999996,0.07560927149999999,-0.102149,0.004943,0.053644,-2.1664458914,-9.48200085175,1.2524268847999998,-2.09496,1.312768,-0.899254,-0.0009294999999999998,-0.000850500000000004,-3.2450000000000274e-05,-0.0003721997964354351,-0.0005070289369331071,-0.0006526824069095216
1504282297.89,-1.0,0.12639791185,-0.08734783154999999,0.043806305549999994,-0.094747,0.000613,0.060067,-2.1697016992,-9.482432344349998,1.2435224465999999,-2.091225,1.312939,-0.903129,-0.0009294999999999998,-0.000850500000000004,-3.244999999999984e-05,-0.0003718721052154983,-0.0005072687968166179,-0.0006524996298581387
1504282297.9,-1.0,0.09722312809999999,-0.21245126559999997,0.03475476759999999,-0.09379,-0.005801,0.071819,-2.1738989454,-9.482569637449998,1.2350691142999999,-2.087457,1.312996,-0.907105,-0.0004515000000000005,-0.00028500000000000747,5.8649999999999935e-05,-0.0007725171959438448,-0.0003281170148135004,-0.001447247345186753
1504282297.91,-1.0,0.059791145049999994,-0.3635521288,0.08991717384999999,-0.090701,-0.013297,0.082509,-2.1791160832,-9.48245195765,1.22674326845,-2.083532,1.31295,-0.911316,-0.0004514999999999936,-0.0002849999999999936,5.8649999999999935e-05,-0.0007720515054718824,-0.000329235206633971,-0.001447012436738948
1504282297.92,-1.0,0.041207543299999996,-0.43787672915000003,0.13030095854999998,-0.069498,-0.023075,0.094302,-2.1853629192499997,-9.481745878849999,1.2210848314,-2.080335,1.312667,-0.914893,-0.000905000000000003,-0.00038699999999999846,0.0001707000000000002,-0.0025620028723483124,-0.001001739717431338,-0.004317869356854409
1504282297.93,-1.0,0.0791396655,-0.36785724815,0.1507282105,-0.044056,-0.033957,0.110374,-2.19261984025,-9.48039256115,1.21860374895,-2.078063,1.312126,-0.917638,-0.0009260000000000032,-0.00021100000000000285,0.00018329999999999996,-0.003846840554696307,-0.0013423449606180249,-0.005595674766848413
1504282297.94,-1.0,0.15733789259999997,-0.1720478676,0.11708159435,-0.003698,-0.048159,0.125409,-2.20064167995,-9.4783821979,1.2197805469499998,-2.076923,1.311325,-0.919337,-0.0014179999999999957,0.0005370000000000097,0.0001898999999999998,-0.011212461012294339,-0.002852808454112399,-0.014494580357935827
1504282297.95,-1.0,0.2480886317,0.0566039838,0.019985952699999997,0.050496,-0.065672,0.141541,-2.209242112,-9.47568536915,1.2251447844999999,-2.07713,1.310258,-0.91981,-0.00041000000000000064,0.0002360000000000001,4.6050000000000604e-05,-0.003503356569856342,-0.0007659945617146668,-0.004113844959038548
1504282297.96,-1.0,0.3275813366,0.24486224385,-0.1035974506,0.113215,-0.087512,0.152358,-2.2182446167,-9.4722628483,1.2353044738999999,-2.078909,1.308905,-0.918847,-0.00041000000000000064,0.0002360000000000001,4.604999999999974e-05,-0.0035002720126928732,-0.0007803863995767824,-0.0041112498975111045
1504282297.97,-1.0,0.36583707824999995,0.35740335924999994,-0.2307308612,0.173838,-0.105071,0.162096,-2.2277766805,-9.468095022049999,1.2500634821499998,-2.08214,1.307267,-0.916537,-0.0009199999999999972,0.0005399999999999988,9.069999999999998e-05,-0.007501451480384613,-0.0017541052926552947,-0.008388945826875993
1504282297.98,-1.0,0.3459393854,0.3583153777,-0.32760094989999994,0.21537,-0.112875,0.165384,-2.241996323,-9.46181876605,1.2719617316,-2.086851,1.304821,-0.912798,-0.001013,0.0005329999999999918,0.00010429999999999988,-0.007373286056207462,-0.0018359811677681748,-0.008181923473060237
1504282297.99,-1.0,0.2663290007,0.20280152199999998,-0.33560317630000003,0.228174,-0.114044,0.163274,-2.2560590591,-9.45518947065,1.2961253172,-2.092261,1.302263,-0.908395,-0.0022170000000000037,0.0008190000000000003,0.00033850000000000026,-0.01277530055199727,-0.003391408306849586,-0.014405202230061032
1504282298.0,-1.0,0.16424177419999997,-0.0035990405499999995,-0.23532037339999998,0.223941,-0.109747,0.163259,-2.2699452755,-9.44856017525,1.32004373655,-2.097526,1.299725,-0.904094,-0.0005840000000000012,0.00010449999999999349,0.00012545000000000004,-0.002523618892226187,-0.000750671142007997,-0.0030362892113705575
1504282298.01,-1.0,0.0694899219,-0.25064816734999995,-0.07420692055,0.206953,-0.101079,0.16001,-2.2818799685499997,-9.4427252185,1.3410397742,-2.102114,1.297513,-0.900401,-0.0005840000000000012,0.00010450000000000736,0.00012545000000000004,-0.002521423584810778,-0.0007583239676178799,-0.0030345010121904936
1504282298.02,-1.0,0.0309301741,-0.47810360744999997,0.037686955949999996,0.20162,-0.098907,0.163199,-2.29584463815,-9.4362920561,1.3623202047,-2.106338,1.295092,-0.897052,-0.0023289999999999977,-0.00015500000000000236,0.0005642999999999994,-0.005608651586353375,-0.0017071371476611308,-0.010818345094084747
1504282298.03,-1.0,0.020662611549999998,-0.65362302915,0.0947126257,0.175012,-0.088036,0.167403,-2.3102702203,-9.43000599345,1.38131568575,-2.109672,1.292748,-0.894519,-0.000895,-0.00021199999999998997,0.00016800000000000061,-0.0005633948816985423,-0.00018392129625799392,-0.004507485732745953
1504282298.04,-1.0,0.0439534053,-0.6674602123,0.12608409905,0.14947,-0.073983,0.176941,-2.3256274342,-9.423798384,1.3978202777,-2.111988,1.29045,-0.892919,-0.000448999999999998,-0.00017000000000000348,5.299999999999923e-05,0.00023730972049929022,6.347677921270112e-05,-0.0018491379762757276
1504282298.05,-1.0,0.1652812791,-0.4843308302,0.09509508505,0.140885,-0.069668,0.193992,-2.3380230398,-9.4183851132,1.4135501442999998,-2.114585,1.288462,-0.891024,-0.000448999999999998,-0.00017000000000000348,5.3000000000000096e-05,0.0002371910030527502,6.391497149560443e-05,-0.0018491165817766664
1504282298.06,-1.0,0.33023893874999993,-0.21562862019999998,-0.008708305199999999,0.148299,-0.066549,0.21001,-2.3564889617499998,-9.4114616183,1.4289171648499999,-2.115892,1.285939,-0.890373,-0.0009110000000000021,-0.0004019999999999996,3.2100000000000184e-05,0.0008824928069355309,0.0003483282468810245,-0.0030321112772542236
1504282298.07,-1.0,0.48155554825,0.06309598609999999,-0.161809725,0.166361,-0.066713,0.224986,-2.3762689748,-9.40392030445,1.4456963429999998,-2.117364,1.283216,-0.889529,-0.0019339999999999982,-0.0007120000000000043,-0.00019179999999999978,0.00036493533504655673,0.0008215625668319682,-0.005088009421384654
1504282298.08,-1.0,0.5977741574,0.3149111448,-0.31313614115,0.187631,-0.067966,0.236766,-2.3973140457,-9.3956729118,1.4644466578,-2.119171,1.280266,-0.888342,-0.0010990000000000028,-0.0001669999999999866,-0.0002550999999999994,-0.0015667120326585682,-8.023273412760545e-06,-0.0024456658377914886
1504282298.09,-1.0,0.6378833559,0.51944844385,-0.41473303515,0.200377,-0.068081,0.246386,-2.41064128305,-9.3899654415,1.4791075995499998,-2.121136,1.278241,-0.887002,-0.0010989999999999993,-0.00016700000000000048,-0.0002551000000000003,-0.0015666950727442064,-1.1850887216890982e-05,-0.0024456617554400317
1504282298.1,-1.0,0.6713436457,0.6238206198,-0.4423583682,0.206781,-0.067069,0.247462,-2.43288276525,-9.380913903549999,1.49999576405,-2.123298,1.275056,-0.885444,-0.00119,-2.1000000000007124e-05,-0.00032440000000000073,-0.0027205366023013156,-0.0005176599141158977,-0.0025736326998651027
1504282298.11,-1.0,0.6720203045500001,0.64001139895,-0.42217628249999994,0.201554,-0.054238,0.246363,-2.4551046341499996,-9.37181333235,1.5205210825,-2.125308,1.27189,-0.883966,-0.0012104999999999998,4.649999999999099e-05,-0.00033095,-0.00312168725680273,-0.0009523664989721237,-0.0027820945908589856
1504282298.12,-1.0,0.5961070269,0.57644469365,-0.35971772864999996,0.195305,-0.039261,0.239922,-2.47705191685,-9.36286966755,1.5399088295499999,-2.126998,1.268807,-0.882637,-0.0012104999999999998,4.650000000000487e-05,-0.00033095,-0.003119182458499292,-0.0009610386689498096,-0.002779247114669481
1504282298.13,-1.0,0.55524271635,0.47926079214999995,-0.30936058089999996,0.194317,-0.028597,0.239893,-2.4915559522,-9.356505151699999,1.5550993303999998,-2.128783,1.266634,-0.881133,-0.0009980000000000024,0.00010600000000000886,-0.0002486999999999997,-0.0028360360386940897,-0.0011824236727040471,-0.003094209221894628
1504282298.14,-1.0,0.5704332172,0.39168740764999993,-0.31103751805,0.193338,-0.016868,0.240938,-2.5137778210999997,-9.347502646999999,1.573378926,-2.130044,1.263583,-0.879993,-0.0009199999999999972,5.9999999999990616e-05,-0.00022909999999999988,-0.002182046756273426,-0.0012221454931087283,-0.003374053890935924
1504282298.15,-1.0,0.58295630925,0.27557667165,-0.35581468195,0.200881,-0.006277,0.243067,-2.5363233094499997,-9.33823536275,1.5921194341499998,-2.131355,1.260472,-0.878705,-0.0007550000000000022,-2.6999999999999247e-05,-0.00020509999999999973,-0.0010400918151325378,-0.0011517762980339796,-0.003869392623354173
1504282298.16,-1.0,0.6361181588999999,0.19072953585,-0.40853523235,0.202076,0.009698,0.243041,-2.5591041574,-9.32880136545,1.61086974895,-2.1326,1.257337,-0.877345,-0.0007549999999999987,-2.6999999999999247e-05,-0.00020510000000000016,-0.0010356836273823777,-0.0011557856495689744,-0.003868423663955345
1504282298.17,-1.0,0.6504554812,0.11439457224999999,-0.4353171935,0.195749,0.022534,0.246197,-2.5710486571,-9.3236921008,1.6213530578,-2.133425,1.255654,-0.876272,-0.000563000000000001,-0.00010499999999999399,-0.0001929000000000002,-0.00018635863239402362,-0.0009400659376201936,-0.00442314677908473
1504282298.18,-1.0,0.6579673750999999,0.055309505999999994,-0.45053711429999993,0.180912,0.039698,0.253613,-2.5951730160999995,-9.3141404237,1.6377693898999999,-2.133756,1.252525,-0.875556,-0.0003625000000000017,-0.00014500000000000624,-0.00019669999999999974,2.534604370119098e-05,-0.0006743398672690581,-0.004959598276052635
1504282298.19,-1.0,0.693330155,0.01501398115,-0.41002584314999996,0.160812,0.066495,0.26207,-2.6202093935499997,-9.304657393149999,1.6517144461999997,-2.133251,1.249451,-0.875472,-0.00036249999999999824,-0.00014499999999999236,-0.00019670000000000017,2.8696195277566616e-05,-0.0006742043552432353,-0.004959787535717908
1504282298.2,-1.0,0.7308307846000001,-0.00021574629999999997,-0.4030337017,0.139612,0.091166,0.273732,-2.6467854150499996,-9.295125329349998,1.66298228705,-2.131767,1.246387,-0.876149,-8.350000000000024e-05,-7.649999999999324e-05,-0.00010630000000000014,-7.794606379163405e-05,-0.00022688959951988608,-0.0027366547887719417
1504282298.21,-1.0,0.74035304175,0.0215354034,-0.3951099285,0.117311,0.111586,0.283248,-2.66094621765,-9.290839823299999,1.66433560475,-2.129732,1.245019,-0.87724,-8.350000000000024e-05,-7.650000000000712e-05,-0.00010629999999999971,-7.732500028256872e-05,-0.00022710211603294006,-0.00273667640972608
1504282298.22,-1.0,0.8203458858,0.0272821003,-0.41202639974999994,0.093934,0.130947,0.294915,-2.6903661676499997,-9.28131756615,1.6701803681499998,-2.126371,1.241997,-0.879456,-5.099999999999896e-05,-0.00014200000000000323,-0.00022920000000000015,-0.000347808409985495,-0.0003369714537024837,-0.005768234454839649
1504282298.23,-1.0,0.9061834932499999,0.0173185439,-0.42191150294999996,0.073752,0.148153,0.304456,-2.7208354291999997,-9.271805115649999,1.6736225023,-2.122255,1.239007,-0.882285,9.199999999999833e-05,-6.599999999999662e-05,-0.00016109999999999996,-0.0004693024445008298,-0.00023927560349079613,-0.0060708953819985645
1504282298.24,-1.0,0.9500094121,0.014033316149999999,-0.41883221484999994,0.05147,0.167511,0.310788,-2.7522461291499996,-9.26239073165,1.6744364542499999,-2.117362,1.236071,-0.88574,0.00016700000000000048,-4.700000000000537e-05,-0.0001818000000000002,-0.0006705423927924059,-0.0002021291359994848,-0.0063334959515860545
1504282298.25,-1.0,0.9389671242,-0.0053642375499999995,-0.37761486489999996,0.021749,0.19013,0.313879,-2.7663382852,-9.259899842549999,1.66494361705,-2.112582,1.235299,-0.888962,0.00022199999999999998,-3.0000000000002247e-05,-0.00019819999999999994,-0.0007147996601866158,-0.00021992801516090843,-0.006598967612399864
1504282298.26,-1.0,0.9152644511499999,-0.04929802955,-0.3224622653,-0.009061,0.208497,0.314841,-2.7812443932,-9.257565859849999,1.6530383439499998,-2.107053,1.234578,-0.892781,0.0002599999999999998,-1.9999999999992246e-05,-0.00020689999999999988,-0.0006852857398176315,-0.00027231205440814144,-0.0068455421179211
1504282298.27,-1.0,0.90647769275,-0.04678752715,-0.30342755764999996,-0.035603,0.226829,0.315812,-2.79700367975,-9.25542801015,1.6383479822499998,-2.100673,1.233919,-0.897309,0.00028700000000000253,-1.0999999999997123e-05,-0.00020720000000000005,-0.0005438481821506969,-0.00032634665221964454,-0.0070010556441010285
1504282298.28,-1.0,0.93222995565,-0.0204370586,-0.27540015195,-0.051536,0.238678,0.318946,-2.8131748456,-9.253358807,1.6222944961999999,-2.09389,1.23328,-0.902147,0.0006459999999999973,1.1999999999998123e-05,-0.00039022000000000004,-0.0006000295661086064,-0.000694657341319127,-0.014126571012563871
1504282298.29,-1.0,0.9762716208,-0.00430511935,-0.25588491845,-0.064274,0.2505,0.323154,-2.8295323378,-9.2513778637,1.6050151789,-2.086776,1.232672,-0.907219,0.0003505000000000001,4.049999999999887e-05,-0.00017886499999999995,-0.00016622534376287135,-0.00037309604633484206,-0.0069641338776316175
1504282298.3,-1.0,1.0230689546,0.012866324799999999,-0.2651325894,-0.076987,0.26339,0.324157,-2.84595847655,-9.24954402015,1.58643157715,-2.079329,1.232109,-0.912538,0.0003505000000000001,4.049999999999887e-05,-0.00017886500000000006,-0.0001636232596164966,-0.0003742451463903951,-0.006964271448664738
1504282298.31,-1.0,1.0545483011,0.012346572349999998,-0.28123510869999996,-0.082324,0.265562,0.326259,-2.86247287515,-9.247827856399999,1.56662214415,-2.071563,1.231581,-0.918119,0.00038050000000000236,0.0001234999999999986,-0.000162755,-0.00027624721837571364,-0.0004376239836525464,-0.006662015287571377
1504282298.32,-1.0,1.0728082834,-0.0401876517,-0.2763121704,-0.081263,0.264489,0.324108,-2.8781929350999995,-9.246317632299998,1.5465871581999997,-2.063874,1.23112,-0.923628,0.0003804999999999989,0.0001234999999999986,-0.000162755,-0.0002733275455433226,-0.0004394512283372176,-0.006662065698709196
1504282298.33,-1.0,1.07242582405,-0.08705363205,-0.25064816734999995,-0.080146,0.26981,0.320877,-2.89306962315,-9.244954507949998,1.52690521165,-2.05642,1.2307,-0.928863,0.00039799999999999905,0.00019600000000000173,-0.000155525,-0.0004272714292263835,-0.0004209817825409079,-0.00609653122124354
1504282298.34,-1.0,1.07415179445,-0.14281424394999997,-0.2168250315,-0.071614,0.267613,0.316605,-2.9069068063,-9.2436502235,1.50835102985,-2.049437,1.230304,-0.933613,0.00039799999999999905,0.00019600000000000173,-0.000155525,-0.00042470389145643495,-0.00042357483912702776,-0.006096516801564311
1504282298.35,-1.0,1.0718864582999998,-0.25575743199999995,-0.1983689162,-0.064171,0.265419,0.316598,-2.9193122185499996,-9.24264013855,1.4904931202,-2.042858,1.229995,-0.937995,0.0003870000000000019,0.00020199999999999385,-0.00016177,-0.0004044537332785758,-0.0003802235636429785,-0.005560585081719749
1504282298.36,-1.0,1.0550974735,-0.4192931274,-0.18279595599999998,-0.063118,0.263281,0.314447,-2.93200202365,-9.241463340549998,1.4728215368999997,-2.036305,1.229634,-0.94234,0.0003730000000000018,0.00018649999999999223,-0.00016313999999999999,-0.00019091239231805446,-0.0003826013822985086,-0.005048406557966234
1504282298.37,-1.0,1.0219608031499998,-0.53755151975,-0.1666738234,-0.059929,0.260061,0.310167,-2.9454077142,-9.23991388985,1.4556598994,-2.029803,1.229164,-0.946643,0.00037299999999999833,0.0001865000000000061,-0.00016313999999999999,-0.00018898000365830114,-0.0003835600304773479,-0.005048472777363422
1504282298.38,-1.0,1.02250997555,-0.6482587915999999,-0.1253486003,-0.042919,0.249271,0.30379,-2.9583721054999996,-9.23814869285,1.4405086251499999,-2.02393,1.228626,-0.950389,0.00036299999999999874,0.00017100000000000448,-0.00015881,7.130877683936276e-05,-0.00038974684691805983,-0.004658261502372141
1504282298.39,-1.0,1.0191659079,-0.7528565205,-0.0746482198,-0.019492,0.241622,0.299554,-2.97073829115,-9.236050069749998,1.4284170257,-2.01899,1.227991,-0.953264,0.00036399999999999974,0.00017300000000000648,-0.0001521300000000001,0.00017715012196162228,-0.0003637642728142598,-0.004454616174759063
1504282298.4,-1.0,1.0329540577999998,-0.781786138,-0.03092036745,0.011453,0.238177,0.293209,-3.00143310565,-9.2271750515,1.4216504372,-2.013149,1.225306,-0.956931,0.0003715000000000003,0.00019299999999999873,-0.00014535000000000004,3.824830008203328e-05,-0.00040018563802446394,-0.00417492970074862
1504282298.41,-1.0,1.08556673505,-0.74058840135,-0.06914668915,0.041253,0.226215,0.289012,-3.0314512613,-9.21794699385,1.4178258437,-2.008276,1.222538,-0.959681,0.0003715000000000003,0.00019299999999999873,-0.00014534999999999982,3.9923079095949277e-05,-0.00040002315246923104,-0.004175054647853171
1504282298.42,-1.0,1.15144780975,-0.6656852086499999,-0.19795703689999997,0.074259,0.214227,0.283753,-3.0608221780499996,-9.208307056899999,1.4173551244999998,-2.00446,1.219669,-0.961443,0.00027699999999999947,0.0002319999999999961,-4.850000000000015e-05,-0.00012741323863441067,-0.0004376124249980684,-0.003898563655075016
1504282298.43,-1.0,1.17753349875,-0.5733163723,-0.3014368077,0.115775,0.200037,0.27742,-3.0656568565,-9.20714006555,1.41444254945,-2.003076,1.219325,-0.960902,0.00027599999999999847,0.0002309999999999951,-4.764999999999999e-05,-3.2956180829657455e-05,-0.0005237511923685823,-0.003713989398660411
1504282298.44,-1.0,1.22440928575,-0.5047090488999999,-0.29314038179999996,0.150931,0.188035,0.268962,-3.09338025605,-9.196745016549999,1.4217092771,-2.001602,1.216258,-0.960432,0.00027600000000000194,0.00023100000000000898,-4.764999999999999e-05,-3.100768217190186e-05,-0.0005238682566937047,-0.0037140875656561656
1504282298.45,-1.0,1.22713553445,-0.5236162700999999,-0.2519132252,0.17861,0.171838,0.255163,-3.1197503379000002,-9.1862224811,1.4321043261,-2.001147,1.213179,-0.959048,0.0002680000000000009,0.00020199999999999385,-4.7100000000000006e-05,0.000380858814515328,-0.0006808346510731589,-0.003623777779662163
1504282298.46,-1.0,1.1628137171,-0.6657538552,-0.20973482354999998,0.194615,0.160004,0.235998,-3.14431599615,-9.17591569195,1.4444018652,-2.001414,1.210189,-0.957024,0.00026199999999999835,0.00016800000000000148,-4.579999999999992e-05,0.0007876621149593976,-0.000785195700076402,-0.0036176930783508032
1504282298.47,-1.0,1.0565096311,-0.8958963174,-0.15381730525,0.204253,0.15355,0.216788,-3.1442571562499997,-9.1744152745,1.4540123822,-2.003943,1.209756,-0.952891,0.00026299999999999935,0.00012150000000001049,-4.109999999999986e-05,0.0013137396427154169,-0.0009332954628991086,-0.003694938712146212
1504282298.48,-1.0,0.9937470710999998,-1.12132178095,-0.09293762204999999,0.208578,0.14608,0.193326,-3.16469421485,-9.16506953705,1.4685556441499998,-2.005269,1.207068,-0.949899,0.0002630000000000028,0.00012149999999999661,-4.110000000000008e-05,0.001317259724502362,-0.0009284374649707328,-0.0036963686388774564
1504282298.49,-1.0,0.9355740233,-1.3318019099,-0.031136113749999996,0.204348,0.135484,0.168787,-3.1828365173499997,-9.15643968505,1.48306948615,-2.006842,1.204604,-0.94674,0.000281,9.699999999999986e-05,-3.3299999999999996e-05,0.0015604257844274994,-0.001000532341453031,-0.0037699507415548394
1504282298.5,-1.0,0.8505503678,-1.5575509928999998,0.022712201399999996,0.187398,0.129266,0.134611,-3.1979093383999997,-9.149016051,1.4964163367999999,-2.008464,1.202494,-0.943588,0.0003149999999999993,0.00011999999999999511,-2.840000000000004e-05,0.001409559768710933,-0.000989381794048283,-0.0038655370958199375
1504282298.51,-1.0,0.7467763974999999,-1.7975883649499997,0.08226798685,0.16722,0.117749,0.097238,-3.2095106053499998,-9.1430143812,1.5082333500499998,-2.010096,1.200798,-0.940541,0.0003149999999999993,0.00011999999999999511,-2.840000000000004e-05,0.0014134811009784976,-0.000983937203156371,-0.0038671992464696103
1504282298.52,-1.0,0.6068551152999999,-2.0855900621499996,0.15244437425,0.14069,0.108423,0.053445,-3.2171303723999998,-9.138719068499999,1.51796154685,-2.011662,1.19959,-0.937652,0.0003180000000000023,0.0001900000000000096,-1.1900000000000018e-05,0.001009877634965406,-0.0009358165060935342,-0.003918463771875769
1504282298.53,-1.0,0.47145469874999996,-2.3835160891499996,0.2713892321,0.112053,0.099119,0.004311,-3.2202979203499997,-9.13633605255,1.52561073385,-2.013224,1.198919,-0.934883,0.0003370000000000005,0.0002289999999999931,-1.4700000000000086e-05,0.000693742085499327,-0.00090730652276938,-0.003929135244167714
1504282298.54,-1.0,0.31201818304999995,-2.68114791665,0.39148146799999994,0.092984,0.080156,-0.053328,-3.2181306507,-9.136032046399999,1.5319654430499998,-2.015093,1.198834,-0.931964,0.0003495000000000026,0.00026849999999999097,-1.824999999999982e-05,0.0004409031524084117,-0.0009540004761936505,-0.003934458588250367
1504282298.55,-1.0,0.149845612,-2.88208617515,0.48147709504999997,0.049606,0.084844,-0.119591,-3.2099420979499995,-9.138444482299999,1.5347407249999998,-2.016788,1.199513,-0.929218,0.00034949999999999565,0.00026850000000000485,-1.8250000000000037e-05,0.0004446955987307266,-0.0009522639305898917,-0.00393516399636229
1504282298.56,-1.0,0.005678050349999999,-2.96014710915,0.5526439541,-0.004611,0.071501,-0.180503,-3.19595781505,-9.14359297355,1.5333089540999998,-2.018125,1.20096,-0.927006,0.000342000000000002,0.00028100000000000347,-1.0999999999999942e-05,0.00043397892662078164,-0.0010514400919239275,-0.003976230083477805
1504282298.57,-1.0,-0.10486250844999999,-2.9828102772999996,0.5821619706,-0.047089,0.064445,-0.2318,-3.1768348475499995,-9.1511539007,1.5278858766499999,-2.019083,1.203101,-0.925294,0.00031849999999999934,0.00026400000000000035,1.1350000000000032e-05,0.0006290751530855232,-0.0011352018771513261,-0.004025792289544694
1504282298.58,-1.0,-0.0828073526,-2.8608743912,0.57715077245,-0.08102,0.066896,-0.270289,-3.15384805995,-9.16055847805,1.5191187315499999,-2.019674,1.205778,-0.923962,0.00031849999999999934,0.00026400000000000035,1.1349999999999815e-05,0.0006337082556049367,-0.001132664682550688,-0.004026854104957289
1504282298.59,-1.0,0.024889277699999997,-2.5807572406,0.5842409803999999,-0.106491,0.069261,-0.29382,-3.1283703832499996,-9.17117908,1.5076939843,-2.019894,1.208824,-0.922997,0.0002920000000000006,0.00022199999999999998,4.0000000000000105e-05,0.0009210795989207377,-0.00129614459677585,-0.0041354095212282616
1504282298.6,-1.0,0.19161213435,-2.15339324025,0.5111225979999999,-0.120395,0.066198,-0.299174,-3.10191204155,-9.182250787849998,1.49491591935,-2.019888,1.212025,-0.922279,0.00013849999999999973,8.900000000000574e-05,2.9100000000000003e-05,0.0005689689897172556,-0.0006911080054810004,-0.0021524456397111758
1504282298.61,-1.0,0.40244530269999995,-1.59772883795,0.35612849474999997,-0.122547,0.067276,-0.293843,-3.0757184794,-9.1932440425,1.48142196895,-2.019658,1.215231,-0.921789,0.00013849999999999973,8.899999999999186e-05,2.9100000000000003e-05,0.0005704908530035357,-0.000689884276955377,-0.0021529560490034516
1504282298.62,-1.0,0.65432910795,-0.9131952479999998,0.1780299241,-0.116156,0.072541,-0.283167,-3.05032906255,-9.203805804549999,1.4682810579499999,-2.019415,1.218338,-0.921279,0.000562,0.00019700000000000273,0.0001605999999999999,0.002838954869897936,-0.0028626586914928254,-0.009417508604435909
1504282298.63,-1.0,0.8812059556999999,-0.26001351809999995,-0.00020593964999999999,-0.08324,0.069045,-0.257512,-3.0036592152,-9.220869375549999,1.45737606315,-2.022534,1.223414,-0.917578,0.00028850000000000403,4.500000000000337e-05,0.00010285000000000003,0.0016677958099566847,-0.0013730007059373772,-0.005283755147176494
1504282298.64,-1.0,1.0762994508,0.20551796404999997,-0.17138101539999998,-0.029069,0.054719,-0.231775,-2.9825356911,-9.2286656623,1.4513842,-2.023689,1.225758,-0.915716,0.0002884999999999971,4.500000000000337e-05,0.00010285000000000003,0.001675244054610836,-0.0013641929005234754,-0.005286647454590843
1504282298.65,-1.0,1.2177309571,0.50603294665,-0.36018844785,0.044293,0.035978,-0.210267,-2.9632558172,-9.234696752049999,1.4525413847,-2.02656,1.227579,-0.912231,0.0003974999999999951,-4.900000000000737e-05,8.874999999999985e-05,0.001799004522952563,-0.0011433002302614348,-0.005806960785195714
1504282298.66,-1.0,1.26914722305,0.66056613735,-0.53659046805,0.115535,0.013001,-0.198361,-2.94508409475,-9.2391391645,1.4612006566499998,-2.031358,1.228929,-0.906941,0.000397500000000002,-4.899999999999349e-05,8.875000000000007e-05,0.0018058310963178226,-0.0011328779968031721,-0.00580963455517991
1504282298.67,-1.0,1.19706834555,0.6454246697499999,-0.6490923568499999,0.171886,-0.010908,-0.197154,-2.9268829523499997,-9.2425518787,1.47614599125,-2.03791,1.229967,-0.900035,0.00024500000000000216,-4.049999999999887e-05,3.500000000000009e-05,0.0007742114267312861,-0.00045908675922912145,-0.003081325883486974
1504282298.68,-1.0,1.0060446102,0.48253621324999996,-0.6546429207499999,0.189976,-0.024896,-0.209907,-2.90748539865,-9.24575865325,1.4942588738,-2.045529,1.230948,-0.892182,0.0002449999999999952,-4.050000000001275e-05,3.4999999999999875e-05,0.0007756556511704371,-0.0004567057735773705,-0.0030817916868414175
1504282298.69,-1.0,0.754327518,0.175931301,-0.50383625705,0.174003,-0.033266,-0.233421,-2.8684058984,-9.2569872675,1.50027035025,-2.052701,1.234399,-0.884837,0.001136000000000005,-0.00015299999999998648,0.00010079000000000012,0.0017890451090063486,-0.0014734391628667964,-0.012875384320053307
1504282298.7,-1.0,0.51740866065,-0.16990021125,-0.2590720797,0.126131,-0.03497,-0.264456,-2.844124633,-9.2622044053,1.5142350198499999,-2.060033,1.236015,-0.877439,0.0006139999999999965,-6.40000000000085e-05,2.6699999999999944e-05,0.00014868494176534242,-0.0006057943533126497,-0.006544752670812892
1504282298.71,-1.0,0.28890390899999996,-0.48318345214999997,0.017465643649999998,0.060249,-0.024798,-0.301947,-2.81657775315,-9.269294613249999,1.5223058928,-2.066301,1.238222,-0.871108,0.0006169999999999995,-6.699999999999762e-05,6.640000000000031e-06,-0.00017650093514642862,-0.0005834090918370727,-0.0064317591721188005
1504282298.72,-1.0,0.08210127379999999,-0.69965544425,0.24688241374999997,-0.01836,-0.007059,-0.342676,-2.7854514460499997,-9.27863054405,1.5227373854,-2.071082,1.241149,-0.866168,0.0005510000000000029,-8.749999999999036e-05,-9.51499999999998e-06,-0.00021175857012312171,-0.0006718763894835167,-0.006155868446570234
1504282298.73,-1.0,-0.0554860257,-0.6874363583499999,0.35127420299999995,-0.11073,0.021453,-0.386655,-2.7466269186999996,-9.290702530199999,1.5196384839999997,-2.076151,1.244974,-0.860896,0.0005509999999999959,-8.750000000000424e-05,-9.51499999999998e-06,-0.00020761322909579327,-0.0006731600742035937,-0.0061560989621246565
1504282298.74,-1.0,-0.16229025085,-0.5971661450999999,0.2780577541,-0.175541,0.02417,-0.43694,-2.70731205885,-9.304804492899999,1.5038301642,-2.077829,1.249496,-0.858849,0.0002339999999999981,-6.3500000000008e-05,-1.0475000000000024e-05,3.3279460432744656e-05,-0.00036904322379593957,-0.0028983761577450196
1504282298.75,-1.0,-0.15209133484999998,-0.27294848945,0.0550545331,-0.208502,0.013827,-0.476472,-2.66424125205,-9.3203186132,1.48456009695,-2.079165,1.254544,-0.857275,0.00023400000000000504,-6.349999999999412e-05,-1.0475000000000024e-05,3.435479685442999e-05,-0.00036894457484271115,-0.002898481260841468
1504282298.76,-1.0,-0.14124517995,-0.053485469099999995,-0.0162986523,-0.219018,0.004371,-0.522372,-2.6165809330500003,-9.337029144799999,1.4641916848999998,-2.080968,1.260069,-0.855334,0.0008459999999999995,-0.0003610000000000002,-6.434999999999991e-05,0.0009013179487555867,-0.0015240212445719603,-0.010800059096923942
1504282298.77,-1.0,-0.12730012364999999,0.2275731199,-0.050621927299999994,-0.221035,-0.006227,-0.562918,-2.564831241,-9.35457324165,1.4435977198999999,-2.083446,1.265977,-0.852766,0.0003865000000000049,-0.00021850000000001035,-2.75500000000001e-05,0.0006549960939237209,-0.0007630808651697407,-0.004910137620255606
1504282298.78,-1.0,-0.18105037229999998,0.44136789654999997,-0.1300165657,-0.224161,-0.020015,-0.600256,-2.5121204972499998,-9.3721957917,1.42183676355,-2.085834,1.272021,-0.850351,0.00038649999999999796,-0.00021849999999999647,-2.7549999999999884e-05,0.0006588030597090011,-0.0007598719836492407,-0.004911014680379688
1504282298.79,-1.0,-0.2349477207,0.50365973735,-0.28387309755,-0.216726,-0.043487,-0.631156,-2.4529863977499997,-9.390789200099999,1.40226269015,-2.090113,1.278531,-0.846266,0.00039100000000000246,-0.00020950000000000135,-2.2950000000000097e-05,0.00023345054501722196,-0.0007970227575873068,-0.004411382395619667
1504282298.8,-1.0,-0.20025179299999998,0.6151123145999999,-0.36956360525,-0.194461,-0.075614,-0.654544,-2.3910181764,-9.40931396195,1.38500298615,-2.095821,1.285161,-0.841016,0.0003909999999999955,-0.00020950000000000135,-2.2950000000000097e-05,0.0002370003706071433,-0.0007959913035910926,-0.004411924287748947
1504282298.81,-1.0,-0.20110497154999998,0.7375189199,-0.3150092113,-0.166784,-0.098195,-0.677939,-2.3262746731,-9.42757394425,1.37099908995,-2.103351,1.291847,-0.834154,0.00041200000000000264,-0.00019199999999999773,-3.3299999999999996e-05,-0.00020294366415862797,-0.0007421196126871088,-0.003965931729683625
1504282298.82,-1.0,-0.22949522329999997,0.9209621147999999,-0.21513828769999999,-0.156172,-0.120634,-0.70243,-2.2598836526,-9.44552011375,1.3585152244999998,-2.112058,1.298569,-0.82628,0.0004239999999999938,-0.00018999999999999573,-4.779999999999997e-05,-0.0003666387779741598,-0.0006409473385224906,-0.0035873807570560023
1504282298.83,-1.0,-0.2808036161,1.0463107151,-0.1618293383,-0.149806,-0.143034,-0.731199,-2.1894130657,-9.463731062799999,1.3471100905499998,-2.122379,1.305565,-0.816982,0.0003180000000000058,-0.00022300000000000098,-6.349999999999997e-05,-0.0004792323053930403,-0.0005272302722933997,-0.0031761771763558766
1504282298.84,-1.0,-0.2858050076,1.09429465355,-0.14048026125,-0.142538,-0.181434,-0.752467,-2.11618681015,-9.48178510545,1.3371269208499998,-2.134313,1.312682,-0.806397,0.0003069999999999948,-0.0002380000000000021,-7.550000000000005e-05,-0.0003383313603328997,-0.00042237704465053483,-0.002802469870130886
1504282298.85,-1.0,-0.31784333315,1.08337004545,-0.0757269513,-0.133135,-0.226233,-0.784394,-2.0395478404,-9.49973127495,1.32879126835,-2.148233,1.319953,-0.794254,0.00028700000000000253,-0.00026299999999999935,-7.839999999999995e-05,-3.590179376944391e-05,-0.0003152669596477864,-0.002474831475653083
1504282298.86,-1.0,-0.36829854739999995,1.12842179555,0.055495832349999996,-0.131115,-0.257124,-0.811021,-1.9597609359999997,-9.517549958,1.32131860105,-2.164013,1.327381,-0.780562,0.00013149999999999967,-0.00014250000000000373,-3.474999999999984e-05,0.00014426922040611245,-0.00015840671986055987,-0.00112720621299367
1504282298.87,-1.0,-0.4971383151,1.04155448985,0.25574762535,-0.141713,-0.270852,-0.847307,-1.87641421765,-9.535437287599999,1.3133457945999998,-2.181473,1.335066,-0.765347,0.00013149999999999967,-0.00014249999999998986,-3.475000000000006e-05,0.00014445205960367247,-0.00015824604311731605,-0.0011272560320310099
1504282298.88,-1.0,-0.72289720475,0.73380219955,0.40726036785,-0.186579,-0.294962,-0.875094,-1.78995879125,-9.55358939675,1.3020485337999999,-2.199686,1.343127,-0.749602,0.00044299999999999895,-0.0006110000000000004,-7.680000000000013e-05,0.0012039680149289467,-0.0007787256635722883,-0.0040821166962596855
1504282298.89,-1.0,-0.9798804679999998,0.22880875779999998,0.3866173696,-0.22918,-0.307362,-0.910371,-1.6995316716,-9.5721729985,1.28663248,-2.218796,1.351682,-0.73315,0.0001789999999999986,-0.0003120000000000067,-4.39999999999989e-06,0.0006051102169846168,-0.000541918433088151,-0.0018819486266199448
1504282298.9,-1.0,-1.1486234945499998,-0.15403305154999997,0.37644787355,-0.26534,-0.304913,-0.92965,-1.6074080014999999,-9.590668340399999,1.2671662797499998,-2.238381,1.360533,-0.716219,7.800000000000168e-05,-0.00015599999999998948,7.599999999999968e-06,0.00023611363537079377,-0.0003036688991868708,-0.0009085066781466811
1504282298.91,-1.0,-1.3719895616,-0.5401502819999999,0.45330258959999997,-0.29188,-0.301475,-0.95105,-1.5127247957499999,-9.6090263892,1.2444834982999997,-2.259214,1.369697,-0.698048,7.800000000000168e-05,-0.00015600000000000336,7.599999999999968e-06,0.00023639823075227717,-0.00030345519250607467,-0.0009086068659815982
1504282298.92,-1.0,-1.4741748546,-0.6227811149,0.56285267675,-0.317391,-0.289544,-0.951116,-1.4175708708,-9.626796038999998,1.2188881418,-2.280976,1.378982,-0.678841,0.0002710000000000004,-0.0006530000000000008,6.959999999999996e-05,0.0007636610000285593,-0.0012963856509620175,-0.003819625295942597
1504282298.93,-1.0,-1.37235240765,-0.42148981699999993,0.58399581415,-0.345159,-0.279747,-0.929833,-1.32367219705,-9.64373212355,1.1902527237999998,-2.303174,1.388263,-0.659131,-2.2999999999995246e-05,-0.0004060000000000036,3.074999999999996e-05,0.0006054147102623197,-0.0006748861234107117,-0.0021425019987306726
1504282298.94,-1.0,-1.2657835420999999,-0.25184457865,0.4987073791,-0.365501,-0.273211,-0.905329,-1.23286261805,-9.659550249999999,1.1591264167,-2.325376,1.397372,-0.639381,-2.3000000000002185e-05,-0.0004060000000000036,3.075000000000018e-05,0.0006069115876499165,-0.0006735950857890138,-0.0021430684481346107
1504282298.95,-1.0,-1.1838587879999998,0.1481000283,0.3832046554,-0.368768,-0.258304,-0.868002,-1.1451029071999999,-9.674181771799999,1.12663698525,-2.348067,1.406246,-0.619038,-4.000000000004e-06,-0.0004299999999999998,4.199999999999994e-06,0.0008199295152775399,-0.0005359199388565994,-0.002329885573712831
1504282298.96,-1.0,-1.0809379962499999,0.6220750361,0.29864191245,-0.35827,-0.253107,-0.825297,-1.061275663,-9.6874207493,1.0944809799,-2.371597,1.414704,-0.597785,3.200000000000425e-05,-0.0004330000000000028,-1.5900000000000115e-05,0.0007595545689902394,-0.0003790444354792033,-0.0024963498297333464
1504282298.97,-1.0,-0.9902460970499999,0.9947277360999999,0.24537218965,-0.346664,-0.2394,-0.777268,-0.9819790910999999,-9.69929660245,1.0629035669,-2.395751,1.422694,-0.575788,9.749999999999343e-05,-0.0004174999999999873,-3.4949999999999955e-05,0.00044082532174249955,-0.00015427528684863745,-0.0028775784893932954
1504282298.98,-1.0,-0.9120576766,1.27071628705,0.19942803439999998,-0.324462,-0.239625,-0.736667,-0.9069386052999999,-9.709828944549999,1.03298347775,-2.421079,1.430161,-0.552611,9.750000000000036e-05,-0.0004175000000000012,-3.4949999999999955e-05,0.00044127890847911466,-0.00015301399127332083,-0.0028777045521899414
1504282298.99,-1.0,-0.8730566295499999,1.50130985515,0.11566943675,-0.288437,-0.241037,-0.688569,-0.8365464716,-9.7189589357,1.00616229,-2.44798,1.436967,-0.527884,0.00015600000000000336,-0.00039600000000000746,-4.0000000000000105e-05,0.00016176378402921188,-0.00010362303795741212,-0.003370600384545397
1504282299.0,-1.0,-0.8911695121,1.6724947375499999,0.04064856425,-0.258732,-0.234933,-0.644765,-0.77040061735,-9.7268827089,0.98212619085,-2.476421,1.443166,-0.501602,0.0001830000000000026,-0.00038499999999999646,-3.6199999999999904e-05,4.234906215794254e-05,-0.0001662954198147215,-0.0037088019265720806
1504282299.01,-1.0,-0.9601102616,1.6844784638499999,0.02772339955,-0.239664,-0.223417,-0.598854,-0.7087952420499999,-9.7337865905,0.9598847086499999,-2.505547,1.448819,-0.474527,0.0002009999999999998,-0.00038200000000000733,-2.8900000000000106e-05,6.019119413780416e-06,-0.0002641919621937383,-0.004049835232275645
1504282299.02,-1.0,-1.03998542585,1.6595499595499998,0.035980598849999997,-0.224921,-0.220387,-0.55507,-0.6515145993999999,-9.73983729355,0.9389082842999998,-2.534967,1.453997,-0.447123,0.0002139999999999989,-0.00038900000000000046,-2.0399999999999845e-05,8.082204801840298e-05,-0.0003499592989499867,-0.0043278168308934495
1504282299.03,-1.0,-1.0734555223,1.6116542809499999,0.026164142199999997,-0.210186,-0.213103,-0.502755,-0.59919612165,-9.745054431349999,0.9194028574499999,-2.564008,1.458656,-0.420059,9.950000000000236e-05,-0.00019049999999999623,-9.950000000000106e-06,0.00013089555052281376,-0.00020519201852109425,-0.002264099738826464
1504282299.04,-1.0,-1.11863475885,1.5599143955499997,0.08207185384999999,-0.201844,-0.204701,-0.450453,-0.5520751683999999,-9.749575297,0.9007506091499999,-2.591739,1.462857,-0.394235,9.949999999999543e-05,-0.00019049999999999623,-9.94999999999989e-06,0.0001313658249624261,-0.00020489737020823462,-0.0022641829784579848
1504282299.05,-1.0,-1.1171931812999998,1.6042796801499997,0.15298373999999998,-0.199837,-0.186659,-0.396044,-0.5104165192,-9.753537183599999,0.882206234,-2.617079,1.466676,-0.370668,0.00038699999999999846,-0.0008400000000000074,-2.9300000000000116e-05,0.0014230827227670328,-0.0008014718522912911,-0.009008401512952902
1504282299.06,-1.0,-1.0851450490999999,1.6975115017,0.19354404439999998,-0.189342,-0.177207,-0.345874,-0.47377887479999997,-9.75699893105,0.8642404511999999,-2.64013,1.470124,-0.3493,0.00018900000000000167,-0.00044799999999999007,-1.4899999999999983e-05,0.0009875378114680977,-0.00023618884354514869,-0.004336994877198408
1504282299.07,-1.0,-1.0600792517,1.81888840875,0.17631376035,-0.167186,-0.173186,-0.28927,-0.44273102089999994,-9.75986247285,0.8482556117,-2.660555,1.47307,-0.330532,0.0001840000000000036,-0.00045100000000000695,-1.7099999999999928e-05,0.0010417403461056018,-9.104047100283452e-05,-0.004205085276186682
1504282299.08,-1.0,-1.0377593162999998,1.8861326078,0.19095508879999998,-0.137493,-0.163893,-0.238,-0.41671397845,-9.7621670356,0.8348106945499999,-2.678607,1.475508,-0.314074,0.00017199999999999854,-0.00044399999999999995,-1.6100000000000012e-05,0.0009582490974087143,-2.7096146227645335e-05,-0.004107259119705553
1504282299.09,-1.0,-1.0131642381,1.9534944866499997,0.1766766064,-0.117353,-0.147065,-0.184625,-0.39612001345,-9.76398126585,0.82349382045,-2.693239,1.477478,-0.300892,0.00015199999999999936,-0.0004330000000000028,-1.2900000000000151e-05,0.0008658547495110636,-6.57174203408939e-05,-0.004087158723818596
1504282299.1,-1.0,-1.0574804894499998,1.9118260307999997,0.1893075716,-0.101556,-0.139792,-0.13124,-0.38083144609999997,-9.76541303675,0.8137067837499999,-2.703851,1.479054,-0.291655,0.00012199999999999711,-0.0004229999999999928,-6.900000000000005e-06,0.0008284588828810779,-0.00013775015435180116,-0.004043409683931132
1504282299.11,-1.0,-1.1118191371,1.7008457627,0.17813779725,-0.080407,-0.131494,-0.079983,-0.37063253009999997,-9.7664623483,0.8057339773,-2.710454,1.480235,-0.286362,7.150000000000212e-05,-0.0004269999999999968,3.2000000000000778e-06,0.000957389249393259,-0.00025470552800865853,-0.0037912006070693893
1504282299.12,-1.0,-1.1554096963499998,1.44035171875,0.19536808129999997,-0.049662,-0.125405,-0.03084,-0.3653565524,-9.767080167249999,0.800614906,-2.71348,1.480936,-0.284594,7.150000000000212e-05,-0.0004270000000000107,3.2000000000000778e-06,0.0009583744502994485,-0.0002510943922349185,-0.0037915252939323407
1504282299.13,-1.0,-1.2402862521,1.09980599085,0.2562085379,-0.016797,-0.1204,0.019376,-0.36503293294999994,-9.767256686949999,0.79858492945,-2.712853,1.481139,-0.286432,-3.100000000000325e-05,-0.0004239999999999938,3.900000000000041e-06,0.001283851488772747,-0.00036358120321233756,-0.0033736179944401368
1504282299.14,-1.0,-1.2509558873,0.75514146995,0.27383108795,0.008633,-0.114264,0.068565,-0.4221370559,-9.7637753262,0.8129908982999999,-2.662667,1.477248,-0.337612,-5.7000000000001494e-05,-0.00044199999999999795,7.699999999999808e-06,0.0014927666608335333,-0.00034021964280239736,-0.003061154348408146
1504282299.15,-1.0,-1.3180824065499999,0.3846364263,0.27385070125,0.019142,-0.103745,0.117665,-0.43162989309999994,-9.763167313899999,0.81521700785,-2.654649,1.476595,-0.34673,-6.799999999999862e-05,-0.00044800000000000395,6.4000000000001556e-06,0.0015582402419827002,-0.00026767709830388675,-0.002823039742406608
1504282299.16,-1.0,-1.3920931940999999,0.06471408334999999,0.30327065124999997,0.024391,-0.077211,0.177402,-0.4466536809,-9.76227490875,0.8178157701,-2.641708,1.475632,-0.360585,-6.300000000000056e-05,-0.00043899999999999495,8.000000000000194e-07,0.0014287591274209088,-0.00018034013512346903,-0.0026176325977006476
1504282299.17,-1.0,-1.4420482692,-0.1837570077,0.43165931305,0.032769,-0.060291,0.236094,-0.467777205,-9.761009850899999,0.8211108045,-2.623759,1.474283,-0.379271,-4.250000000000087e-05,-0.00039850000000000996,-1.4000000000000123e-05,0.0009495748265300197,-0.0001103005152498504,-0.002443455752138113
1504282299.18,-1.0,-1.33849985185,-0.40928053775,0.4771327491,0.03902,-0.035908,0.309762,-0.5431903435,-9.755449480349998,0.84057700475,-2.567886,1.468564,-0.435533,-4.250000000000087e-05,-0.0003984999999999961,-1.3999999999999907e-05,0.0009498544728954172,-0.00010799443076958681,-0.0024435890171450314
1504282299.19,-1.0,-1.21258246585,-0.44860520425,0.4404656847499999,0.037789,-0.012528,0.380167,-0.5784256369499999,-9.753086077699999,0.8444800514499999,-2.541036,1.46623,-0.462713,-2.4999999999997247e-05,-0.0003449999999999981,-3.040000000000009e-05,0.0004442858484585699,-9.305792968117288e-05,-0.0022889527924470077
1504282299.2,-1.0,-1.1378754061499998,-0.52284154475,0.43232616524999995,0.030219,0.017301,0.448415,-0.6206628784999999,-9.750222535899999,0.84752011295,-2.509501,1.463471,-0.494326,-2.5999999999998247e-05,-0.00031599999999999684,-3.629999999999996e-05,0.00019711976497083228,-0.00012679935438963952,-0.0022240276707796713
1504282299.21,-1.0,-1.0740439213,-0.5130054747999999,0.44871307739999994,0.030045,0.037479,0.515625,-0.66968632185,-9.7467509818,0.8501384885,-2.474373,1.460214,-0.529328,-3.700000000000231e-05,-0.0002940000000000026,-3.6500000000000074e-05,-3.337872473929693e-05,-0.0002634644606651637,-0.002130407104887322
1504282299.22,-1.0,-1.01750858405,-0.5340015124499999,0.46471753019999995,0.034224,0.060828,0.573253,-0.7455211463,-9.740268786149999,0.8612200029999999,-2.428077,1.454379,-0.575246,-7.149999999999518e-05,-0.0002545000000000047,-2.0049999999999972e-05,-0.0002555163873410038,-0.00038872422344726765,-0.0020901741742684887
1504282299.23,-1.0,-1.0197445002499999,-0.6564963776,0.47492625284999995,0.050086,0.07769,0.628756,-0.8061262432999999,-9.73509087495,0.8652309228499999,-2.391538,1.449914,-0.611308,-7.150000000000212e-05,-0.00025449999999999084,-2.0049999999999972e-05,-0.0002547104775945108,-0.00038925571929615543,-0.0020901758260769565
1504282299.24,-1.0,-1.0970405155499998,-0.86630965435,0.44476099745,0.070257,0.095588,0.67786,-0.8717327317999999,-9.72893229875,0.8708501333,-2.355685,1.444814,-0.646531,-0.00010200000000000486,-0.0002349999999999991,-5.899999999999872e-06,-0.0004571545631102403,-0.00042478617297558863,-0.0019194622614226997
1504282299.25,-1.0,-1.1585772443,-1.1103285263,0.42231357559999994,0.091451,0.113469,0.735505,-0.94278191105,-9.7216459578,0.8781855075,-2.320738,1.439032,-0.680662,-5.5499999999999994e-05,-0.0001280000000000031,-4.499999999999947e-06,-0.00018358285851682865,-0.00017533099087319037,-0.0008272541934178923
1504282299.26,-1.0,-1.1505750178999998,-1.40085053255,0.39115784854999996,0.108346,0.131378,0.799546,-1.0200681196999999,-9.713035719099999,0.88704091245,-2.286556,1.43251,-0.713852,-5.5499999999999994e-05,-0.0001280000000000031,-4.500000000000164e-06,-0.00018344069369380378,-0.00017548199964934064,-0.0008272393379510357
1504282299.27,-1.0,-1.1122506296999999,-1.7068278192,0.37930160869999996,0.117853,0.154684,0.856094,-1.10327754495,-9.7030329361,0.89680833585,-2.253329,1.425301,-0.74591,-0.0002339999999999981,-0.0005990000000000023,-5.0799999999999934e-05,-6.948759233482704e-05,-0.0002030342116601247,-0.0024518778811188913
1504282299.28,-1.0,-1.0466245279,-1.8719914185,0.36061994044999995,0.117775,0.174881,0.904091,-1.191507975,-9.691706255349999,0.90636001295,-2.221103,1.41754,-0.776799,-0.00010999999999999899,-0.00032599999999999296,-4.330000000000024e-05,0.00024352581183917366,0.0001673023653350203,-0.0009455735364812812
1504282299.29,-1.0,-1.02278456175,-1.8344515623,0.40107237169999993,0.101819,0.199491,0.933908,-1.2831315059499997,-9.6792616165,0.91424455955,-2.189868,1.409439,-0.806457,-0.00010599999999999499,-0.0003035000000000121,-4.65000000000001e-05,0.00011244735487947466,0.0002239101783954034,-0.0006538290078225151
1504282299.3,-1.0,-1.01456658905,-1.5186283990499998,0.49818762664999994,0.095518,0.224032,0.953067,-1.3770890195999999,-9.665728439499999,0.9206777219499999,-2.160114,1.401066,-0.834405,-0.00010600000000000193,-0.0003034999999999982,-4.6499999999999667e-05,0.00011229736183260286,0.0002239837155419977,-0.0006537884699630014
1504282299.31,-1.0,-0.9231489977499999,-1.0303651022,0.50801388995,0.113725,0.236662,0.95948,-1.47194874505,-9.651067497749999,0.9277581232499998,-2.13319,1.392428,-0.859357,-0.00011000000000000593,-0.00025399999999999034,-3.070000000000026e-05,-0.00032973344188835796,0.00017975224168154114,-0.0003466616667061606
1504282299.32,-1.0,-0.76883155335,-0.57581706805,0.41669436514999997,0.142633,0.243892,0.950979,-1.56626910475,-9.63529840455,0.9370842474,-2.109958,1.383587,-0.880495,-6.299999999999362e-05,-0.00011350000000000249,-7.0500000000001985e-06,-0.00031336760244427,9.101724559501534e-05,-9.312170099140538e-05
1504282299.33,-1.0,-0.6802676971999999,-0.32353119015,0.2576010822,0.180067,0.239348,0.925434,-1.65886349405,-9.61854864635,0.94982308575,-2.090808,1.374617,-0.897553,-6.300000000000056e-05,-0.00011350000000000249,-7.049999999999765e-06,-0.0003133715491405731,9.09878633981176e-05,-9.314904154611447e-05
1504282299.34,-1.0,-0.6947717325499999,-0.3211089476,0.10275407869999999,0.226045,0.227289,0.886041,-1.7473096704,-9.6012202958,0.9664159375499999,-2.076005,1.36575,-0.910308,-0.0004010000000000055,-0.0002909999999999996,4.500000000000164e-06,-0.0016609709481447688,0.00023092093582821605,0.0002657281283251489
1504282299.35,-1.0,-0.8001834134,-0.474445727,0.026281822,0.281655,0.210901,0.833864,-1.8307446485999999,-9.583440839349999,0.9881082473499999,-2.065721,1.357032,-0.91862,-0.0002529999999999963,-0.00013799999999999923,8.199999999999874e-06,-0.0008100525313341489,-7.43281139929941e-05,0.00038655582018154444
1504282299.36,-1.0,-0.86642733415,-0.5660790645999999,0.0020299765499999997,0.349003,0.193353,0.779574,-1.9087467427,-9.56527892355,1.0161062331,-2.059981,1.34847,-0.922471,-0.0002915000000000001,-0.00014299999999999036,-7.049999999999765e-06,-0.000663175798631066,-9.641343259181312e-05,0.00030486796981765707
1504282299.37,-1.0,-0.81188274685,-0.4722294241,-0.026595634799999997,0.421656,0.171501,0.724234,-1.9818553184499998,-9.546607061949999,1.05116500685,-2.058461,1.339993,-0.92221,-0.0002915000000000001,-0.00014300000000000423,-7.0500000000001985e-06,-0.0006632062062503774,-9.621159416428604e-05,0.00030493264923980856
1504282299.38,-1.0,-0.6946932793499999,-0.2554240059,-0.1060294998,0.487927,0.150768,0.666747,-2.0496584965499998,-9.52758216095,1.0928923026,-2.060656,1.331661,-0.918335,-0.0003029999999999977,-0.00015300000000000036,-2.68e-05,-0.0005119495953977982,-0.0002182420244021266,0.00021698565533112557
1504282299.39,-1.0,-0.59123312185,-0.07683510275,-0.22273844145,0.542457,0.12694,0.604976,-2.1124210565499997,-9.5083513203,1.1398661560999999,-2.065624,1.323518,-0.911799,-0.00028900000000000453,-0.00016300000000001036,-3.4999999999999875e-05,-0.0004932346477242167,-0.00021082489926693704,0.0001494544858858804
1504282299.4,-1.0,-0.55061397755,-0.13453743135,-0.30450628914999994,0.571491,0.11292,0.53674,-2.168446448,-9.48955197225,1.1902134972,-2.072778,1.315804,-0.903155,-0.00026400000000000035,-0.0001769999999999966,-3.7300000000000093e-05,-0.0005323542940771642,-0.00012990979076432652,0.00010716978241054331
1504282299.41,-1.0,-0.6204275189,-0.4293743635999999,-0.25919956615,0.566518,0.113036,0.464149,-2.2166951659999996,-9.471850969,1.2412669171,-2.081257,1.308741,-0.8932,-0.00023999999999999716,-0.00019299999999999873,-3.6699999999999754e-05,-0.0005793214439406835,-4.3266908144712346e-05,0.00016028383255506373
1504282299.42,-1.0,-0.7542490647999999,-0.8075874341499999,-0.09738984115,0.529591,0.114491,0.382961,-2.25736334355,-9.45575825635,1.2897019614499998,-2.08987,1.302482,-0.883084,-0.00026400000000000035,-0.00014000000000000123,-4.570000000000008e-05,-0.0005222614082500687,2.8969140315471265e-05,0.0002783649555943013
1504282299.43,-1.0,-0.9073897111999999,-1.1721986811499998,0.1313698834,0.47138,0.12145,0.29959,-2.2893232158999997,-9.442038753,1.3331258076499999,-2.098118,1.297255,-0.873291,-0.0002720000000000014,-0.00015699999999999048,-4.920000000000011e-05,-0.0003675042701025699,3.09775768385645e-05,0.00037717368387879535
1504282299.44,-1.0,-1.01725361115,-1.4132559447999997,0.3543534911,0.394005,0.132831,0.215111,-2.3135260281,-9.430976851799999,1.3691750530499998,-2.105173,1.293109,-0.864597,-0.00029599999999999765,-0.00016900000000000248,-5.0399999999999924e-05,-0.00022091006956315162,-3.253989610874086e-05,0.0004907745320598123
1504282299.45,-1.0,-1.0581963748999998,-1.4732138029,0.53047111845,0.317692,0.149522,0.140231,-2.3304915326,-9.42265100595,1.39745743165,-2.110952,1.290028,-0.857068,-0.00033199999999999896,-0.0001779999999999976,-4.700000000000017e-05,5.374751425257784e-06,-0.00018418992029167747,0.000508862230657825
1504282299.46,-1.0,-1.01982295345,-1.4189241885000001,0.6124939390499999,0.248733,0.158681,0.076052,-2.3413376875,-9.41678662925,1.4186888288999997,-2.115565,1.287878,-0.85063,-0.0003855000000000039,-0.0001810000000000006,-3.279999999999993e-05,0.00028182649363728274,-0.000329802057540185,0.0005382162411593505
1504282299.47,-1.0,-0.8675060656499999,-1.21279821215,0.5566450673,0.20204,0.160181,0.027935,-2.34730993735,-9.41282474265,1.4350267077999999,-2.119521,1.286434,-0.844846,-0.00038549999999999696,-0.0001810000000000006,-3.279999999999993e-05,0.00028165990268225194,-0.0003299543318409093,0.0005381458347033519
1504282299.48,-1.0,-0.6209668846499999,-0.88170609485,0.37805616415,0.185115,0.15716,-0.006246,-2.34964392005,-9.410069073999999,1.4491678970999997,-2.123451,1.285437,-0.839113,-0.00042500000000000177,-0.0001799999999999996,-1.9100000000000193e-05,0.0005333195295722515,-0.0004089761675418746,0.0005950409433083115
1504282299.49,-1.0,-0.38511695214999997,-0.5783275704499999,0.1604171807,0.182002,0.152948,-0.030794,-2.34950662695,-9.408039097449999,1.4625539743499998,-2.12759,1.284699,-0.833176,-0.00044099999999999695,-0.00017900000000001248,-1.5999999999999955e-05,0.0006920190941865911,-0.0004043642451625473,0.0006307841540679204
1504282299.5,-1.0,-0.2072341278,-0.36195364485,-0.0441103117,0.189441,0.141179,-0.043569,-2.3478296898,-9.40623467385,1.4767441969,-2.132253,1.28405,-0.826808,-0.000451,-0.0001799999999999996,-1.8400000000000014e-05,0.000847633709153417,-0.00040656194280419555,0.000747379040070828
1504282299.51,-1.0,-0.0689407495,-0.15382711189999998,-0.19565247414999998,0.206421,0.126131,-0.052051,-2.34650579205,-9.40546975515,1.4837363383499997,-2.134639,1.283773,-0.822709,-0.0004564999999999986,-0.00018299999999998873,-2.3800000000000036e-05,0.000949771923147491,-0.00041558616231518464,0.0009920118148719625
1504282299.52,-1.0,0.07083343295,0.0669598062,-0.27745954845,0.230858,0.11527,-0.048787,-2.3435245704499996,-9.403292678849999,1.5020943871499999,-2.140786,1.282992,-0.815068,-0.0004565000000000055,-0.0001830000000000026,-2.3800000000000036e-05,0.0009494041016040455,-0.00041652216885168514,0.0009916638128047994
1504282299.53,-1.0,0.1930144853,0.2687806632,-0.32041267544999996,0.245655,0.104481,-0.038069,-2.34136710745,-9.4005566235,1.5224431858999998,-2.147339,1.282011,-0.807113,-0.00044299999999999895,-0.0001300000000000051,-2.0300000000000006e-05,0.0009809153724682496,-0.00038765378597971356,0.0012158117078970854
1504282299.54,-1.0,0.37929180205,0.4917054309999999,-0.36058071385,0.265847,0.095788,-0.035883,-2.33954307055,-9.397389075549999,1.54465524815,-2.154336,1.280878,-0.79879,-0.0004395000000000024,-0.00013950000000000073,-3.2999999999999176e-06,0.0009399547137358688,-0.0003515855614275587,0.0013956343004180027
1504282299.55,-1.0,0.5232436174,0.7326548214999999,-0.44944857614999995,0.299959,0.09657,-0.032639,-2.3235288111,-9.3993602122,1.5567664608999998,-2.161105,1.281583,-0.790628,-0.00043949999999999545,-0.00013950000000000073,-3.2999999999999176e-06,0.0009395069688609148,-0.000352890862746591,0.001395371130650025
1504282299.56,-1.0,0.48419353709999996,0.9258262132,-0.59627373995,0.322328,0.095315,-0.027261,-2.3224893062,-9.395015866249999,1.58433295405,-2.169455,1.280032,-0.780901,-0.0004310000000000008,-0.00015699999999999048,1.659999999999986e-05,0.0008297128093119888,-0.00029185030962408653,0.001576026512903228
1504282299.57,-1.0,0.44518268339999995,0.9778014582,-0.7769710728499999,0.335063,0.083494,-0.032555,-2.3208908222499995,-9.39042635405,1.6135959976499998,-2.178327,1.278405,-0.770748,-0.0004170000000000007,-0.00017100000000000448,2.5000000000000282e-05,0.0006907590494309446,-0.00020435280847075354,0.0016433910068379687
1504282299.58,-1.0,0.6328525444499999,1.17145337575,-0.8518644589,0.325487,0.086769,-0.032577,-2.3192629183499998,-9.3858074219,1.6425550351,-2.187018,1.276775,-0.76078,-0.0003970000000000015,-0.00019199999999999773,2.5899999999999708e-05,0.0005744151390403296,-0.00010796069095664329,0.001607665955954407
1504282299.59,-1.0,0.52986310615,1.2919280709999998,-0.7210241346,0.318079,0.085779,-0.046464,-2.3166837694,-9.3814924959,1.6706216674,-2.19556,1.275259,-0.75095,-0.00036900000000000127,-0.00020000000000000573,1.8300000000000174e-05,0.0005689865320346321,-3.454089722820797e-05,0.0015680864442670917
1504282299.6,-1.0,0.394031197,1.35485734405,-0.6075906140499999,0.325555,0.082548,-0.060322,-2.3126826562,-9.3773737029,1.6990413390999999,-2.20441,1.273821,-0.740823,-0.0003439999999999971,-0.00021000000000000185,4.500000000000164e-06,0.0006175572176607691,-3.078215378415905e-05,0.0014934681376918002
1504282299.61,-1.0,0.3439976687,1.39694748585,-0.6571338098499999,0.322374,0.078323,-0.070994,-2.30769107135,-9.373372589699999,1.7276473371499999,-2.21343,1.272431,-0.730551,-0.0003039999999999987,-0.00021500000000000685,-1.9650000000000396e-05,0.0006996577236852985,-5.327837475355146e-05,0.001388405208484489
1504282299.62,-1.0,0.33514226374999995,1.22552724385,-0.7142477394499999,0.29795,0.082803,-0.087055,-2.30123829565,-9.3699991021,1.75438026505,-2.222164,1.271262,-0.720568,-0.0003039999999999987,-0.00021499999999999297,-1.9649999999999963e-05,0.0006995849056450343,-5.4242688541705775e-05,0.0013883720001056643
1504282299.63,-1.0,0.32154044019999994,1.169541079,-0.7733720323,0.271323,0.081968,-0.097774,-2.2937656283499996,-9.36728266005,1.7784850107499999,-2.230328,1.270325,-0.711163,-0.00023100000000000204,-0.0001699999999999896,-2.1599999999999658e-05,0.0008196568290856909,-5.0022749360500995e-05,0.001265108213732491
1504282299.64,-1.0,0.23573225269999998,1.06297221345,-0.7238974830499999,0.246844,0.082182,-0.109558,-2.2853221027,-9.365164423649999,1.8003832601999998,-2.238058,1.269596,-0.70221,-0.0002020000000000008,-0.00017000000000000348,-2.6100000000000255e-05,0.0008596196339154538,-6.577323385936751e-05,0.0011990312902891986
1504282299.65,-1.0,0.1962114532,0.9162255028499999,-0.64085477085,0.22555,0.084494,-0.114936,-2.2761823049,-9.363565939699999,1.8201436599499998,-2.245325,1.269048,-0.693715,-0.00016900000000000248,-0.00016000000000000736,-2.509999999999969e-05,0.0007776207756964304,-0.0001166007800146307,0.001114778065946287
1504282299.66,-1.0,0.16628155739999997,0.7070594649999999,-0.62616440915,0.190434,0.095441,-0.116083,-2.26705231375,-9.362546048099999,1.8367365117499999,-2.251718,1.268697,-0.686047,-0.00013499999999999623,-0.00014999999999999736,-1.9499999999999986e-05,0.0006348699288798443,-0.00019863760614535764,0.0009870152909919883
1504282299.67,-1.0,0.08909341524999999,0.52872553475,-0.62938099035,0.154239,0.107457,-0.112965,-2.2582361354,-9.36212436215,1.8496714830999998,-2.257062,1.268554,-0.679356,-0.00010500000000000093,-0.00014000000000000123,-1.3900000000000284e-05,0.00045173215571958636,-0.00024963289746859907,0.0008774005683215291
1504282299.68,-1.0,0.08401357055,0.40372016720000004,-0.6655969488,0.122243,0.116233,-0.101295,-2.2504692686,-9.3620753289,1.85940948655,-2.261328,1.268535,-0.673692,-8.099999999999774e-05,-0.00014000000000000123,-1.2100000000000131e-05,0.0002946018871736733,-0.00029430338068481277,0.0007938627673831355
1504282299.69,-1.0,-0.05859473375,-0.118072066,-0.6913884383,0.07216,0.134757,-0.092873,-2.2456836233999997,-9.36804757875,1.8349222815,-2.255872,1.270589,-0.677258,-6.199999999999956e-05,-0.00011999999999999511,-1.7799999999999674e-05,9.475403860825793e-05,-0.0003069849220587173,0.0007370482214672514
1504282299.7,-1.0,-0.0639197447,-0.11688546135,-0.69184935085,0.027351,0.143636,-0.07909,-2.2403586124499997,-9.3692341834,1.8353733873999998,-2.257156,1.270999,-0.674438,-4.900000000000043e-05,-0.00011999999999999511,-3.08000000000001e-05,-4.7352210091444746e-05,-0.00024903955330102256,0.0007987624239034208
1504282299.71,-1.0,-0.025948395899999997,-0.2308877676,-0.6794537452499999,-0.006868,0.146029,-0.05994,-2.23702435145,-9.370616921049999,1.8324117790999999,-2.257092,1.271474,-0.672998,-3.900000000000431e-05,-0.00012000000000000899,-4.700000000000017e-05,-0.00015126136111764943,-0.0002264715313540222,0.0008964799087947117
1504282299.72,-1.0,-0.01065982855,-0.25131501954999996,-0.52184126645,-0.044185,0.159107,-0.044017,-2.2352493478,-9.3723330848,1.8257824837,-2.255705,1.272069,-0.672818,-2.4999999999997247e-05,-8.999999999999286e-05,-6.049999999999979e-05,-0.0003333509015512881,-0.00015336688003442234,0.0010243389069253261
1504282299.73,-1.0,0.09321220824999998,0.03543142645,-0.40212168325,-0.083656,0.176462,-0.022771,-2.23288594515,-9.378501467649999,1.79674499305,-2.24838,1.274215,-0.678271,-1.2999999999999123e-05,-7.000000000000062e-05,-7.339999999999994e-05,-0.0005379216700054368,-8.455864182943529e-05,0.0010906424317769225
1504282299.74,-1.0,0.19323023159999997,0.39339376474999993,-0.44441776469999994,-0.110387,0.185181,0.002785,-2.2357789069,-9.3804726043,1.78278032345,-2.24394,1.274905,-0.680993,3.9999999999970615e-06,-3.999999999999837e-05,-8.38000000000002e-05,-0.0008293888224000234,-3.6630196386111535e-05,0.0010396529827088052
1504282299.75,-1.0,0.37381969135,0.7616825054999999,-0.6035600808999999,-0.115852,0.186263,0.030526,-2.24130005085,-9.3820024417,1.767746729,-2.238618,1.27544,-0.684614,2.6999999999999247e-05,-2.0000000000006124e-05,-9.170000000000011e-05,-0.00119490506040143,2.5400309068723814e-05,0.0009165545104946604
1504282299.76,-1.0,0.51342716075,1.02694258135,-0.7391370171499999,-0.110611,0.190455,0.056146,-2.2493709238,-9.38285562025,1.7529288808499999,-2.232785,1.275737,-0.688717,5.3999999999998494e-05,2.0000000000006124e-05,-9.559999999999994e-05,-0.0015849586518545955,7.192482869022854e-05,0.0006237077446479278
1504282299.77,-1.0,0.59619528675,1.21854490905,-0.80291946875,-0.106469,0.189331,0.079638,-2.2595698397999997,-9.383071366549999,1.7386013651999999,-2.226623,1.275813,-0.693172,8.000000000000368e-05,3.999999999999837e-05,-9.639999999999996e-05,-0.0018572546082653574,6.465563725122081e-05,0.000351234485504226
1504282299.78,-1.0,0.6125625856,1.2829647928999999,-0.8484517447,-0.104413,0.188234,0.093519,-2.2712985932,-9.38285562025,1.7244307559499998,-2.220177,1.275736,-0.697917,0.00010199999999999793,5.9999999999990616e-05,-9.500000000000003e-05,-0.0019023634784891552,4.89403574597258e-05,6.581279054185263e-05
1504282299.79,-1.0,0.5757484214999999,1.1720515813999999,-0.8556498257999999,-0.099211,0.179653,0.106352,-2.2841551113499996,-9.382218188,1.7108289324,-2.213655,1.275515,-0.702833,0.00012050000000000255,4.999999999999449e-05,-8.580000000000003e-05,-0.0015480362935405,-3.304087117417254e-05,-0.00016517538195548465
1504282299.8,-1.0,0.50750394415,0.9639152418,-0.7854734384,-0.087583,0.172088,0.115993,-2.29776674155,-9.3811786831,1.6982568071,-2.207278,1.275151,-0.707675,0.00012049999999999561,5.000000000000837e-05,-8.580000000000003e-05,-0.0015480248996695423,-3.3294401686090325e-05,-0.00016512303304128118
1504282299.81,-1.0,0.43564081294999996,0.75300362025,-0.65831060785,-0.081285,0.164569,0.124556,-2.3120942572,-9.37975671885,1.6866261202,-2.201034,1.274654,-0.712454,0.00011800000000000005,1.0000000000010001e-05,-7.239999999999981e-05,-0.0009390617545865787,-6.210293807784595e-05,-0.00025424484825053995
1504282299.82,-1.0,0.43754330304999994,0.6234871936999999,-0.5767585064499999,-0.073903,0.157043,0.129919,-2.3268630721,-9.378040555099998,1.6758388052,-2.19496,1.274053,-0.717138,0.00012000000000000205,-1.5000000000001124e-05,-6.499999999999995e-05,-0.00045768108354460324,-6.402278507722237e-05,-0.00032710352054787784
1504282299.83,-1.0,0.45096860689999996,0.5518398087999999,-0.5784256369499999,-0.070831,0.144225,0.135284,-2.3419358931499996,-9.3761184517,1.6655418226999998,-2.188987,1.273386,-0.721836,0.00010500000000000093,-1.5000000000001124e-05,-6.100000000000029e-05,-0.00018678260355775578,-3.432619155296912e-05,-0.0004939620817626666
1504282299.84,-1.0,0.43936733995,0.52788216285,-0.5771115458499999,-0.065697,0.128194,0.14278,-2.34470136845,-9.381188489749999,1.632807225,-2.17909,1.275154,-0.730425,9.699999999999986e-05,-5.000000000000837e-05,-6.279999999999957e-05,-0.00011255219720585075,1.2589059138257142e-05,-0.0006844752230805717
1504282299.85,-1.0,0.43504260729999994,0.4529691635,-0.5413466933,-0.071138,0.117578,0.147059,-2.3604312350499996,-9.378854507049999,1.6235301341,-2.173294,1.274338,-0.735216,9.499999999999786e-05,-4.999999999999449e-05,-6.93e-05,-0.00021643302478002724,4.4366170000254e-05,-0.0007971451891162218
1504282299.86,-1.0,0.40786838015,0.32148160029999995,-0.4500467818,-0.080834,0.109128,0.152394,-2.3765043344,-9.37650091105,1.6136352242499998,-2.167285,1.273518,-0.740324,9.800000000000086e-05,-3.500000000000725e-05,-8.060000000000012e-05,-0.00033938545071521276,9.641564948603687e-05,-0.000950857384967585
1504282299.87,-1.0,0.40378881375000003,0.22278747469999996,-0.36161041209999994,-0.096959,0.100725,0.163055,-2.3932246726499997,-9.374176734999999,1.6024066099999998,-2.1608,1.272708,-0.74602,9.800000000000086e-05,-3.499999999999337e-05,-8.060000000000012e-05,-0.00033947339055284687,9.609517224906661e-05,-0.0009508783641097862
1504282299.88,-1.0,0.3719270079,0.1278983293,-0.2695848085,-0.108841,0.09335,0.17691,-2.3972748190999997,-9.37714814995,1.5787627768499999,-2.15317,1.273744,-0.752937,9.800000000000086e-05,-2.0000000000006124e-05,-8.299999999999974e-05,-0.00040502380110574165,0.0001038097266112814,-0.001087834654437958
