Time,placement_label,user_acc_x(m/s^2),user_acc_y(m/s^2),user_acc_z(m/s^2),rotation_rate_x(rad/s),rotation_rate_y(rad/s),rotation_rate_z(rad/s),gravity_x(m/s^2),gravity_y(m/s^2),gravity_z(m/s^2),attitude_roll(rad),attitude_pitch(rad),attitude_yaw(rad),target_delta_x,target_delta_y,target_delta_z,target_delta_roll,target_delta_pitch,target_delta_yaw
1504282101.99,-1.0,0.0863181333,-0.0838272442,0.05074941374999999,0.030347,-0.075615,0.042382,-1.45804291535,-9.65593159615,0.89855391955,-2.123093,1.395251,2.741971,0.0,0.0,0.0,0.0,0.0,0.0
1504282102.0,-1.0,0.06312540605,-0.09442823285,0.060291284199999996,0.035678,-0.082043,0.032795,-1.4593864264,-9.6552157107,0.9041240967499999,-2.125448,1.394829,2.743506,0.00019999999999997797,9.999999999976694e-05,4.999999999988347e-05,-3.2941978214129364e-05,-3.1729416089865126e-05,-0.0002903586123703672
1504282102.01,-1.0,0.0391481468,-0.0893974214,0.03182257925,0.042082,-0.088478,0.022142,-1.4601023118499998,-9.654548858499998,0.9099982801,-2.12813,1.394445,2.745314,0.00019999999999997797,0.00010000000000021103,5.0000000000105516e-05,-8.028283308458839e-05,2.0219601726712e-05,-0.0002722566901550705
1504282102.02,-1.0,0.0182992089,-0.09846857264999999,0.006276256,0.038867,-0.094837,0.014676,-1.460210185,-9.6540192994,0.9154900041,-2.130803,1.394134,2.747064,0.00019999999999997797,9.999999999976694e-05,5.0000000000105516e-05,-7.792971047448916e-05,3.322233036695543e-05,-0.00025761637693577644
1504282102.03,-1.0,0.023290793749999997,-0.0840626038,-0.01169933345,0.047446,-0.095962,0.004018,-1.4593570064499999,-9.6536074201,0.9211974744,-2.133865,1.393894,2.749197,0.00019999999999997797,5.000000000032756e-05,4.999999999988347e-05,-3.8102635758985315e-05,5.404639259798394e-05,-0.000258575606649325
1504282102.04,-1.0,0.0281450855,-0.055603705499999996,-0.01630845895,0.043168,-0.101249,-0.002385,-1.4577781358,-9.653332833899999,0.9265519052999999,-2.136977,1.393735,2.751343,0.00019999999999997797,4.999999999988347e-05,3.333333333332966e-05,-3.003023489944745e-05,2.149854804023299e-05,-0.00023014590884951058
1504282102.05,-1.0,0.02880213105,-0.0234182802,-0.022731814700000002,0.04213,-0.102298,-0.009857,-1.4554539597499998,-9.653195540799999,0.93163175,-2.140178,1.393656,2.753554,0.00025000000000030553,4.999999999988347e-05,3.333333333332966e-05,3.827942421219532e-05,3.6256640107312776e-05,-0.00022920511535673427
1504282102.06,-1.0,0.027654752999999997,0.00901231135,-0.03896182045,0.042127,-0.106553,-0.016254,-1.4525021581,-9.6531563142,0.9366331414999999,-2.143538,1.393633,2.755889,0.00024999999999986144,4.999999999988347e-05,3.333333333332966e-05,3.827114454790781e-05,3.626549616431163e-05,-0.00022920395718883935
1504282102.07,-1.0,0.033931009,0.023065240799999998,-0.06694999955,0.033594,-0.110738,-0.023733,-1.4487560177999999,-9.653293607299998,0.9409774874499999,-2.146825,1.393714,2.758111,0.00019999999999997797,0.00010000000000021103,2.4999999999941735e-05,6.413177468456155e-05,5.7878633854757666e-05,-0.0001991959575260438
1504282102.08,-1.0,0.02731152025,0.027703786249999997,-0.09100571199999999,0.037892,-0.112894,-0.033329,-1.4442253455,-9.65359761345,0.94484130755,-2.150131,1.393888,2.760335,0.00019999999999997797,4.999999999988347e-05,2.500000000016378e-05,6.555277065167786e-05,6.930685538741876e-05,-0.00015686435953288225
1504282102.09,-1.0,0.014788428199999998,0.0023732093,-0.1024402659,0.035763,-0.116067,-0.039732,-1.4391945340499999,-9.6539996861,0.9483422815999999,-2.153431,1.394125,2.762529,0.0002999999999997449,4.999999999988347e-05,2.4999999999941735e-05,5.564043299255417e-05,5.378767353603209e-05,-0.00011169513549613708
1504282102.1,-1.0,-0.00459931885,-0.04543420945,-0.08823043004999999,0.027245,-0.117057,-0.045081,-1.4337224233499999,-9.654519438549999,0.9513431164999999,-2.156638,1.394427,2.764618,0.00019999999999997797,0.00010000000000021103,2.4999999999941735e-05,7.684270216357092e-06,3.5018384101137556e-05,-0.00011473805763828615
1504282102.11,-1.0,-0.028517738199999997,-0.10105752824999999,-0.06459640355,0.015524,-0.119085,-0.051502,-1.4279070799,-9.655156870799999,0.95358883935,-2.159598,1.394799,2.766434,0.00019999999999997797,9.999999999976694e-05,3.333333333332966e-05,-8.425511384868578e-05,9.569582052781911e-06,-0.00010055976421585733
1504282102.12,-1.0,-0.048042778349999996,-0.1436870358,-0.046895400299999994,0.002759,-0.116844,-0.055798,-1.4218465702,-9.655921789499999,0.9548931237999999,-2.162196,1.395245,2.767892,0.00025000000000030553,4.999999999988347e-05,3.333333333332966e-05,-0.00013381964777581246,1.390488760022457e-05,-0.00012152403835685721
1504282102.13,-1.0,-0.06176228169999999,-0.16221179765,-0.019436780299999998,-0.014267,-0.114567,-0.061168,-1.4154624410499999,-9.656853421249998,0.9549715769999999,-2.164319,1.39579,2.768887,0.00024999999999986144,5.000000000032756e-05,3.333333333332966e-05,-0.00013382101732872798,1.388861324258528e-05,-0.00012152560838263327
1504282102.14,-1.0,-0.06485137645,-0.188679946,0.008119906199999999,-0.029201,-0.115507,-0.063326,-1.4087841124,-9.6579223461,0.9540497519,-2.166067,1.396416,2.769491,0.00019999999999997797,9.999999999976694e-05,3.333333333332966e-05,-0.00012747971849602635,7.768385641049314e-05,-0.0001232028204889435
1504282102.15,-1.0,-0.06302733955,-0.206920315,0.01736757715,-0.041998,-0.115401,-0.064416,-1.4019292640499998,-9.6591383707,0.9518334489999999,-2.167254,1.397132,2.769523,0.00019999999999997797,0.00010000000000021103,3.333333333332966e-05,-8.585239030178826e-05,7.131582208863563e-05,-0.00015507418914950666
1504282102.16,-1.0,-0.06035993075,-0.17356789834999997,0.018534568499999998,-0.051595,-0.11532,-0.0655,-1.3950155757999998,-9.660462268449999,0.9485678345499999,-2.167954,1.397914,2.769073,0.000300000000000189,9.999999999976694e-05,3.333333333332966e-05,-5.49170008439237e-05,8.032856950324074e-05,-0.00016903171119753146
1504282102.17,-1.0,-0.062134934399999994,-0.11814071255,0.01713221755,-0.056899,-0.114207,-0.06978,-1.3878567213,-9.6618646194,0.9447334344,-2.168464,1.39875,2.76843,0.00019999999999997797,0.00010000000000021103,2.4999999999941735e-05,-4.354544520190906e-05,6.242965889091678e-05,-0.00015364599026768122
1504282102.18,-1.0,-0.0582122744,-0.052210604599999995,-0.004834678449999999,-0.059011,-0.112057,-0.070854,-1.3806978667999998,-9.66330619695,0.9405165749,-2.168785,1.399608,2.767607,0.0002999999999997449,0.00019999999999997797,2.4999999999941735e-05,-8.353673797767414e-05,8.431115817031376e-05,-0.00014044362791243437
1504282102.19,-1.0,-0.05116129305,0.0187895414,-0.0375790828,-0.049424,-0.11533,-0.072966,-1.37339191255,-9.6647281612,0.9365939148999999,-2.169312,1.400461,2.766983,0.00019999999999997797,0.0001500000000000945,2.500000000016378e-05,-5.775617383463327e-05,6.646857989212052e-05,-0.0001698444180798786
1504282102.2,-1.0,-0.0473661195,0.07939463840000001,-0.07204945755,-0.044097,-0.117503,-0.075087,-1.36595847185,-9.666218771999999,0.932024016,-2.169556,1.401363,2.766075,0.00019999999999997797,0.0001500000000000945,2.4999999999941735e-05,-5.776716785454994e-05,6.645860618292865e-05,-0.0001698473670940226
1504282102.21,-1.0,-0.05735909585,0.10955008715,-0.09791940025,-0.038748,-0.117544,-0.078279,-1.3585152244999998,-9.667650542899999,0.928101356,-2.170142,1.402227,2.765504,0.000300000000000189,9.999999999976694e-05,1.999999999990898e-05,8.727765384630715e-06,7.112027728140013e-05,-0.00022786073329039702
1504282102.22,-1.0,-0.0540542548,0.1039112634,-0.1004985492,-0.032323,-0.116527,-0.081471,-1.3507385510499998,-9.669052893849999,0.92485535485,-2.171178,1.403081,2.7654,0.00019999999999997797,0.00019999999999997797,2.0000000000131024e-05,4.0209279077441096e-06,4.505874485150052e-05,-0.0002571491321997632
1504282102.23,-1.0,-0.06797969779999999,0.07658012985,-0.0939869336,-0.032274,-0.112262,-0.08468,-1.3427951645499998,-9.670445438149999,0.9217858734,-2.172379,1.403938,2.76549,0.00019999999999997797,0.0001500000000000945,1.999999999990898e-05,-5.746553546348565e-07,2.104950305126252e-05,-0.0003169244517197134
1504282102.24,-1.0,-0.08344478484999998,0.05266171049999999,-0.057427742399999995,-0.033316,-0.109057,-0.084686,-1.3348223581,-9.67181836915,0.9190400113999999,-2.173768,1.404778,2.765803,0.00019999999999997797,0.0001500000000000945,2.0000000000131024e-05,-5.813315810954123e-07,2.1049329471001244e-05,-0.00031692433816421506
1504282102.25,-1.0,-0.0902407933,0.017779456449999998,-0.02185902285,-0.037544,-0.104758,-0.085768,-1.3269770381,-9.6731422669,0.9163922159,-2.175179,1.405602,2.766189,0.000300000000000189,0.00019999999999997797,1.999999999990898e-05,-0.00014636138398582688,5.055844725809777e-05,-0.0003135783955230398
1504282102.26,-1.0,-0.07971825785,-0.011817013249999998,0.0046287388,-0.033263,-0.098407,-0.078299,-1.3195435974,-9.674377904799998,0.9141464930499998,-2.176659,1.406366,2.766681,0.00019999999999997797,0.00019999999999997797,-4.999999999988347e-05,-0.00024643427657111694,5.7435056626475856e-05,-0.00032786616217805875
1504282102.27,-1.0,-0.04959222905,-0.027576299799999995,0.01903470765,-0.047099,-0.09084,-0.072999,-1.3121101567,-9.675672382599998,0.9111162382,-2.177748,1.407176,2.766856,0.00019999999999997797,0.00019999999999997797,-5.0000000000105516e-05,-0.00034347665521483606,7.48048121161915e-05,-0.0002942533329739483
1504282102.28,-1.0,-0.03507838705,-0.030400614999999995,0.030116222149999997,-0.047054,-0.081256,-0.066611,-1.30507878865,-9.6768884072,0.90826250305,-2.178798,1.40794,2.767067,9.999999999976694e-05,0.00019999999999997797,-1.1111111111183902e-05,-0.00042906722806468345,9.07108666212686e-05,-0.0002694701655066023
1504282102.29,-1.0,-0.02480101785,-0.05408367475,0.0214373369,-0.04387,-0.078095,-0.058072,-1.298596593,-9.6780455919,0.90526166815,-2.17958,1.408667,2.767055,0.00019999999999997797,0.00019999999999997797,-1.1111111110961858e-05,-0.0004316248443760884,7.349282668456247e-05,-0.00022318690276346143
1504282102.3,-1.0,-0.0343428883,-0.04333558635,0.035029353799999996,-0.041722,-0.071726,-0.050607,-1.293693268,-9.67891838375,0.9028982655,-2.180127,1.409223,2.766868,0.00019999999999997797,0.00019999999999997797,-1.1111111111183902e-05,-0.0004294380767531081,5.198678790252487e-05,-0.00012312383346868572
1504282102.31,-1.0,-0.03933447314999999,-0.04237453465,0.038147868499999994,-0.041708,-0.065341,-0.043146,-1.2886918765,-9.67987943545,0.8997797507999999,-2.18032,1.40983,2.766379,0.00019999999999997797,0.00019999999999997797,-1.1111111111183902e-05,-0.00042944532550825976,5.193415994586559e-05,-0.00012314640753785522
1504282102.32,-1.0,-0.0422666615,-0.007384407449999999,0.0414232896,-0.039569,-0.062166,-0.038878,-1.28487708965,-9.680605127549999,0.8973967348499999,-2.18047,1.410295,2.765887,0.00010000000000021103,0.00019999999999997797,-1.1111111110961858e-05,-0.0003076696931765266,5.056682228699039e-05,-3.811525878449906e-05
1504282102.33,-1.0,-0.0442868314,0.05039637435,0.034078108749999995,-0.036344,-0.055804,-0.033546,-1.2817978015499998,-9.6812229465,0.8951706253,-2.180427,1.410687,2.765261,0.00019999999999997797,0.00019999999999997797,-1.1111111111183902e-05,-0.00029715377787864483,3.115220723004519e-05,4.970651253266567e-06
1504282102.34,-1.0,-0.052720550399999996,0.0658418481,0.03837342144999999,-0.031013,-0.053721,-0.02927,-1.2793559456999999,-9.68170347235,0.89341523495,-2.180403,1.410997,2.764686,9.999999999976694e-05,0.00010000000000021103,-1.1111111111183902e-05,-0.00025171065171880613,4.937124571591234e-05,3.010599766761768e-05
1504282102.35,-1.0,-0.09154507775,0.03988364555,0.035911952299999994,-0.025685,-0.052703,-0.026059,-1.2791401993999998,-9.68178192555,0.89288567585,-2.180205,1.411047,2.763959,0.00020000000000042206,0.00019999999999997797,-1.1111111110961858e-05,-0.0002087099112431101,3.815466944545598e-05,6.481154994852911e-05
1504282102.36,-1.0,-0.09443803949999999,0.04045243125,0.03788308895,-0.024572,-0.04632,-0.025,-1.276237431,-9.682350711249999,0.8909145392,-2.180231,1.41141,2.7635,0.00019999999999997797,0.00019999999999997797,-1.1111111111183902e-05,-0.00018256876618338858,3.3488528657033e-05,5.835381171093168e-05
1504282102.37,-1.0,-0.09316317499999999,0.0080610663,0.01783829635,-0.020312,-0.045292,-0.021792,-1.2752763793,-9.68258607085,0.88970832125,-2.17995,1.411562,2.762756,4.999999999988347e-05,0.00010000000000021103,-2.4999999999941735e-05,-0.00011210756929580512,1.9924177468322313e-05,4.5076256500631295e-05
1504282102.38,-1.0,-0.10430352939999998,-0.03054771475,0.028537351499999995,-0.017116,-0.042135,-0.017522,-1.27475662685,-9.682733170599999,0.8888943693,-2.179709,1.411654,2.76209,4.999999999988347e-05,9.999999999976694e-05,-2.4999999999941735e-05,-0.0001121064304685504,1.992919979820762e-05,4.507392436914337e-05
1504282102.39,-1.0,-0.1011261748,-0.062340874049999995,0.0361669252,-0.013911,-0.038969,-0.013252,-1.2745016539499998,-9.682801817149999,0.8884432633999999,-2.179569,1.411703,2.761545,0.000300000000000189,0.00039999999999995595,-2.500000000016378e-05,-0.0005851750510881271,4.5946742167624066e-05,0.00023932114122315884
1504282102.4,-1.0,-0.07106879255,-0.0588595133,0.0497197155,-0.016059,-0.036827,-0.006854,-1.27432513425,-9.6828508504,0.8882079037999999,-2.179508,1.411731,2.761093,9.999999999976694e-05,0.00019999999999997797,-2.4999999999941735e-05,-0.0003691307443720593,3.856220631992535e-05,0.00012067447861219271
1504282102.41,-1.0,-0.06434143064999999,-0.0271840338,0.05537815255,-0.015001,-0.03471,-0.001518,-1.2747664335,-9.682801817149999,0.8880902239999999,-2.179281,1.411701,2.760499,0.0001500000000000945,0.00019999999999997797,-3.333333333332966e-05,-0.0004094936806393612,5.349975237867177e-05,0.0001292828421065595
1504282102.42,-1.0,-0.0578788483,-0.01636729885,0.05824169435,-0.017127,-0.030435,0.003808,-1.27569806525,-9.682693944,0.8879235109499999,-2.178852,1.411632,2.759747,0.0001500000000000945,0.00019999999999997797,-3.333333333332966e-05,-0.00040948642145099967,5.35527159781779e-05,0.0001292608011350671
1504282102.43,-1.0,-0.0395011862,-0.0236536398,0.07665858304999999,-0.02353,-0.026128,0.011262,-1.2770121563499999,-9.682595877499999,0.8871585922499999,-2.177965,1.411565,2.758572,9.999999999976694e-05,0.00019999999999997797,-3.333333333332966e-05,-0.00043911143511765616,5.307935034504219e-05,0.00012001803787731191
1504282102.44,-1.0,-0.036519964599999996,-0.0403837847,0.09636994955,-0.020335,-0.022964,0.017666,-1.2789440664,-9.6823212913,0.8873449185999999,-2.177358,1.41139,2.757703,0.0001500000000000945,0.00019999999999997797,-3.333333333332966e-05,-0.00036963222673302987,6.836000216003946e-05,0.00010988698640734818
1504282102.45,-1.0,-0.03296015065,-0.019005287699999998,0.09446745944999999,-0.020349,-0.02084,0.024067,-1.2814643754500001,-9.6820074785,0.8871585922499999,-2.176336,1.411188,2.75643,0.0001500000000000945,0.00019999999999997797,-3.333333333332966e-05,-0.0003696274712750025,6.840127838469989e-05,0.00010986251301625671
1504282102.46,-1.0,-0.02309466075,0.018642441649999997,0.09035847309999999,-0.01821,-0.017665,0.028335,-1.28428869065,-9.6816348258,0.8870703323999999,-2.175261,1.410953,2.755135,9.999999999976694e-05,0.00010000000000021103,-3.333333333332966e-05,-0.0002909313487424736,6.908856757070758e-05,7.632138777935449e-05
1504282102.47,-1.0,-0.01738719045,0.0183188222,0.07558965819999999,-0.008623,-0.017747,0.031555,-1.28744643195,-9.681164106599999,0.8876293114499999,-2.174403,1.410652,2.754067,0.00010000000000021103,0.00019999999999997797,-3.333333333332966e-05,-0.0003248297076181572,3.6935414573946446e-05,5.6746415904029845e-06
1504282102.48,-1.0,-0.0048837117,0.0206724182,0.0438357255,-0.001156,-0.016745,0.033701,-1.29068262645,-9.680673774099999,0.88825693705,-2.173564,1.410339,2.753033,9.999999999976694e-05,0.00019999999999997797,-3.333333333332966e-05,-0.0003068951325604363,5.6458132339676226e-05,-1.7209802572693e-05
1504282102.49,-1.0,-0.0054328841,0.06067374354999999,0.025889555999999998,0.005233,-0.018928,0.032648,-1.2940168874499998,-9.6801246017,0.8894435417,-2.172982,1.409986,2.752258,0.00010000000000021103,9.999999999976694e-05,-3.333333333332966e-05,-0.0003309308325243343,7.311487717709397e-06,-7.796756053490839e-05
1504282102.5,-1.0,-0.0060997363,0.0973408079,0.0179265562,0.00739,-0.016813,0.031581,-1.29739037505,-9.679526396049999,0.8909733791,-2.172567,1.40961,2.751652,9.999999999976694e-05,0.00020000000000042206,-3.333333333332966e-05,-0.0003284552192097667,1.606526565867128e-05,-0.00011221711499287412
1504282102.51,-1.0,-0.0222807088,0.05970288519999999,0.0164947853,0.023389,-0.020138,0.027346,-1.3005186964,-9.678859543849999,0.8937584676999999,-2.172899,1.40918,2.751785,0.00020000000000042206,0.00019999999999997797,-3.333333333332966e-05,-0.00032523583843024895,3.0608517880059694e-05,-0.00012532803180509422
1504282102.52,-1.0,-0.05069057385,-0.0172793173,0.0206920315,0.023419,-0.019068,0.023075,-1.3035293379500001,-9.67819269165,0.8965925895499999,-2.1733,1.408758,2.751989,9.999999999976694e-05,9.999999999976694e-05,-3.333333333332966e-05,-0.0003164417327756741,7.282280506260008e-05,-0.00013696511991745375
1504282102.53,-1.0,-0.07113743909999999,-0.03429385505,0.041246769899999994,0.021302,-0.019047,0.01987,-1.3065792061,-9.677486612849998,0.8996816843,-2.173814,1.408318,2.752319,0.00010000000000021103,0.00019999999999997797,-5.0000000000105516e-05,-0.00028875473385103767,6.720662902814922e-05,-0.00013784577703535028
1504282102.54,-1.0,-0.06667541335,-0.023545766649999997,0.0452478831,0.020268,-0.016904,0.016663,-1.30923680825,-9.67685898725,0.90255503275,-2.174353,1.407923,2.752705,9.999999999976694e-05,0.00019999999999997797,-4.999999999988347e-05,-0.0003482326852033424,6.226351362093041e-05,-9.534363177887695e-05
1504282102.55,-1.0,-0.059771531749999995,-0.021623663249999998,0.06294888635,0.022414,-0.016919,0.014532,-1.31151195105,-9.676241168299999,0.9059579403,-2.175302,1.40753,2.753489,0.00010000000000021103,0.0001500000000000945,-3.333333333332966e-05,-0.0003542395927098596,3.3818405815289054e-05,-8.298384536198355e-05
1504282102.56,-1.0,-0.0512299396,-0.02582090945,0.05875164014999999,0.02562,-0.016945,0.013471,-1.3134634744,-9.675633155999998,0.9095569808499999,-2.176459,1.407152,2.754479,9.999999999976694e-05,0.0001500000000000945,-3.333333333332966e-05,-0.00035424056195676457,3.378889820426778e-05,-8.299539825795677e-05
1504282102.57,-1.0,-0.0371475902,-0.0067763951499999996,0.041246769899999994,0.029913,-0.015911,0.010275,-1.3149835051499998,-9.67507417695,0.9132933145,-2.177843,1.406803,2.75571,0.00010000000000021103,9.999999999976694e-05,-3.333333333332966e-05,-0.0003400876748429482,2.9820793746582197e-05,-6.679571892398428e-05
1504282102.58,-1.0,-0.03880491404999999,0.01424906245,0.01909354755,0.031033,-0.01059,0.008133,-1.3164643093,-9.67454461785,0.9167452553,-2.179081,1.406474,2.756848,9.999999999976694e-05,0.00019999999999997797,-0.00010000000000021103,-0.00032460671512613004,4.055142800796219e-05,-5.544013202396503e-05
1504282102.59,-1.0,-0.030890947499999998,0.033960428949999996,-0.009022117999999999,0.035303,-0.011688,0.006008,-1.3176411073,-9.674064092,0.9201677761499999,-2.18041,1.406171,2.758078,0.00010000000000021103,0.00010000000000021103,-5.0000000000105516e-05,-0.00032475981423352174,3.2403494355293105e-05,-4.331755720987651e-05
1504282102.6,-1.0,-0.0369318439,0.016985117799999998,-0.015533733599999999,0.039589,-0.010656,0.003879,-1.3186413855999999,-9.673554146199999,0.92412966275,-2.182073,1.405852,2.759659,9.999999999976694e-05,0.00019999999999997797,-4.999999999988347e-05,-0.00032621132436383427,3.3235867694658694e-05,-4.890078428998468e-05
1504282102.61,-1.0,-0.0507199938,-0.005491723999999999,-0.0283412185,0.037489,-0.006376,0.003869,-1.31980837695,-9.673063813699999,0.9275129569999999,-2.183374,1.405553,2.760928,0.00010000000000021103,9.999999999976694e-05,-6.666666666665932e-05,-0.00039718941385169515,3.7996739597367934e-05,-9.746551251077484e-06
1504282102.62,-1.0,-0.05415232129999999,-0.0303025485,-0.040981990350000004,0.037499,-0.006374,0.001735,-1.3207203953999997,-9.6726519344,0.93058243845,-2.184605,1.405293,2.762135,0.00010000000000021103,0.0001500000000000945,-6.666666666665932e-05,-0.00041126497809940155,3.735802523907594e-05,-3.266349768638044e-05
1504282102.63,-1.0,-0.0479152919,-0.02650737495,-0.025154057249999997,0.03328,-0.00101,0.000651,-1.3215637672999998,-9.67224986175,0.9334557869,-2.185753,1.40505,2.763296,9.999999999976694e-05,0.0001500000000000945,-6.666666666665932e-05,-0.0004112669955882442,3.7344724435062204e-05,-3.267893360547891e-05
1504282102.64,-1.0,-0.0360688587,-0.01758332345,-0.007462860649999999,0.030115,0.002216,-0.001494,-1.3220442931499998,-9.671906629,0.93640758855,-2.187075,1.404833,2.764644,9.999999999976694e-05,0.00019999999999997797,-4.999999999988347e-05,-0.00033964819782417166,3.654249137818866e-05,-2.0231258394343143e-05
1504282102.65,-1.0,-0.0374221764,0.0004707192,0.00440318585,0.028019,0.00756,-0.000439,-1.3226326921499998,-9.671553589599998,0.9392122904499999,-2.188272,1.404616,2.765923,0.00010000000000021103,0.00019999999999997797,-5.0000000000105516e-05,-0.00025417477269829014,3.296471172764548e-05,-8.19856566003363e-06
1504282102.66,-1.0,-0.03892259385,-0.016131939249999998,-0.013395883899999999,0.026966,0.008635,-0.00151,-1.3232308977999998,-9.671249583449999,0.94144820665,-2.189184,1.404432,2.766933,9.999999999976694e-05,0.00010000000000021103,-9.999999999998899e-05,-0.00019734959987016687,2.0990176643920222e-05,-4.311163743553337e-06
1504282102.67,-1.0,-0.0401876517,-0.0150434011,-0.0455616959,0.028068,0.011825,-0.003648,-1.32361335715,-9.67099461055,0.9435370230999999,-2.190094,1.404274,2.767972,0.00010000000000021103,9.999999999976694e-05,-9.999999999998899e-05,-0.00015295571240447892,3.275684100367826e-05,1.3481833283313094e-05
1504282102.68,-1.0,-0.0378928956,0.00442279915,-0.06322347254999999,0.025968,0.016105,-0.003659,-1.3239565898999999,-9.670857317449999,0.9444392348999999,-2.19042,1.404191,2.768487,4.999999999988347e-05,0.00019999999999997797,-5.0000000000105516e-05,-0.00016008496404995576,-6.870988698892688e-06,5.409971217884557e-05
1504282102.69,-1.0,-0.048905763549999995,0.0202605389,-0.0741578873,0.029183,0.016082,-0.006855,-1.32431943595,-9.670690604399999,0.9456552595,-2.1909,1.404088,2.769158,4.999999999988347e-05,0.00010000000000021103,-4.999999999988347e-05,-0.00011568728823885266,4.90452417967191e-06,7.189577566535377e-05
1504282102.7,-1.0,-0.050376761049999996,0.037902702249999996,-0.07629573699999999,0.026033,0.022502,-0.006871,-1.3247999618,-9.67052389135,0.946733991,-2.191274,1.403982,2.769774,0.00010000000000021103,0.00019999999999997797,-9.999999999998899e-05,-0.00015736973386726305,1.1441751309959614e-05,0.00010363818950431813
1504282102.71,-1.0,-0.0494059027,0.04884692365,-0.0693134022,0.02289,0.02786,-0.010087,-1.3250157081,-9.6703964049,0.94768523605,-2.191668,1.403907,2.770465,0.00010000000000021103,9.999999999976694e-05,-5.0000000000105516e-05,-0.00019725471227172164,3.337181047169402e-05,0.0001166559882121998
1504282102.72,-1.0,-0.05843782734999999,0.0393442798,-0.0753935252,0.018659,0.033222,-0.009035,-1.3254079741,-9.6703179517,0.9479304022999999,-2.191651,1.403859,2.770786,4.999999999988347e-05,0.00019999999999997797,-4.999999999988347e-05,-0.00029503973302125175,4.0751944770267556e-05,8.010154624349397e-05
1504282102.73,-1.0,-0.0500335283,0.0159259996,-0.06608701435,0.018667,0.034287,-0.009037,-1.3257414001999999,-9.67024930515,0.9482049884999999,-2.191668,1.403815,2.771175,4.999999999988347e-05,0.00010000000000021103,-4.999999999988347e-05,-0.0003964690722879638,4.839512211196606e-05,6.008420179570706e-05
1504282102.74,-1.0,-0.041138896749999994,-0.0300671889,-0.05731986925,0.024043,0.039571,-0.009036,-1.3258002401,-9.67019046525,0.9487051276499999,-2.191899,1.403779,2.77182,0.00010000000000021103,0.00019999999999997797,-5.0000000000105516e-05,-0.0005070842960455124,-2.379452835432616e-06,7.61314832774529e-05
1504282102.75,-1.0,-0.055505638999999996,-0.06995083444999999,-0.05596655155,0.005962,0.046115,-0.010146,-1.32594733985,-9.670259111799998,0.94780291585,-2.191395,1.403822,2.771772,4.999999999988347e-05,0.0001500000000000945,-9.999999999998899e-05,-0.0004924038478784087,-3.7463751987321103e-06,4.8016002632378374e-05
1504282102.76,-1.0,-0.059143906149999995,-0.09724274139999999,-0.041129090099999994,-0.0036,0.052585,-0.008038,-1.3263494125,-9.6703571783,0.9462828850999999,-2.190491,1.403878,2.771381,4.999999999988347e-05,0.0001500000000000945,-9.999999999998899e-05,-0.0004924061020068482,-3.722763719959943e-06,4.8018045199715864e-05
1504282102.77,-1.0,-0.05394638164999999,-0.11055036545,-0.011640493549999999,-0.013156,0.059057,-0.006998,-1.3267612917999998,-9.6705140847,0.94403716225,-2.189219,1.403979,2.770692,5.000000000032756e-05,9.999999999976694e-05,-5.0000000000105516e-05,-0.0003138919073062407,-5.1744982254797733e-05,4.0232357745306757e-07
1504282102.78,-1.0,-0.058928159849999995,-0.1071278446,0.0146511351,-0.018458,0.064426,-0.004882,-1.32761447035,-9.67064157115,0.9415364664999999,-2.187663,1.404057,2.769759,4.999999999988347e-05,0.00010000000000021103,-4.999999999988347e-05,-0.00015288325640816502,-4.2000060831659525e-05,1.4561856582218091e-05
1504282102.79,-1.0,-0.04904305665,-0.0725888233,0.0300671889,-0.020577,0.067638,-0.002756,-1.32851668215,-9.6707690576,0.9389867375,-2.186069,1.404133,2.768815,4.999999999988347e-05,9.999999999976694e-05,-9.999999999998899e-05,-4.25249231628122e-05,5.215695686899835e-06,5.9438943154077606e-05
1504282102.8,-1.0,-0.026085689,-0.04596376855,0.0311263071,-0.020565,0.069768,-0.001692,-1.3293306341,-9.6709063507,0.93642720185,-2.184493,1.404217,2.767912,4.999999999988347e-05,0.00010000000000021103,-6.666666666665932e-05,-2.6152467834439364e-05,1.736732663548679e-05,4.30666563002724e-05
1504282102.81,-1.0,-0.01713221755,-0.029214010349999996,0.00104931155,-0.014183,0.068648,0.000456,-1.33020342595,-9.6710436438,0.9337303730999998,-2.182827,1.404303,2.766938,4.999999999988347e-05,9.999999999976694e-05,-6.666666666665932e-05,1.3888580995491395e-05,7.3684270935237e-05,9.439776672226508e-05
1504282102.82,-1.0,-0.0025497289999999997,-0.0017063571,-0.0299691224,-0.008846,0.069669,0.001531,-1.3310173779,-9.671171130249999,0.931239484,-2.181282,1.404382,2.766098,5.000000000032756e-05,0.00010000000000021103,-6.666666666665932e-05,1.3895455786894217e-05,7.368271211594113e-05,9.439820786250053e-05
1504282102.83,-1.0,-0.0024712758,0.03965809259999999,-0.05247538415,-0.001367,0.071737,0.002608,-1.3319980429,-9.67122997015,0.9291997008,-2.17991,1.40442,2.765448,9.999999999976694e-05,9.999999999976694e-05,-5.0000000000105516e-05,5.545422169905834e-05,6.530525967574086e-05,9.316109184320798e-05
1504282102.84,-1.0,-0.0063939358,0.05225963785,-0.04798393844999999,0.002928,0.073836,0.000477,-1.3330179345,-9.67126919675,0.92740508385,-2.178645,1.404439,2.764912,5.000000000032756e-05,0.00010000000000021103,-4.999999999988347e-05,0.00011009638579562164,4.362075029651358e-05,0.00010587994610400386
1504282102.85,-1.0,-0.00548191735,0.0508769002,-0.033970235599999996,0.002931,0.0749,0.001543,-1.3340770526999999,-9.67122997015,0.9262577057999999,-2.17769,1.404417,2.764698,4.999999999988347e-05,9.999999999976694e-05,-9.999999999998899e-05,0.000156155744652553,-7.573310802255762e-06,8.273271298420148e-05
1504282102.86,-1.0,0.00787473995,0.05333836935,-0.00548191735,0.005051,0.073816,0.002616,-1.3350184911,-9.67115151695,0.9257477599999999,-2.177105,1.404367,2.764848,9.999999999976694e-05,3.333333333355171e-05,-6.666666666665932e-05,0.00017390089892765914,3.73575168666207e-06,7.195188595776614e-05
1504282102.87,-1.0,0.0052857843499999994,0.054132707999999995,0.02413416565,0.000792,0.074917,0.002607,-1.3360089627499998,-9.67103383715,0.9254633671499999,-2.176612,1.4043,2.765102,4.999999999988347e-05,3.333333333310762e-05,-6.666666666688137e-05,0.00019412275119568,3.449478864991917e-05,9.403976576549677e-05
1504282102.88,-1.0,0.011463973849999998,0.04009939184999999,0.03756927615,0.001873,0.075974,0.001539,-1.3368033013999998,-9.670925964,0.92550259375,-2.176354,1.40423,2.765579,5.000000000032756e-05,3.333333333355171e-05,-6.666666666665932e-05,0.0001941256627795429,3.4476531448612846e-05,9.404630332243702e-05
1504282102.89,-1.0,0.01256231865,0.0358334991,0.0482879446,0.000795,0.073853,0.000473,-1.33746034695,-9.6708475108,0.9253947205999999,-2.176072,1.404181,2.766029,4.999999999988347e-05,1.6666666666775853e-05,-4.999999999988347e-05,0.00021274706076401806,5.7956800036285117e-05,0.00012272451179395905
1504282102.9,-1.0,0.009218250999999998,0.03468612105,0.0437964989,0.001846,0.071713,0.000479,-1.3381468124499998,-9.670749444299998,0.92540452725,-2.175831,1.404122,2.766501,4.999999999988347e-05,1.6666666666331764e-05,-5.0000000000105516e-05,0.00020436932238032668,8.660476986155352e-05,0.000155034628755768
1504282102.91,-1.0,0.0018142302499999999,0.027831272699999996,0.0377556025,-0.003453,0.072828,-0.004869,-1.3385194651499999,-9.67077886425,0.9245611553499999,-2.175276,1.404139,2.766652,3.333333333355171e-05,1.6666666666775853e-05,-9.999999999998899e-05,0.00016865353723072296,5.5833459802201446e-05,0.00018875961389885898
1504282102.92,-1.0,-0.00508965135,-0.0051190713,0.04980797535,-0.001339,0.069615,-0.005927,-1.3386567582499997,-9.670749444299998,0.9246298018999999,-2.175266,1.404124,2.767332,3.333333333310762e-05,1.6666666666775853e-05,-9.999999999998899e-05,0.00014908324031392972,2.911864072419057e-05,0.00021828522697286967
1504282102.93,-1.0,-0.0265760215,-0.050925933449999995,0.0639589713,-0.000292,0.066411,-0.006987,-1.3388626979,-9.670729831,0.9245513487,-2.17515,1.40411,2.767899,3.333333333355171e-05,1.6666666666331764e-05,-5.0000000000105516e-05,7.115628426235254e-05,2.6864049469388362e-06,0.00020161151275532863
1504282102.94,-1.0,-0.0177500365,-0.0973015813,0.062458553849999994,-0.000291,0.06641,-0.006987,-1.3388626979,-9.670749444299998,0.9243944422999999,-2.175073,1.40412,2.768484,2.4999999999941735e-05,1.6666666666775853e-05,-4.999999999988347e-05,-1.4284018561294687e-06,3.4324157871523653e-07,0.0002473270389546922
1504282102.95,-1.0,0.0005295590999999999,-0.1241718023,0.060222637649999994,0.001832,0.064263,-0.008047,-1.3384410119499999,-9.6708082842,0.9243944422999999,-2.175219,1.404157,2.76928,2.4999999999941735e-05,3.333333333355171e-05,-9.999999999998899e-05,-7.053658105760086e-05,1.6170860635433826e-05,0.00021889264477414905
1504282102.96,-1.0,0.00736479415,-0.1507282105,0.05995785809999999,0.005009,0.059976,-0.010169,-1.3376466732999999,-9.6708867374,0.9246592218499999,-2.175631,1.404209,2.770302,2.4999999999941735e-05,3.333333333310762e-05,-9.999999999998899e-05,-0.00012352690644634734,4.05517612467321e-05,0.00023508588543519338
1504282102.97,-1.0,-0.006060509699999999,-0.1515715824,0.04610106165,0.008185,0.056753,-0.010158,-1.3369405945,-9.670935770649999,0.9251985876,-2.176154,1.404236,2.77141,2.4999999999941735e-05,3.333333333355171e-05,-4.999999999988347e-05,-0.00010796831744119828,5.132772872618041e-05,0.0002464014932157532
1504282102.98,-1.0,-0.0052171378,-0.1312522036,0.044649677449999994,-0.000339,0.056826,-0.012308,-1.3359795427999999,-9.67105345045,0.9253064607499999,-2.17654,1.404311,2.772363,2.0000000000131024e-05,2.0000000000131024e-05,-5.0000000000105516e-05,-6.249719946138654e-05,5.704486355795346e-05,0.00023481640338163245
1504282102.99,-1.0,-0.025556129899999995,-0.10826541599999999,0.032361944999999996,0.007142,0.055703,-0.016563,-1.3350969443,-9.67115151695,0.9256104668999999,-2.177006,1.404368,2.773397,2.0000000000131024e-05,1.9999999999686935e-05,-5.0000000000105516e-05,-3.8795063017404985e-05,8.160310370319834e-06,0.00024655308991794467
1504282103.0,-1.0,-0.0411487034,-0.08762241775,0.026772154499999996,0.002894,0.056806,-0.018706,-1.33432221895,-9.6712986167,0.9252280075499999,-2.177083,1.404458,2.774047,1.9999999999686935e-05,2.0000000000131024e-05,-4.999999999988347e-05,-3.556674627125389e-05,2.2699582662433215e-05,0.00023340101013491488
1504282103.01,-1.0,-0.0384616813,-0.046660040699999995,0.0330876371,0.002869,0.053609,-0.0187,-1.3335671069,-9.6713966832,0.9251887809499999,-2.177331,1.404524,2.774846,2.0000000000131024e-05,1.9999999999686935e-05,-9.999999999998899e-05,-3.315658666203092e-05,3.5850377094304164e-05,0.00024794005359041194
1504282103.02,-1.0,-0.0228298812,-0.01644575205,0.02782146605,0.004982,0.050396,-0.019758,-1.3324393421499998,-9.67154378295,0.92536530065,-2.177816,1.404609,2.775856,2.0000000000131024e-05,2.0000000000131024e-05,-5.0000000000105516e-05,6.6421584818954216e-06,4.121697066872265e-05,0.0002632598493336191
1504282103.03,-1.0,-0.0149845612,0.0157298666,-0.0056976636499999995,0.009236,0.049295,-0.018681,-1.33130177075,-9.671700689349999,0.92536530065,-2.178216,1.404705,2.776772,3.333333333310762e-05,-4.999999999988347e-05,-4.999999999988347e-05,2.544373199198091e-05,6.647807795934213e-05,0.00026141809968149854
1504282103.04,-1.0,-0.015053207749999999,0.05374044199999999,-0.0320089056,0.014572,0.048187,-0.020805,-1.3300367129,-9.6718477891,0.92563988685,-2.178799,1.404796,2.777861,3.333333333355171e-05,-4.999999999988347e-05,-4.999999999988347e-05,8.982320042516534e-05,6.712672421227417e-05,0.0002726968646373784
1504282103.05,-1.0,-0.0146119085,0.060742390099999995,-0.04461045085,0.020959,0.047068,-0.019724,-1.3288403016,-9.6719654689,0.92613021935,-2.17947,1.404869,2.779043,3.333333333310762e-05,1.4285714285744433e-05,-5.0000000000105516e-05,0.00013992484091129853,8.646374908205523e-05,0.0002536402514947689
1504282103.06,-1.0,-0.0165928518,0.031528379749999995,-0.0564078508,0.024178,0.04811,-0.021855,-1.3274477573,-9.672083148699999,0.9268461048,-2.180325,1.404945,2.780414,2.4999999999941735e-05,1.4285714285744433e-05,-9.999999999998899e-05,0.00022552638100892253,5.235778194712104e-05,0.00029041113661454343
1504282103.07,-1.0,-0.0013729309999999998,0.00563882375,-0.0719023578,0.028444,0.048075,-0.021847,-1.32590811325,-9.67223024845,0.9275325702999999,-2.181217,1.405035,2.781823,2.5000000000385825e-05,1.4285714285744433e-05,-3.333333333332966e-05,0.00025969659576707826,2.6039178933068285e-06,0.00027607846471466857
1504282103.08,-1.0,-0.0016377105499999999,0.025683616349999997,-0.080022264,0.023138,0.05238,-0.020796,-1.32445672905,-9.672367541549999,0.9281700025499999,-2.182055,1.40512,2.783217,2.4999999999941735e-05,1.4285714285300344e-05,-3.333333333332966e-05,0.0002973011400151382,5.303042680138148e-05,0.0002724066012363968
1504282103.09,-1.0,0.004354152599999999,0.0348136075,-0.0653319023,0.019965,0.056667,-0.019742,-1.323113218,-9.672524447949998,0.9284445887499999,-2.182672,1.405218,2.78442,2.4999999999941735e-05,1.4285714285744433e-05,-3.333333333332966e-05,0.0002793324210104142,2.9108046590176073e-05,0.00024657031617725256
1504282103.1,-1.0,0.0122779258,0.01928968055,-0.03672590425,0.012537,0.06312,-0.017632,-1.32175009365,-9.6727107743,0.9284151688,-2.183139,1.405334,2.78553,3.333333333310762e-05,1.4285714285744433e-05,-5.0000000000105516e-05,0.00027128237195395144,6.1354204328401e-05,0.00021788584778481557
1504282103.11,-1.0,0.0129643913,-0.025526709949999997,-0.022898527749999998,0.00935,0.064213,-0.018707,-1.3203477427,-9.67293632725,0.9280523227499999,-2.183457,1.405474,2.786501,3.333333333355171e-05,1.4285714285744433e-05,-4.999999999988347e-05,0.0002688722071786387,4.8170015109372244e-05,0.0002033538013157532
1504282103.12,-1.0,0.010042009599999999,-0.05084748025,-0.0245558516,0.006155,0.066369,-0.016581,-1.3190728781999999,-9.6732011068,0.92716972425,-2.183462,1.405635,2.78719,3.333333333310762e-05,-5.2631578948414415e-06,-4.999999999988347e-05,0.0002965630416196241,4.2448865648747613e-05,0.00020254365522232032
1504282103.13,-1.0,0.0028341218499999994,-0.09776249384999999,-0.0160632927,0.005112,0.070637,-0.014456,-1.3179941466999998,-9.67342665975,0.9263165457,-2.183411,1.405777,2.787852,3.333333333355171e-05,-5.263157894397352e-06,-5.0000000000105516e-05,0.0003390274884300659,3.7140179327987966e-05,0.00014312352722900545
1504282103.14,-1.0,0.01579851315,-0.1058333668,-0.01589657965,-0.00123,0.078149,-0.014481,-1.31674870215,-9.673730665899999,0.9249436147,-2.183163,1.405963,2.788379,3.333333333310762e-05,-5.2631578948414415e-06,-5.0000000000105516e-05,0.0003812640198406214,2.817417865319527e-05,0.00014473575512785608
1504282103.15,-1.0,0.02474217795,-0.07281437624999999,-0.037412369749999994,0.00733,0.081275,-0.014472,-1.3155130642499997,-9.6739856388,0.9240217895999999,-2.183132,1.406123,2.789165,3.333333333355171e-05,-5.2631578948414415e-06,-4.999999999988347e-05,0.00039601809257927556,3.2968721924486744e-05,0.00013493527997598953
1504282103.16,-1.0,0.014925721299999998,-0.0528970701,-0.04492426365,0.007382,0.086605,-0.016616,-1.31437549285,-9.674289644949999,0.92240369235,-2.182714,1.406315,2.789618,4.999999999988347e-05,-5.2631578948414415e-06,-2.4999999999941735e-05,0.00043825627705484926,2.3991707015058594e-05,0.00013654684300690167
1504282103.17,-1.0,0.0077766734499999995,-0.034509601349999995,-0.05788865495,0.012745,0.087631,-0.020879,-1.3130614017499997,-9.6745740378,0.9212955409,-2.182622,1.406492,2.790432,4.999999999988347e-05,-5.263157894397352e-06,-2.4999999999941735e-05,0.000411382950556094,3.5438911859531075e-05,0.0001585044991715412
1504282103.18,-1.0,-0.0171812508,0.0008335652500000001,-0.0456597624,0.017057,0.091861,-0.023013,-1.3120513167999999,-9.6747505575,0.9208836616,-2.182776,1.406602,2.791522,5.000000000032756e-05,-5.2631578948414415e-06,-2.500000000016378e-05,0.0003780841628744369,8.651617620336616e-05,0.00014525755996497303
1504282103.19,-1.0,-0.024928504299999998,0.00204958985,-0.04502233014999999,0.019207,0.093974,-0.023013,-1.31104123185,-9.6749270772,0.9205502354999999,-2.182968,1.406707,2.792684,4.999999999988347e-05,-5.2631578948414415e-06,-2.4999999999941735e-05,0.0004203350155278507,7.752797441296089e-05,0.00014688989392319662
1504282103.2,-1.0,-0.01760293675,-0.004834678449999999,-0.0382067084,0.024562,0.093935,-0.027273,-1.3096781075,-9.67507417695,0.92091308155,-2.183641,1.406801,2.794326,0.00010000000000021103,-5.2631578948414415e-06,-2.4999999999941735e-05,0.0003853582243920073,4.821178761527101e-05,0.00015284098569900983
1504282103.21,-1.0,-0.00922805765,-0.0051386846,-0.0467188806,0.024537,0.092866,-0.024069,-1.30833459645,-9.675211470049998,0.9213543807999999,-2.184349,1.406889,2.795997,4.999999999988347e-05,-5.263157894397352e-06,-2.500000000016378e-05,0.0003406916377726166,4.399739598670571e-05,0.00013668777908459884
1504282103.22,-1.0,-0.01424906245,-0.01220927925,-0.0268898343,0.02139,0.10035,-0.02302,-1.3072068316999998,-9.675329149849999,0.92171722685,-2.184943,1.406962,2.797609,4.999999999988347e-05,-5.2631578948414415e-06,-2.4999999999941735e-05,0.00033583572653239635,1.776588254265299e-05,0.00010755639900505987
1504282103.23,-1.0,-0.0139450563,-0.05579003184999999,-0.00601147645,0.021351,0.096087,-0.021945,-1.3060104203999998,-9.67544682965,0.9222369792999999,-2.185637,1.407032,2.799301,5.000000000032756e-05,-5.2631578948414415e-06,-2.4999999999941735e-05,0.0002528175204743466,3.478843513282648e-05,0.00011005111051154426
1504282103.24,-1.0,-0.014288289049999998,-0.08115002874999999,0.01638691215,0.015992,0.095062,-0.01875,-1.30505917535,-9.67552528285,0.92273711845,-2.186235,1.407082,2.800875,4.999999999988347e-05,-5.2631578948414415e-06,-3.333333333332966e-05,0.00022206990369855184,2.9666290042751342e-05,6.295015913748703e-05
1504282103.25,-1.0,-0.0024222425499999998,-0.07418730724999999,0.024114552349999995,0.012801,0.098282,-0.015559,-1.30421580345,-9.675603736049998,0.92309015785,-2.186722,1.407133,2.802355,4.999999999988347e-05,-5.263157894397352e-06,-3.333333333332966e-05,0.00018130079823741596,3.7769183830471675e-05,6.704639490195952e-05
1504282103.26,-1.0,-0.00177500365,-0.052848036849999995,0.027635139700000002,0.006387,0.097268,-0.014501,-1.30350972465,-9.6756919959,0.9231686110499999,-2.187013,1.407188,2.803641,4.999999999988347e-05,-5.2631578948414415e-06,-3.333333333332966e-05,0.00019928979574679317,5.718005503774215e-05,4.4151025710092995e-05
1504282103.27,-1.0,-0.0057859235,-0.04237453465,0.02115294405,0.020228,0.095021,-0.012338,-1.3030880387,-9.6756919959,0.9238060432999999,-2.187495,1.407185,2.805095,4.999999999988347e-05,-5.2631578948414415e-06,7.692307692375167e-06,0.00023828105355661044,3.3652885728097104e-05,5.8856812668151015e-05
1504282103.28,-1.0,-0.0093947707,-0.021564823349999998,-0.0012454445499999998,0.012763,0.096147,-0.011286,-1.30292132565,-9.67570180255,0.92391391645,-2.187608,1.407193,2.80617,5.000000000032756e-05,-5.2631578948414415e-06,7.692307692153122e-06,0.00025463564630290314,4.578030369706276e-05,4.251278850386786e-05
1504282103.29,-1.0,-0.0130428445,-0.02021150565,-0.014307902349999999,0.012727,0.092948,-0.009145,-1.3030193921499997,-9.675711609199999,0.9236491369000001,-2.187438,1.4072,2.806952,4.999999999988347e-05,-5.263157894397352e-06,7.692307692375167e-06,0.000266785896072097,2.942947492323711e-05,3.0373094762392583e-05
1504282103.3,-1.0,0.005099457999999999,-0.005246557749999999,-0.009129991149999999,0.01058,0.094027,-0.004881,-1.3032057185,-9.675711609199999,0.9234137772999998,-2.187253,1.407198,2.807697,4.999999999988347e-05,-5.2631578948414415e-06,7.692307692375167e-06,0.00026109426386433654,1.7685555933066865e-06,2.8882851882183758e-05
1504282103.31,-1.0,0.01909354755,0.00834545915,-0.0012356379,0.009458,0.089769,-0.000606,-1.3035881778499998,-9.675682189249999,0.9231588043999999,-2.186981,1.407182,2.80833,0.00010000000000021103,-3.333333333355171e-05,7.692307692153122e-06,0.00027987490015846106,2.698392322630916e-05,2.7122520245947968e-05
1504282103.32,-1.0,0.028929617499999997,0.022486648449999997,0.019015094349999997,0.008358,0.087644,0.002597,-1.3041373502499998,-9.675613542699999,0.92310977115,-2.186756,1.407138,2.808998,9.999999999976694e-05,-3.333333333310762e-05,7.692307692375167e-06,0.00027811589634918477,1.1566012958041938e-05,4.590680726379581e-05
1504282103.33,-1.0,0.0264387284,0.040373978049999995,0.0103558224,0.008338,0.084448,0.001535,-1.3047943958,-9.675544896149999,0.9229332514499999,-2.186431,1.407094,2.809529,4.999999999988347e-05,-3.333333333355171e-05,7.692307692375167e-06,0.00024974060193949654,2.3858927700182164e-05,6.217785046369606e-05
1504282103.34,-1.0,0.024751984600000002,0.03399965555,-0.0009708583499999999,0.012583,0.082281,0.002614,-1.3055004745999998,-9.67544682965,0.9228842181999999,-2.186154,1.407037,2.810096,5.000000000032756e-05,-3.333333333310762e-05,7.692307692375167e-06,0.0002089906417466203,3.1966147111539556e-05,6.628034929678783e-05
1504282103.35,-1.0,0.01093441475,0.00585457005,0.011424747249999999,0.013625,0.079076,0.002621,-1.3063438465,-9.675289923249998,0.92336474405,-2.186092,1.406937,2.810847,9.999999999976694e-05,-3.333333333355171e-05,7.692307692153122e-06,0.00016183404131964174,1.9035305308223727e-05,8.43033714804653e-05
1504282103.36,-1.0,-0.00701175475,-0.0344213415,-0.00061781895,0.015724,0.074796,0.002632,-1.30741277135,-9.67511340355,0.9237275900999999,-2.185896,1.406825,2.81142,0.00010000000000021103,-3.333333333310762e-05,7.692307692375167e-06,5.282412160778627e-05,4.483078828432241e-05,3.229915360525304e-05
1504282103.37,-1.0,-0.0036480737999999998,-0.06716574585,-0.007766866799999999,0.011438,0.073757,0.002625,-1.3082267232999998,-9.674985917099999,0.9238452698999999,-2.185659,1.406749,2.811936,9.999999999976694e-05,-1.6666666666775853e-05,7.692307692375167e-06,-8.055316354727005e-05,2.7309468316527585e-05,-1.544451791724022e-05
1504282103.38,-1.0,0.00183384355,-0.0764134168,0.0155925735,0.006054,0.069535,0.005825,-1.30921719495,-9.6748682373,0.9236785568499999,-2.185219,1.406675,2.812213,0.00010000000000021103,-1.6666666666775853e-05,7.692307692153122e-06,-0.00012761374218750454,8.327217980830248e-05,-5.871694945169814e-05
1504282103.39,-1.0,0.0121798593,-0.08250334645,0.0507788337,-0.001445,0.066399,0.006885,-1.3101390200499998,-9.674760364149998,0.9235118438,-2.1848,1.406608,2.812464,9.999999999976694e-05,-1.6666666666775853e-05,7.692307692375167e-06,-9.994806833857339e-05,7.757131849883692e-05,-5.9555856750326264e-05
1504282103.4,-1.0,0.0241439723,-0.07556023825,0.08020859035,-0.008914,0.067524,0.009004,-1.3110314252,-9.67468191095,0.92310977115,-2.184274,1.406556,2.812599,0.00010000000000021103,-1.6666666666331764e-05,1.6666666666775853e-05,-3.081691659745367e-05,5.57178570683714e-05,-9.618106273034943e-05
1504282103.41,-1.0,0.026948674199999998,-0.0400307453,0.08402337719999999,-0.012158,0.063286,0.01114,-1.3121886099,-9.67458384445,0.9224429189499999,-2.183517,1.406498,2.812473,9.999999999976694e-05,-1.6666666666775853e-05,1.666666666655381e-05,5.744406770280541e-05,6.980862996996962e-05,-3.451750514693597e-05
1504282103.42,-1.0,0.05010217484999999,-0.031950065699999995,0.07218675065,-0.0037,0.056817,0.016502,-1.3133359879499997,-9.67444655135,0.9223056258499999,-2.183038,1.406409,2.812555,0.00010000000000021103,-1.6666666666775853e-05,1.666666666655381e-05,0.00011103369348575143,4.301983574950263e-05,-1.7394060139563905e-05
1504282103.43,-1.0,0.06663618674999999,-0.01309187775,0.04833697785,0.002654,0.051435,0.017589,-1.3143166529499999,-9.674289644949999,0.9225115654999999,-2.18279,1.406314,2.81282,0.00019999999999997797,-4.999999999988347e-05,1.6666666666775853e-05,0.00020173560504588295,7.017168338618873e-05,5.887621119970987e-05
1504282103.44,-1.0,0.0793750251,0.027615526399999996,-0.0007354987499999999,0.009012,0.046055,0.017609,-1.3152384780499997,-9.67415235185,0.9226488586,-2.182534,1.406228,2.813032,0.00010000000000021103,-4.999999999988347e-05,1.6666666666775853e-05,0.000246435922208077,7.427343448918045e-05,7.509318751319771e-05
1504282103.45,-1.0,0.08536688824999998,0.049641262299999996,-0.03433308165,0.0143,0.039619,0.016561,-1.3159837834499999,-9.67403467205,0.9228744115499999,-2.182383,1.406151,2.81328,9.999999999976694e-05,-0.00010000000000021103,1.666666666655381e-05,0.0002536871723790579,4.0297210178286136e-05,0.0001313590073637183
1504282103.46,-1.0,0.08428815675,0.048886150249999996,-0.033117057049999996,0.015302,0.03215,0.017642,-1.3166996689,-9.67387776565,0.9234530039,-2.182422,1.406056,2.813666,0.00019999999999997797,-3.333333333310762e-05,1.2499999999970868e-05,0.00022922299504446464,-1.2601969854975081e-05,0.00013157711651445858
1504282103.47,-1.0,0.07236327035,0.028096052249999996,-0.0032558077999999997,0.009954,0.027936,0.01337,-1.3171998080499998,-9.673730665899999,0.92426695585,-2.18266,1.405966,2.814186,0.00010000000000021103,-3.333333333355171e-05,1.2499999999970868e-05,0.00018299212426420297,-1.590433104370348e-05,0.00010966800258627174
1504282103.48,-1.0,0.054985886549999995,-0.0024712758,0.041756715699999995,0.004595,0.024784,0.013365,-1.31792550015,-9.67354433955,0.9251985876,-2.182871,1.405849,2.814637,0.00019999999999997797,-3.333333333310762e-05,1.2499999999970868e-05,9.018520611525638e-05,1.8198164478233636e-05,0.00010234719515322954
1504282103.49,-1.0,0.04615990155,-0.03137147335,0.08099312235,-0.002918,0.018453,0.012295,-1.3185237058,-9.673377626499999,0.9260615728,-2.183097,1.405747,2.815044,0.00019999999999997797,-2.4999999999941735e-05,1.2500000000192912e-05,-3.1747062057885245e-05,3.0390305743699386e-05,8.41398667993376e-05
1504282103.5,-1.0,0.05245577084999999,-0.07710968894999999,0.08760280444999999,-0.008287,0.015298,0.014425,-1.31898461835,-9.67327956,0.9264930654,-2.183149,1.405683,2.815228,9.999999999976694e-05,-2.5000000000385825e-05,1.2499999999970868e-05,-6.524241693917077e-05,6.5353177137073e-05,9.546534970394926e-05
1504282103.51,-1.0,0.0607620034,-0.12356378999999999,0.0983410862,-0.012619,0.007873,0.015497,-1.31935727105,-9.67321091345,0.9266793917499999,-2.18311,1.40564,2.815253,0.00019999999999997797,-2.4999999999941735e-05,1.2499999999970868e-05,-0.00015216462729972235,0.00010680891702796735,7.140956277007504e-05
1504282103.52,-1.0,0.057751361849999995,-0.15071840385,0.10066526225,-0.01481,0.00256,0.018704,-1.3199456700499999,-9.673132460249999,0.9266009385499999,-2.182862,1.405595,2.815017,0.00019999999999997797,-2.4999999999941735e-05,1.2499999999970868e-05,-0.00019044957870129053,0.00012802613996343304,9.007708440877948e-05
1504282103.53,-1.0,0.06689115964999999,-0.14355954934999998,0.0861612269,-0.016982,-0.001686,0.019774,-1.3204065826,-9.67311284695,0.9261400259999999,-2.182463,1.405583,2.814586,0.000300000000000189,-2.4999999999941735e-05,1.2499999999970868e-05,-0.00015541159900056556,9.224769544768918e-05,8.44437688958255e-05
1504282103.54,-1.0,0.06705787269999999,-0.11380617325,0.0768056828,-0.014899,-0.008097,0.019788,-1.32086749515,-9.673093233649999,0.9257673732999999,-2.18211,1.405566,2.814134,0.00019999999999997797,-2.4999999999941735e-05,5.555555555591951e-06,-8.303226507244688e-05,9.064711815032211e-05,9.982899747873475e-05
1504282103.55,-1.0,0.06120330265,-0.07843358669999999,0.07206907084999999,-0.011729,-0.013449,0.017667,-1.3214460875,-9.672995167149999,0.9258654397999999,-2.181955,1.405511,2.813826,0.0001500000000000945,-2.4999999999941735e-05,5.555555555591951e-06,-1.3863985058648609e-05,2.813624337116849e-05,5.9303587486292386e-05
1504282103.56,-1.0,0.05857512045,-0.0501904347,0.05378947525,-0.011774,-0.019842,0.01661,-1.3218187402,-9.6729657472,0.9257379533499999,-2.181756,1.405488,2.813417,0.0001500000000000945,-2.4999999999941735e-05,5.555555555591951e-06,-1.3862287652877114e-05,2.8137036220510225e-05,5.930307829449255e-05
1504282103.57,-1.0,0.043561139299999996,-0.030312355149999998,0.041452709549999994,-0.010737,-0.026239,0.012352,-1.3220639064499997,-9.67293632725,0.92565950015,-2.181632,1.405472,2.81303,0.0005999999999999339,-0.00010000000000021103,5.5555555553699065e-06,-8.449484001360474e-09,0.00023506383650162554,0.00017408252337569596
1504282103.58,-1.0,0.022261095499999998,-0.045493049349999995,0.05246557749999999,-0.009684,-0.029443,0.010225,-1.3223090727,-9.6728676807,0.92601253955,-2.181725,1.40543,2.81281,0.0002999999999997449,-9.999999999976694e-05,5.555555555591951e-06,-5.523251202022017e-05,0.00015385174986737304,3.772445973304617e-05
1504282103.59,-1.0,0.00626644935,-0.053465855799999996,0.0726868898,-0.010761,-0.034755,0.003828,-1.32218158625,-9.6728284541,0.9265911319,-2.182063,1.405406,2.812793,0.00039999999999995595,-5.000000000032756e-05,5.555555555591951e-06,-7.381274667972448e-05,0.00020565249818638165,-3.406502673752865e-05
1504282103.6,-1.0,-0.006197802799999999,-0.05600577815,0.08611219365,-0.015052,-0.041108,-0.001506,-1.3218383534999998,-9.6728284541,0.9270912710499999,-2.182438,1.405406,2.812758,0.000300000000000189,-4.999999999988347e-05,5.555555555591951e-06,-0.00012185046566948188,0.000169966387699505,-0.000232419575732834
1504282103.61,-1.0,-0.010375435699999998,-0.07259862995,0.08852462955,-0.016155,-0.046426,-0.002566,-1.3212499544999998,-9.672857874049999,0.9276698633999999,-2.182939,1.405421,2.812792,0.00039999999999995595,-4.999999999988347e-05,5.555555555591951e-06,-6.964849064061696e-05,0.00022092841280185738,-0.00029450187454393983
1504282103.62,-1.0,0.0030596748,-0.06471408334999999,0.08804410369999999,-0.017255,-0.050679,-0.00256,-1.32031832275,-9.672946133899998,0.9279934828499999,-2.183436,1.40548,2.812777,0.000500000000000167,-4.999999999988347e-05,5.5555555553699065e-06,1.2469393833258735e-05,0.00018912272736493208,-0.0005254678886250641
1504282103.63,-1.0,0.0369906838,-0.017848103,0.08428815675,-0.018349,-0.054932,-0.003623,-1.3187884853499998,-9.673132460249999,0.9283072956499999,-2.184141,1.405592,2.812919,0.0004999999999997229,-3.333333333355171e-05,5.555555555591951e-06,6.199518162719464e-05,0.0002147363717011075,-0.0006386539383999024
1504282103.64,-1.0,0.0490724766,0.0294787899,0.07841397339999999,-0.020484,-0.053851,-0.001494,-1.3172488412999999,-9.6733187866,0.9285034286499999,-2.184788,1.40571,2.812997,0.000500000000000167,-3.333333333310762e-05,5.555555555591951e-06,0.0001343031540954609,0.0002170892473292163,-0.0006842090625210906
1504282103.65,-1.0,0.055495832349999996,0.07769808795,0.042737380699999994,-0.014113,-0.059229,-0.00361,-1.3150031184499997,-9.67350511295,0.9297586798499999,-2.186231,1.405825,2.813827,0.000500000000000167,-3.333333333355171e-05,5.555555555591951e-06,0.00010152499458659925,0.00026601101128886917,-0.0006640184294879337
1504282103.66,-1.0,0.0546230405,0.0778844143,0.043443459499999997,-0.015223,-0.064548,-0.003602,-1.3141205199500001,-9.6736914393,0.92905260105,-2.18619,1.405941,2.813152,0.0005999999999999339,2.0000000000131024e-05,5.555555555591951e-06,6.473744271429105e-05,0.0003026247937274462,-0.0006641125630733047
1504282103.67,-1.0,0.038147868499999994,0.07452073334999999,0.03292092405,-0.017359,-0.065595,-0.004672,-1.3126201025,-9.67391699225,0.92879762815,-2.186601,1.406083,2.812894,0.0005999999999999339,2.0000000000131024e-05,5.555555555591951e-06,-6.642268488166181e-05,0.0003008348618518397,-0.0006649277132706466
1504282103.68,-1.0,0.01952504015,0.0744717001,0.0369122306,-0.020538,-0.065565,-0.008947,-1.3110510385,-9.67417196515,0.92840536215,-2.186963,1.406239,2.812584,0.0005999999999999339,1.9999999999686935e-05,5.555555555591951e-06,-0.00017393574500879083,0.00026947394137910585,-0.0005038216466974887
1504282103.69,-1.0,-0.0038834333999999996,0.060605097,0.06921533569999999,-0.022674,-0.066612,-0.010016,-1.3096290742499999,-9.674377904799998,0.92826806905,-2.187404,1.406367,2.81235,0.0005999999999999339,2.0000000000131024e-05,5.5555555553699065e-06,-0.0002097084354504286,0.00024278286682233308,-0.0004215910225239261
1504282103.7,-1.0,-0.016563431849999997,0.04946474259999999,0.07751176159999999,-0.029049,-0.06549,-0.013231,-1.3081776900499997,-9.6746132644,0.9279052229999999,-2.187743,1.406512,2.811998,0.0005999999999999339,2.0000000000131024e-05,5.555555555591951e-06,-0.00013819265705050654,0.00023594404706095418,-0.0003174612413907596
1504282103.71,-1.0,-0.017524483549999997,0.024340105299999998,0.0750012592,-0.031185,-0.066537,-0.0143,-1.30647133295,-9.674917270549999,0.92713049765,-2.187964,1.406702,2.811532,0.0005999999999999339,3.333333333310762e-05,5.555555555591951e-06,-4.04882357420977e-05,0.00022429789700240121,-0.0002197146150410001
1504282103.72,-1.0,-0.027389973449999997,-0.036010018799999995,0.0676462717,-0.039722,-0.067531,-0.015381,-1.30468652265,-9.675329149849999,0.9253456873499999,-2.187703,1.406959,2.810572,0.000700000000000145,3.333333333355171e-05,5.0000000000105516e-05,3.417031105601431e-05,0.0003014607427511695,-8.007368935225578e-05
1504282103.73,-1.0,-0.03158721965,-0.0937319607,0.08907380195,-0.048251,-0.06746,-0.016463,-1.3027349992999997,-9.6758096757,0.9230705445499999,-2.187249,1.407259,2.809423,0.0005999999999999339,3.333333333310762e-05,4.999999999988347e-05,4.558731840131891e-05,0.0003652831381610877,2.0635338323193864e-05
1504282103.74,-1.0,-0.04286486715,-0.1241718023,0.10991293319999998,-0.0578,-0.060988,-0.01649,-1.3008815424499998,-9.6763392348,0.9200500963499999,-2.186371,1.407596,2.807881,0.000700000000000145,4.999999999988347e-05,2.4999999999941735e-05,5.1421902752313287e-05,0.00040142301412959824,0.00011982142149902231
1504282103.75,-1.0,-0.0418351689,-0.11716985419999999,0.12218105234999999,-0.064188,-0.058805,-0.015437,-1.2992144119499998,-9.676908020499999,0.9164510557999999,-2.18513,1.40795,2.806005,0.000700000000000145,5.000000000032756e-05,2.4999999999941735e-05,1.233580076953622e-05,0.0004903365594515208,0.00021459799618750441
1504282103.76,-1.0,-0.03211677875,-0.12148478019999999,0.1296046864,-0.072724,-0.057672,-0.013319,-1.2975570880999998,-9.677535646099999,0.91216554975,-2.183525,1.408346,2.803776,0.0006999999999997009,9.999999999976694e-05,2.500000000016378e-05,-2.978021670951847e-05,0.0004953606521602705,0.0002738799349897292
1504282103.77,-1.0,-0.0303810017,-0.12068063489999999,0.12358340329999999,-0.081258,-0.05441,-0.008003,-1.29631164355,-9.67819269165,0.90696802525,-2.181292,1.40876,2.800929,0.0007999999999999119,0.00010000000000021103,2.4999999999941735e-05,-5.239903397002976e-05,0.0005271458699167564,0.0003038011478687652
1504282103.78,-1.0,-0.01587696635,-0.10025338294999998,0.11830742559999999,-0.088714,-0.049027,-0.001621,-1.2955467248499999,-9.678859543849999,0.9008780956,-2.178404,1.409185,2.797466,0.000700000000000145,9.999999999976694e-05,1.666666666655381e-05,1.3799439577244499e-05,0.0004965344057665799,0.0003455287543193686
1504282103.79,-1.0,-0.0054132708,-0.05919293939999999,0.1237403097,-0.095149,-0.050046,0.003707,-1.29523291205,-9.6795165894,0.8942488002,-2.175058,1.409601,2.793548,0.0007999999999999119,0.00010000000000021103,1.6666666666775853e-05,0.00019471298181050756,0.00047542877088702085,0.00031931068809876173
1504282103.8,-1.0,0.013386077249999998,-0.03315628365,0.12826117535,-0.098348,-0.0447,0.012231,-1.2954780783,-9.6801246017,0.8873351119499999,-2.171346,1.409985,2.789283,0.0009000000000001229,0.00019999999999997797,1.6666666666775853e-05,0.0003034767307616981,0.0004822360485579047,0.0003105903548543676
1504282103.81,-1.0,0.01915238745,-0.0014709974999999999,0.13211518879999998,-0.103698,-0.043596,0.017557,-1.29631164355,-9.680673774099999,0.8800291576999999,-2.167204,1.410339,2.784608,0.0007999999999999119,9.999999999976694e-05,1.666666666655381e-05,0.0006014778117555686,0.00039443386764759225,0.0002680716345290213
1504282103.82,-1.0,0.025624776449999997,0.0482683313,0.1211709674,-0.104756,-0.039331,0.022884,-1.2976943812,-9.681193526549999,0.8722720975499999,-2.162603,1.410669,2.779502,0.0009000000000001229,0.00010000000000021103,1.666666666655381e-05,0.0009218569420132994,0.00040496912968901455,0.00019529476179525052
1504282103.83,-1.0,0.01972117315,0.08186591419999999,0.1175817335,-0.103759,-0.04361,0.030365,-1.3000283638999999,-9.68156617925,0.86464252385,-2.157711,1.410907,2.774082,0.0009999999999998899,0.00019999999999997797,1.6666666666775853e-05,0.0011882592334861997,0.0004300201164075812,6.880360331362745e-05
1504282103.84,-1.0,0.01515127425,0.12245563855,0.08985833395,-0.093137,-0.043707,0.03999,-1.3033822382,-9.6817525056,0.857493476,-2.152705,1.411026,2.768553,0.0009999999999998899,9.999999999976694e-05,-1.2499999999970868e-05,0.001386321155461001,0.0004120039666135611,-6.495141148343819e-05
1504282103.85,-1.0,0.0178677163,0.1886407194,0.0623114541,-0.076153,-0.045993,0.0539,-1.3080403969499999,-9.68164463245,0.8515310328,-2.147871,1.41096,2.763181,0.001000000000000334,0.00019999999999997797,-1.2499999999970868e-05,0.0014524468891607967,0.00037875419728061743,-0.00020890587181554565
1504282103.86,-1.0,0.050308114499999994,0.25737552925,0.0020593965,-0.046401,-0.052646,0.067839,-1.313698834,-9.68125236645,0.84728475335,-2.143623,1.410708,2.75835,0.0009999999999998899,0.000300000000000189,-1.2499999999970868e-05,0.0013484149039810767,0.00036750252801609484,-0.0003690205264366142
1504282103.87,-1.0,0.07629573699999999,0.27368398819999995,-0.07155912504999999,-0.01771,-0.06248,0.075378,-1.31978876365,-9.6806541608,0.8447350243499999,-2.140148,1.410321,2.754231,0.001100000000000101,0.000300000000000189,-1.2499999999970868e-05,0.0011334614895019968,0.00045227012322612836,-0.000538574048113083
1504282103.88,-1.0,0.034833220799999995,0.2568361635,-0.13158562969999998,0.012081,-0.068061,0.082911,-1.3272516242999999,-9.679663689149999,0.84430353175,-2.137361,1.409695,2.750756,0.001100000000000101,0.00039999999999995595,-1.2500000000192912e-05,0.000928778712002698,0.00030056479176043815,-0.0006619577906470386
1504282103.89,-1.0,-0.01783829635,0.22915199054999996,-0.1461779249,0.036541,-0.075725,0.08617,-1.3359305095499998,-9.6783201781,0.84602950215,-2.135334,1.408843,2.748001,0.0010999999999996568,0.0004999999999997229,-1.2499999999970868e-05,0.0007247141880826202,0.0002927523083191552,-0.0007765137969323321
1504282103.9,-1.0,-0.07463841315,0.14238275135,-0.15052227085,0.054645,-0.079071,0.087276,-1.34542334675,-9.676692274199999,0.8496285427,-2.13405,1.407815,2.745957,0.001100000000000101,0.000500000000000167,-1.2499999999970868e-05,0.000559125947793504,0.00025967853002639707,-0.0008487444379590148
1504282103.91,-1.0,-0.09735061454999999,0.036010018799999995,-0.11561059685,0.057866,-0.076965,0.086213,-1.35503386375,-9.674917270549999,0.8545220610500001,-2.133436,1.406705,2.744586,0.001100000000000101,0.0005999999999999339,-1.2499999999970868e-05,0.0005056793968787332,0.00021939267851878164,-0.0009424144766252418
1504282103.92,-1.0,-0.11245285555,-0.007060788,-0.07455995995,0.051511,-0.073711,0.081928,-1.36446786105,-9.6731422669,0.8595626791500001,-2.132954,1.405602,2.743368,0.001100000000000101,0.0005999999999999339,-5.0000000000105516e-05,0.0004791591338593193,0.00022888921905961368,-0.0009969499693401884
1504282103.93,-1.0,-0.12373050305,0.0171027976,0.005540757249999999,0.038794,-0.068269,0.073359,-1.37339191255,-9.6714162965,0.8647503969999999,-2.13273,1.404535,2.742454,0.0010999999999996568,0.0005999999999999339,-4.999999999988347e-05,0.0005037493127322268,0.00028397118419443146,-0.001024199015223326
1504282103.94,-1.0,-0.14401065524999998,0.05447594075,0.06273314005,0.027131,-0.063903,0.065862,-1.3819923445999998,-9.66973935935,0.8698106283999999,-2.132544,1.403505,2.741619,0.0011499999999999844,0.000700000000000145,-3.333333333332966e-05,0.00047846330828549277,0.0003374387005057322,-0.0010911849622547987
1504282103.95,-1.0,-0.1539447917,0.0649004097,0.09596787689999998,0.016558,-0.057413,0.057295,-1.3900141843,-9.66818990865,0.8742824607999999,-2.13225,1.402556,2.74071,0.0011499999999999844,0.000700000000000145,-3.333333333332966e-05,0.0004780920812994527,0.0003379611116136605,-0.001091017320099974
1504282103.96,-1.0,-0.12562318649999998,0.07881604605,0.06471408334999999,0.010197,-0.053097,0.056211,-1.3973887851,-9.666846397599999,0.8774107821499999,-2.131473,1.401738,2.739371,0.001100000000000101,0.0006999999999997009,-3.333333333332966e-05,0.00042607539508621173,0.00040645310494102915,-0.001087243929980275
1504282103.97,-1.0,-0.0891424485,0.050700380499999996,0.03076346105,0.005962,-0.047736,0.058331,-1.4042436334499997,-9.66565979295,0.8794799852999999,-2.130331,1.401023,2.737723,0.001200000000000312,0.000700000000000145,-5.0000000000105516e-05,0.0004304911441954662,0.0004328395073394109,-0.0010576225709840736
1504282103.98,-1.0,-0.055172212899999996,0.022574908299999998,-0.00548191735,0.006011,-0.040279,0.060454,-1.41067679585,-9.6646300947,0.8805587167999999,-2.128829,1.4004,2.735774,0.0011999999999998678,0.0007999999999999119,-4.999999999988347e-05,0.0004461867151657195,0.0005793795616972908,-0.0009145605850227057
1504282103.99,-1.0,-0.0182795956,0.02605626905,-0.013954862949999999,0.007093,-0.034966,0.065784,-1.4170413116999998,-9.66362000975,0.8814020886999999,-2.127236,1.399794,2.73381,0.0013000000000000789,0.0007999999999999119,-4.999999999988347e-05,0.0004357955316973694,0.0005338490929978068,-0.0008477345384976243
1504282104.0,-1.0,0.0282627653,0.018907221199999998,-0.042580474300000004,0.013496,-0.030763,0.072191,-1.4233371809999997,-9.6626099248,0.8823533337499999,-2.12573,1.399189,2.731966,0.0011999999999998678,0.000800000000000356,-5.0000000000105516e-05,0.0004209126288075016,0.0006020546173173269,-0.0007400124767934502
1504282104.01,-1.0,0.06124252924999999,-0.0167889848,-0.055407572499999995,0.010305,-0.025415,0.07858,-1.4296722768999999,-9.66161945315,0.88290250615,-2.124025,1.398601,2.729971,0.0011999999999998678,0.0007999999999999119,-9.999999999998899e-05,0.0003163544018927045,0.0006613504509986878,-0.0006653395743544399
1504282104.02,-1.0,0.06752859189999999,-0.0283804451,-0.07887488594999999,0.001831,-0.01363,0.084948,-1.4365565452,-9.66065840145,0.88227488055,-2.121562,1.398029,2.727321,0.0013000000000000789,0.0009000000000001229,-9.999999999998899e-05,0.00021816523904316654,0.000643544560406939,-0.0006459424229614541
1504282104.03,-1.0,0.07005870759999999,-0.05494665995,-0.054348454299999994,-0.009869,-0.005016,0.091316,-1.4440390191499999,-9.65967773645,0.8807940763999998,-2.118505,1.397448,2.724149,0.0011999999999998678,0.0008999999999996788,-0.00020000000000020002,0.0001796972218419679,0.0005895735935663726,-0.0005879163061673909
1504282104.04,-1.0,0.0704313603,-0.07151989845,-0.00018632635,-0.0333,0.006888,0.101927,-1.4524825447999998,-9.658667651499998,0.8779599545499999,-2.114485,1.396853,2.720091,0.001200000000000312,0.0009000000000001229,-9.999999999998899e-05,0.0001576423653391057,0.0004474491779842271,-0.0006637895451518938
1504282104.05,-1.0,0.10353861069999999,-0.06758743179999999,0.0650965427,-0.053526,0.019829,0.113609,-1.46165176255,-9.65765756655,0.8738803881499999,-2.109652,1.396258,2.715322,0.0011999999999998678,0.0009000000000001229,-0.00019999999999997797,0.0001529621281637361,0.0002777656426860009,-0.0007028017610346549
1504282104.06,-1.0,0.18115824544999998,-0.0024810824500000003,0.10113598144999998,-0.071655,0.028489,0.126367,-1.468643904,-9.656931874449999,0.87015386115,-2.105677,1.395832,2.71145,0.0011999999999998678,0.0009999999999998899,-9.999999999998899e-05,8.735506414780936e-05,0.00016621171726538542,-0.0007819271177395004
1504282104.07,-1.0,0.19484832885,-0.0038638200999999996,0.10898130144999998,-0.078068,0.03705,0.142352,-1.4823339874,-9.655539330149999,0.8623183477999999,-2.097675,1.395021,2.703667,0.001100000000000101,0.0009999999999998899,-0.00019999999999997797,-1.3944140347943446e-05,0.00010006302500298325,-0.00079095908433513
1504282104.08,-1.0,0.2436167993,0.0216138566,0.0911822317,-0.072777,0.038061,0.15303,-1.49338608195,-9.65438214545,0.8561695782499998,-2.091359,1.394347,2.697586,0.0011999999999998678,0.0009000000000001229,-0.00019999999999997797,-0.00020641319048175788,6.659200625080963e-05,-0.0008027325624190285
1504282104.09,-1.0,0.2692513824,0.044012245199999994,0.038687234249999994,-0.059989,0.040079,0.159449,-1.5048108292,-9.65314650755,0.8501581018,-2.085051,1.393627,2.691527,0.001200000000000312,0.001100000000000101,-0.00019999999999997797,-0.0004545138912510627,-9.347209649179788e-06,-0.0008861604638737974
1504282104.1,-1.0,0.2626024737,0.0584672473,-0.0224376152,-0.045046,0.044213,0.164801,-1.5170103017999998,-9.65173434995,0.8444015982499999,-2.078708,1.392817,2.685497,0.0011999999999998678,0.0009999999999998899,-0.00019999999999997797,-0.0006173602205141737,-3.759935813585358e-05,-0.0008560710975799024
1504282104.11,-1.0,0.24219483505,0.0612327226,-0.06706767934999999,-0.031194,0.044095,0.168024,-1.5298275933499998,-9.650155479299999,0.8393511735,-2.072606,1.391907,2.67972,0.0013000000000000789,0.0009999999999998899,-0.00029999999999996696,-0.0007006427664113524,-9.276911839029012e-05,-0.00087556413538592
1504282104.12,-1.0,0.23221166534999998,0.0489155702,-0.0853374683,-0.025832,0.048312,0.16909,-1.5430371509,-9.6484687355,0.8345655283,-2.066597,1.390942,2.67409,0.0011999999999998678,0.001100000000000101,-0.00029999999999996696,-0.0007419814835536442,-0.0001581713651217509,-0.0008654666968406222
1504282104.13,-1.0,0.24218502839999997,0.0461697082,-0.04182536225,-0.025843,0.050437,0.17442,-1.55659974785,-9.646625085299998,0.83071151485,-2.061016,1.389893,2.668899,0.0011999999999998678,0.0009999999999998899,-0.000300000000000189,-0.0008434350084214337,-0.0002388703580620266,-0.0008835788629981689
1504282104.14,-1.0,0.2793130053,0.07328509544999999,0.026389695149999996,-0.033288,0.05795,0.181862,-1.570240798,-9.644702981899998,0.827288994,-2.055699,1.38881,2.664042,0.001100000000000101,0.001100000000000101,-0.00039999999999995595,-0.0010185105499460612,-0.0003225491464651231,-0.0008620529039471414
1504282104.15,-1.0,0.31296942809999995,0.1109720514,0.07176506469999999,-0.039658,0.064391,0.186105,-1.5839897212999998,-9.6427416519,0.8239645396499999,-2.05046,1.387706,2.659284,0.001100000000000101,0.001100000000000101,-0.00039999999999995595,-0.0011888235441270822,-0.0004630934575347023,-0.0008690974776437432
1504282104.16,-1.0,0.34292874385,0.1498063854,0.08813236355,-0.036452,0.067556,0.19037,-1.5977876778499998,-9.640721481999998,0.8209146715,-2.045408,1.386581,2.654749,0.001100000000000101,0.0009999999999998899,-0.0004999999999999449,-0.0013666030722081501,-0.000561889780544389,-0.0008340102240735892
1504282104.17,-1.0,0.363630582,0.20232099615,0.0648023432,-0.025764,0.071726,0.193579,-1.6117621541,-9.63861305225,0.8183649424999999,-2.040621,1.38541,2.650524,0.0009999999999998899,0.001100000000000101,-0.000500000000000167,-0.001481324280865337,-0.0005654904514416081,-0.0006738671513577543
1504282104.18,-1.0,0.3873822883,0.23438874164999998,0.0126701918,-0.008737,0.069449,0.198944,-1.6257856635999999,-9.63641636265,0.81647225905,-2.036205,1.384199,2.646685,0.0009999999999998899,0.001100000000000101,-0.0004999999999999449,-0.0015142766647084915,-0.0006622602274317657,-0.0008814341918460533
1504282104.19,-1.0,0.4040535933,0.2644068973,-0.03803999535,0.010452,0.068223,0.200042,-1.63976013985,-9.6341117999,0.81570734035,-2.032406,1.382937,2.643467,0.0009000000000001229,0.0009999999999998899,-0.0005999999999999339,-0.0014925583281355514,-0.0007118920371298465,-0.0008643385587498997
1504282104.2,-1.0,0.43741581659999995,0.2942779532,-0.05727083599999999,0.03392,0.069093,0.20221,-1.6535286764500001,-9.63166994405,0.81682529845,-2.029627,1.381606,2.641296,0.0007999999999999119,0.001100000000000101,-0.0004999999999999449,-0.0015245087755959563,-0.0007274211831944655,-0.0007663946297832291
1504282104.21,-1.0,0.45399886175,0.29163996435,-0.08613180694999999,0.062692,0.06672,0.20546,-1.66725798645,-9.62902214855,0.82010071955,-2.027932,1.380177,2.640205,0.000700000000000145,0.0011999999999998678,-0.000500000000000167,-0.0016679847560485683,-0.0006561917821901186,-0.0005566083466678196
1504282104.22,-1.0,0.46692402645,0.26259266704999995,-0.1108935982,0.08937,0.067566,0.205499,-1.68092845655,-9.6261684134,0.8257199299999999,-2.0274,1.378645,2.640306,0.0005999999999999339,0.001100000000000101,-0.0004999999999999449,-0.0017984566723365791,-0.0005075832630858645,-0.00023119628880974297
1504282104.23,-1.0,0.48439947675,0.1784025768,-0.14216700505,0.113884,0.065231,0.206606,-1.69406936755,-9.623226418399998,0.8330454975499999,-2.027813,1.377084,2.641369,0.000500000000000167,0.0011999999999998678,-0.00039999999999995595,-0.0018058855096532156,-0.000395233466188305,7.912171607227236e-05
1504282104.24,-1.0,0.4751321925,0.024722564649999997,-0.15399382495,0.12986,0.05871,0.201301,-1.7066512994999998,-9.620235390149999,0.84187148255,-2.029062,1.375505,2.643232,0.0002999999999997449,0.0011999999999998678,-0.00029999999999996696,-0.001570710663102215,-0.00036880307465003703,0.0003396660736254553
1504282104.25,-1.0,0.42673637475,-0.17957937479999997,-0.12606448574999998,0.136322,0.061861,0.193828,-1.7188605787499998,-9.617185522,0.8518056190000001,-2.03089,1.37391,2.645683,0.000300000000000189,0.0013000000000000789,-0.00039999999999995595,-0.00119329299964277,-0.00043533429499120757,0.0004983695716999081
1504282104.26,-1.0,0.38656833635,-0.34830278805,-0.0661948875,0.136417,0.067198,0.183139,-1.7306089454499998,-9.6141258472,0.8625635140499999,-2.033178,1.372318,2.648653,0.00019999999999997797,0.0013000000000000789,-0.00019999999999997797,-0.0007559514566706227,-0.000406586050255342,0.0005561547173211778
1504282104.27,-1.0,0.34045746804999993,-0.49771690744999997,0.010002783,0.126906,0.074742,0.176699,-1.7421121459,-9.6110465591,0.8736058019499999,-2.035613,1.370734,2.651825,-3.333333333355171e-05,0.0013000000000000789,-0.00020000000000020002,-0.00037791872999282106,-0.00031269408764478257,0.0006763083218492838
1504282104.28,-1.0,0.3454686662,-0.5949694555,0.0245754649,0.11099,0.082338,0.171321,-1.7594012698500001,-9.6070258326,0.8831280590999999,-2.036002,1.368681,2.653041,-3.333333333310762e-05,0.0013999999999998458,-9.999999999998899e-05,-0.00019805799961103432,-0.00012356121454315527,0.0008012921019653341
1504282104.29,-1.0,0.3675728553,-0.636059319,0.0506415406,0.095107,0.094196,0.165935,-1.7762589012,-9.60319143245,0.8910224123499999,-2.035748,1.366744,2.653706,-3.333333333355171e-05,0.0015000000000000568,-9.999999999998899e-05,-0.00023247535440096279,0.00015234914282458156,0.0008865227155897548
1504282104.3,-1.0,0.40184709705,-0.6208982380999999,0.07586424439999999,0.079164,0.101787,0.165894,-1.7930282727,-9.599504132049999,0.8972300218,-2.034763,1.364893,2.653707,-0.00019999999999997797,0.0015999999999998238,-9.999999999998899e-05,-0.0005793833167049289,0.0005207761803049937,0.001169324603481292
1504282104.31,-1.0,0.44940934954999995,-0.58942869825,0.05642746409999999,0.068513,0.106133,0.169062,-1.8013835384999999,-9.597444735549999,0.9024471595999999,-2.035223,1.363871,2.655156,-0.0002999999999997449,0.0017000000000000348,-3.333333333332966e-05,-0.0010485925941918772,0.0009276053861695388,0.0014662095610797898
1504282104.32,-1.0,0.4777211481,-0.5857512045,0.007423634049999999,0.062209,0.118971,0.170096,-1.8187707289499997,-9.59379666175,0.9064188528499999,-2.033136,1.362065,2.654213,-0.000300000000000189,0.0018000000000002458,-3.333333333332966e-05,-0.001394799757528986,0.0012988905572151044,0.0017418662387354011
1504282104.33,-1.0,0.5023750661999999,-0.5795730149999999,-0.0328130509,0.061143,0.121107,0.173293,-1.836393279,-9.590099554699998,0.90998847345,-2.03086,1.360254,2.653114,-0.00039999999999995595,0.0019000000000000128,-3.333333333332966e-05,-0.0016532746813646693,0.0016699696500723782,0.002001155885692385
1504282104.34,-1.0,0.5278429362499999,-0.5919097807,-0.0646846634,0.063312,0.12748,0.176488,-1.8543786751,-9.5862945745,0.91357770735,-2.028556,1.358407,2.652047,-0.00039999999999995595,0.0019999999999997797,-9.999999999998899e-05,-0.0018507927449207262,0.0019622014344120586,0.0021928384009822777
1504282104.35,-1.0,0.5482113483,-0.5501922915999999,-0.0780805473,0.066547,0.13597,0.182873,-1.8621847685,-9.58461763735,0.91530367775,-2.027639,1.357597,2.652414,-0.0004999999999997229,0.0020999999999999908,-0.00014999999999987246,-0.0019976946115931593,0.00229478461692878,0.0024140334902044147
1504282104.36,-1.0,0.62730198055,-0.46882651655,-0.09193734375,0.068656,0.140203,0.19461,-1.88186671505,-9.5803909712,0.91928517765,-2.025197,1.35557,2.651341,-0.000500000000000167,0.0020999999999999908,-0.0001500000000000945,-0.0019920809047901944,0.002299593977678649,0.0024093621643744845
1504282104.37,-1.0,0.72915384745,-0.31837289225,-0.1276041298,0.074997,0.143323,0.209559,-1.9029117859499998,-9.57581126565,0.9236785568499999,-2.022698,1.353394,2.650239,-0.000600000000000378,0.0022999999999999687,-0.00019999999999997797,-0.002114043854765102,0.0026658927238227825,0.0027632559198736972
1504282104.38,-1.0,0.8199143931999999,-0.12216143904999999,-0.1681840475,0.089899,0.149576,0.226652,-1.9255847607499998,-9.570770647549999,0.9289447279,-2.020282,1.351022,2.649282,-0.0008400000000001739,0.0025200000000000777,-0.00025999999999992696,-0.0015949142346831646,0.002635336183987036,0.0013876536150753127
1504282104.39,-1.0,0.9057716139499999,0.0450713634,-0.18856226619999997,0.098382,0.152686,0.24159,-1.9333418208999997,-9.56890738405,0.9319651760999998,-2.019981,1.350155,2.650442,-0.0008399999999997299,0.0025200000000000777,-0.000260000000000149,-0.0015912401784197172,0.002637564873985143,0.001383435127836119
1504282104.4,-1.0,0.96268941055,0.1577889985,-0.2210615043,0.101555,0.155846,0.252264,-1.9586822044999999,-9.5631116539,0.9385748582,-2.017654,1.347468,2.649645,-0.0008400000000001739,0.0025199999999996336,-0.00025999999999992696,-0.0015875762828492235,0.002639766835111468,0.0013792246578112621
1504282104.41,-1.0,0.98730410205,0.22787712605,-0.21110775455,0.105793,0.156869,0.259741,-1.9847973134499999,-9.55704133755,0.94552777305,-2.015375,1.34469,2.648901,-0.0008399999999997299,0.0025200000000000777,-0.000260000000000149,-0.0015839225748477403,0.0026419420842107577,0.0013750222206334595
1504282104.42,-1.0,0.9980227705,0.21860984179999998,-0.1666149835,0.110036,0.155765,0.262953,-2.01137333495,-9.5507552749,0.9528141139999999,-2.013193,1.341849,2.648272,-0.0008400000000001739,0.0025200000000000777,-0.00025999999999992696,-0.0015802790806724865,0.002644090638890484,0.0013708278312438704
1504282104.43,-1.0,0.9785369569499999,0.18710107534999998,-0.12832001524999997,0.111112,0.155757,0.260804,-2.02031699975,-9.548283999099999,0.9586588773999999,-2.013846,1.340741,2.650406,-0.0010999999999996568,0.0028000000000001357,-0.00019999999999997797,-0.0009711230057254383,0.002583309763794839,0.00030783845167359214
1504282104.44,-1.0,0.9865293767,0.21027418929999997,-0.12468174809999999,0.119689,0.155695,0.25228,-2.04610848925,-9.54197832315,0.9666905237499999,-2.012165,1.337938,2.65027,-0.001100000000000101,0.0028999999999999027,-0.00039999999999995595,-0.0007873191302989468,0.0024935165796637904,0.00019111087351930678
1504282104.45,-1.0,0.94491976075,0.2321626321,-0.16060350704999998,0.127196,0.154578,0.242688,-2.07093892705,-9.5357314871,0.9753890222999999,-2.010965,1.335195,2.650632,-0.0012499999999997513,0.003049999999999997,-0.00039999999999995595,-0.0006918665951074487,0.0023181340956599517,0.0002888080311814756
1504282104.46,-1.0,0.9272285641499999,0.20177182375,-0.20222292965,0.142133,0.149135,0.234184,-2.0949946395,-9.52942581115,0.9855781316499999,-2.010521,1.332456,2.651711,-0.0012500000000001954,0.003049999999999997,-0.00039999999999995595,-0.0006912108368184455,0.0023183202869572206,0.0002872097831803089
1504282104.47,-1.0,0.9624736642499999,0.20043811934999997,-0.24258710104999998,0.14855,0.146957,0.226711,-2.1004667502,-9.52750370775,0.9925702730999999,-2.012244,1.331625,2.654899,-0.00140000000000029,0.0033000000000003027,-0.000500000000000167,-0.0008393954172263296,0.0021247385611666836,0.0006468756171594814
1504282104.48,-1.0,1.0062897764499998,0.16990021125,-0.25155037915,0.144319,0.147,0.219232,-2.1230318518499995,-9.5213549382,1.0034752678999999,-2.012335,1.328993,2.656508,-0.0015999999999998238,0.0032999999999998586,-0.0005999999999999339,-0.0011203015327934107,0.0019995250250366414,0.0008927481319181974
1504282104.49,-1.0,1.04704621385,0.14863939404999998,-0.22394465939999997,0.135789,0.144944,0.214951,-2.1450870077,-9.5153532684,1.0134388242999999,-2.012158,1.326451,2.657835,-0.0017000000000000348,0.0034999999999998366,-0.0005999999999999339,-0.0014878123648580655,0.0017120553282548023,0.0013359134550633422
1504282104.5,-1.0,1.0634723525999998,0.09517353825,-0.16040737405,0.126248,0.14929,0.20959,-2.16674989755,-9.50947908505,1.0224707489499998,-2.011705,1.323986,2.658892,-0.0019999999999997797,0.0036000000000000476,-0.0008000000000001339,-0.001622018772170275,0.0016095222030649836,0.0013970993826074585
1504282104.51,-1.0,1.0649629634,0.07860029974999999,-0.10736320419999999,0.113452,0.150459,0.209546,-2.16688719065,-9.5087631996,1.02882545815,-2.014077,1.323687,2.662679,-0.002100000000000435,0.0037000000000002586,-0.0006999999999999229,-0.001690759161743216,0.0013869847725556106,0.0016180175274822517
1504282104.52,-1.0,1.11298612845,0.07667819634999999,-0.09684066875,0.102781,0.151611,0.21166,-2.1884324007,-9.503094955899998,1.03551359345,-2.012756,1.321337,2.662876,-0.0022999999999999687,0.0038000000000000256,-0.0007999999999999119,-0.0016680030299141002,0.0012636254087521337,0.0017859475996515606
1504282104.53,-1.0,1.179347729,0.05451516734999999,-0.12504459415,0.100613,0.147366,0.211664,-2.2100462573,-9.49739729225,1.0418781093,-2.011326,1.318994,2.662929,-0.0024999999999999467,0.0038999999999997925,-0.0008000000000001339,-0.0016102574866279085,0.0011790246404066451,0.001881063335822164
1504282104.54,-1.0,1.22646868225,0.04974913545,-0.161613592,0.106989,0.144117,0.211681,-2.23172876045,-9.491581948799999,1.0486643111,-2.010067,1.316624,2.663128,-0.0025999999999997137,0.0040000000000000036,-0.0008999999999999009,-0.0014524485635134532,0.0010895754235333843,0.0019388686465589
1504282104.55,-1.0,1.2433851535,0.075707338,-0.21599146624999999,0.116563,0.141903,0.212744,-2.22770803395,-9.49210170125,1.05245948465,-2.012156,1.316837,2.666567,-0.0027000000000003688,0.0041999999999999815,-0.0009000000000001229,-0.0012614624018396636,0.0010974097568077212,0.0019013332665177574
1504282104.56,-1.0,1.2406392915,0.09278071565,-0.268898343,0.128281,0.139674,0.211678,-2.22390305375,-9.49257242045,1.0562938847999999,-2.014221,1.317026,2.669986,-0.0027999999999996916,0.0041999999999999815,-0.0008999999999999009,-0.001076034136499704,0.0010185496246777337,0.001852105959585515
1504282104.57,-1.0,1.23045018215,0.08842656305,-0.32438436870000004,0.13785,0.134268,0.208478,-2.2203040132,-9.4929941064,1.06001060515,-2.016214,1.3172,2.673313,-0.0030000000000001137,0.0043999999999999595,-0.0009000000000001229,-0.001034129412958107,0.0008676238314513363,0.0018490428259185787
1504282104.58,-1.0,1.2221243362999998,0.08243469989999999,-0.34436051474999996,0.145305,0.134203,0.209536,-2.21705801205,-9.493298112549999,1.0641195915,-2.018291,1.317321,2.676727,-0.0030999999999998806,0.0045000000000001705,-0.0008999999999999009,-0.001121828560173066,0.0006369644868164936,0.0020274777562432345
1504282104.59,-1.0,1.2162011197,0.09460475254999999,-0.31905935775,0.149552,0.133099,0.21059,-2.21429253675,-9.493337339149999,1.0694936357,-2.020747,1.317339,2.680497,-0.0033000000000003027,0.0046999999999999265,-0.0008999999999999009,-0.0011877437559630888,0.0005630812385339912,0.0016900848220021691
1504282104.6,-1.0,1.228577112,0.11046210559999999,-0.30091705525,0.153795,0.134122,0.21591,-2.21199778065,-9.49318043275,1.075593372,-2.023386,1.317276,2.684448,-0.0033999999999996255,0.0047999999999999154,-0.001000000000000112,-0.0011039340758467464,0.00043847855965006843,0.0014530506156577028
1504282104.61,-1.0,1.2515540929499998,0.10964815365,-0.32068726165,0.160152,0.131932,0.220172,-2.20984031765,-9.4929744931,1.08189904795,-2.026075,1.317189,2.688455,-0.0035000000000002807,0.0049000000000001265,-0.0008999999999999009,-0.0009146012004210835,0.00033531945271914054,0.0011800579466628713
1504282104.62,-1.0,1.275452899,0.12637829855,-0.3509407769,0.163344,0.135094,0.225486,-2.2081437671999997,-9.492641067,1.0882047239,-2.028678,1.317056,2.692392,-0.0036000000000000476,0.004999999999999893,-0.001000000000000112,-0.0006510047609227243,0.00024390929665996097,0.0009058346914534443
1504282104.63,-1.0,1.28248426705,0.16062312035,-0.37076001654999996,0.168647,0.133979,0.228676,-2.2069473558999997,-9.4921703478,1.09470653285,-2.031259,1.316866,2.696314,-0.0038000000000000256,0.0051000000000001044,-0.0009999999999998899,-0.0005477985953565856,0.0001422241677435654,0.0006735583833459291
1504282104.64,-1.0,1.27563922535,0.15942670905,-0.38166501134999997,0.166526,0.13719,0.229712,-2.2063883768499997,-9.491581948799999,1.1009729822,-2.033638,1.316624,2.700056,-0.0038999999999997925,0.00529999999999986,-0.0009000000000001229,-0.0006389223663003651,0.00013887462928452443,0.0005000392258084352
1504282104.65,-1.0,1.2591150201,0.08956413445,-0.35912932965,0.152639,0.1373,0.2318,-2.20617263055,-9.490993549799999,1.10641567295,-2.035652,1.316388,2.703431,-0.004100000000000215,0.005400000000000071,-0.0008999999999999009,-0.00084576187731078,0.00012804737878102657,0.0004351381818515909
1504282104.66,-1.0,1.22440928575,-0.07902198569999999,-0.3048691352,0.130259,0.138552,0.227467,-2.20574113795,-9.490601283799998,1.1106619523999999,-2.037268,1.316228,2.706396,-0.0042999999999997485,0.005600000000000049,-0.0008000000000001339,-0.0011279478714896207,0.00012964917617330762,0.0007677625113061692
1504282104.67,-1.0,1.1474859231499999,-0.3071638913,-0.2193551472,0.112128,0.13551,0.219948,-2.2055744249,-9.4902090178,1.1143394461499998,-2.038625,1.31607,2.709046,-0.0043000000000001926,0.005600000000000049,-0.0007999999999999119,-0.0011278455074532623,0.0001305138563485464,0.0007676140537090648
1504282104.68,-1.0,1.0786530468,-0.47339641545,-0.1220339526,0.070699,0.153974,0.212352,-2.2060255308,-9.489914818299999,1.1159183168,-2.039115,1.315952,2.710931,-0.004699999999999704,0.005800000000000027,-0.0005999999999999339,-0.0010541563628692074,0.00022840270008761543,0.0011452516646217603
1504282104.69,-1.0,1.05477385405,-0.6363437118499999,-0.0197113665,0.034404,0.146821,0.20483,-2.2273353812499996,-9.484844780249999,1.11671265545,-2.035536,1.313908,2.708766,-0.0048000000000003595,0.005899999999999794,-0.000600000000000156,-0.0006093337893908757,0.00023711860662656292,0.001529684371123996
1504282104.7,-1.0,1.0419663691499998,-0.8035470943499999,0.023447700149999997,0.029048,0.141542,0.200561,-2.2480470260499996,-9.480000295149999,1.1163498094,-2.031708,1.31197,2.706271,-0.00509999999999966,0.005900000000000016,-0.00039999999999995595,0.00013096436377346699,0.0001370518879342253,0.0019078403347591033
1504282104.71,-1.0,1.1174089275999999,-0.84414662535,-0.015396440499999999,0.042915,0.137172,0.194188,-2.2681212385999996,-9.47515581005,1.1168793685,-2.028365,1.310047,2.70425,-0.005300000000000082,0.006000000000000005,-0.00019999999999997797,0.0009625684287419833,1.4570848039241469e-06,0.0022082691316335223
1504282104.72,-1.0,1.1268233116,-0.7883369802,-0.09401635355,0.062037,0.119976,0.182488,-2.2633159801,-9.47635222135,1.1164871025,-2.029067,1.31052,2.706058,-0.00550000000000006,0.006099999999999994,-0.00019999999999997797,0.0016323086870213555,-0.00014109673613416085,0.002412227828359037
1504282104.73,-1.0,1.1317266366,-0.75388621875,-0.23687963075,0.082279,0.107037,0.167602,-2.2807914304,-9.4715959961,1.1212335211,-2.027701,1.308644,2.705782,-0.005799999999999805,0.006199999999999983,9.999999999998899e-05,0.0020699255711829068,-0.0002025919415891142,0.00248899250190715
1504282104.74,-1.0,1.1101716199,-0.7859833841999999,-0.3728096064,0.101479,0.093049,0.146312,-2.29635458395,-9.46703590385,1.12802952955,-2.027401,1.306853,2.706474,-0.005900000000000016,0.006400000000000183,0.00019999999999997797,0.0021759119942434957,-0.00018872610695663816,0.0025077235298580636
1504282104.75,-1.0,1.0415642964999998,-0.88690361935,-0.37436886375,0.110063,0.086605,0.126058,-2.30975046785,-9.462779817749999,1.1363161488,-2.027997,1.305196,2.708007,-0.006000000000000227,0.00649999999999995,0.00029999999999996696,0.0018149346393361299,-5.204145039905406e-05,0.002448422381181814
1504282104.76,-1.0,0.9556874624499999,-1.02215693615,-0.27896977255,0.105873,0.081336,0.100421,-2.2986885666499997,-9.4653393534,1.13744391355,-2.030293,1.306192,2.71115,-0.006199999999999761,0.006799999999999917,0.000500000000000167,0.0010766018367085461,0.00016340635023204264,0.0022252995858814684
1504282104.77,-1.0,0.9062325265,-1.2066690559,-0.19314197175,0.099503,0.073948,0.082277,-2.3077401046,-9.46219141875,1.14528923355,-2.031464,1.304966,2.713141,-0.006200000000000205,0.007000000000000117,0.0005999999999999339,5.6314305876492554e-05,0.00036021227560478764,0.0019601715218573457
1504282104.78,-1.0,0.8824514002499999,-1.38988669785,-0.13429226509999997,0.093171,0.068695,0.05986,-2.3147812793,-9.45958284985,1.1525755745,-2.032777,1.303958,2.715237,-0.006400000000000183,0.007199999999999873,0.0007999999999999119,-0.0008690550257708374,0.00038971918750685397,0.001809883468305462
1504282104.79,-1.0,0.8305055751999999,-1.60941836475,-0.0954187045,0.081536,0.066684,0.036361,-2.3195473111999996,-9.4576313265,1.1590479635,-2.034192,1.303201,2.717395,-0.006399999999999739,0.007300000000000084,0.0008000000000001339,-0.0018460150010404242,0.0008830591972248669,0.0016909100634582286
1504282104.8,-1.0,0.7809231527999999,-1.8228208754,-0.07695278254999999,0.065666,0.066843,0.009648,-2.32189110055,-9.4564153019,1.1642258747,-2.035572,1.302735,2.719514,-0.00649999999999995,0.007400000000000073,0.0009999999999998899,-0.0027084703288318135,0.0012688619247296362,0.0019282779013740647
1504282104.81,-1.0,0.7028131855499999,-2.0210328852,-0.05065134725,0.04236,0.067069,-0.023482,-2.3212928949,-9.45617013565,1.1674032292999998,-2.036768,1.30264,2.721438,-0.006400000000000183,0.00749999999999984,0.001100000000000101,-0.0035737071721528846,0.0017983801668133292,0.002403305472247319
1504282104.82,-1.0,0.5988234689499999,-2.253175904,-0.0142784824,0.022223,0.061944,-0.058733,-2.31726236175,-9.457013507549998,1.1685800273,-2.037872,1.302965,2.72322,-0.00649999999999995,0.007500000000000062,0.0011999999999998678,-0.004416939141050236,0.002397647714408757,0.0030334778623491987
1504282104.83,-1.0,0.49450032624999996,-2.5036083250499996,0.0286942579,-0.015881,0.072959,-0.102582,-2.30945626835,-9.4591611639,1.1666088906499998,-2.038552,1.303795,2.724626,-0.00649999999999995,0.007400000000000073,0.0012000000000000899,-0.005281500972564412,0.002896942637873101,0.0036048730328842593
1504282104.84,-1.0,0.3560402349,-2.80898740605,0.12988907924999998,-0.069074,0.070237,-0.137893,-2.2980413277499996,-9.46279943105,1.1596952024,-2.038152,1.305202,2.724949,-0.00649999999999995,0.007099999999999884,0.0014000000000000679,-0.0058668987181840215,0.0029362501601528646,0.003961540814525044
1504282104.85,-1.0,0.2383604349,-3.08382857895,0.26752541199999996,-0.125412,0.071808,-0.177487,-2.2830077333,-9.467928309,1.1474466965499999,-2.036526,1.307202,2.723997,-0.00649999999999995,0.006900000000000128,0.0013999999999998458,-0.005831894379736635,0.0023267318299873274,0.004035426885670601
1504282104.86,-1.0,0.1765981532,-3.2454617842499998,0.38668601615,-0.179564,0.081882,-0.213891,-2.2644927781,-9.474479151199999,1.1298829864,-2.03361,1.30978,2.721797,-0.00649999999999995,0.006399999999999961,0.0014000000000000679,-0.00485701092998525,0.0012740532097830215,0.0037071488781965645
1504282104.87,-1.0,0.16566373845,-3.1266444128499997,0.5324030285,-0.230633,0.081268,-0.243865,-2.2429377614,-9.482265631299999,1.1073276913999999,-2.029387,1.312876,2.718274,-0.006400000000000183,0.006000000000000005,0.0014000000000000679,-0.0030711680372315087,-0.00018933746656690786,0.0033218992830620353
1504282104.88,-1.0,0.24927523634999998,-2.6270250153,0.55810625815,-0.270011,0.081613,-0.263148,-2.2192547016499997,-9.490924903249999,1.0805751501999998,-2.023918,1.316359,2.713464,-0.006299999999999972,0.005600000000000049,0.0014999999999998348,-0.0011607423134212258,-0.0008641670655158418,0.00267017551544968
1504282104.89,-1.0,0.4200188195,-1.8899768146,0.43432672185,-0.279596,0.073185,-0.280228,-2.1938260582,-9.499996054499999,1.0524692913,-2.018107,1.320058,2.70823,-0.006099999999999994,0.005199999999999871,0.0014000000000000679,0.0008341541472016711,-0.0016600569012232835,0.0024665009249199565
1504282104.9,-1.0,0.5856825579499999,-1.16333346955,0.29540571795,-0.276421,0.059324,-0.297276,-2.1666027978,-9.5092731454,1.0246968585,-2.012572,1.3239,2.70317,-0.006000000000000227,0.0048000000000001375,0.0013000000000000789,0.0025150210922801897,-0.002097313656976185,0.0024831365062963906
1504282104.91,-1.0,0.6823957402499999,-0.5548700636499999,0.16903722605,-0.270043,0.044373,-0.316452,-2.1374770473,-9.518726756,0.99767953775,-2.007499,1.327879,2.698443,-0.005799999999999805,0.0045999999999999375,0.0013999999999998458,0.0035770741792027216,-0.0021699212317396466,0.002676273241517646
1504282104.92,-1.0,0.70848142925,-0.08924051499999999,0.057202189449999996,-0.250878,0.020803,-0.346282,-2.0867962801,-9.532456066,0.97365324525,-2.007352,1.333767,2.698361,-0.005700000000000038,0.0043999999999999595,0.0013000000000000789,0.0038627056926583414,-0.002097052761677487,0.0029912601646762127
1504282104.93,-1.0,0.6333526836,0.244381718,-0.06310579275,-0.209253,-0.004005,-0.388862,-2.05071761475,-9.54240981575,0.9525493344499999,-2.005639,1.338129,2.69663,-0.00550000000000006,0.0043999999999999595,0.0013000000000000789,0.0034157801721395042,-0.002089954483680989,0.003294498579166416
1504282104.94,-1.0,0.5222433391,0.563097843,-0.1374107798,-0.171929,-0.03623,-0.436773,-2.00994156405,-9.55272641155,0.93587802945,-2.006568,1.342739,2.697295,-0.00550000000000006,0.0043999999999999595,0.0011999999999998678,0.0025295157450269112,-0.0021858801968852593,0.003458833333643052
1504282104.95,-1.0,0.40108217834999993,0.7321252624,-0.20606713645,-0.136625,-0.058841,-0.492177,-1.96375224255,-9.5635823731,0.9229822846999999,-2.010165,1.347688,2.700448,-0.005399999999999849,0.0044000000000001815,0.0013000000000000789,0.0016004178316137985,-0.0024245857359681544,0.003456616987942085
1504282104.96,-1.0,0.24004717869999997,0.86128864955,-0.31391086649999994,-0.103508,-0.088892,-0.548639,-1.91179661085,-9.57498750705,0.9138032602999999,-2.016677,1.353005,2.706297,-0.005399999999999849,0.0043999999999999595,0.0013000000000000789,0.0010035432436963365,-0.002770259275147735,0.0032912525053665487
1504282104.97,-1.0,0.0822189536,0.84089081755,-0.2871779386,-0.065132,-0.125385,-0.600811,-1.85452577485,-9.586902586799999,0.9068307321499999,-2.02559,1.358703,2.714268,-0.005300000000000082,0.0042999999999999705,0.0011999999999998678,0.0009824678921690477,-0.0027537634020851076,0.003182055728877642
1504282104.98,-1.0,-0.017906942899999997,0.7459330256,-0.18584582414999998,-0.051254,-0.151029,-0.643438,-1.7924104537499999,-9.598945152999999,0.9043986829499999,-2.038096,1.364615,2.725568,-0.005300000000000082,0.0041999999999999815,0.0013000000000000789,0.0009251106434382539,-0.00336525876631133,0.0028607876565590606
1504282104.99,-1.0,-0.07009793419999999,0.6317247797,-0.04751321925,-0.054445,-0.169086,-0.674366,-1.7267549319999997,-9.61117404555,0.90224121995,-2.052288,1.370798,2.738363,-0.005199999999999871,0.0042999999999999705,0.0010999999999998789,0.0011932313274918283,-0.0035256058300268123,0.002711879965338171
1504282105.0,-1.0,-0.13134046345,0.5755130619,-0.02864522465,-0.060827,-0.183923,-0.702103,-1.6581672218999999,-9.6235010046,0.89953458455,-2.067852,1.377225,2.752399,-0.0051000000000001044,0.0041999999999999815,0.001000000000000112,0.0013402199732137632,-0.0035973617641769096,0.0026247724509748105
1504282105.01,-1.0,-0.16686014975,0.5743362638999999,-0.046758107199999996,-0.060797,-0.193491,-0.723434,-1.5877947014999998,-9.6356416373,0.89655336295,-2.08482,1.38377,2.76775,-0.0051000000000001044,0.0042999999999999705,0.0009999999999998899,0.0014000032026166842,-0.0035600540344931098,0.0025940501956019935
1504282105.02,-1.0,-0.21708000439999997,0.6114838541,-0.0452282698,-0.053376,-0.207392,-0.736206,-1.5152745247500001,-9.647507683799999,0.8944253198999998,-2.104032,1.390394,2.785206,-0.004999999999999893,0.0041999999999999815,0.0008000000000001339,0.0015857763541122782,-0.0034436855823924972,0.002713573816261472
1504282105.03,-1.0,-0.29748472775,0.64107051715,-0.0629390797,-0.050248,-0.224454,-0.748979,-1.44131277045,-9.6589814643,0.8928268359499999,-2.1254,1.397037,2.804675,-0.0049000000000001265,0.0041999999999999815,0.0007999999999999119,0.0019096276448893335,-0.003310588844311013,0.0029536478597202986
1504282105.04,-1.0,-0.33631906175,0.65785950195,-0.17041015704999998,-0.037595,-0.245865,-0.753189,-1.366262478,-9.66993549235,0.8922580502499999,-2.149323,1.403621,2.826513,-0.004899999999999682,0.004200000000000204,0.0005999999999999339,0.0022166350892915965,-0.003295151199020241,0.003274551227341327
1504282105.05,-1.0,-0.4446531243,0.6892505886,-0.23940974645,-0.03761,-0.24906,-0.755317,-1.2915946448999998,-9.68023247485,0.8918265576499999,-2.175107,1.410053,2.850145,-0.0048000000000003595,0.0041999999999999815,0.000600000000000156,0.0024209033971478444,-0.0033859760769392455,0.0035808033270298134
1504282105.06,-1.0,-0.5683149808,0.7022345932,-0.15619051455,-0.044051,-0.25327,-0.754254,-1.21611285985,-9.690068544799999,0.8910616389499999,-2.203144,1.41645,2.875951,-0.0047999999999999154,0.0041999999999999815,0.0005999999999999339,0.0024508003751844143,-0.0033596463171021718,0.00393116390440551
1504282105.07,-1.0,-0.5424058115,0.68549464165,-0.10571568699999999,-0.063378,-0.260584,-0.741466,-1.14162154645,-9.699365249,0.88847268335,-2.232138,1.422743,2.902674,-0.004699999999999704,0.0040999999999999925,0.0004999999999999449,0.0024200345613771823,-0.00259898206770548,0.004293758305343842
1504282105.08,-1.0,-0.5872025887,0.56603003135,-0.0371083636,-0.080624,-0.273244,-0.726529,-1.06809128475,-9.70814220075,0.8840498842,-2.262198,1.428938,2.930315,-0.0046000000000003816,0.0041999999999999815,0.000600000000000156,0.0018996615506208236,-0.0028066545567280166,0.00474588303691359
1504282105.09,-1.0,-0.5427686575499999,0.5640588946999999,0.10519593455,-0.103221,-0.280545,-0.69987,-0.9978952840499999,-9.7161934604,0.87762652845,-2.292154,1.434866,2.957765,-0.0045999999999999375,0.0040999999999999925,0.00039999999999995595,0.0014118911613048013,-0.0025794111370902595,0.005168317027388958
1504282105.1,-1.0,-0.5442984949499999,0.50618985305,0.29454273275,-0.132109,-0.276069,-0.676445,-0.9290427943999999,-9.72387206735,0.8681336912500001,-2.322321,1.440771,2.985386,-0.0045999999999999375,0.0041999999999999815,0.00039999999999995595,0.0007767562482057233,-0.0024493393082636317,0.005466315761518792
1504282105.11,-1.0,-0.53145178345,0.49195059725,0.33481864429999997,-0.155559,-0.254595,-0.646636,-0.8631715263499999,-9.731021115199999,0.8558459587999999,-2.351933,1.446526,3.012616,-0.0045999999999999375,0.0041999999999999815,0.00039999999999995595,0.00024208213091481134,-0.002322475782148503,0.0056043038856155025
1504282105.12,-1.0,-0.5553211695499999,0.4028179554,0.2226697949,-0.165224,-0.247081,-0.622116,-0.79980095405,-9.73766021725,0.84185186925,-2.381806,1.452108,3.04023,-0.0045999999999999375,0.0041999999999999815,0.00019999999999997797,-0.00015905979175867557,-0.0021940044477715137,0.00557582798541123
1504282105.13,-1.0,-0.58552565155,0.25061874739999995,0.0537992819,-0.158955,-0.24716,-0.595415,-0.7443051216999998,-9.7431813612,0.82876979815,-2.409836,1.456961,3.066007,-0.0045000000000001705,0.0042999999999999705,0.00019999999999997797,-0.0004298145209769011,-0.002069469424490711,0.005507979931696383
1504282105.14,-1.0,-0.7398332892999999,0.11537523724999998,0.006021283099999999,-0.157937,-0.238668,-0.571945,-0.6860634273499999,-9.748594632,0.8151973945500001,-2.441997,1.461934,3.095938,-0.0043999999999999595,0.0042999999999999705,9.999999999998899e-05,-0.0005274713041805157,-0.0019623954563139367,0.005383800919131931
1504282105.15,-1.0,-0.8759888178999999,0.004059953099999999,0.034950900599999994,-0.161153,-0.225879,-0.548491,-0.6301164891000001,-9.75354699025,0.8010758185499999,-2.475084,1.466679,3.126913,-0.0014666666666665051,0.0014666666666667272,-3.333333333332966e-05,-0.00018383152805689917,-0.0006243572676734033,0.0017241631833680993
1504282105.16,-1.0,-0.8928366426,0.05810440124999999,0.020662611549999998,-0.16438,-0.21522,-0.5261,-0.5764545003,-9.75805804925,0.7863364236,-2.509003,1.471209,-3.124358,-0.0014666666666669492,0.0014666666666667272,-3.333333333332966e-05,-0.00018491133815223826,-0.000624040761623812,0.001724308390214313
1504282105.17,-1.0,-0.9239335297499999,0.1515519691,0.06667541335,-0.155817,-0.199326,-0.505811,-0.5485055477999999,-9.76068623145,0.7736858451,-2.52489,1.473936,-3.110269,-0.0014666666666665051,0.0014666666666667272,-3.333333333332966e-05,-0.0001859904828023229,-0.0006237213177522349,0.0017244519596425478
1504282105.18,-1.0,-0.9637387221,0.35322572635,0.11901350439999998,-0.147348,-0.193027,-0.482324,-0.49942326454999997,-9.764383338499998,0.7601036348499999,-2.560284,1.47792,-3.076666,-0.0043000000000001926,0.004466666666666619,-0.00019999999999997797,-0.0006155853370888309,-0.0018669481785711373,0.004643236798120398
1504282105.19,-1.0,-0.9235412637499999,0.5209880879,0.14021548169999998,-0.141043,-0.193099,-0.4631,-0.45207675835,-9.76768817955,0.74713924355,-2.597445,1.48163,-3.041286,-0.0042999999999997485,0.004466666666666619,-0.00019999999999997797,-0.0006242860663687733,-0.0018640762450612414,0.004644648781878202
1504282105.2,-1.0,-0.9214524473,0.6828958794,0.1101482928,-0.145382,-0.192014,-0.447098,-0.40658370899999996,-9.77068901445,0.7339492993,-2.635715,1.485133,-3.004793,-0.0043000000000001926,0.004466666666666619,-0.00019999999999997797,-0.0006329710386234755,-0.0018611396914398615,0.004646032373205489
1504282105.21,-1.0,-0.96720046955,0.7879741341500001,0.20594945664999997,-0.155004,-0.187683,-0.435365,-0.37923296214999996,-9.77251305135,0.7241916825499999,-2.659191,1.487339,-2.983029,-0.008399999999999963,0.009300000000000086,-0.0006999999999999229,-0.001144877018127488,-0.003688209214707916,0.007383370114014243
1504282105.22,-1.0,-0.9935411314499999,0.8847559629999999,0.32200135275,-0.163544,-0.176976,-0.417253,-0.33673094104999995,-9.775180460149999,0.70914828145,-2.698275,1.490659,-2.945597,-0.008199999999999985,0.009600000000000053,-0.0009000000000001229,-0.0010347061618456443,-0.003505356305949281,0.004911380757076422
1504282105.23,-1.0,-1.04910561035,0.9643075078,0.41809671609999993,-0.174248,-0.172639,-0.403403,-0.29568030415,-9.77767134925,0.69296730895,-2.738289,1.493894,-2.907198,-0.00395000000000012,0.0050000000000001155,-0.0005499999999998284,0.00036149374703398074,-0.0017453336629702498,0.0008747775659453394
1504282105.24,-1.0,-1.0672479128499999,0.9722999275499999,0.41509588119999996,-0.17852,-0.165158,-0.390615,-0.25600259825,-9.779966105349999,0.67606064435,-2.779613,1.497014,-2.86743,-0.003949999999999676,0.004999999999999893,-0.0005500000000000504,0.000359989783203174,-0.0017456403744555704,0.0008742048245241607
1504282105.25,-1.0,-1.0603440312499999,1.00066075935,0.331857036,-0.169998,-0.157784,-0.374581,-0.24015505185,-9.780946770349999,0.6677151852,-2.796332,1.498375,-2.852147,-0.0038000000000000256,0.00529999999999986,-0.000500000000000167,0.000913943346171564,-0.0014837925723989454,-0.0002151796208126333
1504282105.26,-1.0,-1.08996011425,0.97165268865,0.24126320329999998,-0.149799,-0.151582,-0.350007,-0.20425290619999997,-9.782761000599999,0.65281888385,-2.83836,1.500988,-2.811543,-0.0037000000000002586,0.00550000000000006,-0.0006999999999999229,0.0009752755837681981,-0.0011232945189356691,-0.0007692232016077716
1504282105.27,-1.0,-1.12000768985,0.97018169115,0.16040737405,-0.135946,-0.135742,-0.321191,-0.1710672026,-9.784290838,0.63940338665,-2.880177,1.50325,-2.771031,-0.0036000000000000476,0.005600000000000049,-0.0007999999999999119,0.0007880590633613238,-0.0006017256669430537,-0.0011409858654137794
1504282105.28,-1.0,-1.1474565032,0.9500486387,0.08354285135,-0.11889,-0.120992,-0.294503,-0.1407646541,-9.785546089199999,0.62738043375,-2.920874,1.505183,-2.731473,-0.0017499999999999183,0.0028999999999999027,-0.000400000000000178,0.00021237207709634554,-5.909505979007079e-05,-0.0007077531763550748
1504282105.29,-1.0,-1.2047665658,0.9194322774,-0.03805960865,-0.105134,-0.117936,-0.266698,-0.1506497573,-9.78606584165,0.61700499805,-2.902111,1.505986,-2.751222,-0.0017499999999999183,0.0029000000000001247,-0.00039999999999995595,0.0002124155098455205,-5.8945181632186205e-05,-0.0007077711145790921
1504282105.3,-1.0,-1.09294133585,0.84371513275,-0.043247326499999995,-0.084924,-0.111732,-0.244258,-0.12555453995,-9.786948440149999,0.6084241792999999,-2.938086,1.507404,-2.716319,-0.0036000000000000476,0.006099999999999994,-0.0009999999999998899,-0.00015746073882838552,0.0003401851514897025,-0.0015776457064936578
1504282105.31,-1.0,-1.08758690495,0.8023604897,0.11254111539999999,-0.06892,-0.099098,-0.223972,-0.10262659225,-9.787644712299999,0.60153010435,-2.972605,1.508531,-2.682763,-0.0036000000000000476,0.006099999999999994,-0.001100000000000101,-0.0006951256982863363,0.0005208536798435581,-0.0015186740117547615
1504282105.32,-1.0,-1.10037477655,0.83559522655,0.2602292644,-0.071045,-0.082057,-0.198388,-0.0820620472,-9.78826253125,0.59464583605,-3.004463,1.509546,-2.651699,-0.007399999999999629,0.012599999999999945,-0.0026999999999999247,-0.0033064060641945225,0.0012799353545844827,-0.0015589586083006868
1504282105.33,-1.0,-1.0454281166,0.9518726755999999,0.27487059285,-0.076411,-0.069253,-0.169566,-0.1009496551,-9.78783103865,0.59886269555,-2.974599,1.508828,-2.682119,-0.003850000000000353,0.006550000000000056,-0.0015000000000000568,-0.002541486764663148,0.0008681832712675863,0.0008061062785088557
1504282105.34,-1.0,-1.0590691667499998,1.02594230305,0.26405385789999997,-0.075304,-0.046913,-0.141851,-0.08611219365,-9.788419437649999,0.59142925485,-2.997008,1.509814,-2.660192,-0.003849999999999909,0.006549999999999834,-0.0015000000000000568,-0.002540675516291113,0.000870221113656866,0.0008038604319245968
1504282105.35,-1.0,-1.0312575073499999,1.14866272115,0.29045335969999997,-0.059314,-0.030026,-0.111966,-0.07426576045,-9.78889015685,0.5852216454,-3.015372,1.510605,-2.642137,-0.004100000000000215,0.006650000000000045,-0.0015499999999999403,-0.0026889604536228795,0.0011352170472884726,0.0023967179066272104
1504282105.36,-1.0,-1.067355786,1.13124611075,0.2817646678,-0.052924,-0.016252,-0.087429,-0.06495924959999999,-9.7892726162,0.5798476012,-3.030034,1.511263,-2.627643,-0.0040999999999997705,0.006650000000000045,-0.0015499999999999403,-0.0026861258144208477,0.0011416565173287818,0.002393561610487649
1504282105.37,-1.0,-1.0458988357999999,1.0395245133,0.19429915644999998,-0.0433,0.004944,-0.059693,-0.05842802069999999,-9.789586429,0.5752875089499999,-3.040375,1.511797,-2.617283,-0.0043000000000001926,0.006750000000000034,-0.0015499999999999403,-0.001548577955873487,0.0011003404031133535,0.0032260603161125
1504282105.38,-1.0,-1.0310319544,0.94417445535,0.15705349975,-0.042228,0.024086,-0.028736,-0.0930454952,-9.789105903149999,0.5788669362,-2.98221,1.510975,-2.675139,-0.0042999999999997485,0.006750000000000034,-0.0015500000000001624,-0.0015449524301658357,0.0011053246406633743,0.0032242153454059563
1504282105.39,-1.0,-0.9854506451999999,0.8066558023999999,0.23483984754999998,-0.037969,0.043198,0.005427,-0.12815330219999999,-9.7883507911,0.5848686059999999,-2.925888,1.509703,-2.730988,-0.0043999999999999595,0.006699999999999928,-0.0013999999999998458,-0.00012887881870526918,0.0009009044411700806,0.0032174821424073574
1504282105.4,-1.0,-0.9519217088499999,0.65642773105,0.3078895834,-0.03155,0.063362,0.036388,-0.1640848678,-9.7873112862,0.59323367845,-2.871751,1.507991,-2.784457,-0.0045000000000001705,0.006799999999999917,-0.0014000000000000679,0.0009910550496947668,0.0004871840701918817,0.00301585994627096
1504282105.41,-1.0,-0.9254535604999999,0.5033557312,0.28198041409999997,-0.015542,0.083444,0.069498,-0.2014678176,-9.78612468155,0.60133397135,-2.818317,1.506082,-2.837038,-0.0044999999999997264,0.007050000000000001,-0.0015000000000000568,0.0023989995400135466,-0.00038965101853949413,0.0030082097930274054
1504282105.42,-1.0,-0.91465643885,0.3994248545,0.20597887659999997,0.013175,0.092764,0.102621,-0.2112156277,-9.785889321949998,0.60176546395,-2.804024,1.505718,-2.850457,-0.0045000000000001705,0.007050000000000001,-0.0014999999999998348,0.0023978657061094477,-0.000396862827359179,0.0030073283847282806
1504282105.43,-1.0,-0.9172159744999999,0.2274554401,0.1572790527,0.042925,0.097812,0.135753,-0.22421924559999998,-9.78539898945,0.6049722385,-2.786666,1.504958,-2.866871,-0.0045000000000001705,0.007300000000000084,-0.0015000000000000568,0.0035618599626734415,-0.0008220183151690375,0.0031482167662052474
1504282105.44,-1.0,-0.9212563142999999,0.005972249849999999,0.12451503504999999,0.070631,0.113535,0.167795,-0.24052770455,-9.784643877399999,0.610954295,-2.766531,1.503792,-2.885948,-0.004449999999999843,0.007750000000000146,-0.0013500000000001844,0.003614877280040396,-0.0009598988488428439,0.0032406134764678685
1504282105.45,-1.0,-0.9275129569999999,-0.22424866554999998,0.12857498814999999,0.089825,0.130397,0.197712,-0.28844299645,-9.78261390085,0.62261440185,-2.707752,1.500768,-2.94342,-0.004449999999999843,0.007749999999999924,-0.0013499999999999623,0.003611882338445671,-0.0009715942066901295,0.0032372426178217673
1504282105.46,-1.0,-0.9539614920499999,-0.49097973889999996,0.14999271174999998,0.098335,0.145216,0.226521,-0.31077273850000003,-9.781348843,0.6317051664,-2.684404,1.498945,-2.965413,-0.0045000000000001705,0.008099999999999996,-0.0011999999999998678,0.0031999027745364117,-0.001025313565074626,0.003224812837980817
1504282105.47,-1.0,-0.9775759052499999,-0.72209305945,0.16591871135,0.099455,0.166494,0.249968,-0.33564240289999997,-9.77992687875,0.6409234173999999,-2.659179,1.496954,-2.989087,-0.0045999999999999375,0.008499999999999952,-0.001000000000000112,0.0029927000290732586,-0.001114131851705391,0.003169138286547857
1504282105.48,-1.0,-1.0193522342499999,-0.9211582478,0.2216891299,0.090965,0.186786,0.2734,-0.36300295639999997,-9.778387234699998,0.64950423615,-2.63195,1.494851,-3.014566,-0.0045999999999999375,0.00869999999999993,-0.0009999999999998899,0.0031437626530723684,-0.001289291455628172,0.003039656638194499
1504282105.49,-1.0,-1.05330285655,-1.0802221107999999,0.29872036565,0.082513,0.209214,0.292559,-0.39249155295,-9.77672991085,0.65717303645,-2.603199,1.492662,-3.041356,-0.0047000000000001485,0.00890000000000013,-0.0009000000000001229,0.0035848635556301467,-0.0015860911728202698,0.0027634882413365425
1504282105.5,-1.0,-1.0805163103,-1.2170542982499999,0.35044063775,0.064488,0.235981,0.312761,-0.42408857925,-9.77502355375,0.66290012005,-2.572456,1.490463,-3.069887,-0.0047000000000001485,0.009199999999999875,-0.0007999999999999119,0.0040209540665285814,-0.00202016081963019,0.002568149696243305
1504282105.51,-1.0,-1.0713568992,-1.34063770155,0.3747415164499999,0.045402,0.262758,0.331894,-0.4577940353,-9.77323874345,0.6667345202,-2.539902,1.488231,-3.09998,-0.004699999999999704,0.009500000000000064,-0.0007999999999999119,0.004089722793513495,-0.0024776855792347785,0.0026143976479851005
1504282105.52,-1.0,-1.0483995315499999,-1.4079211271999998,0.40137637784999997,0.030584,0.291629,0.354233,-0.49376482749999995,-9.77135586665,0.6686762368999999,-2.505542,1.485933,-3.131602,-0.0047999999999999154,0.009800000000000031,-0.0008000000000001339,0.004371287408150959,-0.0028695472711539605,0.0028299658377152204
1504282105.53,-1.0,-0.99775799095,-1.3108549055,0.4665219538,0.034929,0.319268,0.383012,-0.53258935485,-9.7692082103,0.6702747208499998,-2.470163,1.483387,3.119222,-0.0050000000000003375,0.010000000000000009,-0.0005999999999999339,0.0039840494857186215,-0.0031051772684949075,0.003238108099823722
1504282105.54,-1.0,-0.8619064684999999,-1.0900287607999999,0.4480266118999999,0.059491,0.339284,0.410772,-0.5743166505999999,-9.766619254699998,0.67351091535,-2.435519,1.480416,3.087802,-0.004999999999999893,0.010299999999999976,-0.0005999999999999339,0.0033637590317170396,-0.0032236208487395057,0.0037626498885668935
1504282105.55,-1.0,-0.6901331871,-0.7621336113999999,0.3030647116,0.096853,0.356002,0.434298,-0.6280276726499999,-9.762618141499999,0.6834940850499999,-2.398461,1.476003,3.054166,-0.005199999999999871,0.010499999999999954,-0.000500000000000167,0.0026675615452249613,-0.0033313872262801247,0.0043013437111808495
1504282105.56,-1.0,-0.5821325506499999,-0.42657946835,0.09672298894999999,0.143804,0.367319,0.451438,-0.6742268007999999,-9.75880335465,0.6939675872499999,-2.370621,1.471972,3.029868,-0.0054000000000002935,0.010650000000000048,-0.0004499999999998394,0.0013768283530994907,-0.003627871676911587,0.0047579082209552315
1504282105.57,-1.0,-0.5277350631,-0.25763050215,-0.026772154499999996,0.193989,0.377553,0.460046,-0.7217400200499999,-9.7543217156,0.70897176175,-2.34727,1.467447,3.010191,-0.005399999999999849,0.010650000000000048,-0.00045000000000006146,0.0013598381286170635,-0.0036343462085683953,0.004754026566043512
1504282105.58,-1.0,-0.55432089125,-0.3045749357,-0.0729222494,0.238943,0.392106,0.454762,-0.7690767195999999,-9.749281097499999,0.7283398955,-2.328995,1.462574,2.995734,-0.00550000000000006,0.010699999999999932,-0.0004999999999999449,-0.0009853022244845633,-0.004086111050319863,0.004109603182611665
1504282105.59,-1.0,-0.6495826893500001,-0.5293433537,-0.068254284,0.280695,0.39924,0.437747,-0.8197182601999999,-9.74342652745,0.7510422902499999,-2.312507,1.457185,2.983194,-0.005549999999999944,0.010599999999999943,-0.00039999999999995595,-0.004892873436131984,-0.005323382232257812,0.0017720091556878703
1504282105.6,-1.0,-0.7952310551499999,-0.80929379125,-0.02870406455,0.306566,0.41504,0.410012,-0.8634951458,-9.737620990649999,0.77689261965,-2.303446,1.452073,2.978212,-0.005549999999999944,0.010599999999999943,-0.000400000000000178,-0.004904458191441918,-0.005314687581098987,0.0017988952772274303
1504282105.61,-1.0,-0.88972793455,-1.00925138475,-0.014513841999999999,0.32812,0.426609,0.385478,-0.9050263085499999,-9.731580094249999,0.8047533122999999,-2.297615,1.446986,2.976596,-0.005300000000000082,0.010199999999999987,-0.00019999999999997797,-0.00822184484796784,-0.007656286693163983,-0.0014687311619647758
1504282105.62,-1.0,-0.8904830465999999,-1.0969228357499998,0.016514398599999997,0.333709,0.442574,0.359842,-0.9442234885999999,-9.725470551299999,0.83312395075,-2.293769,1.442035,2.97714,-0.0025999999999997137,0.0050000000000001155,5.0000000000105516e-05,-0.0044149511362197025,-0.004479411002697775,-0.0017807316581235355
1504282105.63,-1.0,-0.86197511505,-1.207590881,0.052367511,0.324298,0.451202,0.33526,-0.9812632056499999,-9.71940023495,0.8607296704999999,-2.29085,1.4373,2.978713,-0.0026000000000001577,0.004999999999999893,4.999999999988347e-05,-0.004408869704860319,-0.004487192023469921,-0.0017616222550924654
1504282105.64,-1.0,-0.82367034015,-1.4077053809,0.09440861954999999,0.306423,0.467361,0.308516,-1.0159787466499999,-9.71351624495,0.88647212675,-2.288223,1.432866,2.980728,-0.009199999999999875,0.018500000000000183,0.0009000000000001229,-0.012674402379451388,-0.018440385379127955,-0.010279933312389522
1504282105.65,-1.0,-0.82141481065,-1.6056526111499998,0.16397699464999999,0.280032,0.481466,0.274288,-1.0478601658,-9.707995101,0.9095275608999999,-2.285637,1.428831,2.982939,-0.0039000000000002366,0.008399999999999963,0.0009999999999998899,-0.0005021297707816785,-0.008029281978136238,-0.0049037284496114
1504282105.66,-1.0,-0.8616318822999999,-1.7875365487,0.2593858925,0.235556,0.496796,0.231488,-1.0760248646,-9.7031310026,0.9282876823499999,-2.282617,1.425371,2.984878,-0.0040000000000000036,0.008799999999999919,0.0016000000000000458,0.004789580045914121,-0.006887028966027886,-0.003927458056653954
1504282105.67,-1.0,-0.9393299702499999,-1.89671398315,0.34177155914999996,0.182618,0.518593,0.184392,-1.0999334773,-9.6991495027,0.9418208593499999,-2.278909,1.422594,2.986321,-0.0032999999999998586,0.007949999999999902,0.0019000000000000128,0.010581006874477383,-0.0031734270763494887,-0.0007706693398705777
1504282105.68,-1.0,-0.98720603555,-1.8386390018499998,0.39872858234999997,0.125395,0.538294,0.137293,-1.11939967755,-9.6961682811,0.9494994663,-2.274261,1.420552,2.987019,-0.0032999999999998586,0.007950000000000124,0.0019000000000000128,0.010588102597082427,-0.003165157362555293,-0.0008048704628130787
1504282105.69,-1.0,-0.96508223315,-1.5832248026,0.45075286059999997,0.086207,0.550378,0.098777,-1.1350805109,-9.694069657999998,0.9524022346999999,-2.268905,1.419123,2.98715,-0.0029000000000003467,0.007299999999999862,0.0020999999999999908,0.012060491074718627,0.001227804085417894,0.002127750758512015
1504282105.7,-1.0,-0.8447644442999999,-1.160715094,0.40340635439999994,0.07043,0.56013,0.068845,-1.1478095426,-9.692500594,0.9530592802499999,-2.263756,1.418071,2.987596,-0.0028999999999999027,0.007300000000000084,0.0020999999999999908,0.012061095212905215,0.0012023031283272534,0.0021421902162547246
1504282105.71,-1.0,-0.6576339489999999,-0.68304297915,0.27392915445,0.079114,0.565408,0.047503,-1.1582242049,-9.691186502899999,0.95384381225,-2.259729,1.417191,2.989241,-0.0021999999999997577,0.006900000000000128,0.0020999999999999908,0.009678358566041378,0.002808489576079598,0.0023808576536371584
1504282105.72,-1.0,-0.47474973315,-0.3192456841,0.10386223014999998,0.101567,0.562042,0.032604,-1.1670698032,-9.68986260515,0.9564719944499999,-2.257346,1.416314,2.992528,-0.002300000000000413,0.006899999999999906,0.0020999999999999908,0.007035527833170185,0.003229907225808848,0.0013333618890347676
1504282105.73,-1.0,-0.32569845979999995,-0.07693316924999999,-0.0974192611,0.139997,0.557476,0.020946,-1.1839960810999999,-9.687518815799999,0.9594826359999999,-2.251834,1.414764,2.992748,-0.0024999999999999467,0.006699999999999928,0.0017500000000001403,0.002186327592688553,0.0038382687908531388,-0.0009801178143833411
1504282105.74,-1.0,-0.2272004672,0.0931827883,-0.25633602434999997,0.181592,0.549684,0.011425,-1.19061556985,-9.685704585549999,0.9695050323,-2.254188,1.41358,3.000713,-0.0024999999999999467,0.00670000000000015,0.0017499999999999183,0.002181496903469693,0.0038404156027767034,-0.0009711936294289902
1504282105.75,-1.0,-0.18280576265,0.1898371307,-0.32371751649999997,0.217826,0.539803,0.004034,-1.1964112999999998,-9.6835961558,0.9833226021499999,-2.258744,1.412214,3.010819,-0.0025999999999997137,0.00649999999999995,0.0013999999999998458,-0.002224266356236182,0.004629964441381418,-0.002739928556645954
1504282105.76,-1.0,-0.1478450554,0.28346121825,-0.34185001235,0.239141,0.532176,-0.003388,-1.2015892112,-9.6813013997,0.9995133812999999,-2.264645,1.410737,3.022211,-0.002500000000000391,0.00649999999999995,0.0012000000000000899,-0.0033892973275340132,0.004799252692588407,-0.0032643158752097
1504282105.77,-1.0,-0.10041028934999999,0.38286142264999995,-0.33576008269999996,0.247687,0.529982,-0.009771,-1.208767679,-9.67909490345,1.0121247331999998,-2.267881,1.409332,3.030957,-0.0023999999999997357,0.00649999999999995,0.001000000000000112,-0.003253383870713167,0.004943378157926226,-0.003433746451630748
1504282105.78,-1.0,-0.06675386655,0.5174282739499999,-0.2908063991,0.243429,0.527892,-0.015111,-1.21279821215,-9.6767511141,1.02957076355,-2.274663,1.407852,3.043177,-0.002200000000000202,0.006500000000000172,0.0007999999999999119,-0.0023939855180237224,0.0051804171077658445,-0.003212389472873056
1504282105.79,-1.0,-0.033322996699999996,0.6549861535,-0.24445036455,0.234894,0.522643,-0.023656,-1.2161422798,-9.67454461785,1.0462126485999999,-2.281221,1.406471,3.055131,-0.0020999999999999908,0.006599999999999939,0.0005999999999999339,-0.0012278396676952408,0.0055455892808555785,-0.0028401253731045184
1504282105.8,-1.0,0.00438357255,0.8462844750499999,-0.21421646259999996,0.22533,0.522729,-0.031145,-1.2188489152,-9.6725146413,1.0617659955,-2.287426,1.405208,3.066719,-0.0019000000000000128,0.006899999999999906,0.000700000000000145,-0.00028414105855234517,0.0059213880954915865,-0.0025023843403746415
1504282105.81,-1.0,0.0356373661,1.0925981030999998,-0.21751149699999997,0.221103,0.523837,-0.037558,-1.22091811835,-9.67058273125,1.07687804315,-2.293592,1.404017,3.078282,-0.0019000000000000128,0.006800000000000139,0.00039999999999995595,0.00038386832581749353,0.006031502116151666,-0.0024891120409350487
1504282105.82,-1.0,0.08152268144999998,1.2952132987499998,-0.24639208125,0.212562,0.518587,-0.045036,-1.2223596959,-9.6687881143,1.0912447854,-2.299586,1.402919,3.08964,-0.0014999999999996128,0.006249999999999867,0.0001500000000000945,0.0007039144619311877,0.005614465808468916,-0.0032878815110990445
1504282105.83,-1.0,0.13795995219999999,1.4251219913,-0.35405929159999994,0.215733,0.512172,-0.049288,-1.22342862075,-9.66701311065,1.10568998085,-2.305686,1.401839,3.101032,-0.0015000000000000568,0.006250000000000089,0.00014999999999987246,0.000685091741265742,0.005616754635622279,-0.003282483502090261
1504282105.84,-1.0,0.16539895889999998,1.4864331670999997,-0.465815875,0.227436,0.504622,-0.054592,-1.22393856655,-9.66516946045,1.12108642135,-2.312362,1.400728,3.112941,-0.0017000000000000348,0.006099999999999994,1.666666666655381e-05,0.0009393243354207659,0.004188871130843097,-0.004415056458628497
1504282105.85,-1.0,0.18097191910000002,1.5341327127,-0.5090632015,0.244492,0.498095,-0.062023,-1.22380127345,-9.6631983238,1.1381401857,-2.319944,1.399541,3.125715,-0.0018000000000002458,0.006099999999999994,1.6666666666775853e-05,0.0006522063036475956,0.0035213348220992646,-0.005202270269171305
1504282105.86,-1.0,0.1945050961,1.55934560985,-0.53333466025,0.264695,0.486213,-0.067304,-1.2231148079499998,-9.661021247499999,1.15717489335,-2.328499,1.398245,3.139369,-0.0019000000000000128,0.006199999999999983,1.6666666666775853e-05,0.0001367679449846282,0.003156445516103057,-0.0058747967697204695
