Time,placement_label,user_acc_x(m/s^2),user_acc_y(m/s^2),user_acc_z(m/s^2),rotation_rate_x(rad/s),rotation_rate_y(rad/s),rotation_rate_z(rad/s),gravity_x(m/s^2),gravity_y(m/s^2),gravity_z(m/s^2),attitude_roll(rad),attitude_pitch(rad),attitude_yaw(rad),target_delta_x,target_delta_y,target_delta_z,target_delta_roll,target_delta_pitch,target_delta_yaw
1504196338.53,-1.0,-0.006276256,-0.010944221399999999,0.04751321925,0.014628,0.023595,0.00717,-0.01003220295,-3.32852410975,-9.2244880294,-0.001087,0.346294,2.843192,0.0,0.0,0.0,0.0,0.0,0.0
1504196338.54,-1.0,0.0027654753,-0.05469168705,0.047856451999999994,-0.004726,0.008829,0.013567,-0.0091986377,-3.32966168115,-9.2240761501,-0.000997,0.346418,2.843329,-0.00016900000000000248,7.220000000000143e-05,4.999999999999796e-06,5.5415790124691e-05,-2.0136585757724035e-05,0.0001157107967997284
1504196338.55,-1.0,0.03138128,-0.04859195075,0.0160044528,-0.01553,-0.008131,0.013578,-0.00954187045,-3.3291713486499996,-9.2242526698,-0.001034,0.346366,2.843454,-0.00016900000000000248,6.280000000000001e-05,2.0000000000002655e-06,0.00012695976724508284,-1.3239940727105548e-05,0.00010577250290411122
1504196338.56,-1.0,0.03980519235,-0.0385009079,0.029253236949999997,-0.010328,-0.029477,0.006153,-0.01152281375,-3.3289457956999997,-9.224331122999999,-0.001249,0.346341,2.843524,-0.00016499999999999848,5.829999999999898e-05,-2.0000000000002655e-06,0.00015531083102526821,-2.0143230851976668e-05,8.306127432045063e-05
1504196338.57,-1.0,0.0684700303,-0.0091986377,0.0461697082,-0.000814,-0.046594,-0.003407,-0.0144550021,-3.32891637575,-9.22434092965,-0.001567,0.346337,2.843476,-0.00016000000000000042,6.0000000000001025e-05,-7.000000000000062e-06,0.00011227719388084978,-2.6956143721834636e-05,5.708460172237917e-05
1504196338.58,-1.0,0.04666984735,0.012856518150000001,0.033342609999999995,0.015157,-0.052051,-0.005505,-0.018387468749999997,-3.3300245271999995,-9.223938856999998,-0.001994,0.346458,2.843402,-0.00015499999999999542,6.56999999999984e-05,-1.1999999999999858e-05,5.605528512475644e-05,-1.6841449268500952e-05,3.5289788714587544e-05
1504196338.59,-1.0,0.007649186999999999,0.0493078362,0.008629852,0.021628,-0.039323,0.000888,-0.022310128749999998,-3.3313091983499996,-9.2234681378,-0.002419,0.346597,2.843387,-0.0001470000000000013,7.630000000000137e-05,-1.4999999999999389e-05,1.4081429577927906e-06,-3.41778356527378e-06,2.371933595346487e-05
1504196338.6,-1.0,-0.0375986961,0.05874183349999999,-0.0175931301,0.018564,-0.012674,0.01578,-0.025105024,-3.3322114101499998,-9.22312490505,-0.002722,0.346695,2.843541,-0.00013799999999999923,9.059999999999971e-05,-2.300000000000045e-05,-5.792854078978671e-05,1.3166110949036636e-05,-6.859559680494343e-06
1504196338.61,-1.0,-0.08673981925,0.03296015065,-0.0351666469,-0.005784,0.017352,0.025292,-0.026389695149999996,-3.3315739778999993,-9.22336026465,-0.002861,0.346626,2.843842,-0.00013099999999999917,0.0001115999999999999,-1.8000000000000654e-05,-0.00011204043943702224,3.842393065855987e-05,-7.427728147912926e-05
1504196338.62,-1.0,-0.1053626476,0.038873560599999996,-0.11135451075,-0.033338,0.042084,0.027336,-0.0255757432,-3.3279062907999997,-9.224684162399999,-0.002772,0.346228,2.84419,-0.0001260000000000011,0.0001249000000000007,-1.4999999999999389e-05,-0.0001415954860584101,4.564496362879922e-05,-0.00010578121635451687
1504196338.63,-1.0,-0.08134616174999999,0.05063173395,-0.17033170385,-0.047171,0.049651,0.031568,-0.023251567149999996,-3.3221595939,-9.2267631722,-0.00252,0.345605,2.844561,-0.00012200000000000405,0.00012939999999999827,-1.1000000000000593e-05,-0.000140035157329077,3.7888514548223284e-05,-0.00010795671321039979
1504196338.64,-1.0,-0.061899574799999996,0.04963145565,-0.12947719994999998,-0.048415,0.033667,0.041201,-0.02189824945,-3.3159225644999997,-9.229008895049999,-0.002372,0.344929,2.845012,-0.00011900000000000105,0.00012670000000000042,-1.1000000000000593e-05,-9.864978272511316e-05,2.678396675559469e-05,-9.95535421677296e-05
1504196338.65,-1.0,-0.011159967699999999,0.04029552484999999,-0.13710677364999999,-0.036856,0.014386,0.045525,-0.021908056099999997,-3.3109211729999997,-9.230803512,-0.002374,0.344388,2.845501,-0.00011800000000000005,0.00012030000000000027,-1.2999999999999123e-05,-5.556008465013029e-05,1.503587824780439e-05,-0.00010339648692647696
1504196338.66,-1.0,0.0046581587499999995,0.04415934495,-0.11912137754999999,-0.012313,0.010994,0.039169,-0.022310128749999998,-3.3079105314499997,-9.2318822435,-0.002417,0.344061,2.845931,-0.00011999999999999511,0.00011350000000000075,-1.4999999999999389e-05,3.654632588601103e-05,-3.3194012818427154e-06,-0.00011471347838343249
1504196338.67,-1.0,0.02025073225,0.07095111275,-0.07049020019999999,0.026181,0.011759,0.023223,-0.02205515585,-3.3079105314499997,-9.2318822435,-0.002389,0.344062,2.846217,-0.0001239999999999991,0.00010909999999999913,-1.4000000000000123e-05,3.638221226887062e-05,-2.547723713863803e-05,-0.00011852797466682663
1504196338.68,-1.0,0.010022396299999998,0.13116394374999998,-0.037412369749999994,0.062616,0.014685,-0.004472,-0.02064299825,-3.31081329985,-9.2308427386,-0.002237,0.344376,2.846243,-0.0001280000000000031,0.0001071000000000006,-1.4000000000000123e-05,8.519351041691436e-05,-4.5910952229055724e-05,-0.00011446943830173417
1504196338.69,-1.0,0.0209666177,0.1613782324,0.03339164325,0.085039,0.003867,-0.025762,-0.019015094349999997,-3.31618734405,-9.2289206352,-0.002061,0.344958,2.846008,-0.00011399999999999605,8.019999999999902e-05,-1.8000000000000654e-05,8.501362680979341e-05,-6.329843313435113e-05,-0.00010994186636237302
1504196338.7,-1.0,0.041943042050000004,0.11239401565,0.0440710851,0.075402,-0.008826,-0.039633,-0.0175539035,-3.3222674670499996,-9.226733752249999,-0.001903,0.345617,2.845596,-0.00011200000000000099,8.320000000000029e-05,-1.899999999999992e-05,5.694236902198391e-05,-5.8202660893735825e-05,-0.00012530382098419057
1504196338.71,-1.0,0.01413138265,0.04349249274999999,0.0273409402,0.03269,-0.01912,-0.049295,-0.017426417049999997,-3.3259351541499997,-9.225409854499999,-0.001889,0.346015,2.845086,-0.00010999999999999899,8.950000000000104e-05,-2.199999999999945e-05,9.01463725688778e-06,-3.0876032423465816e-05,-0.0001304065177437641
1504196338.72,-1.0,-0.00363826715,-0.022251288850000002,-0.03125379355,-0.013029,-0.000626,-0.051542,-0.01640652545,-3.32619012705,-9.22532159465,-0.001779,0.346041,2.84454,-0.00010600000000000193,9.659999999999964e-05,-2.3999999999999716e-05,-3.553576314430096e-05,-1.0209216760870277e-06,-0.00012774241057833535
1504196338.73,-1.0,-0.05127897285,-0.08260141295,-0.03135186005,-0.050015,0.04656,-0.047419,-0.012464252149999999,-3.3231500655499997,-9.22641993945,-0.001351,0.345713,2.844053,-0.00010000000000000286,0.00010069999999999957,-2.700000000000098e-05,-0.00011194270483727564,1.3584329121574257e-05,-0.00011706088856378027
1504196338.74,-1.0,-0.09973363049999999,-0.08075776274999999,0.0377556025,-0.050785,0.093435,-0.031492,-0.00516810455,-3.3199040643999997,-9.22759673745,-0.00056,0.34536,2.843723,-9.499999999999786e-05,0.00010150000000000003,-3.0000000000000512e-05,-0.00015486407355114196,4.108675204039791e-05,-0.00011953525960106681
1504196338.75,-1.0,-0.14060774769999998,-0.04168806914999999,0.054338647649999995,-0.034534,0.13484,-0.014458,0.0048837117,-3.3170797492,-9.22861662905,0.00053,0.345054,2.843604,-9.30000000000028e-05,0.00010079999999999985,-3.099999999999978e-05,-0.00013969790609680288,6.071891155312592e-05,-0.00013031340045865925
1504196338.76,-1.0,-0.17053764349999997,0.02978279605,0.06185054155,-0.002544,0.145209,0.005861,0.015367020549999999,-3.3161186975,-9.22895005515,0.001665,0.344951,2.84372,-9.199999999999486e-05,0.00010440000000000015,-2.7999999999998512e-05,-0.00012638788612484575,5.59124172354597e-05,-0.00013591905250653902
1504196338.77,-1.0,-0.09971401719999999,0.0941242267,0.087475318,0.03453,0.120378,0.019845,0.025193283849999998,-3.31761911495,-9.2283910761,0.00273,0.345113,2.843957,-9.40000000000038e-05,0.00011409999999999979,-2.1000000000000185e-05,-9.821490183803405e-05,3.6007719961927975e-05,-0.00014918392559759575
1504196338.78,-1.0,-0.027546879849999997,0.07541313849999999,0.0905349928,0.057635,0.071176,0.014635,0.0321854253,-3.3219438475999996,-9.226812205449999,0.003488,0.345582,2.844151,-9.499999999999786e-05,0.00012110000000000072,-1.600000000000039e-05,-4.168591606701355e-05,1.994401214888697e-05,-0.0001731506469013766
1504196338.79,-1.0,0.0205547384,0.059624432,0.07891411255,0.072171,0.007144,-0.007642,0.03480380085,-3.3280141639500003,-9.22461551585,0.003773,0.346239,2.844121,-8.199999999999874e-05,0.00011179999999999957,-8.000000000001062e-06,-2.6872549904854992e-05,4.466631275734656e-06,-0.00017522728901897544
1504196338.8,-1.0,0.07748234165,0.054770140249999995,0.08243469989999999,0.077244,-0.040823,-0.032099,0.034303661699999995,-3.3348297857,-9.222154046699998,0.003719,0.346978,2.84379,-8.100000000000468e-05,0.00010779999999999991,-8.999999999998592e-06,1.5332263245682043e-05,-3.433247794726313e-06,-0.00016303761991220966
1504196338.81,-1.0,0.07943386499999999,-0.0006374322499999999,0.09990034354999999,0.076122,-0.055718,-0.044884,0.032038325549999996,-3.3424103261499996,-9.21941799135,0.003475,0.347801,2.843284,-7.999999999999674e-05,0.00010250000000000016,-1.0000000000001327e-05,1.5382839292366057e-05,-9.182424183684645e-06,-0.00017549026659213762
1504196338.82,-1.0,0.00877695175,-0.030459454899999995,0.1254662801,0.07625,-0.038671,-0.042779,0.029527823149999997,-3.3507557852999996,-9.216397543149998,0.003204,0.348706,2.842805,-7.900000000000268e-05,9.759999999999977e-05,-1.1999999999999858e-05,4.447395722273484e-05,-1.0974826791576575e-05,-0.000183278082254823
1504196338.83,-1.0,-0.0722946238,-0.029410143349999997,0.15991704154999997,0.076351,-0.014184,-0.023609,0.027252680349999996,-3.3592875708,-9.213298641749999,0.002958,0.349632,2.842541,-7.899999999999574e-05,9.400000000000033e-05,-1.2999999999999123e-05,5.761852999808248e-05,-1.8789717368239423e-05,-0.00016824533569848032
1504196338.84,-1.0,-0.11217826934999998,-0.050729800449999994,0.20921507109999998,0.066831,0.005057,-0.008715,0.025683616349999997,-3.3677409030999996,-9.21021935365,0.002789,0.350549,2.842489,-8.200000000000568e-05,9.170000000000011e-05,-1.5000000000001124e-05,4.254385352631118e-05,-2.4230993037832604e-05,-0.00015355285428109156
1504196338.85,-1.0,-0.10762798375,-0.08050278984999999,0.18664016279999998,0.043512,0.026555,-0.004523,0.026075882349999996,-3.3746251713999995,-9.20768923795,0.002832,0.351297,2.842507,-8.199999999999874e-05,9.30999999999996e-05,-1.6999999999999654e-05,9.20595523168366e-06,-2.189313432476858e-05,-0.00014435692581493687
1504196338.86,-1.0,-0.06461601685,-0.06424336415,0.1229165511,0.018008,0.043806,0.002874,0.02870406455,-3.37861647795,-9.20621824045,0.003117,0.351731,2.842553,-8.099999999999774e-05,9.789999999999972e-05,-1.899999999999992e-05,-2.037031295576419e-05,4.840214613999194e-06,-0.00015389551910749422
1504196338.87,-1.0,-0.0521125381,-0.07328509544999999,0.09722312809999999,-0.003295,0.049307,0.004963,0.0322050386,-3.3804993547499995,-9.2055219683,0.003499,0.351935,2.842636,-7.800000000000168e-05,0.00010450000000000043,-1.799999999999892e-05,-0.00012665686055379766,-7.657017830009494e-06,-0.00016796788047879208
1504196338.88,-1.0,-0.06452775699999999,-0.06521422249999999,0.0854943747,-0.017255,0.036636,0.002826,0.03475476759999999,-3.3806464544999995,-9.20545332175,0.003775,0.351951,2.842717,-7.499999999999868e-05,0.00011230000000000007,-1.700000000000139e-05,-0.00016823084780415165,-1.2593355075640744e-05,-0.0001702259054296995
1504196338.89,-1.0,-0.02874329115,-0.0302437086,0.06773453154999999,0.000798,0.020512,-0.005653,0.03667687099999999,-3.3809014274,-9.20535525525,0.003984,0.351979,2.842708,-7.399999999999768e-05,0.0001146999999999997,-1.6999999999999654e-05,-0.00025436129399847296,-9.070067579219909e-07,-0.00018452537492563703
1504196338.9,-1.0,-0.01301342455,-0.00352058735,0.07387349445,0.024176,-0.002041,-0.022651,0.0375594695,-3.3829215972999997,-9.20460994985,0.00408,0.352199,2.842518,-6.0000000000004494e-05,9.590000000000033e-05,-9.999999999999593e-06,-0.00029560065059741625,2.8591741836114792e-05,-0.00019923083819450849
1504196338.91,-1.0,0.020025179299999998,0.0256149698,0.15205210824999998,0.046381,-0.038435,-0.040694,0.0365395779,-3.38721691,-9.203031079199999,0.00397,0.352665,2.84211,-0.0001260000000000011,0.00016590000000000008,-3.7000000000000574e-05,-0.0005214303647675944,4.144195400246353e-05,-0.00041018292576089355
1504196338.92,-1.0,0.07544255845,0.01573967325,0.17364635155,0.040776,-0.075678,-0.045976,0.03319551025,-3.39201236185,-9.20127568885,0.003608,0.353186,2.841571,-6.399999999999462e-05,7.959999999999998e-05,-1.899999999999992e-05,-0.00014004479921569946,2.569201860591619e-06,-0.00015007748055329007
1504196338.93,-1.0,0.08148345485,-0.0327934376,0.10787314999999999,0.015144,-0.079727,-0.047081,0.02864522465,-3.3951112632499996,-9.200157730749998,0.003114,0.353522,2.841019,-3.150000000000375e-05,4.175000000000012e-05,-6.000000000000796e-06,-5.6099652997909644e-05,2.9759847075538914e-06,-4.764007669033621e-05
1504196338.94,-1.0,0.0219276694,-0.07014696744999999,0.040609337649999994,-0.013398,-0.045394,-0.045056,0.0253599969,-3.3957585021499996,-9.19992237115,0.002757,0.353593,2.840516,-3.149999999999681e-05,4.175000000000012e-05,-5.999999999999062e-06,-5.609998939903882e-05,2.9733228652517596e-06,-4.7640408903260045e-05
1504196338.95,-1.0,-0.044767357249999994,-0.0811009955,0.06377264495,-0.04611,0.001757,-0.041994,0.0251638639,-3.3937873654999997,-9.200648063249998,0.002735,0.353379,2.84008,-0.00013200000000000017,0.00017619999999999962,-7.000000000000062e-06,-9.853171012008666e-05,3.189203648168437e-05,-0.00011749305542241295
1504196338.96,-1.0,-0.07593289095,-0.0702548406,0.0688819096,-0.059746,0.038087,-0.030339,0.02789991925,-3.3896685724999998,-9.20215828735,0.003032,0.352931,2.83977,-7.400000000000462e-05,9.349999999999983e-05,2.0000000000002655e-06,-5.6235306923113626e-05,1.5554150891716745e-06,-3.1212555083981464e-05
1504196338.97,-1.0,-0.07112763244999999,-0.061144462749999996,0.048680210599999996,-0.057515,0.059364,-0.015429,0.03266595115,-3.3851575135,-9.203805804549999,0.003549,0.352442,2.83961,-3.999999999999837e-05,4.959999999999947e-05,4.999999999987653e-07,-4.232316606112008e-05,-2.7003615401532954e-06,-7.47752540397606e-06
1504196338.98,-1.0,-0.0418351689,-0.01862282835,0.045365562899999996,-0.032036,0.052744,-0.000429,0.03735352985,-3.38189189905,-9.20498260255,0.004058,0.352087,2.83959,-3.999999999999837e-05,4.960000000000034e-05,5.000000000005e-07,-4.2323249330289414e-05,-2.7006844649513084e-06,-7.477429375346567e-06
1504196338.99,-1.0,0.010855961549999998,0.0478956786,0.039089306899999995,-0.000227,0.027974,-0.000331,0.0407760507,-3.3806268412,-9.205443515099999,0.004429,0.351949,2.839595,-0.00014999999999999736,0.00020910000000000026,1.0000000000001327e-05,-0.0004254395468139549,3.571940850655153e-06,3.4022172013425944e-05
1504196339.0,-1.0,0.06449833705,0.09536967124999998,0.030881140849999995,0.039015,-0.008567,-0.01194,0.04219801495,-3.38216648525,-9.20486492275,0.004584,0.352116,2.839469,-6.600000000000356e-05,0.00010420000000000047,5.999999999999062e-06,-0.00031236005391721555,4.345229072155732e-05,5.446938294706438e-05
1504196339.01,-1.0,0.08719092514999999,0.11615976924999999,0.036098278649999996,0.060185,-0.040689,-0.029993,0.04150174279999999,-3.3858930122499995,-9.2035017984,0.004509,0.352521,2.839143,-6.250000000000006e-05,9.619999999999941e-05,2.5000000000007655e-06,-0.0003615830854979407,3.26359834346146e-05,7.099467472571064e-05
1504196339.02,-1.0,0.0887109559,0.1123057558,0.02672312125,0.062255,-0.057738,-0.044903,0.039520799499999995,-3.3902667781499995,-9.20190331445,0.004295,0.352996,2.838647,-6.250000000000006e-05,9.620000000000028e-05,2.4999999999990308e-06,-0.0003615800724348084,3.266160206094604e-05,7.098273170602631e-05
1504196339.03,-1.0,0.0791004389,0.0727457297,-0.005756503549999999,0.048345,-0.061886,-0.043853,0.03656899785,-3.3939540785499998,-9.200549996749999,0.003975,0.353397,2.838117,-6.0999999999998555e-05,8.350000000000024e-05,-9.999999999992654e-07,-0.00035392564797653847,3.99519511886659e-05,5.070415171104514e-05
1504196339.04,-1.0,0.021711923099999995,0.0342055952,-0.07312818905,0.028258,-0.034022,-0.036465,0.03425462845,-3.3961115415499994,-9.19976546475,0.003723,0.353632,2.837687,-6.199999999999956e-05,7.21999999999997e-05,9.999999999992654e-07,-0.0002975900464079473,2.2201248695008502e-05,5.47899228009463e-05
1504196339.05,-1.0,-0.03898143375,0.0175539035,-0.052720550399999996,0.019972,0.006523,-0.021607,0.03419578855,-3.3975727323999996,-9.199226098999999,0.003717,0.35379,2.837435,-6.450000000000206e-05,6.170000000000047e-05,6.499999999999562e-06,-0.00021974292340209978,5.404365968075808e-06,6.753649643742587e-05
1504196339.06,-1.0,-0.052102731449999995,0.012317152399999998,0.026291628649999996,0.011633,0.041738,-0.004605,0.036843584049999996,-3.3987691436999996,-9.198774993099999,0.004005,0.35392,2.837365,-6.450000000000206e-05,6.16999999999996e-05,6.500000000001296e-06,-0.00021974353560261228,5.419229404557413e-06,6.753560759475974e-05
1504196339.07,-1.0,-0.02501676415,0.02213360905,0.030890947499999998,0.011721,0.064095,0.013501,0.04147232285,-3.39960270895,-9.198441567,0.004509,0.354011,2.83747,-3.199999999999731e-05,2.989999999999937e-05,3.999999999998796e-06,-0.00010647614829761842,5.163095962767983e-06,2.8202030416313306e-05
1504196339.08,-1.0,0.00936535075,0.034931287299999995,0.026164142199999997,0.016036,0.074708,0.020962,0.0476407057,-3.4005833739499995,-9.198049301,0.00518,0.354118,2.837672,-3.199999999999731e-05,2.990000000000024e-05,4.000000000000531e-06,-0.00010647584305911728,5.166091092911884e-06,2.820143818427212e-05
1504196339.09,-1.0,0.05202427824999999,0.03880491404999999,0.09180005064999999,0.024439,0.055464,0.01674,0.05362276219999999,-3.4026623837499996,-9.19725496235,0.00583,0.354343,2.837823,-0.00010700000000000293,0.00013330000000000026,1.600000000000039e-05,-0.0004824472199689289,3.0408595784514603e-05,0.00012965641740125822
1504196339.1,-1.0,0.0983214729,0.04198226865,0.10494096165,0.026462,0.030958,-0.000292,0.05879086675,-3.40509443295,-9.1963233306,0.006393,0.354608,2.837792,-5.4999999999999494e-05,9.089999999999966e-05,4.999999999999796e-06,-0.00029756779838852054,9.476111751727245e-06,4.047325179812322e-05
1504196339.11,-1.0,0.12407373579999999,0.0359707922,0.0892012884,0.031676,0.008552,-0.011985,0.06267430015,-3.4079089414999997,-9.19525440575,0.006815,0.354914,2.837603,-5.3999999999998494e-05,0.00010110000000000067,1.000000000001e-06,-0.0003405275351666681,1.6399982247339295e-05,2.4024019000923325e-05
1504196339.12,-1.0,0.13044805829999997,0.01624961905,0.1289770608,0.021953,-0.01054,-0.018374,0.06497886289999999,-3.4107724832999997,-9.19417567425,0.007067,0.355226,2.837348,-4.900000000000043e-05,0.00010899999999999972,-2.999999999999531e-06,-0.0004101586328810747,2.095205503760411e-05,-6.042300496611475e-07
1504196339.13,-1.0,0.10083197529999999,-0.00805125965,0.1317621494,0.005852,-0.022128,-0.017314,0.06542016214999999,-3.4125180669999997,-9.1935186287,0.007116,0.355416,2.837091,-4.900000000000043e-05,0.00010900000000000016,-3.0000000000012655e-06,-0.00041016184237796516,2.0951975320260274e-05,-6.128294331997353e-07
1504196339.14,-1.0,0.07433440699999999,-0.013484143749999998,0.0648611831,0.003713,-0.018919,-0.01092,0.0652730624,-3.41337124555,-9.1932048159,0.0071,0.355508,2.836904,-4.200000000000037e-05,0.00010749999999999996,-2.999999999999531e-06,-0.00045295514793308733,3.9204156584871086e-05,-2.837931928834081e-05
1504196339.15,-1.0,0.03543142645,-0.00448163905,0.1043623693,0.007229,-0.012601,-0.002308,0.0648219565,-3.4145872701499997,-9.19275371,0.007051,0.355641,2.836834,-3.799999999999637e-05,9.850000000000006e-05,9.999999999992654e-07,-0.0004669475625802555,5.007314101423965e-05,-3.573012801683095e-05
1504196339.16,-1.0,0.022574908299999998,0.006433162399999999,0.14259849765,0.018927,-0.009513,0.010516,0.06406684445,-3.4168231863499994,-9.1919299514,0.00697,0.355884,2.836885,-3.800000000000331e-05,9.849999999999963e-05,1.000000000001e-06,-0.0004669476865069022,5.005631186438819e-05,-3.575338069217171e-05
1504196339.17,-1.0,0.029772989399999998,0.018152109149999998,0.10392107005,0.026435,0.005327,0.026514,0.06404723115,-3.4194219485999997,-9.1909688997,0.006969,0.356166,2.837106,-3.899999999999737e-05,8.570000000000019e-05,2.999999999999531e-06,-0.00042453889467086725,2.8420238486370764e-05,-6.131844459056346e-05
1504196339.18,-1.0,0.019485813549999998,0.03592175895,0.1328212676,0.020146,0.02136,0.029676,0.06491021635,-3.4217755446,-9.1900863012,0.007063,0.356422,2.837408,-4.200000000000037e-05,7.36999999999999e-05,2.0000000000002655e-06,-0.00040995116811526344,5.0976918073430966e-06,-4.5154090157595306e-05
1504196339.19,-1.0,0.029410143349999997,0.0505827007,0.1062452461,0.004223,0.032147,0.030697,0.0672540057,-3.4223639436,-9.189841134949999,0.007318,0.356487,2.837703,-3.249999999999781e-05,4.365000000000011e-05,-7.500000000000562e-06,-0.0002971090160293066,5.237710855920952e-06,-2.5617062963667614e-05
1504196339.2,-1.0,0.037069136999999995,0.04294332035,0.04906266994999999,-0.011762,0.033347,0.028532,0.07006851425,-3.4211675322999997,-9.19027262755,0.007624,0.356356,2.837983,-3.250000000000475e-05,4.365000000000011e-05,-7.500000000000562e-06,-0.00029710961331930186,5.230108939269229e-06,-2.5618658113901738e-05
1504196339.21,-1.0,0.022064962499999997,0.04672868725,0.05910467955,-0.025698,0.021746,0.023191,0.0719023578,-3.4186570299,-9.191194452649999,0.007823,0.356084,2.83824,-3.399999999999931e-05,2.5499999999999915e-05,-8.999999999998592e-06,-0.00018457564596219278,-7.729032223124932e-06,2.418101441514775e-05
1504196339.22,-1.0,0.02442836515,0.04531652965,0.06681270645,-0.029991,0.010075,0.009328,0.0731379957,-3.41560716175,-9.19231241075,0.007956,0.355751,2.838359,-3.500000000000031e-05,1.829999999999974e-05,-8.000000000001062e-06,-0.00014150288309244807,1.7731273151078142e-05,5.262305981712512e-05
1504196339.23,-1.0,0.016131939249999998,0.042933513699999995,0.08362130455,-0.022557,0.000432,0.000819,0.0736479415,-3.4130672394,-9.19325384915,0.008011,0.355475,2.838371,-3.500000000000031e-05,2.1100000000000025e-05,-5.500000000000296e-06,-0.00016300204583363787,2.766320857516824e-05,5.457474375281102e-05
1504196339.24,-1.0,0.00508965135,0.0201036325,0.13271339445,-0.012006,-0.012445,0.004062,0.0727261164,-3.4122434807999995,-9.193567661949999,0.00791,0.355385,2.838389,-3.500000000000031e-05,2.1100000000000025e-05,-5.499999999998562e-06,-0.00016300066752306108,2.767213661236667e-05,5.4570277507104414e-05
1504196339.25,-1.0,-0.022908334399999997,0.006168382849999999,0.15101260335,-0.015232,-0.015615,0.004062,0.0706471066,-3.4117727615999995,-9.19376379495,0.007684,0.355334,2.838449,-3.399999999999931e-05,3.810000000000011e-05,1.666666666667177e-06,-0.0001844085815787544,3.693253816972053e-05,4.3821247136643926e-05
1504196339.26,-1.0,-0.016612465099999998,-0.0096497436,0.10090062184999998,-0.017204,0.002519,0.000825,0.07002928765,-3.4109195830499996,-9.19407760775,0.007617,0.355241,2.838469,-1.5500000000001624e-05,2.3500000000000083e-05,1.6666666666654423e-06,-9.212995789376066e-05,2.1036063073243128e-05,1.4301251860304731e-05
1504196339.27,-1.0,-0.0197702064,0.019338713799999997,0.04359055925,-0.012716,0.033379,0.006115,0.0718435179,-3.4096741385,-9.19452871365,0.007814,0.355107,2.838536,-1.5500000000001624e-05,2.3500000000000083e-05,1.666666666667177e-06,-9.212942124170453e-05,2.103733303204791e-05,1.429927695040245e-05
1504196339.28,-1.0,-0.0357746592,0.024242038799999997,0.070411747,-0.01685,0.060036,0.022072,0.0757269513,-3.4082914008499996,-9.1950092395,0.008236,0.354956,2.838753,-2.8999999999994308e-05,4.989999999999986e-05,4.999999999999796e-06,-0.00021250536282613197,4.2117405635977434e-05,2.8644697422919307e-05
1504196339.29,-1.0,-0.057623875399999996,0.0058447633999999995,0.03707894365,-0.027498,0.068637,0.031645,0.07991439084999999,-3.4060652913,-9.195803578149999,0.00869,0.354713,2.839115,-5.100000000000243e-05,7.779999999999983e-05,-1.000000000001e-06,-0.0005379733007202514,8.083193710217706e-05,5.051308607628702e-05
1504196339.3,-1.0,-0.0617230551,-0.0032950343999999998,-0.06614585425,-0.028544,0.073969,0.035904,0.08446467645,-3.40305464975,-9.196872503,0.009184,0.354387,2.839531,-1.2000000000005062e-05,1.0399999999999819e-05,-2.999999999999531e-06,-0.0001204078782868212,2.2129935201231632e-05,1.9967264337616975e-05
1504196339.31,-1.0,-0.031528379749999995,0.0036676871,-0.04906266994999999,-0.024319,0.065414,0.03059,0.08928954825,-3.4004362741999996,-9.1977943281,0.009707,0.354102,2.839894,-1.1999999999998123e-05,1.0400000000000253e-05,-2.999999999999531e-06,-0.00012040729179796372,2.213231949466099e-05,1.996457533104401e-05
1504196339.32,-1.0,-0.0253992235,0.0102577559,-0.0127682583,-0.0159,0.046172,0.023167,0.09288858879999999,-3.39850436415,-9.19847098695,0.010097,0.353892,2.840185,-5.8999999999996555e-05,2.0100000000000326e-05,-1.4000000000000123e-05,-0.0002981735296274657,2.0081162894758364e-06,0.00011846631031275923
1504196339.33,-1.0,-0.01675956485,0.027331133549999997,-0.045620535799999994,-5.6e-05,0.023668,0.018964,0.09472243234999998,-3.39746485925,-9.198833832999998,0.010297,0.353779,2.840409,-2.8500000000000747e-05,4.499999999999296e-07,-8.499999999999827e-06,-5.681166562099271e-05,2.466066678863399e-06,4.6012639732695426e-05
1504196339.34,-1.0,0.007423634049999999,0.009453610599999999,-0.01460210185,0.010538,0.007608,0.008337,0.0953794779,-3.3981415180999996,-9.1985788601,0.010368,0.353853,2.84052,-2.8500000000000747e-05,4.499999999999296e-07,-8.499999999999827e-06,-5.6811696470093764e-05,2.4686868214107704e-06,4.601261648706778e-05
1504196339.35,-1.0,0.023545766649999997,-0.016994924449999997,-0.00834545915,0.015848,-0.004143,-0.00551,0.09556580425,-3.3998282618999998,-9.197961041149998,0.010389,0.354036,2.840479,-2.2000000000001185e-05,-2.9000000000001247e-06,-9.000000000000327e-06,-7.143629772388138e-05,1.032956707169852e-05,2.316802817814434e-05
1504196339.36,-1.0,0.0058055367999999994,-0.024467591749999996,-0.024193005549999997,0.019175,0.002239,-0.020459,0.0962424631,-3.4017895919,-9.1972255424,0.010464,0.354249,2.840295,-1.8999999999998185e-05,-4.39999999999989e-06,-7.000000000000062e-06,-0.00011297640487528682,2.851833005834692e-05,2.5617456047566378e-05
1504196339.37,-1.0,-0.042080335149999995,-0.050376761049999996,-0.012552512,0.014031,0.024661,-0.022642,0.09803708005,-3.4038587950499997,-9.1964410104,0.01066,0.354474,2.840071,-8.000000000001062e-06,-2.849999999999988e-06,-3.0000000000012655e-06,-6.389214212232375e-05,1.959235151027805e-05,1.5620680337447013e-05
1504196339.38,-1.0,-0.0763938035,-0.07385388115,-0.00962032365,0.003582,0.056706,-0.015244,0.10183225359999999,-3.4055161189,-9.19578396485,0.011074,0.354654,2.839937,-8.000000000001062e-06,-2.849999999999988e-06,-2.999999999999531e-06,-6.389157552622038e-05,1.959327501577235e-05,1.5619364695851345e-05
1504196339.39,-1.0,-0.11316874099999999,-0.09621304315,0.0114149406,-0.011289,0.067478,-0.011019,0.10657867219999999,-3.40634968415,-9.195421118799999,0.01159,0.354745,2.839882,-1.7999999999997185e-05,-8.999999999999894e-06,-4.999999999999796e-06,-0.00014108361898523825,3.994950328500835e-05,1.7371734357118918e-05
1504196339.4,-1.0,-0.10245007255,-0.0888678623,6.864654999999999e-05,-0.027275,0.070803,-0.008917,0.11172716345,-3.4053199859,-9.19574473825,0.012149,0.354633,2.839851,-2.2000000000001185e-05,-4.830000000000025e-05,-1.799999999999892e-05,-0.00021231102028806959,3.278006745954798e-05,-5.704784339033431e-06
1504196339.41,-1.0,-0.055417379149999994,-0.059457718949999995,-0.0703332938,-0.029384,0.071888,-0.012124,0.11796419285,-3.4028487101000002,-9.196578303499999,0.012826,0.354365,2.839763,-1.6999999999996185e-05,-2.5049999999999985e-05,-3.500000000000031e-06,3.282926662584451e-05,-2.273161197274831e-05,2.8611871819905765e-05
1504196339.42,-1.0,-0.01701453775,-0.0452282698,-0.0417174891,-0.023064,0.059053,-0.01636,0.12415218899999998,-3.4009266066999997,-9.19721573575,0.013498,0.354155,2.839616,-1.7000000000003124e-05,-2.5049999999999985e-05,-3.500000000000031e-06,3.282871441534496e-05,-2.273261182561548e-05,2.8611211105200596e-05
1504196339.43,-1.0,0.026330855249999997,-0.025634583099999997,0.028135278849999997,-0.012573,0.03659,-0.016303,0.12914377385,-3.4000145882499995,-9.197480515299999,0.01404,0.354056,2.839424,-1.7999999999997185e-05,-3.0300000000000032e-05,4.333333333333619e-06,3.300498655023354e-05,-1.2267215772077122e-06,2.55652742183754e-05
1504196339.44,-1.0,0.049415709349999996,-0.026134722249999996,0.014141189299999999,1.7e-05,0.009847,-0.016234,0.13209557549999998,-3.4001224614,-9.1974020621,0.014362,0.354067,2.839224,-1.8999999999998185e-05,-4.300000000000007e-05,4.333333333331885e-06,0.00017675091636992768,7.637832716955728e-06,3.095057999702444e-05
1504196339.45,-1.0,0.0490528633,-0.022555295,0.0159259996,0.009487,-0.009406,-0.020454,0.13320372695,-3.40130906605,-9.19694114955,0.014483,0.354196,2.83899,-1.9000000000005124e-05,-4.300000000000007e-05,4.333333333333619e-06,0.00017675076476542095,7.632346696428982e-06,3.0951861709760387e-05
1504196339.46,-1.0,0.05537815255,-0.02462449815,0.0109638347,0.014798,-0.019028,-0.031102,0.13361560625,-3.40297619655,-9.1963233306,0.014528,0.354378,2.838643,-1.9999999999999185e-05,-5.269999999999971e-05,1.1000000000000593e-05,0.0002125049596397588,-5.837374615680346e-06,5.708487860189848e-06
1504196339.47,-1.0,0.056172491199999994,-0.023388860249999997,-0.008953471449999998,0.014769,-0.025416,-0.03536,0.13341947325,-3.4046531336999997,-9.195695704999999,0.014508,0.354561,2.83824,-1.8999999999998185e-05,-5.4500000000000295e-05,1.0999999999998858e-05,0.00019745744855192982,-2.160493981295808e-05,1.7872664495710566e-05
1504196339.48,-1.0,0.0172793173,-0.02164327655,-0.026428921749999997,0.010494,-0.029638,-0.040698,0.1323505484,-3.4058103184,-9.195283825699999,0.014393,0.354686,2.837805,-1.0999999999997123e-05,-5.250000000000003e-05,6.000000000000796e-06,0.0001059908109435348,-2.710311634612772e-05,1.4864345237231014e-05
1504196339.49,-1.0,0.005462304049999999,-0.00397169325,-0.0519360184,0.01476,-0.026482,-0.035359,0.13115413709999998,-3.40685962995,-9.194911173,0.014263,0.354801,2.837401,-1.1000000000004062e-05,-5.2499999999999596e-05,6.000000000000796e-06,0.00010599059083715723,-2.7104727722937483e-05,1.486149780882684e-05
1504196339.5,-1.0,0.0017455836999999998,0.0294787899,-0.031773546,0.028662,-0.013823,-0.021481,0.1303892184,-3.408595407,-9.1942835474,0.01418,0.354989,2.837122,-4.000000000004e-06,-4.640000000000026e-05,1.9999999999985307e-06,-5.654790170761537e-05,-1.950167641862066e-05,-1.2655680821760384e-05
1504196339.51,-1.0,-0.03211677875,0.059575398749999994,0.0054132708,0.052154,-0.001247,-0.005451,0.12983023935,-3.41205715445,-9.193008682899999,0.014122,0.355365,2.837043,-9.999999999940612e-07,-3.7950000000000136e-05,-1.4999999999997654e-06,-0.00022641499231146334,2.1404492743570813e-05,-1.9798360721523522e-05
1504196339.52,-1.0,-0.06948011525,0.1111289578,0.05374044199999999,0.070281,0.002856,0.003113,0.12888880095,-3.4169212528499995,-9.19121406595,0.014022,0.355894,2.837094,-1.000000000001e-06,-3.79499999999997e-05,-1.4999999999997654e-06,-0.00022641483129537399,2.13999613150051e-05,-1.9803155858366672e-05
1504196339.53,-1.0,-0.039834612299999995,0.1292124204,0.07797267414999999,0.082986,-0.007907,0.005289,0.12751586995,-3.4230307957999995,-9.188958536449999,0.013876,0.356559,2.837175,-1.000000000001e-06,-4.199999999999994e-05,-5.999999999999062e-06,-0.00029708559629026965,1.3987440775853344e-05,-2.0554931111971264e-05
1504196339.54,-1.0,0.0026870221,0.12296558434999999,0.08402337719999999,0.081816,-0.023876,-2.2e-05,0.12555453995,-3.42935608505,-9.186624553749999,0.013666,0.357248,2.837178,-3.0000000000030003e-06,-5.6100000000000334e-05,-1.0000000000001327e-05,-0.00028241976537457525,-1.3252851050582493e-05,-2.363595186638534e-05
1504196339.55,-1.0,0.06325289249999999,0.08524920844999999,0.09535005795,0.058321,-0.033261,-0.010721,0.12394624934999998,-3.4347399358999997,-9.184633803799999,0.013494,0.357834,2.837037,-1.000000000001e-06,-8.084999999999993e-05,-1.1000000000000593e-05,-0.00011377401944967502,-4.700311709937566e-05,-3.881019448859213e-05
1504196339.56,-1.0,0.09996899009999999,0.04564995575,0.0779628675,0.024279,-0.023384,-0.015067,0.12359320994999999,-3.43763289765,-9.18356487895,0.013457,0.358149,2.836812,-9.999999999940612e-07,-8.084999999999993e-05,-1.0999999999998858e-05,-0.00011377130956957693,-4.700713420646707e-05,-3.8804543980641704e-05
1504196339.57,-1.0,0.059987278049999995,0.03533335995,0.02197670265,-0.001111,0.007723,-0.008762,0.1248190412,-3.4376427043,-9.183535459,0.013591,0.35815,2.836656,2.9999999999960614e-06,-8.99999999999998e-05,-4.000000000000531e-06,7.141942099408993e-05,-4.6794351160173164e-05,-5.753444629996718e-05
1504196339.58,-1.0,-0.0178677163,0.0252815437,0.041648842549999995,-0.011601,0.040825,0.00824,0.12755509655,-3.4365737794499998,-9.1839081117,0.013888,0.358033,2.83671,4.000000000004e-06,-8.970000000000028e-05,4.499999999999296e-06,0.00013489938353594688,-2.4634099927256514e-05,-7.340693340363025e-05
1504196339.59,-1.0,-0.06878384309999999,0.032587497949999995,0.12651559164999998,-0.019095,0.051518,0.030624,0.1301342455,-3.43520084845,-9.1843788309,0.014168,0.357883,2.837024,3.9999999999970615e-06,-8.969999999999985e-05,4.500000000001031e-06,0.0001349013212152972,-2.462421296178796e-05,-7.341032670282743e-05
1504196339.6,-1.0,-0.06514557594999999,0.03127340685,0.1497475455,-0.024584,0.040892,0.04451,0.13173272945,-3.43343565145,-9.185016263149999,0.014341,0.357692,2.83752,2.000000000002e-06,-9.30999999999996e-05,8.000000000001062e-06,0.00016986261991380758,-1.9904602016174167e-05,-6.980737522022107e-05
1504196339.61,-1.0,-0.0252619304,0.019887886199999996,0.1313110435,-0.021548,0.019556,0.043485,0.13194847575,-3.43192542735,-9.185575242199999,0.014364,0.357527,2.838014,6.666666666627075e-07,-9.259999999999997e-05,3.999999999998796e-06,0.00014132224117968661,-3.223804626562021e-05,-4.1696755410658426e-05
1504196339.62,-1.0,0.010395048999999998,0.04494387695,0.1468055505,-0.009945,-0.007163,0.027542,0.131016844,-3.4309447623499993,-9.185957701549999,0.014262,0.35742,2.838354,6.666666666696464e-07,-9.390000000000006e-05,-1.4999999999997654e-06,5.70378824968909e-05,-2.7096453146135957e-05,-1.4579507506828904e-06
1504196339.63,-1.0,0.01632807225,0.08573954095,0.1718517346,0.002859,-0.024289,-0.000159,0.1292712603,-3.4304446231999997,-9.186173447849999,0.014071,0.357366,2.838421,6.666666666627075e-07,-9.390000000000006e-05,-1.4999999999997654e-06,5.703857534622436e-05,-2.7096669589221634e-05,-1.4595131638817094e-06
1504196339.64,-1.0,0.00844352565,0.1199941694,0.12361282324999999,0.024347,-0.018051,-0.020413,0.12818272214999998,-3.43102321555,-9.1859675082,0.013953,0.357429,2.83824,4.000000000004e-06,-9.890000000000072e-05,-2.999999999999531e-06,6.98390795819126e-05,1.977922379237107e-05,2.7635630176270354e-05
1504196339.65,-1.0,-0.0251834772,0.115522337,0.12391682939999998,0.040443,-0.006463,-0.020405,0.127682583,-3.43343565145,-9.18507510305,0.0139,0.357691,2.83802,3.9999999999970615e-06,-0.00010619999999999987,-1.000000000001e-06,7.127765092906913e-05,1.9507017945175065e-05,2.7765673476620734e-05
1504196339.66,-1.0,-0.07202984424999999,0.0934181479,0.15589631505,0.041594,0.009502,-0.011892,0.1275452899,-3.43676991245,-9.1838296585,0.013887,0.358055,2.837898,5.999999999999062e-06,-0.00011930000000000014,2.5000000000007655e-06,0.00013442584501377475,1.8378586053025003e-05,3.385824963697548e-05
1504196339.67,-1.0,-0.07324586884999999,0.05687856999999999,0.13583190914999999,0.025627,0.02347,0.003,0.12816310885,-3.4395844209999997,-9.1827705403,0.013956,0.358361,2.837937,5.999999999999062e-06,-0.00011929999999999927,2.4999999999990308e-06,0.00013442644441874485,1.8374036733437293e-05,3.3860714394706726e-05
1504196339.68,-1.0,-0.07335374199999999,-0.0012454445499999998,0.1322524819,0.005398,0.035346,0.013618,0.12961449305,-3.4414672978,-9.1820448482,0.014115,0.358567,2.838109,9.000000000002062e-06,-0.00013220000000000072,4.999999999999796e-06,0.00024063497953386026,6.252739344514424e-06,3.395800497718593e-05
1504196339.69,-1.0,-0.05831034089999999,-0.0200644059,0.1837570077,-0.024541,0.030258,0.018913,0.13088935754999997,-3.441349618,-9.1820644615,0.014253,0.358554,2.838355,8.500000000001562e-06,-0.00012564999999999972,1.700000000000139e-05,0.00028978653665134857,3.4183356485417704e-06,2.0261606541449595e-05
1504196339.7,-1.0,-0.02489908435,-0.03423501515,0.16948833195,-0.056618,0.018804,0.014608,0.13188963585,-3.43826052325,-9.18321183955,0.014361,0.358217,2.838544,8.500000000001562e-06,-0.00012564999999999972,1.6999999999999654e-05,0.00028978428624970576,3.412437463046203e-06,2.026243418651319e-05
1504196339.71,-1.0,0.003726527,-0.033215123549999996,0.1359790089,-0.073679,0.012564,0.002848,0.13288991415,-3.4329943521999997,-9.1851633629,0.014467,0.357644,2.838615,9.999999999996123e-06,-0.0001257000000000003,1.1999999999999858e-05,0.0002404695399762513,-3.4949752776292087e-06,4.706929936471038e-05
1504196339.72,-1.0,-0.0063939358,0.009022117999999999,0.11245285555,-0.072414,0.025361,-0.016386,0.1352337035,-3.4266004164,-9.1875169589,0.014718,0.356947,2.838505,9.000000000002062e-06,-0.00012310000000000012,7.000000000000062e-06,0.0001989759614862141,1.5259241792353606e-06,3.196314842124348e-05
1504196339.73,-1.0,-0.061703441799999995,0.0575650355,0.11321777424999999,-0.059421,0.039122,-0.032398,0.13861699775,-3.4203731936499997,-9.1897921017,0.015083,0.35627,2.838245,4.4999999999975615e-06,-5.539999999999972e-05,2.5000000000007655e-06,8.475168700705638e-05,3.194657039129467e-06,2.0396604654138173e-06
1504196339.74,-1.0,-0.1088734283,0.07569753135,0.11234498239999999,-0.036978,0.043199,-0.033433,0.1419414521,-3.4157640681499997,-9.19144942555,0.015442,0.355768,2.837961,4.5000000000045e-06,-5.539999999999972e-05,2.4999999999990308e-06,8.475131784591028e-05,3.1944701701647205e-06,2.039922196273025e-06
1504196339.75,-1.0,-0.119052731,0.05419154789999999,0.0993805911,-0.009274,0.044025,-0.024847,0.14508938675,-3.4138517713999996,-9.19211627775,0.015783,0.355561,2.837749,1.7999999999997185e-05,-0.0001688000000000002,1.1999999999999858e-05,0.0003128170207427061,3.0576777705348945e-06,-8.285435339328018e-05
1504196339.76,-1.0,-0.13630262834999998,0.03394081565,0.11688546135,0.016189,0.032082,-0.015174,0.14677613055,-3.4150089561,-9.191655365199999,0.015967,0.355686,2.837653,1.1999999999998123e-05,-6.52999999999999e-05,6.000000000000796e-06,8.535860568059661e-05,1.4385211311029877e-05,-7.069414798444029e-05
1504196339.77,-1.0,-0.1111485711,0.013258590799999997,0.145530686,0.023453,0.006446,-0.015115,0.14660941749999998,-3.4176567515999996,-9.190674700199999,0.015951,0.355975,2.837563,1.7000000000003124e-05,-5.7399999999999986e-05,7.000000000000062e-06,2.886645843069857e-05,-1.0989859860144335e-05,-9.586152135687698e-05
1504196339.78,-1.0,-0.0879264239,-0.0252619304,0.1155419503,0.021149,-0.022296,-0.02681,0.14434408135,-3.4207458463499996,-9.18956654875,0.015706,0.35631,2.837369,2.2000000000001185e-05,-5.6200000000000173e-05,7.000000000000062e-06,2.8989373002552554e-05,-2.2983907747464727e-05,-0.00012411624378594333
1504196339.79,-1.0,-0.050484634199999996,-0.06479253655,0.1184054921,0.000816,-0.040228,-0.042824,0.14146092625,-3.4228052428499995,-9.18884085665,0.015394,0.356535,2.836995,1.9999999999999185e-05,-6.700000000000022e-05,9.999999999999593e-06,4.251639047092581e-05,-2.6955302693476568e-05,-0.0001466742756504047
1504196339.8,-1.0,-0.0245362383,-0.08529824169999999,0.13310566045,-0.028975,-0.036775,-0.053556,0.1391563635,-3.4228052428499995,-9.18888008325,0.015143,0.356534,2.836466,2.9000000000001247e-05,-7.964999999999969e-05,9.499999999999093e-06,0.00014282215240912777,-2.1801769928941894e-05,-0.00013685255749851244
1504196339.81,-1.0,-0.030655587899999996,-0.0997532438,0.10441140254999999,-0.05442,-0.014192,-0.04937,0.13840125144999998,-3.42031435375,-9.189811715,0.015059,0.356264,2.835948,2.9000000000001247e-05,-7.964999999999969e-05,9.500000000000827e-06,0.00014282625507400226,-2.17823898094327e-05,-0.00013685674345387255
1504196339.82,-1.0,-0.0727457297,-0.09542851114999999,0.07945347829999999,-0.070332,0.008296,-0.031291,0.13873467755,-3.4158131014,-9.1914788455,0.015092,0.355774,2.835625,3.799999999999637e-05,-9.060000000000058e-05,9.999999999999593e-06,0.00024138223935832315,-2.238593219061613e-05,-9.472915399588722e-05
1504196339.83,-1.0,-0.1045585023,-0.06418452424999999,0.048572337449999996,-0.071282,0.032795,-0.015324,0.14017625509999998,-3.4102527308499995,-9.193528435349998,0.015246,0.35517,2.835504,3.999999999999837e-05,-9.49999999999996e-05,1.1000000000000593e-05,0.00022633662219773143,-7.23182502970765e-06,-5.6006482669124225e-05
1504196339.84,-1.0,-0.10321499124999998,-0.056172491199999994,0.056907989949999994,-0.062598,0.051901,-0.014274,0.1433143831,-3.40538863245,-9.195283825699999,0.015584,0.35464,2.83543,1.9499999999998685e-05,-4.839999999999966e-05,7.000000000000062e-06,0.00010639692043179494,2.000926836442929e-06,-1.1944129395646819e-05
1504196339.85,-1.0,-0.0860239338,-0.02191786275,0.06375303165,-0.058197,0.060402,-0.02709,0.14827654799999998,-3.4004460808499997,-9.197029409399999,0.016121,0.354103,2.835242,1.9500000000005624e-05,-4.8400000000000526e-05,7.000000000000062e-06,0.0001063970621943966,2.0022006841369233e-06,-1.1943935010583218e-05
1504196339.86,-1.0,-0.06640082715,-0.0048444850999999995,0.04668946064999999,-0.057161,0.046556,-0.043074,0.15318967965,-3.3953760427999997,-9.19882402635,0.016651,0.353552,2.834882,7.399999999999768e-05,-0.00020370000000000024,3.300000000000004e-05,0.00035400246695482807,1.3154068080556414e-05,-1.2326650299487873e-05
1504196339.87,-1.0,-0.041452709549999994,0.007207887749999999,-0.028615804699999997,-0.050961,0.013484,-0.055814,0.15637684089999998,-3.3900608384999997,-9.200726516449999,0.016995,0.352974,2.834349,3.800000000000331e-05,-0.00011384999999999954,1.849999999999942e-05,0.00025488788334282475,7.047105520907593e-06,1.654017324470569e-05
1504196339.88,-1.0,0.00510926465,0.0103558224,-0.0722357839,-0.035151,-0.01541,-0.063207,0.15770073865,-3.3857262992,-9.2023053871,0.017135,0.352503,2.83369,3.799999999999637e-05,-0.00011385000000000041,1.849999999999942e-05,0.00025488812808616146,7.042894120568022e-06,1.6541977442385836e-05
1504196339.89,-1.0,0.028213732049999996,5.88399e-05,-0.0731379957,-0.021477,-0.041094,-0.065273,0.15703388645,-3.38291179065,-9.203344891999999,0.017061,0.352197,2.832988,3.800000000000331e-05,-0.0001238000000000003,2.5000000000000716e-05,0.0003403548204787832,1.9611352397586046e-06,1.493872818314479e-05
1504196339.9,-1.0,0.04119773665,-0.0264975683,-0.04988642855,-0.010956,-0.06036,-0.066289,0.15468029044999998,-3.3816565394499998,-9.2038548378,0.016804,0.352061,2.832265,4.399999999999543e-05,-0.00011759999999999982,2.5000000000000716e-05,0.00038209049789172944,1.0587729331490436e-05,6.65371352159827e-06
1504196339.91,-1.0,0.0567412769,-0.023732092999999996,-0.053818895199999994,-0.003604,-0.074273,-0.065185,0.1511008632,-3.3811171736999994,-9.2041098107,0.016416,0.352003,2.831539,5.200000000000343e-05,-0.00011189999999999985,2.3999999999999716e-05,0.0004105497992494822,2.2607365096849463e-05,-1.2000200248940551e-05
1504196339.92,-1.0,0.049955075099999996,-0.014337322299999998,-0.06647928035,0.009212,-0.067992,-0.057702,0.14726646305,-3.3815388596499996,-9.2040117442,0.015999,0.352048,2.830872,5.6000000000000494e-05,-0.00011080000000000031,2.199999999999945e-05,0.00039728380592007895,1.7513200283536534e-05,-3.0323554317535084e-05
1504196339.93,-1.0,0.03197948565,-0.00381478685,-0.0292042037,0.024287,-0.041491,-0.042779,0.144746154,-3.3832354101,-9.20343315185,0.015726,0.352232,2.830349,5.8999999999996555e-05,-0.00011249999999999975,1.9999999999999185e-05,0.00035424141549644794,7.99221548408724e-06,-5.069962134529593e-05
1504196339.94,-1.0,-0.013307624049999998,0.0192014207,-0.02766455965,0.042778,0.012685,-0.026831,0.14528551974999998,-3.38634411815,-9.20227596715,0.015787,0.35257,2.830031,6.0000000000004494e-05,-0.0001152000000000002,2.000000000000092e-05,0.0003260012114494337,-4.4569854895648575e-07,-5.920216893362529e-05
1504196339.95,-1.0,-0.09152546444999998,0.037186816799999994,0.0118268199,0.046313,0.060597,-0.017303,0.1489826268,-3.3902667781499995,-9.2007755497,0.016191,0.352996,2.829871,6.199999999999956e-05,-0.00011759999999999982,1.9999999999999185e-05,0.00031267314155569714,-3.774659464550467e-06,-6.601132800865273e-05
1504196339.96,-1.0,-0.10933434084999999,0.02874329115,0.04172729575,0.030402,0.073511,-0.015217,0.15437628429999997,-3.39334606625,-9.19954971845,0.016779,0.353331,2.829773,6.499999999999562e-05,-0.00012009999999999972,2.400000000000145e-05,0.0002695206127212302,-8.825237034937317e-06,-6.764860723695865e-05
1504196339.97,-1.0,-0.09019176005,0.00102969825,-0.035235293449999996,0.019651,0.064006,-0.014151,0.15962284205,-3.395258363,-9.1987553798,0.017351,0.353539,2.829672,6.799999999999862e-05,-0.0001232999999999998,2.599999999999998e-05,0.0002262549762028776,-5.595018708337562e-07,-4.244555827392915e-05
1504196339.98,-1.0,-0.044728130649999996,-0.03288169745,-0.0140235095,0.010885,0.02786,-0.025844,0.16309439615,-3.39681762035,-9.19811794755,0.017729,0.353708,2.829453,6.700000000000456e-05,-0.00013210000000000131,2.2999999999998716e-05,0.00015629548393825132,3.410498715217258e-05,5.16833563279917e-06
1504196339.99,-1.0,0.0146511351,-0.048886150249999996,0.06023244429999999,0.004171,-0.020022,-0.039647,0.1638691215,-3.3983180377999997,-9.197549161849999,0.017815,0.353872,2.829059,6.699999999999762e-05,-0.00013209999999999958,2.300000000000045e-05,0.00015629649637549647,3.4104378384691714e-05,5.173694282989416e-06
1504196340.0,-1.0,0.07521700549999999,-0.07446189345,0.0800614906,-0.000378,-0.059404,-0.045991,0.16195682474999998,-3.39981845525,-9.197029409399999,0.017608,0.354035,2.828532,6.500000000000256e-05,-0.00014179999999999922,1.3000000000000858e-05,0.0001413699120047518,6.168018484253857e-05,3.455622439918482e-05
1504196340.01,-1.0,0.08754396454999999,-0.10778489015,0.10787314999999999,-0.003727,-0.0743,-0.039567,0.15815184454999998,-3.4016719121,-9.19641159045,0.017196,0.354236,2.828034,6.799999999999862e-05,-0.0001466000000000002,9.999999999999593e-06,0.00018436076624306352,5.6975644898038524e-05,5.1077231641882825e-05
1504196340.02,-1.0,0.062370294,-0.10623543945,0.12682940445,-0.010073,-0.065725,-0.036391,0.15385653185,-3.4032115561499996,-9.1959114513,0.016729,0.354404,2.827609,7.100000000000162e-05,-0.0001510000000000001,4.000000000000531e-06,0.00015602000798908833,6.170994414511632e-05,6.958810804347237e-05
1504196340.03,-1.0,0.01832862885,-0.10033183614999999,0.13118355704999998,-0.009821,-0.030568,-0.030048,0.1515127425,-3.404476614,-9.19548976535,0.016475,0.354541,2.827267,7.199999999999568e-05,-0.00015440000000000072,9.999999999992654e-07,0.00012773491528061953,6.001932064525484e-05,7.463140979058203e-05
1504196340.04,-1.0,-0.0269290609,-0.060193217699999996,0.10843212905,0.001062,0.00662,-0.013016,0.15142448265,-3.4057122519,-9.1950288528,0.016467,0.354675,2.827105,7.400000000000462e-05,-0.00015689999999999975,-2.999999999999531e-06,0.00014121007126544072,5.199256117505158e-05,4.928624247735325e-05
1504196340.05,-1.0,-0.0674109121,-0.023388860249999997,0.14771756895,0.001166,0.030043,0.004021,0.1527091538,-3.40705576295,-9.19450910035,0.016607,0.354822,2.827148,7.699999999999374e-05,-0.00015060000000000073,-9.999999999992654e-07,0.0001345640514072155,5.287761322025908e-05,4.679831116649602e-05
1504196340.06,-1.0,-0.04221762824999999,-0.028615804699999997,0.13273300775,-0.005187,0.038615,0.008265,0.155337336,-3.4078108749999996,-9.1941854809,0.016894,0.354904,2.827261,7.700000000000068e-05,-0.000150599999999999,-1.000000000001e-06,0.00013456638765374507,5.287130109543625e-05,4.6805378730141456e-05
1504196340.07,-1.0,-0.0283412185,-0.0361865385,0.08681827245,-0.015741,0.0483,0.000758,0.1591227029,-3.4075755154,-9.19421490085,0.017305,0.354878,2.827315,7.900000000000268e-05,-0.00013679999999999942,7.000000000000062e-06,0.0001693456023712514,3.505698590755557e-05,4.899508729772073e-05
1504196340.08,-1.0,-0.01872089485,-0.0374417897,0.0897308475,-0.0221,0.049425,-0.005659,0.16356511534999998,-3.40676156345,-9.19443064715,0.017788,0.35479,2.827289,7.900000000000268e-05,-0.00013280000000000063,1.1999999999999858e-05,0.00015603218310578093,3.1857827722081566e-05,4.2347958800759145e-05
1504196340.09,-1.0,-0.01915238745,-0.05004333495,0.0740205942,-0.028626,0.032431,-0.007775,0.1669876362,-3.40538863245,-9.19488175305,0.018159,0.35464,2.827226,6.699999999999762e-05,-0.00013580000000000016,5.999999999999062e-06,0.0001410359444302678,2.837662988075529e-05,5.236218673632109e-05
1504196340.1,-1.0,0.0026085689,-0.07671742295,0.04974913545,-0.028777,0.007932,-0.016272,0.16887051299999997,-3.40415299455,-9.195303439,0.018363,0.354506,2.827077,6.899999999999962e-05,-0.00013809999999999864,8.000000000001062e-06,0.00012776709405182274,3.504104999052515e-05,4.9234518561092067e-05
1504196340.11,-1.0,0.031214566949999998,-0.06885248965,0.04782703205,-0.026846,-0.026168,-0.030085,0.16855670019999996,-3.4028879366999996,-9.195774158199999,0.018327,0.354369,2.826787,7.300000000000362e-05,-0.00014190000000000036,5.999999999999062e-06,0.00012795225345585415,5.857561229127839e-05,4.615525407392074e-05
1504196340.12,-1.0,0.0728830228,-0.0665871535,0.058584927099999996,-0.029132,-0.052776,-0.041784,0.16668363005,-3.4014169391999998,-9.19635275055,0.018123,0.354208,2.826324,7.999999999999674e-05,-0.00014620000000000084,2.0000000000002655e-06,0.000141221888918297,6.0197489874846966e-05,5.767304662140926e-05
1504196340.13,-1.0,0.10919704775,-0.07219655729999999,0.05643727074999999,-0.039848,-0.060142,-0.043925,0.16448694044999998,-3.3992398628999996,-9.19719612245,0.017883,0.353972,2.825794,8.69999999999968e-05,-0.00014699999999999956,-9.999999999992654e-07,9.980921919217067e-05,6.20832136521976e-05,3.63071953548566e-05
1504196340.14,-1.0,0.087279185,-0.08121867529999999,0.06409626439999999,-0.054783,-0.054699,-0.035422,0.16185875824999998,-3.3960625083,-9.198421953699999,0.017595,0.353626,2.825332,9.50000000000048e-05,-0.0001449999999999993,-2.0000000000002655e-06,5.6828620615068104e-05,6.42522631710829e-05,1.4234317819106224e-05
1504196340.15,-1.0,0.0350685804,-0.08731841159999999,0.014798234849999998,-0.065018,-0.02482,-0.023687,0.16021124105,-3.3914533827999995,-9.2001479241,0.017412,0.353125,2.825036,9.999999999999593e-05,-0.0001420000000000015,-2.999999999999531e-06,2.8658443928630817e-05,6.278338941601014e-05,2.3948757541525367e-06
1504196340.16,-1.0,-0.04045243125,-0.06303714619999999,0.008492558899999999,-0.059254,0.032668,-0.017374,0.161809725,-3.3865598644499997,-9.20192292775,0.017582,0.352593,2.824864,0.00010300000000000586,-0.0001454999999999998,-1.5000000000015001e-06,8.542200192440674e-05,5.260953308905414e-05,-4.902488353175638e-05
1504196340.17,-1.0,-0.08306232549999999,0.00255953565,0.0254384501,-0.021613,0.076036,-0.007778,0.16686014975,-3.3837649692,-9.20286436615,0.018129,0.35229,2.824819,0.00010299999999999893,-0.0001454999999999998,-1.4999999999997654e-06,8.54190167416391e-05,5.261350801011311e-05,-4.902015612817667e-05
1504196340.18,-1.0,-0.10197935335,0.05571157865,0.07858068644999999,0.006247,0.09498,-0.001358,0.17396016435,-3.3833530898999995,-9.202883979449998,0.0189,0.352245,2.824858,9.599999999999886e-05,-0.000171000000000001,-1.4999999999997654e-06,0.00026971761103222747,-3.7391040741407977e-06,-9.728188105306845e-05
1504196340.19,-1.0,-0.037932122199999994,0.03986403225,0.09805669334999999,0.001669,0.055591,-0.002363,0.1796382147,-3.38381400245,-9.20260939325,0.019518,0.352295,2.824862,9.599999999999886e-05,-0.00017099999999999928,-1.4999999999997654e-06,0.00026971791548335844,-3.7128667169650242e-06,-9.728286517063367e-05
1504196340.2,-1.0,0.0705098135,-0.01456287525,-0.00399130655,-0.016871,-0.000722,-0.011903,0.1825213698,-3.38281372415,-9.2029133994,0.019831,0.352187,2.82472,9.800000000000086e-05,-0.00019299999999999873,-9.999999999992654e-07,0.00041107938671003375,2.4212215343766275e-06,-0.00011447546030995959
1504196340.21,-1.0,0.13275262105,-0.054868206749999995,-0.103362091,-0.026705,-0.038985,-0.026798,0.18253117645,-3.38081316755,-9.20364889815,0.01983,0.351969,2.824404,0.00010199999999999793,-0.000196,-4.999999999999796e-06,0.0004543434693933257,1.921007077165804e-05,-0.00011414737382908768
1504196340.22,-1.0,0.14997309844999998,-0.07126492555,-0.07291244274999999,-0.029955,-0.05386,-0.040654,0.1814818649,-3.3786262845999997,-9.20447265675,0.019714,0.351732,2.823914,0.00010399999999999993,-0.0001910000000000002,-4.000000000000531e-06,0.00042610275677623655,1.9277146481089247e-05,-0.00011411635050206925
1504196340.23,-1.0,0.11402191954999999,-0.054446520799999995,-0.0353235533,-0.025646,-0.052821,-0.047054,0.17986376764999998,-3.3765963080499994,-9.2052473821,0.019537,0.351511,2.823361,0.00010349999999999943,-0.00017350000000000004,1.666666666667177e-06,0.0003836852537655311,1.9128131189427577e-05,-0.00010575820846081552
1504196340.24,-1.0,0.07501106585,-0.037186816799999994,-0.027272293649999998,-0.022324,-0.038992,-0.049208,0.17893213589999998,-3.3747036245999995,-9.205963267549999,0.019434,0.351306,2.82279,0.00010349999999999943,-0.00017350000000000004,1.6666666666654423e-06,0.00038368594600202144,1.916884469510549e-05,-0.00010575160980352827
1504196340.25,-1.0,0.04129580315,-0.0127094184,-0.007502087249999999,-0.009443,-0.02206,-0.037474,0.17853006324999998,-3.3734385667499995,-9.20643398675,0.019389,0.351168,2.822328,0.00010300000000000586,-0.00016200000000000069,1.666666666667177e-06,0.0003261202425224319,1.9866217275676945e-06,-8.091272199739485e-05
1504196340.26,-1.0,0.03817728845,0.0174362237,-0.0354412331,0.015247,0.007556,-0.020405,0.17999125409999997,-3.37365431305,-9.2063261136,0.019549,0.351192,2.822034,0.00010599999999999499,-0.00015800000000000015,7.000000000000062e-06,0.0002545494124874814,1.0858847154793239e-09,-5.899409477405637e-05
1504196340.27,-1.0,-0.01434712895,0.043551332649999996,-0.0101008495,0.033495,0.034025,-0.00014,0.18254098309999997,-3.37583138935,-9.2054827417,0.019827,0.351428,2.821988,0.00011099999999999999,-0.00015899999999999942,1.1000000000000593e-05,0.00022805079689458552,2.98568265968413e-05,-4.8250509614322645e-05
1504196340.28,-1.0,-0.02593858925,0.0629390797,0.0190837409,0.036774,0.053163,0.014776,0.1863459633,-3.37845957155,-9.204433430149999,0.020243,0.351713,2.822117,0.00011699999999999905,-0.00016400000000000095,1.2999999999999123e-05,0.00022663152113766571,7.203239789665972e-05,-3.919620865611151e-05
1504196340.29,-1.0,-0.03347009644999999,0.0661360476,-0.0547603336,0.026179,0.066031,0.020072,0.191033542,-3.38000902225,-9.203766577949999,0.020753,0.351882,2.822337,0.00011099999999999999,-0.00016099999999999969,9.000000000000327e-06,0.0002132991960082098,9.873721798170365e-05,-1.0212821804356231e-05
1504196340.3,-1.0,-0.0043345393,0.05047482755,-0.100223963,0.009115,0.065109,0.016842,0.19646642609999998,-3.3800580554999997,-9.2036390915,0.021343,0.351887,2.822526,0.00011200000000000099,-0.00017,9.000000000000327e-06,0.00024163721523806636,9.19560386183349e-05,-3.194978446219299e-05
1504196340.31,-1.0,0.024085132399999997,0.04086431055,-0.1181897458,-0.000604,0.046017,0.009387,0.20126187794999997,-3.3789793239999995,-9.203933291,0.021864,0.35177,2.822626,0.00010900000000000493,-0.00017900000000000034,9.000000000000327e-06,0.00024150903664055257,7.014865316667951e-05,-3.387168900303994e-05
1504196340.32,-1.0,0.07891411255,0.0360296321,-0.0893581948,-0.001982,0.006604,0.008386,0.2038998668,-3.3777338794499996,-9.20433536365,0.022149,0.351635,2.822667,0.00010499999999999399,-0.00018899999999999993,7.000000000000062e-06,0.00026951433560928884,3.9790020412100446e-05,-2.7969523293758236e-05
1504196340.33,-1.0,0.1177190266,0.00793357985,-0.07202003759999999,0.016898,-0.031915,0.011688,0.2034095343,-3.3782242119499997,-9.20415884395,0.022096,0.351688,2.822706,0.00010200000000000486,-0.00019899999999999952,4.999999999999796e-06,0.00024124223168531245,1.3288534423949727e-05,-4.8413424955762174e-05
1504196340.34,-1.0,0.12886918765,0.0034323275,-0.00846313895,0.041237,-0.057687,0.010707,0.2003302462,-3.3813525333,-9.20308011245,0.021764,0.352028,2.822745,5.050000000000193e-05,-0.00010299999999999893,9.999999999992654e-07,0.00012070193896551729,3.5691361981449177e-06,-3.955044496117832e-05
1504196340.35,-1.0,0.1011654014,-0.0019417166999999998,0.0722946238,0.060387,-0.065301,0.009686,0.19571131404999997,-3.3870501969499998,-9.2010893625,0.021268,0.352646,2.822779,5.049999999999499e-05,-0.00010300000000000066,9.999999999992654e-07,0.00012070183175749705,3.5739107520083024e-06,-3.9550024994672306e-05
1504196340.36,-1.0,0.0597421118,-0.0049621649000000006,0.09254535604999999,0.069074,-0.050446,0.00327,0.19135716144999998,-3.39405214505,-9.1985984734,0.0208,0.353408,2.822785,0.00020599999999999785,-0.0004310000000000008,1.000000000001e-06,0.00038297161231959365,4.514711454906006e-05,-0.00010174375182037121
1504196340.37,-1.0,0.0045110589999999996,-0.0025693423,0.11100147134999999,0.064078,-0.014164,-0.006409,0.189268345,-3.40093641335,-9.19609777765,0.020579,0.354157,2.822728,0.00010800000000000393,-0.0002199999999999997,-2.0000000000002655e-06,0.00018480813639643046,5.288303463091282e-05,-1.744977302176043e-05
1504196340.38,-1.0,-0.0566432104,0.0021966895999999997,0.13236035505,0.037701,0.020156,-0.010785,0.18982732404999997,-3.40585935165,-9.1942639341,0.020643,0.354691,2.822643,0.00011699999999999905,-0.00019950000000000002,2.5000000000007655e-06,0.00016342653270795537,7.193917836501029e-05,-3.1918214711823545e-05
1504196340.39,-1.0,-0.07442266685,-0.037157396849999996,0.1338411592,-0.004913,0.031156,-0.00554,0.19173962079999998,-3.40780106835,-9.19350882205,0.020853,0.354902,2.822609,0.00011699999999999905,-0.00019950000000000002,2.4999999999990308e-06,0.0001634237872853994,7.194426216305949e-05,-3.1906368889167425e-05
1504196340.4,-1.0,-0.0793554118,-0.08993678715,0.082964259,-0.0446,0.005905,-0.003429,0.19188672055,-3.40619277775,-9.194097221049999,0.020868,0.354728,2.822624,0.0001250000000000001,-0.0001749999999999998,9.999999999999593e-06,0.00012850169144718038,8.200024050641908e-05,-1.5966837860537098e-05
1504196340.41,-1.0,-0.008865211599999999,-0.1244856151,0.0677051116,-0.058776,-0.036596,-0.009783,0.18963119104999998,-3.40307426305,-9.195303439,0.02062,0.354389,2.822561,0.00012849999999999667,-0.00016799999999999975,1.4000000000000123e-05,6.445588122483414e-05,8.336398258745881e-05,6.985218359290002e-07
1504196340.42,-1.0,0.045895122,-0.10440159589999999,0.0880833303,-0.045074,-0.071849,-0.032113,0.18529665174999999,-3.40040685425,-9.19637236385,0.020146,0.354099,2.82227,0.0001285000000000036,-0.00016799999999999975,1.4000000000000123e-05,6.445611898397985e-05,8.336425732968777e-05,7.038975351481014e-07
1504196340.43,-1.0,0.0385205212,-0.05200466495,0.14448137444999998,-0.017357,-0.086975,-0.051252,0.17964802134999996,-3.3995340624,-9.19680385645,0.019532,0.354004,2.821746,0.00012999999999999817,-0.00016799999999999975,1.5000000000001124e-05,5.685951419520663e-05,6.050767935605883e-05,-2.37253218859923e-06
1504196340.44,-1.0,0.016622271749999997,-0.02368305975,0.15279741365,0.013659,-0.079768,-0.054413,0.17401900425,-3.4012208062,-9.196293910649999,0.018921,0.354187,2.821149,0.0001280000000000031,-0.000172000000000002,1.1999999999999858e-05,5.6949592869059984e-05,5.795554023668714e-05,-1.9392778475402217e-05
1504196340.45,-1.0,-0.053348176000000004,0.013425303849999999,0.1485119076,0.040452,-0.057624,-0.042664,0.16887051299999997,-3.4049571398499996,-9.19499943285,0.018363,0.354594,2.820683,0.00013099999999999917,-0.00017499999999999807,4.999999999999796e-06,8.529862455963766e-05,5.118811451443328e-05,-4.447395129947296e-05
1504196340.46,-1.0,-0.084533323,0.03243059155,0.1015184408,0.0513,-0.022571,-0.022425,0.16534011899999998,-3.4095956853,-9.19335191565,0.017982,0.355098,2.820438,0.00013699999999999823,-0.00017800000000000107,-2.999999999999531e-06,8.539715397581915e-05,5.89198492775278e-05,-5.323590992356575e-05
1504196340.47,-1.0,-0.1376657527,0.0310282406,0.05943810565,0.042012,0.028632,-0.003318,0.16475172,-3.4137340916,-9.19182207825,0.017921,0.355548,2.820436,0.0001460000000000003,-0.00017599999999999907,-1.1000000000000593e-05,4.4076717633512175e-05,8.53234117297319e-05,-6.006523900659033e-05
1504196340.48,-1.0,-0.14940431275,0.03507838705,0.043345393,0.017715,0.070369,0.014714,0.16751719529999998,-3.4158327147,-9.19099831965,0.018224,0.355777,2.820641,0.00015500000000000236,-0.00017,-1.8000000000000654e-05,-3.392141486369127e-05,0.00010122138644907963,-5.641050299909356e-05
1504196340.49,-1.0,-0.1484334544,0.0206724182,0.00942419065,-0.014131,0.091939,0.016756,0.17267549319999997,-3.4150481826999997,-9.191194452649999,0.018785,0.355691,2.820923,0.00016399999999999748,-0.00016800000000000148,-1.899999999999992e-05,-6.38160523438458e-05,0.0001226327698298224,-3.779474774834313e-05
1504196340.5,-1.0,-0.10305808484999998,0.006648908699999999,-0.0201624724,-0.038682,0.087881,0.012452,0.17906942899999997,-3.41180218155,-9.19227318415,0.019478,0.355338,2.821136,1.6000000000002124e-05,-0.0002929999999999981,1.6999999999999654e-05,-7.052204889879121e-05,0.00011850704838156645,-3.181179318212379e-05
1504196340.51,-1.0,-0.0410310236,-0.005187717849999999,-0.01320955755,-0.049594,0.054941,0.008222,0.18409043379999998,-3.4073009291999994,-9.19384224815,0.02002,0.354848,2.821268,1.7999999999997185e-05,-0.00029000000000000206,2.2000000000001185e-05,-0.00011205650935641742,0.00011672062882350787,-3.184424937030528e-05
1504196340.52,-1.0,0.012748645,-0.028831550999999997,0.0149649479,-0.03928,0.009038,0.006186,0.18596350395,-3.4038587950499997,-9.1950876927,0.020222,0.354474,2.821339,1.5500000000001624e-05,-0.00028900000000000106,2.8999999999999512e-05,-7.736433730043402e-05,8.955280974176638e-05,-2.833740647467664e-05
1504196340.53,-1.0,0.038883367249999995,-0.051239746249999996,0.07411866069999999,-0.016104,-0.029511,0.004159,0.18452192639999998,-3.4029860031999997,-9.19543092545,0.020064,0.354379,2.821369,1.5500000000001624e-05,-0.0002889999999999976,2.8999999999999512e-05,-7.736665597746217e-05,8.955045726444233e-05,-2.8344254762058263e-05
1504196340.54,-1.0,0.03148915315,-0.031234180249999997,0.1276433564,0.005079,-0.053122,-0.002168,0.18055023315,-3.40415299455,-9.1950876927,0.019633,0.354505,2.821343,1.7999999999997185e-05,-0.00028699999999999906,3.500000000000031e-05,-4.080914934401214e-05,6.430995325312772e-05,-5.722852740897011e-05
1504196340.55,-1.0,0.016190779149999997,-0.032509044749999993,0.16215295775,0.022211,-0.048995,-0.007482,0.17609801405,-3.4073597690999997,-9.19397954125,0.019151,0.354855,2.821267,2.5000000000004186e-05,-0.00027800000000000047,3.799999999999984e-05,2.8904264940843305e-05,7.003808775163378e-05,-4.4026246128092694e-05
1504196340.56,-1.0,-0.016337878899999998,-0.02570322965,0.1596914886,0.023588,-0.017027,-0.01821,0.17390132444999998,-3.4108705498,-9.19272429005,0.018915,0.355237,2.821106,3.699999999999537e-05,-0.0002690000000000019,3.7000000000000574e-05,4.203177625394794e-05,8.938679784598058e-05,3.1635190776979627e-06
1504196340.57,-1.0,-0.08874037585,-0.0211627507,0.1383326049,0.008986,0.019331,-0.026838,0.17433281705,-3.4131653059000002,-9.191861304849999,0.018964,0.355486,2.820895,5.200000000000343e-05,-0.0002669999999999999,3.399999999999931e-05,0.00012822284271152284,0.00011863915486576282,6.59635677032755e-05
1504196340.58,-1.0,-0.12134748709999998,-0.033028797199999994,0.10507825475,-0.01851,0.048329,-0.029071,0.17731403864999998,-3.4131260793,-9.19182207825,0.019288,0.355482,2.820661,6.599999999999662e-05,-0.00026400000000000035,2.9000000000001247e-05,0.00016967523838440357,0.00016388539699785376,0.00012819828629229146
1504196340.59,-1.0,-0.12315191069999999,-0.0625075871,0.0476995456,-0.039744,0.066608,-0.0206,0.18196239074999998,-3.4110274562000003,-9.19250854375,0.019792,0.355253,2.820495,7.150000000000212e-05,-0.00024000000000000063,2.0499999999999685e-05,0.00011416536365116414,0.00022058344882758263,0.00017158348208146101
1504196340.6,-1.0,-0.12315191069999999,-0.09364370085,0.06971547485,-0.050489,0.060295,-0.015269,0.1863067367,-3.4083208208,-9.193420562199998,0.020262,0.35496,2.820399,7.150000000000212e-05,-0.00023999999999999716,2.0499999999999685e-05,0.00011420380851712153,0.00022056553205307416,0.00017160956064521393
1504196340.61,-1.0,-0.09499701854999999,-0.07624670374999999,0.11680700814999999,-0.053916,0.033679,-0.012025,0.18897414549999997,-3.40507481965,-9.19456794025,0.02055,0.354606,2.82034,6.799999999999862e-05,-0.00022900000000000004,1.8000000000000654e-05,-1.2461516045725318e-06,0.00019257422214224995,0.00014537470860176427
1504196340.62,-1.0,-0.0379713488,-0.0889463155,0.13908771695,-0.052049,-0.002563,-0.016228,0.1894056381,-3.4022505044499995,-9.19560744515,0.020594,0.354299,2.820223,6.0999999999998555e-05,-0.00022099999999999898,1.799999999999892e-05,-4.122476268575426e-05,0.0001372606505805063,0.00010887016504002034
1504196340.63,-1.0,0.0098458766,-0.09581097049999998,0.14522667984999998,-0.047927,-0.027096,-0.025784,0.1882680667,-3.39987729515,-9.19650965695,0.020469,0.354041,2.819979,5.300000000000443e-05,-0.00021400000000000238,1.899999999999992e-05,-0.00011275679257027882,8.456760666075702e-05,6.734966802623976e-05
1504196340.64,-1.0,0.0225356817,-0.08286619249999999,0.14134324645,-0.045857,-0.04202,-0.036428,0.1862086702,-3.3975531190999995,-9.197411868749999,0.020244,0.353789,2.819603,5.099999999999549e-05,-0.00020899999999999738,1.6999999999999654e-05,-9.957538038674052e-05,4.8033076569975464e-05,4.292144662565445e-05
1504196340.65,-1.0,0.01207198615,-0.07089227285,0.1271530239,-0.04259,-0.036714,-0.040702,0.18410024045,-3.39517010315,-9.19833369385,0.020012,0.353529,2.819176,5.4999999999999494e-05,-0.00020500000000000032,1.600000000000039e-05,-5.6407872247365987e-05,4.311892527653072e-05,4.1225255284604856e-05
1504196340.66,-1.0,-0.00987529655,-0.05022966129999999,0.07312818905,-0.033891,-0.014411,-0.037524,0.1833059018,-3.39277728055,-9.199226098999999,0.019924,0.353269,2.818772,5.9000000000003494e-05,-0.0002009999999999998,1.3000000000000858e-05,-2.8026332297370615e-05,6.178407576551415e-05,3.637134583922563e-05
1504196340.67,-1.0,-0.037461403,-0.029410143349999997,0.05608423135,-0.034765,0.012231,-0.033302,0.1844042466,-3.3902569715,-9.200138117449999,0.020041,0.352995,2.818424,6.599999999999662e-05,-0.00019600000000000173,9.000000000000327e-06,-4.2613493948406855e-05,9.131557396235834e-05,1.965319449404035e-06
1504196340.68,-1.0,-0.061389628999999994,-0.016994924449999997,0.01579851315,-0.038946,0.030367,-0.0216,0.18663035614999998,-3.3869619371,-9.2013051088,0.020281,0.352637,2.818199,7.400000000000462e-05,-0.0001899999999999992,2.999999999999531e-06,-4.0596235499013034e-05,0.0001007194350783891,-5.66627739798653e-05
1504196340.69,-1.0,-0.059585205399999994,-0.03415656195,-0.044963490249999995,-0.038927,0.042072,-0.006676,0.18962138439999998,-3.3835688362,-9.20249171345,0.020603,0.352268,2.818144,5.099999999999549e-05,-0.00017900000000000207,-1.1999999999999858e-05,-9.851528779147856e-05,8.998504138757468e-05,-0.00011613490301076723
1504196340.7,-1.0,-0.052308671099999995,-0.06632237395,-0.05173007875,-0.03361,0.048407,0.007198,0.19296545204999999,-3.38102891385,-9.20335469865,0.020964,0.351993,2.818225,5.4999999999999494e-05,-0.000168999999999999,-1.600000000000039e-05,-0.00012661729827323498,8.582255017719476e-05,-0.0001509574027867
1504196340.71,-1.0,-0.0273997801,-0.0755504316,-0.062223194249999995,-0.026203,0.04195,0.009358,0.19619183989999997,-3.37928333015,-9.203933291,0.021312,0.351803,2.818347,5.8000000000002494e-05,-0.00015199999999999936,-1.8000000000000654e-05,-0.00013988147732568734,7.594534880883685e-05,-0.00017094091251868004
1504196340.72,-1.0,0.01115016105,-0.0701371608,-0.06537112889999999,-0.027397,0.020657,0.000854,0.19864350239999998,-3.3775083264999997,-9.20453149665,0.021577,0.35161,2.818388,5.9999999999997555e-05,-0.00013799999999999923,-1.799999999999892e-05,-9.836449323108454e-05,4.349099001443868e-05,-0.0002129547508519236
1504196340.73,-1.0,0.055103566349999994,-0.07803151405,-0.09427132645,-0.027571,-0.009164,-0.011903,0.19973204055,-3.3754489299999997,-9.20525718875,0.021694,0.351387,2.81828,5.8000000000002494e-05,-0.00013000000000000164,-1.700000000000139e-05,-8.340573905707416e-05,2.889727970245559e-05,-0.0002351878134544405
1504196340.74,-1.0,0.0775902148,-0.0696076017,-0.1257800929,-0.017049,-0.03694,-0.02678,0.19893770189999999,-3.3737033462999997,-9.2059142343,0.021607,0.351197,2.818,5.8000000000002494e-05,-0.00012900000000000064,-1.4999999999999389e-05,-9.83940480163703e-05,2.70362431209481e-05,-0.0002302140193060076
1504196340.75,-1.0,0.08766164435,-0.04446335109999999,-0.0879264239,0.00213,-0.045612,-0.035271,0.19739805785,-3.3734091468,-9.206061334049998,0.021439,0.351165,2.817595,5.6999999999994555e-05,-0.00012799999999999964,-1.4000000000000123e-05,-8.346236624534598e-05,3.842859486935524e-05,-0.00021480026175946243
1504196340.76,-1.0,0.059673465249999995,-0.02584052275,-0.0722553972,0.032214,-0.021347,-0.038465,0.1969567586,-3.3755764164499995,-9.20527680205,0.021393,0.3514,2.817144,6.0000000000004494e-05,-0.00012799999999999964,-1.1999999999999858e-05,-7.018248760148893e-05,5.824539375898219e-05,-0.00019084053105866694
1504196340.77,-1.0,-0.0013729309999999998,0.0110619012,-0.04927841625,0.053884,0.022161,-0.035302,0.1991926748,-3.3797050161,-9.20370773805,0.02164,0.351849,2.816746,6.0999999999998555e-05,-0.00012799999999999964,-9.000000000000327e-06,-5.53384801529333e-05,6.937431268472238e-05,-0.00015858829664228136
1504196340.78,-1.0,-0.030685007849999998,0.0324992381,0.0076688003,0.049783,0.05308,-0.019352,0.20396851335,-3.3840787819999996,-9.20200138095,0.022162,0.352324,2.816498,4.350000000000187e-05,-0.00012699999999999864,-8.499999999999827e-06,-4.1304664511354616e-05,8.189933844948705e-05,-0.00012823990065879975
1504196340.79,-1.0,-0.03413694865,-0.0055701772,-0.04681694709999999,0.034826,0.063837,0.001951,0.20921507109999998,-3.38746207625,-9.2006382566,0.022735,0.352692,2.816472,4.349999999999493e-05,-0.0001270000000000021,-8.499999999999827e-06,-4.131528311068777e-05,8.189433264194079e-05,-0.00012824364266361687
1504196340.8,-1.0,-0.02872367785,-0.0547995602,-0.1116192903,0.021959,0.06712,0.020069,0.21427530250000001,-3.39001180525,-9.1995791384,0.023288,0.352969,2.81665,2.3000000000002185e-05,-0.0001250000000000001,-7.000000000000062e-06,-7.053681712676507e-05,8.675695156945551e-05,-9.014797306194922e-05
1504196340.81,-1.0,0.01222889255,-0.07406962745,-0.0674305254,0.016506,0.052247,0.020086,0.21910998094999998,-3.3924340478,-9.1985788601,0.023816,0.353232,2.816862,2.0499999999999685e-05,-0.00013149999999999967,-1.1000000000000593e-05,3.398333637072426e-05,7.08075246476092e-05,-8.507392682111092e-05
1504196340.82,-1.0,0.05888893325,-0.0539561883,0.009345737449999999,0.019468,0.01494,0.008415,0.22213042915,-3.3950426167,-9.1975393552,0.024147,0.353515,2.816947,2.0499999999999685e-05,-0.00013149999999999967,-1.0999999999998858e-05,3.3977411040497785e-05,7.081066688230386e-05,-8.507176807992511e-05
1504196340.83,-1.0,0.14726646305,-0.017377383799999997,0.033146477,0.026604,-0.037313,-0.00856,0.2226305683,-3.3977982853499995,-9.19650965695,0.024204,0.353815,2.81679,1.9999999999999185e-05,-0.0001439999999999983,-1.899999999999992e-05,3.386764229929007e-05,6.648687523780339e-05,-6.69131803615608e-05
1504196340.84,-1.0,0.21936495385,-0.024771597899999998,0.08254257304999998,0.027306,-0.088455,-0.01701,0.21982586639999996,-3.4011815796000002,-9.1953230523,0.023902,0.354183,2.816474,2.2500000000001685e-05,-0.00014899999999999983,-2.300000000000045e-05,0.0001351828133961952,6.716986911037282e-05,-6.619080026182278e-05
1504196340.85,-1.0,0.22180680969999997,-0.02858638475,0.09290820209999999,0.021824,-0.109713,-0.021253,0.21439298229999998,-3.4042510610499996,-9.194322774,0.023313,0.354516,2.816109,2.2500000000001685e-05,-0.00014899999999999983,-2.300000000000045e-05,0.00013517826533848698,6.717880531126319e-05,-6.618166936589454e-05
1504196340.86,-1.0,0.16001510805,-0.0121994726,0.06429239739999999,0.020933,-0.08839,-0.022361,0.20898951815,-3.4067223368499997,-9.193528435349998,0.022729,0.354785,2.815766,1.9999999999999185e-05,-0.00015000000000000083,-2.2999999999998716e-05,8.538808657454489e-05,7.56081861659208e-05,-6.599390808614825e-05
1504196340.87,-1.0,0.06257623365,-0.00475622525,0.07952212485,0.017143,-0.025493,-0.017142,0.206920315,-3.4089288330999996,-9.19275371,0.022505,0.355025,2.815517,1.1999999999998123e-05,-0.00014199999999999977,-2.2000000000001185e-05,2.881340648186459e-05,6.209609968288454e-05,-5.9564725203409274e-05
1504196340.88,-1.0,-0.0441495383,0.02407532575,0.11340410059999999,0.002527,0.024694,-0.001244,0.207704847,-3.4099291114,-9.19237125065,0.022592,0.355134,2.815482,-1.2499999999998623e-05,-0.00012900000000000064,-1.899999999999992e-05,2.8592950119810112e-05,2.1559530074544142e-05,-5.699772561451599e-05
1504196340.89,-1.0,-0.06332153905,0.0007256920999999999,0.0766291631,-0.015615,0.038671,0.022183,0.20966617699999998,-3.4093210991,-9.192547770349998,0.022805,0.355068,2.815692,-1.2499999999998623e-05,-0.00010399999999999993,-1.799999999999892e-05,5.6585692428168244e-05,-1.3307880081692147e-05,-4.171334125757653e-05
1504196340.9,-1.0,-0.0320285189,-0.01315071765,-0.018740508149999998,-0.02232,0.012066,0.040365,0.20979366344999997,-3.4074186089999996,-9.19325384915,0.022816,0.354861,2.816102,-3.399999999999931e-05,-0.00010299999999999893,-1.600000000000039e-05,7.142008125660126e-05,-1.9675223625670313e-05,-2.2839927099060908e-05
1504196340.91,-1.0,0.0324207849,-0.005579983849999999,-0.031302826799999996,-0.01842,-0.030595,0.045783,0.20699876819999996,-3.4055553455,-9.1940089612,0.022511,0.354658,2.816572,-4.000000000000531e-05,-0.00010800000000000046,-1.4000000000000123e-05,6.970042631682105e-05,-1.5220174614194448e-05,-3.965559604912627e-06
1504196340.92,-1.0,0.11294318804999999,-0.0146511351,-0.005972249849999999,0.000564,-0.064837,0.035202,0.2021935097,-3.4053199859,-9.194205094199999,0.021988,0.354632,2.81692,-4.200000000000037e-05,-0.00011399999999999952,-1.1999999999999858e-05,8.637017226043042e-05,3.918089932053448e-06,4.451721723031099e-06
1504196340.93,-1.0,0.1314679499,0.020142859099999997,0.0192602606,0.027195,-0.082084,0.016064,0.19624087315,-3.4070459562999997,-9.19368534175,0.021341,0.35482,2.817058,-4.099999999999937e-05,-0.00011900000000000105,-1.1999999999999858e-05,9.808436619063166e-05,2.9198623689996595e-05,1.3215613631656353e-05
1504196340.94,-1.0,0.09669356900000001,0.050935740099999995,0.0763938035,0.042187,-0.08113,0.006481,0.18986655065,-3.4103017640999997,-9.1926164169,0.020651,0.355175,2.817089,-4.200000000000037e-05,-0.0001239999999999991,-1.0000000000001327e-05,8.488344505264145e-05,4.624639119210627e-05,1.3264771633769712e-05
1504196340.95,-1.0,0.043767078949999996,0.050945546749999994,0.0916725642,0.042338,-0.066206,5e-05,0.18382565425,-3.4142048108,-9.191292519149998,0.019997,0.355599,2.817077,-4.299999999999443e-05,-0.0001270000000000021,-7.000000000000062e-06,7.171170091657686e-05,5.687290177425197e-05,-5.358676494759962e-07
1504196340.96,-1.0,-0.010944221399999999,0.0214373369,0.08228760014999999,0.024418,-0.043673,-0.007492,0.1791282689,-3.41715661245,-9.190282434199998,0.019489,0.35592,2.817017,-4.400000000000237e-05,-0.00012900000000000064,-5.999999999999062e-06,2.855110353028323e-05,5.905173196496527e-05,-3.9774545579351894e-06
1504196340.97,-1.0,-0.031185147,-0.01417060925,0.062105514449999996,-0.009398,-0.00503,-0.010821,0.17752978495,-3.4176175249999994,-9.1901451411,0.019315,0.35597,2.816934,-4.799999999999943e-05,-0.00012999999999999817,-7.999999999999327e-06,-2.7932134663455344e-05,6.226509922879764e-05,2.6015366132448037e-06
1504196340.98,-1.0,-0.05180853195,-0.030635974599999997,0.02778223945,-0.034694,0.035667,-0.007734,0.17929498195,-3.41566600165,-9.190841413249998,0.019506,0.355758,2.816877,-5.200000000000343e-05,-0.00013099999999999917,-1.2000000000001593e-05,-0.00014099756341789949,5.498432268602471e-05,2.2904801909917616e-05
1504196340.99,-1.0,-0.07305954249999999,-0.0504454076,0.003530394,-0.049334,0.077337,-0.00036,0.1845415397,-3.4121650275999995,-9.1920280179,0.020074,0.355377,2.816897,-4.299999999999443e-05,-0.0001360000000000007,-1.6999999999999654e-05,-0.00022758253077870272,5.503112323435033e-05,7.466272860801038e-05
1504196341.0,-1.0,-0.069627215,-0.028125472199999998,-0.00865927195,-0.042768,0.103912,0.009211,0.1923280198,-3.4083012075,-9.1933028824,0.020917,0.354957,2.817011,-4.799999999999943e-05,-0.00014100000000000223,-2.199999999999945e-05,-0.00025411696744814805,8.361533800016474e-05,0.00010130816435172108
1504196341.01,-1.0,-0.06645966704999999,-0.0140235095,-0.0008237585999999999,-0.020453,0.100517,0.022065,0.20008507995,-3.4060947112499997,-9.193959927949999,0.021759,0.354717,2.81726,-5.200000000000343e-05,-0.00015099999999999836,-2.3999999999999716e-05,-0.00025564445952452886,0.00011858263990038864,0.00011621862798039118
1504196341.02,-1.0,-0.04094276375,0.008953471449999998,0.045179236549999995,0.003733,0.057691,0.024318,0.20509627809999997,-3.4060260647,-9.1938716681,0.022304,0.354709,2.817548,-5.6000000000000494e-05,-0.00015899999999999942,-1.8000000000000654e-05,-0.00021232899356204982,0.0001448128680370253,0.00012116299382713969
1504196341.03,-1.0,0.03182257925,0.022525875049999998,0.02601704245,0.035367,0.000971,0.008461,0.2065476623,-3.40836985405,-9.192969456299998,0.022464,0.354965,2.817656,-5.8999999999996555e-05,-0.00016000000000000042,-9.000000000000327e-06,-0.00019713496670004105,0.00016631551116841337,9.067172607257756e-05
1504196341.04,-1.0,0.11467896509999999,0.0204174453,0.0316558662,0.063835,-0.051459,-0.007409,0.20509627809999997,-3.41344969875,-9.19111599945,0.022311,0.355517,2.817525,-5.8000000000002494e-05,-0.00015300000000000036,3.0000000000012655e-06,-0.0002118613411394854,0.0001789843561379456,5.565562920650802e-05
1504196341.05,-1.0,0.14408910844999998,0.01079712165,0.11607150939999998,0.07644,-0.085644,-0.022271,0.20097748509999996,-3.42088313945,-9.18844859065,0.021869,0.356326,2.817207,-5.200000000000343e-05,-0.0001439999999999983,1.5999999999998654e-05,-0.0002682368316748729,0.0001955802097068915,5.580052420328663e-05
1504196341.06,-1.0,0.11247246884999999,-0.0037559469499999997,0.14648193104999999,0.06788,-0.096215,-0.03401,0.1951915616,-3.42833619345,-9.185790988499999,0.021246,0.357137,2.816774,-4.299999999999443e-05,-0.0001370000000000017,2.300000000000045e-05,-0.0003530366208952529,0.00021152822127690207,0.00010655958786232045
1504196341.07,-1.0,0.08210127379999999,-0.048680210599999996,0.10253833239999999,0.046837,-0.058746,-0.033046,0.19127870825,-3.43443592975,-9.1835942989,0.020826,0.3578,2.816341,-3.500000000000031e-05,-0.00013699999999999823,2.5000000000000716e-05,-0.0004676192679748947,0.00023918458770100237,0.00015591725100327913
1504196341.08,-1.0,-0.00214765635,-0.08169920115,0.09897851844999998,0.014177,0.000119,-0.021464,0.19069030925,-3.43837820305,-9.18213310805,0.020764,0.35823,2.816073,-2.8000000000000247e-05,-0.00014400000000000177,2.1000000000000185e-05,-0.0005373421494117014,0.0002687928778839499,0.00020002931479246033
1504196341.09,-1.0,-0.10685325839999998,-0.0913195248,0.1213671004,-0.028073,0.058,-0.014167,0.1936421109,-3.4387802757,-9.18191736175,0.021086,0.358273,2.815979,-1.000000000001e-06,-0.00011699999999999905,1.4000000000000123e-05,-0.0005226183202533541,0.0002673741461509671,0.00027646685618065714
1504196341.1,-1.0,-0.14030374155,-0.08390569739999999,0.0578984616,-0.061941,0.10195,0.001709,0.19985952699999998,-3.435269495,-9.1831039664,0.02176,0.357892,2.816055,7.000000000000062e-06,-0.00013300000000000117,5.999999999999062e-06,-0.0004526956664929749,0.0003089543787486715,0.0003357540145577653
1504196341.11,-1.0,-0.15381730525,-0.08842656305,0.0354412331,-0.068281,0.120097,0.018746,0.20768523369999997,-3.4304544298499997,-9.1847318703,0.022609,0.357367,2.816313,1.5000000000001124e-05,-0.00014799999999999883,4.000000000000531e-06,-0.00036761815456065605,0.0003733128880623049,0.00038319981423229343
1504196341.12,-1.0,-0.1329389474,-0.0654299688,0.10672577194999999,-0.052516,0.098639,0.032688,0.21434394905,-3.4266592563,-9.1859871215,0.023329,0.356954,2.816721,2.1000000000000185e-05,-0.00016000000000000042,3.999999999998796e-06,-0.00029631244350003527,0.0003685968271851525,0.0004603036688437534
1504196341.13,-1.0,-0.08059104969999999,-0.020142859099999997,0.1404900679,-0.022981,0.060026,0.039212,0.2184137088,-3.4249627058499996,-9.18652648725,0.023771,0.356769,2.817177,3.199999999999731e-05,-0.000172000000000002,7.000000000000062e-06,-0.00019692326408060623,0.0003177447170115144,0.0004931353956953988
1504196341.14,-1.0,-0.03943253965,0.02091758445,0.14619753819999998,0.015095,0.014962,0.034021,0.2190021078,-3.4260708573,-9.1861048013,0.023836,0.356891,2.817578,4.500000000000337e-05,-0.00018099999999999714,9.000000000000327e-06,-0.00012727056207784138,0.0002756095705394035,0.0005006265343151517
1504196341.15,-1.0,-0.014033316149999999,0.05724141605,0.1709691361,0.035401,-0.018246,0.016023,0.2170996177,-3.42917956535,-9.184986843199999,0.023632,0.357228,2.8178,6.199999999999956e-05,-0.00018500000000000114,1.4000000000000123e-05,-5.597233060439244e-05,0.00024200743280444748,0.0005003271560907185
1504196341.16,-1.0,-0.0072373077,0.057525808899999996,0.1565925872,0.034271,-0.037399,-0.002091,0.21389284314999998,-3.4326020861999997,-9.18378062525,0.023286,0.357601,2.817824,8.49999999999948e-05,-0.0001820000000000016,1.5000000000001124e-05,-2.7914789094030112e-05,0.0001936936591060423,0.0004772719900525413
1504196341.17,-1.0,-0.0334995164,0.0403445581,0.12017068909999999,0.015185,-0.02658,-0.008547,0.2108233617,-3.43457322285,-9.18311377305,0.022954,0.357816,2.81775,0.00011500000000000399,-0.00017199999999999854,1.4999999999999389e-05,-2.0321004817303034e-05,0.0001844856106230086,0.00042352677036705533
1504196341.18,-1.0,-0.07150028515,-0.0216923098,0.10654925224999999,-0.010285,-0.002939,0.002042,0.2088620317,-3.4350929752999995,-9.1829666733,0.022741,0.357872,2.817778,0.00015099999999999836,-0.00015400000000000136,7.999999999999327e-06,-1.9983107897081354e-05,0.00019899499250164432,0.0003496961834366097
1504196341.19,-1.0,-0.11868988494999999,-0.06491021635,0.13343908654999997,-0.035759,0.026019,0.022228,0.20802846644999998,-3.4340730836999995,-9.18336874595,0.022649,0.357761,2.818035,0.00022099999999999898,-6.899999999999962e-05,-9.999999999992654e-07,-0.00018321313298130804,0.00022419081783509043,0.0003081939809029821
1504196341.2,-1.0,-0.155141203,-0.09580116385,0.14570720569999998,-0.050591,0.052755,0.044572,0.20841092579999998,-3.4320529137999998,-9.184114051349999,0.022689,0.357541,2.818563,0.0002720000000000014,-3.399999999999931e-05,-9.999999999999593e-06,-0.0002953997659673746,0.00030575788513220736,0.00027765704175841677
1504196341.21,-1.0,-0.17380325794999998,-0.1045585023,0.1854241382,-0.060186,0.061343,0.05735,0.2091170046,-3.4294345382499998,-9.18507510305,0.022763,0.357256,2.819264,0.0003270000000000009,5.999999999999062e-06,-1.8000000000000654e-05,-0.0003375253597228678,0.00041769372662892046,0.00025700612423151803
1504196341.22,-1.0,-0.15009077824999997,-0.11378655995,0.2135299971,-0.062374,0.058155,0.063758,0.2099407632,-3.4266396429999997,-9.1861048013,0.022851,0.356952,2.820042,0.0003820000000000004,4.000000000000184e-05,-2.8000000000000247e-05,-0.0004495488534486114,0.0005203682787253694,0.00027023398033831914
1504196341.23,-1.0,-0.13436091165,-0.1182093591,0.19853562924999998,-0.062367,0.059217,0.064824,0.2108233617,-3.4238643610499997,-9.187114886249999,0.022944,0.35665,2.820844,0.0004349999999999979,6.899999999999962e-05,-3.300000000000004e-05,-0.0004901364136751241,0.0006243753943027119,0.00029532688860389733
1504196341.24,-1.0,-0.1574163458,-0.13296836734999998,0.19064127599999997,-0.055887,0.066624,0.061621,0.21203938629999997,-3.4216676714499994,-9.1879092249,0.023074,0.356411,2.821619,0.00048200000000000326,9.199999999999833e-05,-3.399999999999931e-05,-0.0005326870162218889,0.0006761748398176337,0.00034112061153979134
1504196341.25,-1.0,-0.17563710149999998,-0.12051392184999998,0.19290661215,-0.044159,0.066522,0.063778,0.21319657099999997,-3.42035358035,-9.18837013745,0.023198,0.356268,2.822415,0.0005219999999999947,0.00010800000000000046,-2.9000000000001247e-05,-0.0005040347135893963,0.0006986447077939051,0.00040486026083619286
1504196341.26,-1.0,-0.18481612590000002,-0.10953047384999999,0.1912492883,-0.033596,0.056835,0.070219,0.21309850449999998,-3.4199711209999997,-9.1885172372,0.023187,0.356226,2.823272,0.0005560000000000009,0.00012000000000000205,-2.3999999999999716e-05,-0.0004754164155120755,0.0007083796994304947,0.0004585654718283205
1504196341.27,-1.0,-0.20208563655,-0.11284512155,0.16057408709999998,-0.026261,0.039722,0.070264,0.21136272744999998,-3.4200986074499995,-9.188507430549999,0.022998,0.35624,2.824151,0.0005830000000000002,0.00012799999999999964,-1.799999999999892e-05,-0.0004604836022334968,0.0006763451309352853,0.0004863469945649568
1504196341.28,-1.0,-0.2016443373,-0.10646099239999998,0.16811540094999997,-0.02525,0.029059,0.064949,0.20851879895,-3.4205006800999995,-9.1884191707,0.02269,0.356284,2.825002,0.0006110000000000004,0.00013699999999999823,-1.6999999999999654e-05,-0.000375777795610599,0.0006353314698979151,0.0005395221832609209
1504196341.29,-1.0,-0.1877973475,-0.10484289515,0.18464941284999997,-0.027449,0.02055,0.064961,0.205155118,-3.4209125593999996,-9.1883407175,0.022324,0.356329,2.825822,0.0006420000000000037,0.00014400000000000177,-1.9000000000001654e-05,-0.00029093980505412453,0.0006081648777855886,0.0005690490251742952
1504196341.3,-1.0,-0.20128149125,-0.12319113729999999,0.1711260425,-0.03481,0.030203,0.059596,0.20218370305,-3.42082429955,-9.188438783999999,0.022,0.35632,2.826611,0.0007719999999999949,9.599999999999886e-05,1.2000000000001593e-05,-0.00016190137434279883,0.0006923791106916433,0.0005546133129114006
1504196341.31,-1.0,-0.22477822465,-0.14799215515,0.13767555934999998,-0.050583,0.052716,0.049924,0.20083038535,-3.4195200151,-9.188958536449999,0.021852,0.356177,2.827321,0.0008140000000000022,0.00011099999999999999,4.999999999999796e-06,-0.00013287518735216608,0.0007264473479906552,0.0005807475950017071
1504196341.32,-1.0,-0.23072105454999997,-0.14966909229999997,0.11011887285,-0.059965,0.080494,0.050928,0.20214447644999997,-3.4170879658999995,-9.189831328299999,0.021993,0.355913,2.828017,0.0008620000000000017,0.00013400000000000217,2.0000000000002655e-06,-0.00013162728639870558,0.0007997364125580386,0.0006017398967811394
1504196341.33,-1.0,-0.2580914147,-0.15071840385,0.10588240004999999,-0.070408,0.115729,0.062591,0.20571409705,-3.4137929314999997,-9.19097870635,0.022379,0.355555,2.828827,0.0009119999999999961,0.00016499999999999848,1.9999999999985307e-06,-0.000214967508264996,0.0008776842633537729,0.0006245906029603843
1504196341.34,-1.0,-0.29303250865,-0.1799128009,0.089436648,-0.075547,0.147721,0.075337,0.21132350084999998,-3.41019389095,-9.1921849243,0.022986,0.355163,2.82979,0.0009650000000000006,0.00019900000000000126,2.0000000000002655e-06,-0.00039926998622696885,0.0008217210275520692,0.0006706680349841676
1504196341.35,-1.0,-0.31737261395,-0.21351038379999998,0.09356524764999999,-0.081862,0.167998,0.091304,0.21830583564999997,-3.4066733036,-9.193332302349999,0.023742,0.354779,2.830928,0.001014000000000001,0.00023799999999999863,1.4000000000000123e-05,-0.0005959627944198687,0.0008461207014309746,0.000728448401865589
1504196341.36,-1.0,-0.31656846864999993,-0.22539604359999998,0.10288156514999999,-0.079837,0.163697,0.107328,0.22499397095,-3.4033096226499997,-9.194411033849999,0.024466,0.354415,2.832253,0.0010640000000000024,0.000282000000000001,2.599999999999998e-05,-0.0007655387976028827,0.0008779387423138996,0.0008351125529056924
1504196341.37,-1.0,-0.29076717249999995,-0.2552670995,0.1140905661,-0.067337,0.135865,0.12448,0.2294167701,-3.4014365525,-9.19499943285,0.024945,0.35421,2.833733,0.001113999999999997,0.0003239999999999979,3.200000000000078e-05,-0.0009746519688862421,0.000937667231456496,0.0009553267649876629
1504196341.38,-1.0,-0.2272004672,-0.28974728089999996,0.12535840694999997,-0.050694,0.085635,0.131003,0.23034840184999997,-3.40166210545,-9.194891559699998,0.025046,0.354235,2.835285,0.0011579999999999993,0.0003510000000000006,3.399999999999931e-05,-0.001184635920081556,0.0010085235350332233,0.0011243713052153659
1504196341.39,-1.0,-0.1672426091,-0.29316980175,0.13104626395,-0.041442,0.039737,0.128966,0.22769079969999997,-3.40303503645,-9.19445026045,0.024759,0.354384,2.8368,0.0012180000000000038,0.0003510000000000006,3.500000000000031e-05,-0.0016590028840213211,0.0012540368131828128,0.001515217678146219
1504196341.4,-1.0,-0.08950529454999999,-0.26459322365,0.13031076519999998,-0.036353,0.005599,0.124766,0.2229836077,-3.40452564725,-9.1940089612,0.024248,0.354546,2.838215,0.0012179999999999969,0.0003510000000000006,3.500000000000031e-05,-0.001657126853947588,0.001256548847577088,0.0015131588749330849
1504196341.41,-1.0,-0.0639785846,-0.26121973605,0.12359320994999999,-0.041745,-0.002881,0.123704,0.21735459059999998,-3.4056534119999995,-9.193734375,0.023637,0.354669,2.839587,0.0012520000000000031,0.00030749999999999875,1.2499999999998623e-05,-0.002247469031683824,0.0013426773898341793,0.002580446648749235
1504196341.42,-1.0,-0.10401913654999999,-0.2883939632,0.09980227705,-0.054483,0.013192,0.13753,0.21175499345,-3.4060162580499997,-9.19372456835,0.023029,0.354708,2.841089,0.0012519999999999962,0.00030749999999999875,1.2500000000000358e-05,-0.002244034786676785,0.001348465759297035,0.002577466173933618
1504196341.43,-1.0,-0.14634463795,-0.32768920975,0.09480088554999999,-0.062924,0.038809,0.160954,0.20694973495,-3.4060750979499996,-9.193812828199999,0.022506,0.354715,2.842846,0.0012240000000000029,0.00024400000000000116,-3.199999999999904e-05,-0.0024219666080911306,0.0013783586836764172,0.003548838936520471
1504196341.44,-1.0,-0.16656595024999998,-0.360688587,0.12952623319999998,-0.067181,0.055863,0.187603,0.20292900844999998,-3.4062810375999995,-9.19382263485,0.022068,0.354738,2.844901,0.0011699999999999974,0.00018400000000000014,-7.000000000000062e-05,-0.0021998312480564497,0.0012657489223435459,0.004217978457481841
1504196341.45,-1.0,-0.13861699775,-0.4220193761,0.14374587569999997,-0.056573,0.057887,0.204696,0.19921228809999997,-3.4081050745,-9.19323423585,0.021666,0.354936,2.847152,0.0010910000000000086,0.0001239999999999991,-0.00011699999999999905,-0.0018127265355925015,0.0010419410614292968,0.0047542468770913615
1504196341.46,-1.0,-0.0983018596,-0.46178534185,0.1654185722,-0.024606,0.050165,0.20263,0.19541711455,-3.4132339524499997,-9.191410198949999,0.021258,0.355493,2.849401,0.0009969999999999979,7.400000000000115e-05,-0.00017800000000000107,-0.001258732293443865,0.0007383264484619456,0.005040122495079458
1504196341.47,-1.0,-0.0508965135,-0.42991372935,0.24192024885,0.026422,0.019917,0.193165,0.19050398289999998,-3.4226581430999996,-9.1880072914,0.020731,0.356519,2.85152,0.000903000000000001,5.300000000000096e-05,-0.00024399999999999943,-0.0007969171730792812,0.0004091636913841068,0.005100235341941262
1504196341.48,-1.0,0.02282007455,-0.39842457619999994,0.338917824,0.086873,-0.032784,0.183755,0.18262924295,-3.4378388372999997,-9.18250576075,0.019887,0.358171,2.853474,0.0008279999999999954,6.799999999999862e-05,-0.0003119999999999998,-0.0005226716091100148,7.009055007389797e-05,0.004986710995984689
1504196341.49,-1.0,0.11287454149999998,-0.40662293559999996,0.4232746273,0.13985,-0.087552,0.172199,0.17158695505,-3.45881526165,-9.17483696045,0.0187,0.360456,2.855242,0.0007780000000000009,0.0001250000000000001,-0.0003630000000000005,-0.0007088780031379027,-0.00038260847499183015,0.004819461862171304
1504196341.5,-1.0,0.2027230688,-0.42085238475,0.5202722024499999,0.164078,-0.134623,0.161647,0.15790667830000002,-3.48348879305,-9.165736389249998,0.017226,0.363146,2.856842,0.0007579999999999948,0.00021900000000000044,-0.00041199999999999917,-0.0003823906769755414,-0.0005788223291591788,0.004411083718713016
1504196341.51,-1.0,0.30511430144999996,-0.4794275052,0.58611405055,0.132994,-0.157801,0.153095,0.13841105809999998,-3.4968944835999998,-9.16095074405,0.015108,0.364609,2.858474,0.0007710000000000078,0.0003610000000000002,-0.00044399999999999995,-0.0005247937501753341,-0.0007795882204819637,0.003932563679884038
1504196341.52,-1.0,0.3602767077,-0.5513887029,0.5727279733,0.066919,-0.149795,0.150831,0.11901350439999998,-3.5048378701,-9.15818526875,0.012994,0.365476,2.860072,0.0008099999999999913,0.0005509999999999994,-0.0004530000000000003,-0.0009039320724146815,-0.000833186658138807,0.0033505091308131396
1504196341.53,-1.0,0.38064511975,-0.6285474251,0.47938827859999994,-0.012761,-0.103325,0.157016,0.10298943829999999,-3.50563220875,-9.1580773956,0.011245,0.365563,2.861725,0.0008630000000000027,0.0007780000000000009,-0.0004369999999999999,-0.0014312785244181558,-0.0006939784686814665,0.002729941041649364
1504196341.54,-1.0,0.33739779324999997,-0.6504947078,0.43964192615000003,-0.086921,-0.035581,0.163166,0.09835089285,-3.5122713108,-9.15557669985,0.010741,0.366288,2.863223,0.0009210000000000051,0.001011999999999999,-0.00040399999999999985,-0.0019231197739566497,-0.0003949147284063592,0.0020300933737109617
1504196341.55,-1.0,0.3389962772,-0.63602989905,0.4453984297,-0.149398,0.028861,0.171484,0.09360447424999999,-3.5001012581499995,-9.160293698499999,0.010219,0.364959,2.865042,0.0009839999999999988,0.001233999999999999,-0.0003530000000000009,-0.0023261637714206973,-1.0022951854038453e-05,0.0012008802181723288
1504196341.56,-1.0,0.34102625375,-0.6194664672,0.39578658734999994,-0.18202,0.083479,0.168129,0.0941242267,-3.48419487185,-9.166344401549999,0.010268,0.363223,2.866873,0.0010469999999999924,0.0014350000000000022,-0.00028000000000000073,-0.0027264489743286102,0.00043459339135587527,0.0003048489899197815
1504196341.57,-1.0,0.39049099634999995,-0.58666322295,0.38508753219999997,-0.184983,0.105893,0.156343,0.0979292069,-3.4673176272,-9.1727089174,0.010676,0.361383,2.868607,0.0011120000000000019,0.0016119999999999989,-0.00019099999999999846,-0.003137176589628865,0.0009625454031734204,-0.00048049258533611194
1504196341.58,-1.0,0.45554831245,-0.5484663211999999,0.46800275795,-0.177646,0.07177,0.130791,0.109638347,-3.4625712086,-9.17436624125,0.01195,0.360865,2.869763,0.0011730000000000074,0.0017580000000000009,-9.70000000000016e-05,-0.003567745123395305,0.0015973857392865831,-0.0009150814393373841
1504196341.59,-1.0,0.5922137868499999,-0.59817623005,0.5050620883,-0.165349,-0.002905,0.112798,0.10719649114999999,-3.4472826412499997,-9.18015216475,0.011677,0.359199,2.871047,0.001227999999999993,0.001863,-1.9999999999985307e-06,-0.004022189098193074,0.0022804182839615272,-0.0009384758351450584
1504196341.6,-1.0,0.76179037865,-0.7207985816499999,0.5171438811,-0.167061,-0.09345,0.096944,0.097281968,-3.4320921404,-9.1859478949,0.01059,0.357546,2.872148,0.0012630000000000002,0.0019290000000000002,6.799999999999862e-05,-0.0044833176849634615,0.0027226606230585926,-0.0006101711757107164
1504196341.61,-1.0,0.82996620945,-0.8478633456999999,0.53939516995,-0.200615,-0.161359,0.084197,0.08072834279999999,-3.41456765685,-9.1926360302,0.008782,0.355638,2.873095,0.0012720000000000092,0.001943199999999999,0.00013300000000000117,-0.004001789069910444,0.0033184758954403204,-0.0002785651418475421
1504196341.62,-1.0,0.88282405295,-0.9879513409499999,0.4735042886,-0.261604,-0.190667,0.076658,0.07769808795,-3.4115472086499996,-9.193783408249999,0.008451,0.355309,2.873314,0.0012499999999999872,0.0019175,0.0001749999999999998,-0.00330765240379316,0.0035739015374169902,3.0770077562580767e-05
1504196341.63,-1.0,0.86111212985,-1.1175952539499998,0.38641142995,-0.329685,-0.16666,0.074363,0.05900661305,-3.3827548842499997,-9.2045609166,0.006411,0.35218,2.874138,0.0011929999999999996,0.0018704000000000004,0.00019800000000000026,-0.002266891564244533,0.003610720269529244,0.0002867470499122726
1504196341.64,-1.0,0.7536606658,-1.1560863552,0.23267257789999998,-0.379357,-0.103387,0.080569,0.045257689749999996,-3.3487552287,-9.21706439535,0.00491,0.348488,2.874997,0.0010990000000000028,0.0018260999999999998,0.0001999999999999988,-0.00112430399077601,0.003378693031736768,0.0004914388814629689
1504196341.65,-1.0,0.5894973447999999,-1.12912787435,0.1173659872,-0.386351,-0.034082,0.096446,0.03733391655,-3.31300998945,-9.2299993667,0.004045,0.344614,2.87599,0.0009740000000000026,0.0018069000000000002,0.00018500000000000114,-8.979859953694991e-05,0.002943984759209428,0.0006365192557421517
1504196341.66,-1.0,0.41124186775,-1.03508210085,0.03082230095,-0.343357,0.01989,0.123105,0.04141348295,-3.29557376575,-9.23622658945,0.004484,0.342726,2.876979,0.0008400000000000074,0.0018330299999999998,0.00015399999999999962,0.0006579697652953076,0.0024604626335562596,0.0007224832838551576
1504196341.67,-1.0,0.27123232569999994,-0.8986421793999999,0.039422733,-0.255756,0.053235,0.154152,0.04106044354999999,-3.2696645964499997,-9.24542522715,0.004442,0.339922,2.878544,0.0007159999999999944,0.0019149700000000002,0.00010899999999999972,0.0010791981359419278,0.0019908442582770025,0.0007293376714369026
1504196341.68,-1.0,0.23137810009999998,-0.8022624232,0.11929789724999999,-0.152457,0.047026,0.183162,0.0400699719,-3.2532188443999996,-9.251240570599998,0.004331,0.338143,2.880428,0.0006130000000000024,0.0020518,5.699999999999976e-05,0.001231544484691094,0.0015805107033184385,0.0006649141610765019
1504196341.69,-1.0,0.24941252945,-0.7521994749499998,0.2422438683,-0.064367,-0.000603,0.200477,0.03490186735,-3.2453637177499997,-9.25401585255,0.003771,0.337294,2.882524,0.0005369999999999958,0.0022377000000000005,3.0000000000012655e-06,0.001230570904080075,0.0012798537496381268,0.0005422100397740603
1504196341.7,-1.0,0.35460846399999996,-0.7370187807499999,0.27045760035,-0.00412,-0.074617,0.199639,0.030410421649999998,-3.2592009008999994,-9.2491615608,0.003288,0.33879,2.884392,0.0004939999999999944,0.0024384000000000003,-5.199999999999996e-05,0.0009666163005817019,0.00120746868422561,0.00029795816494149197
1504196341.71,-1.0,0.49273512924999996,-0.7787754964499999,0.30227037295,0.039094,-0.14955,0.18597,0.01228773245,-3.26203502275,-9.248210315749999,0.001329,0.339097,2.886392,0.0004590000000000011,0.0026829999999999996,-0.00011300000000000025,0.00048211918802998355,0.0010199772172387878,-6.961579081610214e-05
1504196341.72,-1.0,0.59013477705,-0.8460785354,0.39748313779999994,0.056801,-0.20936,0.176499,-0.0116306869,-3.2670069943,-9.2464549254,-0.001258,0.339634,2.888288,0.0004330000000000028,0.002945999999999999,-0.0001760000000000008,-0.00018672220112048166,0.0009569364460224605,-0.0005910464356664313
1504196341.73,-1.0,0.6585851940499999,-0.94668495775,0.48684133259999995,0.061888,-0.240304,0.176563,-0.03923640665,-3.2726458180499995,-9.24438572225,-0.004244,0.340244,2.890158,0.0004100000000000076,0.0032180000000000004,-0.0002360000000000001,-0.000892488755430465,0.0007583549062772921,-0.0012257648229015983
1504196341.74,-1.0,0.6421982819,-0.9970421054999999,0.54810347515,0.058739,-0.233875,0.181873,-0.053818895199999994,-3.30130084935,-9.2341181597,-0.005828,0.343345,2.8916,0.00038699999999999846,0.003488999999999999,-0.00029799999999999965,-0.00160574369525035,0.00042726540028659166,-0.0018706913927388769
1504196341.75,-1.0,0.59925496155,-0.9991897618499999,0.6528777237499999,0.051659,-0.182672,0.18604,-0.07807074064999998,-3.30618456105,-9.2321960563,-0.008456,0.343874,2.893576,0.00037299999999999833,0.0037490000000000023,-0.0003569999999999997,-0.0021599017532565323,8.009582166490503e-05,-0.0024565968933932814
1504196341.76,-1.0,0.5430236304499999,-0.98728448875,0.7515522360499999,0.035265,-0.104737,0.1752,-0.09560503085,-3.3097149550499996,-9.2307642854,-0.010357,0.344256,2.895471,0.0003660000000000052,0.0039949999999999986,-0.0004060000000000001,-0.0025346511419941375,-0.00014709806115065227,-0.0028789191108725687
1504196341.77,-1.0,0.51582979,-0.9302490123499999,0.7964372730999999,0.014708,-0.018235,0.156866,-0.10462714884999999,-3.3115291852999995,-9.23001898,-0.011335,0.344453,2.897193,0.00036999999999999533,0.004223999999999999,-0.0004410000000000004,-0.0026988112051866686,-0.00023163513820878556,-0.00312288169029995
1504196341.78,-1.0,0.5008648420999999,-0.8826083066499999,0.8416459296,-0.023113,0.041781,0.140675,-0.09505585845,-3.3346238460499995,-9.2218010073,-0.010307,0.346956,2.898305,0.00038299999999999446,0.0044370000000000034,-0.00046000000000000034,-0.0025988288317388974,-0.00012217346588716538,-0.0032645404721768356
1504196341.79,-1.0,0.5279900359999999,-0.89614148365,0.8149718415999999,-0.059237,0.052748,0.127784,-0.09448707274999998,-3.3297695543,-9.223556397649999,-0.010244,0.34643,2.899688,0.0004019999999999996,0.004637999999999996,-0.0004590000000000011,-0.002392847017260058,0.00015032145669913177,-0.0033645905082054783
1504196341.8,-1.0,0.5915959678999999,-0.9374274801499999,0.6791791590499999,-0.075344,0.030518,0.112852,-0.0949479853,-3.3229048992999997,-9.2260374801,-0.010291,0.345686,2.900931,0.00039400000000000546,0.004862999999999999,-0.00046399999999999914,-0.002201119607181168,0.00048107559662557975,-0.0034719179381331733
1504196341.81,-1.0,0.6483960846999999,-1.00328894155,0.5961462535,-0.069024,0.001726,0.083026,-0.09712506159999999,-3.3161481174499996,-9.228440109349998,-0.010524,0.344954,2.901891,0.0004159999999999997,0.005055000000000004,-0.0004480000000000005,-0.002025739527489412,0.000777749713890552,-0.0035626603996309347
1504196341.82,-1.0,0.6651066162999999,-1.0070252752,0.56836401405,-0.062609,-0.028099,0.038247,-0.0851021087,-3.33501611205,-9.2217617807,-0.009229,0.346998,2.901846,0.00043400000000000383,0.005242999999999998,-0.0004359999999999989,-0.001856014947199336,0.0009865866994014372,-0.0036871051526451426
1504196341.83,-1.0,0.69228084345,-0.9638171752999999,0.49682450229999997,-0.06471,-0.054671,-0.01081,-0.08969162089999999,-3.3291321220499994,-9.223840790499999,-0.009724,0.346361,2.90185,0.00044500000000000095,0.005429000000000003,-0.00043299999999999936,-0.0016649905068448767,0.0010582755008958777,-0.0038845381704815107
1504196341.84,-1.0,0.6863772401499999,-0.9286897550000001,0.3729665128,-0.072045,-0.059902,-0.046038,-0.09395751364999999,-3.3226597330499996,-9.22612573995,-0.010184,0.34566,2.901438,0.0004499999999999921,0.005611999999999992,-0.0004399999999999994,-0.0013639720912999032,0.0010176325585302681,-0.00408744502824443
1504196341.85,-1.0,0.61826024925,-0.90443790955,0.3054379209,-0.078231,-0.044912,-0.065288,-0.0964778227,-3.31563817165,-9.228626435699999,-0.010454,0.344899,2.90078,0.00044700000000000295,0.0057980000000000115,-0.00045500000000000054,-0.0010784700844925776,0.0009152400790182202,-0.004264281143693149
1504196341.86,-1.0,0.5213607406,-0.86102387,0.25786586175,-0.067287,-0.014085,-0.0664,-0.08397434394999999,-3.3288281159,-9.224007503549998,-0.009103,0.346328,2.899608,0.00043899999999999495,0.005986999999999992,-0.00048000000000000126,-0.0008032179033943265,0.0008511156272683618,-0.004368204938950626
1504196341.87,-1.0,0.44662426094999996,-0.8371544838999999,0.21536384065,-0.047736,0.030507,-0.06431,-0.0801595571,-3.32397382415,-9.225792313849999,-0.008688,0.345801,2.898924,0.0004260000000000097,0.006171999999999997,-0.0005140000000000006,-0.0005356985718658613,0.0009617417054075261,-0.004361856397457231
1504196341.88,-1.0,0.39205025369999996,-0.8029881152999999,0.20447845915,-0.032379,0.07834,-0.071839,-0.07182390459999999,-3.3207278229999995,-9.22702795175,-0.007784,0.34545,2.898191,0.0003919999999999896,0.0063640000000000085,-0.0005459999999999979,-0.00023153642077944347,0.0013075370690422972,-0.0041771726405666065
1504196341.89,-1.0,0.37510436249999995,-0.78181555795,0.13406671215,-0.019211,0.118734,-0.080427,-0.05907525959999999,-3.31869784645,-9.2278419037,-0.006402,0.34523,2.897351,0.00032600000000000684,0.0065689999999999915,-0.0005680000000000025,-0.00011121964831817266,0.0018008902538531046,-0.0038041789108888002
1504196341.9,-1.0,0.38823546685,-0.7988889355999998,0.0093947707,0.004339,0.13452,-0.066544,-0.03494109395,-3.3353005049,-9.221977527,-0.003789,0.347029,2.896239,5.1999999999996493e-05,0.006857000000000002,-0.0005919999999999988,-0.0001727036789778147,0.002331387389739259,-0.003471719140702767
1504196341.91,-1.0,0.3828712293,-0.8648974967499999,-0.04863117735,0.029753,0.125761,-0.041935,-0.021349077049999998,-3.3373697080499998,-9.2212714482,-0.002315,0.347254,2.89572,-0.00010100000000000386,0.007080000000000003,-0.0005989999999999988,-0.0002334466800932855,0.002477035634236957,-0.0028006560743726316
1504196341.92,-1.0,0.3722408207,-0.93776090625,-0.0720984908,0.060411,0.09779,-0.030091,-0.010571568699999999,-3.3423220663,-9.21949644455,-0.001147,0.347791,2.895383,-0.0002849999999999936,0.007279999999999995,-0.0005970000000000003,-0.00048002778417965963,0.0024952993504139265,-0.002373962221833281
1504196341.93,-1.0,0.36224784434999996,-0.9467045710499999,-0.13000675904999998,0.09855,0.06125,-0.03423,-0.0029714149499999996,-3.3505792656,-9.2165054163,-0.000322,0.348687,2.89503,-0.0004880000000000023,0.007470000000000018,-0.0005780000000000021,-0.0006034989878980213,0.0022894733480931517,-0.0020487270746086805
1504196341.94,-1.0,0.37481996965,-0.90226083325,-0.1603387275,0.135665,0.021542,-0.047978,0.010493115499999999,-3.3799207624,-9.2057769412,0.00114,0.351872,2.894221,-0.0006999999999999923,0.007629999999999998,-0.0005339999999999998,-0.0005740867725256837,0.0018887923474690815,-0.0018207425324380244
1504196341.95,-1.0,0.39776753065,-0.87994089785,-0.14234352475,0.16424,-0.018103,-0.064937,0.01179739995,-3.3944542177,-9.20043231695,0.001282,0.353452,2.893566,-0.00091200000000001,0.007749999999999979,-0.000449999999999999,-0.0002802117472724408,0.0013470338545660265,-0.0017063966772505879
1504196341.96,-1.0,0.42538305704999996,-0.8820689408999999,-0.1441773683,0.181173,-0.042739,-0.076605,0.0108069283,-3.4107332567,-9.194411033849999,0.001176,0.355221,2.892763,-0.001117999999999994,0.007870000000000016,-0.0003249999999999989,0.00020883713140396054,0.0007029081279268379,-0.0017065971753061904
1504196341.97,-1.0,0.36889675304999997,-0.9000053037499999,-0.23347672319999999,0.20678,-0.038694,-0.070164,0.009532063799999999,-3.42915995205,-9.1875561855,0.001038,0.357226,2.891988,-0.0013190000000000007,0.00800999999999999,-0.0001570000000000009,0.0008375022623630102,3.090303050634624e-05,-0.0017963389104316274
1504196341.98,-1.0,0.2815881481,-0.8652211162,-0.23343749659999996,0.232513,-0.018663,-0.059485,0.0160436794,-3.4664840619499997,-9.17352286935,0.001749,0.361292,2.891063,-0.0015030000000000043,0.008150000000000018,4.000000000000184e-05,0.0014825653419479057,-0.000531351421398929,-0.0018902688275371782
1504196341.99,-1.0,0.22221868899999997,-0.89751441465,-0.1554550158,0.242273,0.005758,-0.052039,0.017946169499999998,-3.48850979785,-9.16516760355,0.001958,0.363694,2.890484,-0.0016589999999999938,0.008379999999999999,0.00012699999999999864,0.0021594055370079968,-0.0009099068594893289,-0.0019493788054553152
1504196342.0,-1.0,0.19554460099999998,-0.91914788455,-0.17396997099999997,0.241279,0.012164,-0.056322,0.020976424349999998,-3.5107218600999994,-9.1566848513,0.002291,0.366118,2.889893,-0.001787999999999998,0.008549999999999974,0.0003499999999999996,0.002606755519448223,-0.0005781237253796867,-0.0017848876825855564
1504196342.01,-1.0,0.23620297189999998,-0.9223350457999999,-0.24716680659999998,0.225189,-0.007934,-0.071258,0.0232613738,-3.5317767376499996,-9.14857475175,0.002543,0.368419,2.889163,-0.0018859999999999988,0.008730000000000016,0.0005810000000000017,0.00303483177117303,-0.00022892958566034238,-0.0017387944696259927
1504196342.02,-1.0,0.3405653412,-0.9111456581499999,-0.2902376134,0.210151,-0.042932,-0.103249,0.031577413,-3.56825747565,-9.1343845292,0.003457,0.372409,2.887815,-0.0019500000000000073,0.008899999999999991,0.0008239999999999983,0.003290395443531491,6.429612160996356e-05,-0.0017427077381041434
1504196342.03,-1.0,0.430119669,-0.8888257227499999,-0.37350587855,0.196216,-0.079001,-0.148041,0.0298710559,-3.5863899714999996,-9.1272845146,0.003273,0.374395,2.886343,-0.0019740000000000035,0.009069999999999995,0.0010749999999999996,0.0032905856543021805,0.0003157402455900016,-0.0017315134867833537
1504196342.04,-1.0,0.4913523916,-0.8232584608499999,-0.43450324155,0.189855,-0.101272,-0.188582,0.03896182045,-3.61723188575,-9.1150654287,0.004275,0.377777,2.883945,-0.0019509999999999944,0.009190000000000004,0.0013240000000000023,0.0031670625577406852,0.0007105969115417388,-0.0016270381719170057
1504196342.05,-1.0,0.5310104842,-0.7594073627,-0.42530460384999996,0.177109,-0.113911,-0.21741,0.048680210599999996,-3.64547503775,-9.103768167899998,0.005347,0.380877,2.881173,-0.001897999999999997,0.00929000000000002,0.0015559999999999984,0.003102952002682624,0.0013664955228405162,-0.001398844360821494
1504196342.06,-1.0,0.51813435275,-0.6773257022,-0.48156535489999996,0.154875,-0.110491,-0.244148,0.0587222202,-3.6695013302499997,-9.09404977775,0.006457,0.383517,2.878124,-0.0018380000000000063,0.009339999999999987,0.001753000000000001,0.0032009593240873713,0.0022419460778617673,-0.0009786475384530036
1504196342.07,-1.0,0.4961184235,-0.5689622196999999,-0.5973818914,0.127515,-0.077199,-0.26561,0.0711570524,-3.68778092585,-9.086567303799999,0.007831,0.385528,2.874853,-0.001799999999999996,0.009339999999999987,0.0019059999999999997,0.0034340424731604813,0.0031571295649499564,-0.0004015477000194334
1504196342.08,-1.0,0.43748446314999995,-0.4056814972,-0.66195868165,0.098151,-0.025779,-0.284973,0.0874360914,-3.6997744588,-9.081546299,0.009628,0.386849,2.871421,-0.001802999999999999,0.009310000000000013,0.0020079999999999994,0.0035983307235447626,0.003933657948764324,0.00016313867530370896
1504196342.09,-1.0,0.37741873189999997,-0.26085688999999995,-0.7084029760499999,0.063525,0.038466,-0.299029,0.10875574849999999,-3.70558980225,-9.0789377301,0.011978,0.387489,2.86787,-0.001701000000000008,0.009299999999999975,0.002005,0.00353172451496242,0.004399803175123784,0.0005672813496464535
1504196342.1,-1.0,0.3500777917,-0.14420678825,-0.74592321895,0.026821,0.112304,-0.30883,0.12861421474999998,-3.7085219906,-9.077486345899999,0.014167,0.387812,2.864556,-0.0018149999999999972,0.009230000000000016,0.0020131000000000003,0.0031922752442405944,0.004308801054024647,0.000790505352698978
1504196342.11,-1.0,0.25698326325,0.049209769699999996,-0.74274586435,-0.019511,0.183026,-0.318641,0.15557269559999998,-3.70739422585,-9.077525572499999,0.017137,0.387688,2.861137,-0.0019659999999999955,0.009149999999999991,0.0019794999999999995,0.002602647933845237,0.0036396978350752285,0.0008033105954868835
1504196342.12,-1.0,0.13906810365,0.27276216309999995,-0.7614765658499999,-0.064072,0.219614,-0.310244,0.1865420963,-3.702010375,-9.0791338631,0.020543,0.387095,2.857766,-0.002124000000000001,0.009020000000000028,0.0019001,0.0019525899938965807,0.0025816016020621113,0.0004987615003385626
1504196342.13,-1.0,0.0654299688,0.4233334672,-0.7617021188,-0.088725,0.218735,-0.292143,0.21947282699999998,-3.6804945848999995,-9.08714589615,0.024148,0.384727,2.854504,-0.002271000000000002,0.008879999999999999,0.0017643,0.0013020757950985562,0.0011345451887654345,-0.0003158492625702225
1504196342.14,-1.0,-0.06879364975,0.5939005306499999,-0.73964696295,-0.077283,0.195175,-0.270734,0.24805921175,-3.6722471922499995,-9.0897446584,0.027283,0.38382,2.851536,-0.0023999999999999994,0.008479999999999988,0.0015219,0.0007294827440080809,-0.00058635811998764,-0.0015515033333897144
1504196342.15,-1.0,-0.15124796294999998,0.7557789021999999,-0.61076796865,-0.032762,0.164902,-0.231059,0.27275235645,-3.6674223204499996,-9.0909802963,0.029993,0.38329,2.848936,-0.0024969999999999992,0.007720000000000005,0.0011470000000000002,0.00027184493399667886,-0.002182610947508712,-0.002823257067547602
1504196342.16,-1.0,-0.25949376565,0.84057700475,-0.3705344636,0.033776,0.115277,-0.174284,0.29136537815,-3.66842259875,-9.0899996313,0.032042,0.3834,2.846889,-0.002450000000000001,0.007560000000000011,0.0009436399999999999,-9.595416527563572e-05,-0.00340045883754736,-0.003934126051491904
1504196342.17,-1.0,-0.362453784,0.8759201713499999,-0.19559363425,0.111905,0.053821,-0.112127,0.2934738079,-3.6555856938999995,-9.09510889595,0.032256,0.381988,2.845864,-0.0023070000000000035,0.007390000000000008,0.0007574000000000001,-0.00040204916480424124,-0.004115612005125557,-0.004828685180496839
1504196342.18,-1.0,-0.46626698089999996,0.9031336251,-0.04788587195,0.188066,-0.001198,-0.068135,0.29732782134999997,-3.67083503465,-9.0888424466,0.032702,0.383664,2.844971,-0.0020729999999999985,0.007249999999999979,0.00060856,-0.0005765197599469918,-0.004119550871542366,-0.0054176547734962055
1504196342.19,-1.0,-0.53196172925,0.93942803675,0.1158753764,0.246283,-0.048581,-0.050872,0.29583721054999995,-3.6918604922499996,-9.080369501,0.032568,0.385977,2.844305,-0.0010659999999999975,0.007379999999999998,0.0004775999999999999,-0.0006674568784184043,-0.0035566284680805804,-0.005615092689566725
1504196342.2,-1.0,-0.54714242345,0.9375843865499999,0.16993943784999999,0.288653,-0.088355,-0.052863,0.2905121996,-3.71710280935,-9.070229424899999,0.032018,0.388758,2.843647,-0.001124,0.007089999999999985,0.00043480000000000016,-0.00046138978632903616,-0.0020991542793578066,-0.005400115928758442
1504196342.21,-1.0,-0.5634214624499999,0.9371921205499999,0.2085482189,0.314176,-0.106678,-0.069858,0.2689375696,-3.7267329396499997,-9.06694419715,0.029653,0.389819,2.843452,-0.0010379999999999973,0.006870000000000043,0.0004332000000000001,-0.00047781943355196255,-0.0007518123819869604,-0.0048061675022615935
1504196342.22,-1.0,-0.5875850480499999,0.9710937096,0.28449091649999997,0.308899,-0.114069,-0.093337,0.2619748481,-3.7549466717,-9.0554998366,0.028921,0.392932,2.842417,-0.0007010000000000002,0.006759999999999988,0.00046239999999999996,-0.0007181501831263759,0.00047575549381617677,-0.003931828455110087
1504196342.23,-1.0,-0.6124547124499999,0.9678379018,0.3310332774,0.26964,-0.106254,-0.124373,0.2564635108,-3.7801301488999997,-9.04517343415,0.028346,0.395713,2.841075,-0.0004380000000000009,0.006659999999999999,0.0005283999999999996,-0.001058644344995141,0.0014675014502474326,-0.003037218832066868
1504196342.24,-1.0,-0.61043454255,0.94038908845,0.3031431648,0.199641,-0.081123,-0.168302,0.2544433409,-3.7996649957,-9.0370437213,0.028148,0.397873,2.839316,-0.00028700000000000253,0.00656000000000001,0.0006170000000000004,-0.0012813535912128415,0.0017258093169976174,-0.002374383083579512
1504196342.25,-1.0,-0.6298419029,0.8955530846499999,0.33282789434999993,0.092452,-0.045029,-0.229385,0.24107687695,-3.79328086655,-9.040093589449999,0.026662,0.397167,2.837673,-0.00028399999999999953,0.006469999999999976,0.0007086999999999996,-0.0011034916463310562,0.0007182569505099767,-0.0019565059363934045
1504196342.26,-1.0,-0.6280374793,0.8403808717499999,0.32468837484999996,-0.039256,-0.007652,-0.288386,0.2500499617,-3.7921334884999998,-9.04032894905,0.027652,0.39704,2.834685,-0.00037100000000000327,0.006369999999999987,0.0007652000000000006,-0.0007617217855793168,-0.0010778810999432231,-0.0018850958029589249
1504196342.27,-1.0,-0.6578496953,0.74305967715,0.2873152317,-0.190353,0.021335,-0.323923,0.26340661899999995,-3.7775608065999995,-9.046046226,0.02911,0.395429,2.831301,-0.0004689999999999972,0.006269999999999998,0.0007828999999999996,-0.0006316616942356745,-0.0027145212889310155,-0.0021920456389548093
1504196342.28,-1.0,-0.72723174405,0.66178216195,0.28368677119999997,-0.33318,0.027858,-0.342328,0.27861673314999996,-3.7495530142,-9.057235613649999,0.030752,0.392336,2.827743,-0.0005389999999999978,0.006209999999999993,0.0007615,-0.0007323976186368597,-0.0037112649669339692,-0.0027045766930469117
1504196342.29,-1.0,-0.76732132925,0.5728260397999999,0.22707298074999996,-0.42821,0.016909,-0.347801,0.27665540315,-3.70174559545,-9.07694698015,0.03047,0.387066,2.824831,-0.0005730000000000041,0.006159999999999999,0.0006985000000000003,-0.000983115271255608,-0.004153224759810836,-0.003219042557144003
1504196342.3,-1.0,-0.81488358175,0.56216621125,0.19634874630000002,-0.46348,0.011867,-0.343584,0.2905514262,-3.6590670546499995,-9.0938046115,0.03194,0.382371,2.821272,-0.0002570000000000003,0.006620000000000015,0.0002766999999999995,-0.0011372242389249276,-0.004625990385572987,-0.0035772918915067953
1504196342.31,-1.0,-0.87939172545,0.6045211326,0.27856769989999997,-0.459436,-0.00949,-0.332865,0.30253515249999996,-3.61597663455,-9.1106328229,0.033195,0.37764,2.81782,-0.00023999999999999716,0.006599999999999995,0.00015360000000000026,-0.0015091486601952475,-0.0045664901195068275,-0.0037317397142672126
1504196342.32,-1.0,-0.9349169777499999,0.66680316675,0.32121682074999997,-0.441635,-0.041621,-0.316767,0.31107674464999996,-3.5742591454499997,-9.1267941821,0.03407,0.373067,2.81453,-0.00019500000000000073,0.00659000000000004,2.059999999999909e-05,-0.001702588950639683,-0.0046486256044657726,-0.003784454766590062
1504196342.33,-1.0,-0.94466478785,0.66664626035,0.2465195677,-0.411975,-0.057878,-0.301735,0.30317258475,-3.5272754852999997,-9.14531894395,0.033138,0.367927,2.811953,-0.0003610000000000002,0.006239999999999968,0.0001348000000000009,-0.0017737842035374651,-0.004508492869796488,-0.0037699948782966564
1504196342.34,-1.0,-1.00483839225,0.63524536705,0.15905405635,-0.357551,-0.044494,-0.282451,0.30872314865,-3.49227555145,-9.158557921449999,0.033696,0.364104,2.809003,-0.0003229999999999969,0.006170000000000009,9.059999999999971e-05,-0.0017504798916865294,-0.004209646584905968,-0.003640157597048499
1504196342.35,-1.0,-1.0941475538,0.58585907765,0.24084151735,-0.281741,-0.022765,-0.258875,0.31528379749999996,-3.4638460730999996,-9.1691196835,0.034372,0.361004,2.80628,-0.00018549999999999817,0.006209999999999993,-5.750000000000546e-06,-0.0015053345613387226,-0.004073808053775441,-0.0032777949169017218
1504196342.36,-1.0,-1.1777590516999998,0.467777205,0.36855352029999994,-0.201722,-0.012785,-0.242743,0.3225799451,-3.4427225489999995,-9.176817903749999,0.035137,0.358703,2.803717,-0.0001855000000000051,0.006209999999999993,-5.749999999998812e-06,-0.001491676609000736,-0.004078685422994166,-0.003271033375559451
1504196342.37,-1.0,-1.1015025413,0.27600816424999997,0.46188340834999997,-0.133733,-0.035774,-0.221219,0.29750434104999995,-3.42588453095,-9.183966951599999,0.032382,0.35687,2.8025,-9.399999999999686e-05,0.006259999999999988,-7.599999999999968e-05,-0.000809690135835428,-0.004690418338153535,-0.003038566484433791
1504196342.38,-1.0,-1.0288156515,0.065900688,0.5964404529999999,-0.109715,-0.090336,-0.204003,0.2976906674,-3.41494030955,-9.18803671135,0.032388,0.355679,2.800304,-6.700000000000456e-05,0.006300000000000028,-0.000108200000000001,-0.0005119560044684057,-0.005235976853418478,-0.002780488722660235
1504196342.39,-1.0,-0.9305922451,-0.1419022255,0.6533582496,-0.122032,-0.150993,-0.184704,0.29163996435,-3.4036136287999996,-9.19243009055,0.031715,0.354447,2.798323,-4.699999999999843e-05,0.006350000000000022,-0.00012969999999999995,-0.0004569114989219081,-0.0053983829117765225,-0.002440269344517465
