Time,placement_label,user_acc_x(m/s^2),user_acc_y(m/s^2),user_acc_z(m/s^2),rotation_rate_x(rad/s),rotation_rate_y(rad/s),rotation_rate_z(rad/s),gravity_x(m/s^2),gravity_y(m/s^2),gravity_z(m/s^2),attitude_roll(rad),attitude_pitch(rad),attitude_yaw(rad),target_delta_x,target_delta_y,target_delta_z,target_delta_roll,target_delta_pitch,target_delta_yaw
1504195896.37,-1.0,0.09476165895,-0.01770100325,0.13251726145,-0.0106,-0.011884,-0.079307,0.15842643074999999,-3.2723810385,-9.243208924249998,0.017138,0.340215,-0.195277,0.0,0.0,0.0,0.0,0.0,0.0
1504195896.38,-1.0,0.08416067029999999,-0.0120817928,0.1487080406,-0.019113,-0.010735,-0.080396,0.1613978457,-3.2717239929499997,-9.24338544395,0.017459,0.340144,-0.196184,0.00018440000000000123,0.00032999999999999696,0.00010999999999999899,-0.00042525939879545227,9.043746303838418e-05,3.2256260107388357e-06
1504195896.39,-1.0,0.08748512465,-0.019407360349999996,0.1285455682,-0.015778,0.006298,-0.07829,0.16570296504999998,-3.2709688809,-9.243571770299999,0.017924,0.340063,-0.197088,0.00017959999999999938,0.00030999999999997696,0.00010999999999999899,-0.00025516167279748814,5.80970326737873e-05,-3.21572388934932e-05
1504195896.4,-1.0,0.0551329863,0.02848831825,0.12828078865,-0.001593,0.044585,-0.07621,0.17246955355,-3.2705373883,-9.243601190249999,0.018656,0.340016,-0.197937,0.00017670000000000012,0.0003200000000000147,9.999999999998899e-05,-0.00015531227985698948,3.607459146448555e-05,-3.0191281638280998e-05
1504195896.41,-1.0,0.01077750835,0.07048039354999999,0.1380972453,0.00714,0.074345,-0.068777,0.18150147819999998,-3.2706354547999994,-9.243395250599999,0.019634,0.340026,-0.198716,0.0001762999999999999,0.00031999999999998696,0.00010999999999999899,-0.00012742282849664832,1.536520580303069e-05,-2.164283435046599e-05
1504195896.42,-1.0,0.0125328987,0.07522681214999999,0.13085013095,0.007035,0.074328,-0.048498,0.19067069594999997,-3.2707335212999995,-9.243179504299999,0.020626,0.340037,-0.199305,0.0001780999999999996,0.0003200000000000147,9.999999999998899e-05,-0.0001552411508125573,-5.250162726788687e-07,-3.364018463969387e-05
1504195896.43,-1.0,0.057006056449999995,0.027389973449999997,0.0749031927,-0.002877,0.048822,-0.027126,0.19812374994999998,-3.2706354547999994,-9.24305201785,0.021432,0.340027,-0.199685,0.00018259999999999978,0.00034000000000000696,0.0001000000000000445,-0.00022659268199110016,2.6680417332558548e-05,-4.597234471814815e-05
1504195896.44,-1.0,0.13198770234999999,-0.033352416649999994,0.0588987399,-0.012834,0.011613,-0.014275,0.20304668825,-3.2703412553,-9.24305201785,0.021964,0.339995,-0.19995,0.00018899999999999993,0.0003499999999999892,8.999999999997899e-05,-0.00028263939489003853,4.603772827493913e-05,-5.52096465125107e-05
1504195896.45,-1.0,0.19266144589999998,-0.037186816799999994,0.06383148485,-0.015323,-0.03097,-0.009945,0.2049197584,-3.2698018895499996,-9.2431991176,0.022167,0.339937,-0.200181,0.00019420000000000028,0.0003499999999999892,9.999999999998899e-05,-0.0003383824797817958,6.489968026501813e-05,-7.446172094327519e-05
1504195896.46,-1.0,0.20704780144999999,-0.021908056099999997,0.058712413549999995,-0.006971,-0.056583,-0.013098,0.20400773994999996,-3.26952730335,-9.243316797399999,0.022067,0.339906,-0.200425,0.00019990000000000025,0.0003599999999999992,9.00000000000345e-05,-0.0003375706077632934,7.159045133176001e-05,-0.000100881514769946
1504195896.47,-1.0,0.17841238345,0.0108461549,0.0661752742,0.008014,-0.058802,-0.025886,0.20240925599999998,-3.2701058956999995,-9.243150084349999,0.021895,0.339969,-0.200774,0.00020449999999999982,0.0003599999999999992,8.999999999997899e-05,-0.0003091332515932077,8.084773545613544e-05,-0.00010944737984952546
1504195896.48,-1.0,0.1275845165,0.03186180585,0.09566387074999999,0.01683,-0.03114,-0.037668,0.202213123,-3.27137095355,-9.2427087851,0.021875,0.340106,-0.201248,0.0002046000000000001,0.00034000000000000696,7.999999999996898e-05,-0.0002699343610350624,8.01978023399208e-05,-5.2533260708198526e-05
1504195896.49,-1.0,0.058192661099999994,0.0364415114,0.08683788575,0.005397,0.011579,-0.030295,0.20457652565,-3.27205741905,-9.242414585599999,0.02213,0.34018,-0.201656,0.0002040999999999996,0.00032999999999999696,9.00000000000345e-05,-0.00021098144533149288,5.230618145546373e-05,-5.2603738717516e-05
1504195896.5,-1.0,0.001765197,-0.0191425808,0.07995361745,-0.023266,0.044823,-0.004785,0.20847957234999998,-3.27139056685,-9.24256168535,0.022553,0.340108,-0.201781,0.00020120000000000034,0.0003200000000000147,8.999999999997899e-05,-8.337166291783049e-05,3.188507751072933e-05,-3.708896937948403e-05
1504195896.51,-1.0,-0.057986721449999994,-0.06369419174999999,0.0021966895999999997,-0.054104,0.06743,0.012203,0.21301024464999999,-3.2679876592999997,-9.243660030149998,0.02304,0.33974,-0.201646,0.00019749999999999976,0.0002999999999999947,9.999999999998899e-05,2.8351435154228e-05,1.184426727518506e-05,-5.459221871451092e-06
1504195896.52,-1.0,-0.0338525558,-0.07569753135,-0.0266348614,-0.0636,0.082419,0.016432,0.21940418044999999,-3.26317259415,-9.245209480849999,0.023727,0.339219,-0.201439,0.00019490000000000045,0.00029000000000001247,9.00000000000345e-05,0.00015485773906975808,-2.041200884783656e-05,4.5943187434449584e-05
1504195896.53,-1.0,0.023604606549999997,-0.0631744393,-0.005668243699999999,-0.052936,0.082333,0.018584,0.22719066054999998,-3.25877921495,-9.246572605199999,0.024565,0.338744,-0.201258,0.0001929999999999996,0.0002799999999999747,8.999999999997899e-05,0.00026638550944513284,-3.2549060819064835e-05,8.39918174317944e-05
1504195896.54,-1.0,0.0676854983,-0.02693886755,0.045895122,-0.025522,0.044814,0.025098,0.23293735745,-3.2564060056499997,-9.247268877349999,0.025184,0.338488,-0.201041,0.00019529999999999981,0.0002700000000000202,9.00000000000345e-05,0.0002809622900028508,-3.1243091450416927e-05,0.00011070523689271639
1504195896.55,-1.0,0.11046210559999999,-0.010954028049999998,0.0596440453,-0.000396,-0.015053,0.026309,0.23415338204999997,-3.2563863923499996,-9.24724926405,0.025316,0.338485,-0.200838,0.00020090000000000038,0.00028000000000000247,8.999999999997899e-05,0.00029536484525882756,-6.418853715217665e-06,0.00014388781913488025
1504195896.56,-1.0,0.1596130354,0.01107170785,0.0222807088,0.025859,-0.070655,0.021107,0.23079950775,-3.2582006225999995,-9.246690285,0.024955,0.338682,-0.2007,0.00020680000000000004,0.00028000000000000247,8.999999999997899e-05,0.00023547025407744115,1.0092753693458079e-05,0.00017418208391450918
1504195896.57,-1.0,0.1813053452,0.02372228635,0.021829602899999998,0.048068,-0.101708,0.010517,0.22450363845,-3.26203502275,-9.2454938737,0.024278,0.339096,-0.200682,0.00021089999999999998,0.0002899999999999847,9.00000000000345e-05,0.0001945738251367679,9.803898219917784e-06,0.00017263780256238093
1504195896.58,-1.0,0.15446454415,0.012729031699999999,0.06332153905,0.044968,-0.095259,0.000885,0.21783511644999998,-3.2666049216499995,-9.2440424895,0.023561,0.33959,-0.20075,0.0002107999999999997,0.00029000000000001247,7.999999999996898e-05,0.00013513771128081942,1.3573559015211956e-05,0.0001875124520911431
1504195896.59,-1.0,0.08435680329999999,0.0007354987499999999,0.0440710851,0.025036,-0.057781,-0.006691,0.2131181178,-3.2697136296999996,-9.24305201785,0.023053,0.339927,-0.200862,0.00021360000000000042,0.0002899999999999847,8.00000000000245e-05,9.47791539480658e-05,6.4452474559661965e-06,0.0001682567005462099
1504195896.6,-1.0,0.005668243699999999,-0.010404855650000001,0.0008825985,-0.005502,-0.004254,-0.001501,0.2116078937,-3.2701058956999995,-9.2429441447,0.02289,0.339969,-0.200898,0.0002172999999999997,0.00029000000000001247,7.999999999996898e-05,2.33687935018434e-05,-4.730142903364154e-06,0.00015657111953693015
1504195896.61,-1.0,-0.043247326499999995,-0.03254827135,-0.00387362675,-0.031853,0.04496,0.013312,0.2136869035,-3.268164179,-9.24358157695,0.023113,0.339759,-0.200775,0.00022110000000000012,0.0002899999999999847,8.00000000000245e-05,1.7785307105722126e-05,-1.9477451526972445e-05,0.00012981154173141718
1504195896.62,-1.0,-0.07739408179999999,-0.047856451999999994,-0.0034323275,-0.045591,0.07275,0.032457,0.21775666324999998,-3.2649672111,-9.24462108185,0.02355,0.339414,-0.20043,0.00022689999999999993,0.0002999999999999947,8.00000000000245e-05,-2.2654691678170025e-06,-1.1718303230212612e-05,0.00011402649242242546
1504195896.63,-1.0,-0.07493261265,-0.0409133438,0.0128074849,-0.045552,0.082322,0.040984,0.22262076164999997,-3.2614368170999994,-9.2457488466,0.024074,0.339032,-0.199957,0.0002341000000000001,0.00030000000000002247,7.999999999996898e-05,-1.4826291002023595e-05,1.676689495888617e-05,0.00010861996881639246
1504195896.64,-1.0,-0.02001537265,-0.010944221399999999,0.0029910282499999996,-0.031758,0.074744,0.044224,0.22816151889999997,-3.2583379157,-9.24670009165,0.02467,0.338697,-0.199476,0.00023859999999999984,0.0002899999999999847,8.00000000000245e-05,-1.4530242849364328e-05,2.472792895891196e-05,9.940982891987193e-05
1504195896.65,-1.0,0.00430511935,0.0181423025,0.00840429905,-0.019128,0.04801,0.035754,0.2321234055,-3.2562981325,-9.24732771725,0.025097,0.338476,-0.199063,0.00024160000000000023,0.0003100000000000047,7.999999999996898e-05,-3.0828270006555414e-05,4.144708953357501e-05,8.868077241985795e-05
1504195896.66,-1.0,0.01475900825,0.054426907499999996,0.00040207264999999996,-0.011886,0.008545,0.016621,0.23333943009999997,-3.2542779625999994,-9.248004376099999,0.025226,0.338257,-0.198842,0.00024390000000000002,0.0002999999999999947,7.00000000000145e-05,-4.6320612553829577e-05,3.315703496564737e-05,9.115964165695711e-05
1504195896.67,-1.0,0.0391089202,0.047071919999999996,-0.07381465455,-0.00349,-0.017079,0.001734,0.23263335129999999,-3.2526108321000002,-9.2486123884,0.025148,0.338078,-0.198811,0.00024510000000000005,0.0003100000000000047,7.999999999996898e-05,-5.923007123054269e-05,-1.5935349770845875e-06,9.404748184305145e-05
1504195896.68,-1.0,0.0161221326,0.031175340349999997,-0.058937966499999994,0.011428,-0.01933,0.000695,0.23092699419999999,-3.2525716055,-9.248661421649999,0.024964,0.338073,-0.198819,0.00024669999999999987,0.00029000000000001247,6.0000000000004494e-05,1.9425686420104782e-05,-8.84049975935497e-06,7.67612526152428e-05
1504195896.69,-1.0,-0.0407564374,0.028929617499999997,-0.0011179581,0.025359,-0.006671,0.008171,0.2290048908,-3.2542191227,-9.248131862549998,0.024757,0.338251,-0.19874,0.0002519,0.0002899999999999847,5.0000000000050004e-05,2.0036043411275628e-05,-9.8131262236123e-06,5.675689652140381e-05
1504195896.7,-1.0,-0.0616446019,0.024604884849999998,0.038118448549999996,0.027552,0.00821,0.019893,0.22773983295,-3.2567786583499996,-9.247268877349999,0.024623,0.338528,-0.198532,0.00025850000000000005,0.00028000000000000247,5.999999999994898e-05,8.285994221313153e-05,4.580072272553082e-07,5.432531811433439e-05
1504195896.71,-1.0,-0.06950953519999999,-0.0002549729,0.0163771055,0.026633,0.03058,0.02626,0.22797519254999998,-3.2594460671500003,-9.246317632299998,0.024651,0.338816,-0.198234,0.00026570999999999995,0.00029000000000001247,7.00000000000145e-05,8.257383266996321e-05,2.218084630944972e-05,6.489796502651135e-05
1504195896.72,-1.0,-0.07403040085,0.007600153749999999,-0.01817172245,0.020439,0.059388,0.030472,0.23070144125,-3.2613289439499997,-9.245591940199999,0.024947,0.33902,-0.197889,0.0002706500000000001,0.00028000000000000247,6.0000000000004494e-05,9.77205055838759e-05,3.5040034518152297e-05,7.423159083719266e-05
1504195896.73,-1.0,-0.0547603336,0.0036480737999999998,0.01344491715,0.0034,0.06804,0.037902,0.23491830075,-3.26215270255,-9.24518986755,0.025404,0.339109,-0.197486,0.0002709999999999999,0.0002899999999999847,6.0000000000004494e-05,0.0001819296359606426,3.8154417567382026e-05,8.472075365706377e-05
1504195896.74,-1.0,-0.035039160449999995,-0.036549384549999994,-0.0055701772,-0.013744,0.05965,0.040023,0.23885076739999997,-3.2619075362999994,-9.2451800609,0.025829,0.339083,-0.197044,0.00026781600000000004,0.00028000000000000247,7.00000000000145e-05,0.00021010941333865496,1.692426924204682e-05,8.328475351537801e-05
1504195896.75,-1.0,-0.0126898051,-0.0528970701,-0.03182257925,-0.027788,0.032068,0.031509,0.2411847501,-3.26023059915,-9.24570962,0.026081,0.338901,-0.196668,0.000263954,0.00028000000000000247,6.999999999995898e-05,0.00028222876119410323,-1.9255662826678233e-05,6.92001169130263e-05
1504195896.76,-1.0,0.023231953849999997,-0.0363630582,-0.03945215294999999,-0.024792,8.8e-05,0.021963,0.24162604935,-3.2580535228499996,-9.246464732049999,0.026126,0.338666,-0.19643,0.00026271,0.00026999999999999247,6.0000000000004494e-05,0.0003251444957328431,-5.147636608926476e-05,8.906024333588114e-05
1504195896.77,-1.0,0.0462089348,-0.012895744749999999,-0.0125328987,-0.014339,-0.027697,0.020961,0.2397529792,-3.2565334920999995,-9.2470433244,0.025921,0.338502,-0.196236,0.00026576,0.00026999999999999247,7.00000000000145e-05,0.0003938560573846228,-7.920942155159594e-05,9.986507482018236e-05
1504195896.78,-1.0,0.021623663249999998,0.00697252815,0.03564717275,-0.0102,-0.045841,0.017797,0.2354576665,-3.2556116669999997,-9.24748462365,0.025456,0.338401,-0.196045,0.0002632,0.0002500000000000002,4.999999999999449e-05,0.00048057829861281043,-7.320011192835096e-05,0.00011491687448950128
1504195896.79,-1.0,0.0008433719,0.0417174891,-0.0271840338,-0.000501,-0.036325,0.01246,0.23125061365,-3.2545819687499997,-9.24795534285,0.025,0.338291,-0.195898,0.0002728000000000001,0.0002600000000000102,4.999999999999449e-05,0.00046581447586335756,-4.2551332298579325e-05,9.544721811716173e-05
1504195896.8,-1.0,-0.019279873899999998,0.06351767205,-0.04647371435,0.017866,-0.004515,0.015638,0.22907353735,-3.2546898419,-9.2479651495,0.024765,0.338302,-0.195744,0.0002817999999999998,0.0002600000000000102,4.999999999999449e-05,0.00043803180205825853,-1.8763694112466922e-05,8.434584381822319e-05
1504195896.81,-1.0,-0.05571157865,0.06556726189999999,0.0023928226,0.026579,0.02736,0.029475,0.2291421839,-3.2561412260999996,-9.2474552037,0.024774,0.338459,-0.195449,0.0002886000000000002,0.00026999999999999247,5.0000000000050004e-05,0.00033895048205789813,-4.230576583053036e-06,5.7458403346255515e-05
1504195896.82,-1.0,-0.09258458265,0.05054347409999999,0.00159848395,0.02987,0.048618,0.044392,0.230260142,-3.2583183023999998,-9.24666086505,0.024896,0.338695,-0.194974,0.00029239999999999995,0.00029000000000001247,4.999999999999449e-05,0.00028339017626399787,-8.775329974675117e-06,3.1741781291283466e-05
1504195896.83,-1.0,-0.0996747906,0.03274440435,-0.0327934376,0.031911,0.044315,0.055081,0.23121138705,-3.26072093165,-9.2457880732,0.025002,0.338954,-0.194359,0.0002934000000000001,0.0002999999999999947,3.999999999998449e-05,0.0002000359797635909,-2.1967632071628884e-05,-6.734373702688146e-06
1504195896.85,-1.0,-0.0644885304,0.026105302299999997,-0.0055309506,0.034904,0.018708,0.055135,0.23074066785,-3.26366292665,-9.244758374949999,0.024954,0.339273,-0.193737,0.0002918999999999999,0.0003100000000000047,4.999999999999449e-05,0.00012903499979777244,-2.6063811228160816e-05,-3.200669663627753e-05
1504195896.86,-1.0,-0.0154160538,0.02038802535,0.035686399349999995,0.029325,-0.018533,0.044518,0.22805364575,-3.2666245349499996,-9.2437875166,0.024666,0.339592,-0.193228,0.0002872999999999999,0.00031999999999998696,4.999999999999449e-05,8.614418111174693e-05,-3.321940059564099e-05,-5.5599772937675596e-05
1504195896.87,-1.0,0.05155355905,0.01079712165,0.0615269221,0.021646,-0.053614,0.030688,0.2236308466,-3.2691644572999996,-9.24299317795,0.02419,0.339867,-0.192911,0.0002834999999999999,0.0003100000000000047,4.999999999999449e-05,0.00017399887633562372,-3.367339563009608e-05,-7.670763276623749e-05
1504195896.88,-1.0,0.08754396454999999,-0.02941995,0.062958693,0.006664,-0.067321,0.018941,0.2183156423,-3.2709884942,-9.2424734255,0.023616,0.340065,-0.192743,0.0002812000000000001,0.0002999999999999947,4.999999999999449e-05,0.0003144518397268925,-2.9527767974268926e-05,-6.362548536498203e-05
1504195896.89,-1.0,0.0402268783,-0.037167203499999996,0.043659205799999996,-0.008124,-0.055463,0.009286,0.2129612114,-3.2713219202999997,-9.242483232149999,0.023038,0.3401,-0.192637,0.0002746000000000003,0.00026999999999999247,3.0000000000030003e-05,0.0005533318269677068,-4.901855217709361e-05,-3.220323372299383e-06
1504195896.9,-1.0,-0.02448720505,-0.03137147335,0.047385732800000004,-0.026021,-0.028674,0.00494,0.20898951815,-3.2699391826499995,-9.2430618245,0.022606,0.339951,-0.19255,0.0002771999999999996,0.0002500000000000002,1.999999999996449e-05,0.0006671578295762703,-5.494732560529236e-05,4.679496767567848e-05
1504195896.91,-1.0,-0.07737446849999999,-0.0257718762,0.0108265416,-0.02465,0.012857,0.011278,0.20755774724999998,-3.26805630585,-9.24375809665,0.02245,0.339747,-0.192392,0.0002833000000000002,0.0002500000000000002,2.0000000000020002e-05,0.000595199909484867,-2.3921116058422953e-05,5.478141989845309e-05
1504195896.92,-1.0,-0.15222862795,0.006678328649999999,0.0053250109499999995,-0.015906,0.043661,0.018718,0.2077440736,-3.2662322689499996,-9.24440533555,0.022469,0.33955,-0.192105,0.0002890999999999996,0.0002500000000000002,3.0000000000030003e-05,0.000510638794581908,8.471881750571342e-06,5.9131597394679325e-05
1504195896.93,-1.0,-0.16901761275,0.0240459058,0.0318519992,-0.007328,0.047834,0.016599,0.20882280509999998,-3.2652025706999996,-9.24473876165,0.022584,0.339438,-0.191805,0.00029120000000000014,0.0002600000000000102,1.999999999996449e-05,0.0004387811620338855,2.2890958340404666e-05,6.270743462422068e-05
1504195896.94,-1.0,-0.12238699199999999,0.037157396849999996,-0.00150041745,-0.00209,0.029671,0.005972,0.20977405015,-3.2642415189999996,-9.24505257445,0.022686,0.339335,-0.191637,0.00028910000000000047,0.00025999999999999635,3.0000000000030003e-05,0.0004102563267427417,2.0483864937581586e-06,7.294564388171665e-05
1504195896.95,-1.0,-0.05359334225,0.03480380085,-0.028870777599999998,0.005129,-0.005552,-0.001422,0.20921507109999998,-3.2638394463499996,-9.2452192875,0.022626,0.339291,-0.191607,0.0002842999999999995,0.00027000000000000635,2.999999999997449e-05,0.0003957358225044061,-3.5468165358931714e-05,3.9802968796021077e-05
1504195896.96,-1.0,-0.02393803265,0.00709020795,-0.03564717275,0.013417,-0.035461,-0.000287,0.20619462289999999,-3.2645455251499995,-9.245032961149999,0.022299,0.339368,-0.191607,0.00027930000000000055,0.00026999999999999247,2.0000000000020002e-05,0.00038418049758393025,-6.611575633552746e-05,2.5899579425558983e-07
1504195896.97,-1.0,-0.02580129615,-0.025428643449999996,0.0067469752,0.028126,-0.061166,0.005123,0.20028121294999998,-3.2673502270499997,-9.24416997595,0.021662,0.339671,-0.191545,0.0002772999999999994,0.00028000000000000247,3.999999999998449e-05,0.00035635796417299304,-8.191618537822798e-05,-1.1822651988846467e-05
1504195896.98,-1.0,-0.04615990155,-0.042560861,0.04270796075,0.03658,-0.072963,0.004094,0.19265163924999998,-3.2714592134,-9.24287549815,0.02084,0.340116,-0.191453,0.0002785000000000001,0.00028000000000000247,2.999999999997449e-05,0.00028462904323101057,-7.126832623138846e-05,-1.2902565989958426e-05
1504195896.99,-1.0,-0.06946050194999999,-0.02982202265,0.0320873588,0.044139,-0.06557,-0.001239,0.18498283895,-3.27611737215,-9.24138488735,0.020014,0.34062,-0.191405,0.0002731000000000001,0.00028000000000000247,1.0000000000010001e-05,0.00025597890015460756,-4.453542043081349e-05,4.822845763974293e-06
1504195897.0,-1.0,-0.0846902294,-0.0078845466,0.05218118465,0.04115,-0.044236,-0.008749,0.17896155585,-3.28054997795,-9.23993350315,0.019366,0.341099,-0.191433,0.00027500000000000007,0.0002799999999999886,2.0000000000020002e-05,0.00021219643298553414,-1.3460376162122145e-05,1.201373595394184e-05
1504195897.01,-1.0,-0.1050292215,-0.0011277647499999999,0.031077273849999996,0.026497,-0.014283,-0.017361,0.17550961504999998,-3.2837175258999998,-9.23887438495,0.018994,0.341442,-0.191528,0.0002754000000000003,0.00028000000000000247,1.0000000000010001e-05,0.00019938771914862485,2.690236328595219e-06,1.6924591570544045e-05
1504195897.02,-1.0,-0.13252706809999998,-0.0180246227,0.01011065615,0.000104,0.015762,-0.024925,0.17472508304999998,-3.2846295443499995,-9.23856057215,0.01891,0.341541,-0.191693,0.00027589999999999993,0.0002899999999999986,1.0000000000010001e-05,0.00015625181067990823,-3.683415282562663e-06,5.09399627368623e-07
1504195897.03,-1.0,-0.09127049154999999,-0.02009382585,-0.02890019755,-0.026373,0.036223,-0.031407,0.1770100325,-3.28270744095,-9.239207811049999,0.019156,0.341332,-0.191949,0.00027649999999999984,0.00029000000000001247,3.3333333332996595e-06,0.00015679331489049098,-1.8898243423493e-05,-1.807289036448445e-05
1504195897.04,-1.0,-0.070411747,-0.0342448218,-0.059967664749999997,-0.037926,0.057624,-0.033596,0.18189374419999998,-3.2793339533499997,-9.24030615585,0.019683,0.340967,-0.192256,0.0002762999999999993,0.0002899999999999986,3.3333333333551707e-06,0.00015659550954372214,-4.6316989994910074e-05,-1.3673323398522008e-05
1504195897.05,-1.0,-0.04072701744999999,-0.0131212977,-0.0279489525,-0.031529,0.059694,-0.029317,0.18782676745,-3.27605853225,-9.24134566075,0.020321,0.340613,-0.192555,0.0002759000000000008,0.0002999999999999947,3.3333333332996595e-06,0.00014399272438714306,-5.7741769444730195e-05,-1.7184747419074498e-05
1504195897.06,-1.0,-0.01623000575,0.015935806249999997,-0.0004903325,-0.008253,0.041376,-0.019637,0.19265163924999998,-3.27429333525,-9.24187521985,0.020843,0.340422,-0.192787,0.00027579999999999966,0.0003100000000000047,1.0000000000010001e-05,0.00011328775218300002,-5.8862091213418566e-05,-2.5022061594159872e-05
1504195897.07,-1.0,0.02240819525,0.043551332649999996,-0.0033931009,0.025636,0.014453,-0.013128,0.19561324754999998,-3.2751269004999997,-9.24152218045,0.021164,0.340512,-0.192963,0.0002766999999999995,0.0002999999999999947,1.0000000000010001e-05,7.193516767078911e-05,-3.259421867607415e-05,-6.833882605694619e-06
1504195897.08,-1.0,0.0548191735,0.0710393726,0.0421293684,0.056306,-0.016698,-0.00982,0.19612319334999997,-3.2788142008999994,-9.2401982827,0.021222,0.340912,-0.193114,0.000274700000000001,0.0003100000000000047,1.0000000000010001e-05,8.421700819871702e-05,-9.480736176348259e-06,7.789778069589026e-06
1504195897.09,-1.0,0.1056176205,0.068842683,0.056378430849999994,0.075236,-0.047748,-0.005468,0.1944070296,-3.2847079975499995,-9.2381388862,0.021041,0.341549,-0.193266,0.00023680000000000055,0.00025999999999999635,-1.0000000000010001e-05,0.0001279405167156078,-1.3966427273803816e-05,4.6241401654434355e-06
1504195897.1,-1.0,0.12517208059999999,0.0476995456,0.05231847775,0.079313,-0.068019,-9.5e-05,0.19070992254999997,-3.291700139,-9.23573625695,0.020646,0.342305,-0.193379,0.00023369999999999988,0.00026999999999999247,-1.0000000000010001e-05,0.00010005651753175471,-5.982467585541329e-06,-3.661673844579383e-06
1504195897.11,-1.0,0.12757470985,0.034852834099999994,0.09883141869999999,0.071777,-0.071147,0.008431,0.1862086702,-3.2987511203499995,-9.233304207749999,0.020165,0.343069,-0.193408,0.00023289999999999943,0.0002600000000000102,-1.0000000000010001e-05,7.174088734762663e-05,-1.0644671758708313e-05,1.030047101724385e-06
1504195897.12,-1.0,0.11760134679999998,0.00045110589999999997,0.12477000795,0.05145,-0.07417,0.015867,0.18092288585,-3.30475279015,-9.23126442455,0.019597,0.343719,-0.193353,0.00023530000000000079,0.00025999999999999635,-9.99999999995449e-06,5.678057054492314e-05,-8.542614508666446e-06,-1.5429044323278518e-05
1504195897.13,-1.0,0.11939596375,-0.0187699281,0.1191311842,0.030287,-0.055861,0.011523,0.17688254605,-3.3090284895499997,-9.229813040349999,0.019162,0.344182,-0.193296,0.00023799999999999863,0.00027000000000000635,-1.0000000000010001e-05,5.7386312721785515e-05,7.477480159057137e-06,-3.376267547916534e-05
1504195897.14,-1.0,0.1119134898,0.0015102241,0.13816589185,0.01564,-0.026944,0.000767,0.17553903499999998,-3.3114899586999997,-9.22895005515,0.019018,0.344449,-0.193324,0.0002409999999999999,0.00026999999999999247,-1.0000000000010001e-05,2.285617576136545e-05,1.600588191985608e-06,-3.3223632448731166e-05
1504195897.15,-1.0,0.0795907714,0.0515241391,0.1377049793,0.013743,-0.001337,-0.00569,0.1764412468,-3.3127255965999995,-9.228489142599999,0.019116,0.344583,-0.19343,0.0002420000000000009,0.00025999999999999635,-1.0000000000010001e-05,2.303810096870862e-05,-3.4670248048040975e-06,-3.9420381238830515e-05
1504195897.16,-1.0,0.03776540915,0.0612915625,0.1258977727,0.014983,0.023163,-0.001464,0.17890271594999999,-3.3138239414,-9.228057649999998,0.019385,0.344701,-0.193498,0.00024300000000000016,0.0002600000000000102,-1.0000000000010001e-05,2.943954193135312e-05,-1.2945882369663764e-05,-4.202290337596004e-05
1504195897.17,-1.0,-0.0141019627,0.06630276064999999,0.13003617899999997,0.009721,0.039178,0.009173,0.18184471095,-3.3146378933499996,-9.2277046106,0.019704,0.344789,-0.193437,0.00024199999999999916,0.00025999999999999635,-1.0000000000010001e-05,4.502038282794274e-05,-1.3092645883006071e-05,-4.5297351204398595e-05
1504195897.18,-1.0,-0.025252123749999997,0.05539776585,0.10532342099999999,0.009618,0.033836,0.020925,0.184168887,-3.31540281205,-9.22738099115,0.019956,0.344872,-0.193238,0.00023199999999999957,0.00025999999999999635,-2.999999999997449e-05,8.571497516740578e-05,-1.913323189661753e-06,-3.9853032602010785e-05
1504195897.19,-1.0,-0.02852754485,0.03221484525,0.0932024016,0.007402,0.02426,0.022006,0.18550259139999997,-3.3161579241,-9.227086791649999,0.020101,0.344955,-0.192995,0.0002310000000000003,0.00025999999999999635,-2.0000000000020002e-05,8.568593946423064e-05,-1.752221097750528e-05,-3.998329978893711e-05
1504195897.2,-1.0,-0.00842391235,0.035460846399999996,0.06640082715,0.011602,0.014636,0.019896,0.18618905689999998,-3.31701110265,-9.2267631722,0.020177,0.345047,-0.19277,0.0002310000000000003,0.0002600000000000102,-1.999999999996449e-05,7.312123843195018e-05,-1.3335246723089611e-05,-4.336513036151679e-05
1504195897.21,-1.0,-0.0033636809499999996,0.034391921549999996,0.061811314949999994,0.019086,0.011386,0.011376,0.1868166825,-3.31848210015,-9.22622380645,0.020246,0.345207,-0.192629,0.0002310000000000003,0.00026999999999999247,-2.0000000000020002e-05,7.301002744108942e-05,8.89379159008108e-06,-3.830642183566546e-05
1504195897.22,-1.0,-0.023702673049999998,0.05546641239999999,0.06072277679999999,0.019138,0.010331,-0.00143,0.1874050815,-3.3198059978999996,-9.22573347395,0.02031,0.34535,-0.192606,0.00022800000000000077,0.00028000000000000247,-2.999999999997449e-05,2.924988582142518e-05,5.726691134633199e-07,-3.498766325504832e-05
1504195897.23,-1.0,-0.01854437515,0.051347619399999996,0.06155634204999999,0.013864,0.010386,-0.014248,0.18837593984999998,-3.3207866629,-9.22536082125,0.020417,0.345456,-0.192711,0.00022699999999999977,0.00027000000000000635,-2.0000000000020002e-05,2.9292412232928555e-05,2.1201359505784723e-06,-3.6256746882346036e-05
1504195897.24,-1.0,-0.0137096967,0.03283266419999999,0.04253144104999999,0.011836,0.012551,-0.0324,0.19013133019999998,-3.3215613882499997,-9.22504700845,0.020608,0.345541,-0.193006,0.0002249999999999995,0.0002799999999999886,-2.0000000000020002e-05,1.0013883326998041e-05,1.9683633334377504e-06,-2.0024991996603347e-05
1504195897.25,-1.0,-0.015072821049999999,0.029733762799999997,0.047925098549999996,0.008769,0.022178,-0.044164,0.19328907149999996,-3.3222086271499998,-9.224743002299999,0.02095,0.345611,-0.193448,0.00022299999999999924,0.00028000000000000247,-9.99999999995449e-06,9.816572767551435e-06,-1.982962134672306e-05,-1.5080470640804755e-05
1504195897.26,-1.0,-0.02180018295,0.00754131385,0.11251169545,-0.004084,0.014823,-0.045239,0.19597609359999998,-3.3226106998,-9.2245468693,0.021242,0.345654,-0.193924,0.00022199999999999998,0.0002899999999999986,-2.0000000000020002e-05,9.68902971254515e-06,-2.4468831662627366e-05,-1.127314389359757e-05
1504195897.27,-1.0,-0.030851720899999997,-0.03056732805,0.07889449925,-0.01376,0.007436,-0.040972,0.19769225734999998,-3.3223655335499997,-9.22459590255,0.021428,0.345627,-0.194356,0.00022300000000000098,0.00028000000000000247,-1.0000000000010001e-05,4.3048188544281274e-05,-2.9217515126633842e-05,1.7134645326932763e-05
1504195897.28,-1.0,-0.0306752012,-0.03803999535,0.06856809679999999,-0.021243,0.005362,-0.039912,0.19902596174999998,-3.3214731283999996,-9.224890102049999,0.021571,0.345531,-0.194758,0.00022400000000000024,0.00028000000000000247,-2.0000000000020002e-05,5.466197555192842e-05,-1.8054186545546358e-05,5.193263060354614e-05
1504195897.29,-1.0,-0.016180972499999998,-0.019446586949999997,0.08976026744999999,-0.025535,0.002198,-0.038846,0.20037927944999998,-3.3198648378,-9.22543927445,0.021717,0.345356,-0.195157,0.0002139999999999989,0.00028000000000000247,-1.999999999996449e-05,8.256343569157387e-05,-1.9880201727051627e-06,6.118541863797677e-05
1504195897.3,-1.0,-0.00622722275,-0.019868272899999997,0.07950251154999999,-0.034031,0.006531,-0.038868,0.20210524984999997,-3.31750143515,-9.226253226399999,0.021902,0.3451,-0.195556,0.00021200000000000038,0.00026999999999999247,-2.0000000000020002e-05,6.9518841587346e-05,-3.5696014806241294e-06,7.288711294151096e-05
1504195897.31,-1.0,-0.008973084749999999,0.0099047165,0.04102121695,-0.030764,0.016091,-0.036744,0.2045471057,-3.3145006002499997,-9.227273118,0.022164,0.344776,-0.195947,0.00021099999999999938,0.00027000000000000635,-2.999999999997449e-05,0.0001251318900434839,1.13176732829956e-06,9.577717571018773e-05
1504195897.32,-1.0,-0.0080610663,0.028056825649999995,0.02501676415,-0.02333,0.018151,-0.027128,0.20693012165,-3.3118528047499995,-9.228175329799999,0.02242,0.344488,-0.196254,0.00021100000000000112,0.00026999999999999247,-4.0000000000040004e-05,0.00015295859409159007,5.650445039417917e-06,0.00010672853424253947
1504195897.33,-1.0,-0.01569064,0.0292630436,0.019848659600000002,-0.014967,0.004215,-0.015347,0.20796962654999998,-3.30991108805,-9.228842182,0.022531,0.344278,-0.196433,0.00021099999999999938,0.00027000000000000635,-2.999999999997449e-05,0.00015308798480062613,1.0274787493047555e-05,0.00010292323179250662
1504195897.34,-1.0,0.00255953565,0.028351025149999997,-0.00681562175,-0.004356,0.001989,-0.007853,0.20843053909999998,-3.3087048701,-9.2292736746,0.022579,0.344147,-0.196533,0.00021200000000000038,0.00027000000000000635,-3.0000000000030003e-05,0.00015424662432561576,5.471595814654506e-06,6.543941641545814e-05
1504195897.35,-1.0,0.02089797115,0.05084748025,0.0030106415499999996,0.001931,-0.00553,0.001777,0.20849918564999997,-3.30800859795,-9.22951884085,0.022586,0.344072,-0.196551,0.00021299999999999965,0.0002899999999999986,-2.999999999997449e-05,0.00012674780693511245,-1.9177307256867948e-05,4.2511101028819276e-05
1504195897.36,-1.0,0.020721451449999997,0.04480658385,0.04735631285,-0.003489,-0.011883,0.008182,0.20762639379999998,-3.3075084588,-9.22971497385,0.022492,0.344017,-0.196488,0.00021799999999999944,0.0002899999999999986,-2.0000000000020002e-05,9.954830991332209e-05,-3.0177331574288146e-05,1.0982218299759872e-05
1504195897.37,-1.0,0.031508766449999996,0.020142859099999997,0.038834334,-0.015331,-0.025633,0.007117,0.20581216354999998,-3.3063316607999997,-9.2301758864,0.022294,0.34389,-0.196418,0.00022199999999999998,0.0002899999999999986,-1.999999999996449e-05,0.00010045430110250386,2.312399012716071e-06,-1.5654956299293588e-05
1504195897.38,-1.0,0.03978557905,0.02207476915,-0.0026085689,-0.022773,-0.026625,-0.000368,0.20396851335,-3.30392903155,-9.2310780982,0.022093,0.34363,-0.196424,0.0002260000000000005,0.0002999999999999947,-3.0000000000030003e-05,8.561281534014142e-05,9.074708138934184e-06,-3.591541010983246e-05
1504195897.39,-1.0,0.057741555199999996,0.035451039749999996,-0.023771319599999997,-0.024884,-0.02234,0.000685,0.2026250023,-3.3008497434499997,-9.2322156696,0.021944,0.343296,-0.196451,0.00022799999999999904,0.0003000000000000086,-1.999999999996449e-05,0.00010105945320670884,2.1165744753082194e-05,-3.369045192580522e-05
1504195897.4,-1.0,0.027772432799999996,0.0361276986,-0.004344345949999999,-0.023814,-0.018088,0.006015,0.2011736181,-3.2980744614999997,-9.233235561199999,0.021784,0.342996,-0.196415,0.00020600000000000132,0.00023999999999999022,-7.00000000000145e-05,0.00010110965715348641,1.4277684295960213e-05,-3.5803454802918466e-05
1504195897.41,-1.0,-0.0011081514499999999,0.015229727449999998,0.00342252085,-0.026982,-0.011648,0.012395,0.19952610089999998,-3.2952893728999997,-9.23426525945,0.021604,0.342694,-0.196287,0.00020399999999999932,0.00023000000000000798,-7.00000000000145e-05,8.451281124166599e-05,-4.2847717556249165e-06,-1.6698677173243581e-06
1504195897.42,-1.0,-0.0273997801,0.009080957899999999,-0.05879086675,-0.019436,0.003197,0.019855,0.19843756275,-3.2927298372499996,-9.2351968912,0.021484,0.342418,-0.196075,0.0002030000000000018,0.0002299999999999941,-7.999999999996898e-05,9.878502265081579e-05,-1.7100937175218434e-05,3.648467876171679e-05
1504195897.43,-1.0,-0.0369906838,0.019377940399999998,-0.05665301705,-0.005489,0.017988,0.027326,0.19830026964999997,-3.29135690625,-9.23569703035,0.021468,0.342268,-0.195776,0.0002009999999999998,0.00023000000000000798,-8.00000000000245e-05,0.000126703254246463,-1.7926850046645626e-05,4.405259788731186e-05
1504195897.44,-1.0,-0.0316558662,0.016622271749999997,-0.018956254449999998,-0.000235,0.011542,0.032685,0.19790800365,-3.29098425355,-9.23583432345,0.021424,0.342229,-0.195414,0.0001999999999999988,0.00020999999999998797,-7.00000000000145e-05,0.0001831542841170819,-1.197671891728369e-05,4.002579661843697e-05
1504195897.45,-1.0,-0.0059624432,0.02848831825,-0.06326269915,0.000684,-0.005517,0.033784,0.19659391254999997,-3.2902879813999997,-9.23610890965,0.021282,0.342153,-0.195038,0.0002009999999999998,0.00022000000000001185,-6.999999999995898e-05,0.00015438769367559502,-6.812478525741739e-06,5.993706096918405e-05
1504195897.46,-1.0,0.01978001305,0.0048444850999999995,-0.08776951749999999,0.007042,-0.01515,0.02634,0.19465219585,-3.2902879813999997,-9.23614813625,0.021072,0.342153,-0.194753,0.00020399999999999932,0.00020999999999998797,-7.00000000000145e-05,0.00012563303941393045,-1.5714568783353755e-05,7.843302902910132e-05
1504195897.47,-1.0,0.026085689,0.0089044382,-0.08263083289999999,0.022039,-0.01313,0.016754,0.19298506534999998,-3.291504006,-9.23575587025,0.020892,0.342284,-0.194576,0.00020600000000000132,0.00022000000000001185,-7.00000000000145e-05,8.227945409799986e-05,5.5083563290647675e-06,7.04832620053164e-05
1504195897.48,-1.0,0.015553346899999999,0.021780569649999998,-0.0282039254,0.037041,-0.007918,0.011433,0.19198478705,-3.2942106414,-9.234804625199999,0.020787,0.342577,-0.19446,0.00020900000000000085,0.0002299999999999941,-7.00000000000145e-05,-3.7809703307800646e-05,8.318139877117048e-06,6.171537302468444e-05
1504195897.49,-1.0,-0.0081395195,0.00214765635,0.034078108749999995,0.037126,-0.00152,0.005018,0.1914454213,-3.2979175550999997,-9.23350034075,0.02073,0.342979,-0.194393,0.0001910000000000002,0.0002299999999999941,-6.0000000000004494e-05,-4.976476100271299e-05,-3.933204713257865e-06,3.818481560657894e-05
1504195897.5,-1.0,-0.0044522191,-0.03133224675,0.04270796075,0.024386,0.001788,-0.001414,0.19149445454999997,-3.3013891091999996,-9.2322548962,0.020739,0.343355,-0.1944,0.0001910000000000002,0.00022000000000001185,-6.999999999995898e-05,-0.00010002501087202909,1.5986173901527678e-05,3.2616788959716203e-06
1504195897.51,-1.0,0.017955976149999997,-0.075707338,0.037294689949999994,0.003017,-0.003361,-0.001442,0.1916807809,-3.3035563788499998,-9.2314703642,0.020761,0.34359,-0.194441,0.00018699999999999967,0.0002299999999999941,-8.00000000000245e-05,-2.8015996443642166e-05,1.4610204381204639e-05,-3.3342840599637213e-06
1504195897.52,-1.0,0.018152109149999998,-0.12093560779999998,0.02650737495,-0.017256,-0.005323,-0.001474,0.1916415543,-3.3044193640499997,-9.231166358049999,0.020757,0.343682,-0.194465,0.00018299999999999914,0.00021000000000000185,-7.00000000000145e-05,9.944015804719264e-05,-5.166304326120752e-06,1.6333554165082198e-05
1504195897.53,-1.0,0.0020201699,-0.10754953054999998,0.02301620755,-0.027892,-0.002039,-0.000431,0.19146503459999997,-3.3037427052,-9.2314115243,0.020737,0.34361,-0.194471,0.00018199999999999814,0.00019999999999999185,-8.999999999997899e-05,0.0001554244207508937,-3.0312303966439913e-05,2.4832508367933492e-05
1504195897.54,-1.0,-0.0019319100499999998,-0.07098053269999999,0.013660663449999999,-0.027962,-0.008438,0.004918,0.19091586219999998,-3.30230112765,-9.231941083399999,0.020677,0.343454,-0.194429,0.00018600000000000214,0.00020000000000000573,-8.00000000000245e-05,0.00015530083631931646,-4.621136527349634e-05,2.7494457745413925e-05
1504195897.55,-1.0,-0.0026379888499999996,-0.03392120235,0.0316950928,-0.014193,-0.017084,0.012429,0.1892291184,-3.3013498826,-9.2323137361,0.020494,0.343351,-0.194313,0.0001899999999999992,0.00020000000000000573,-6.999999999995898e-05,0.00012696404089540536,-1.712484035398809e-05,3.5584367338858947e-05
1504195897.56,-1.0,0.0319892923,-0.0216138566,0.038451874649999995,0.003871,-0.02682,0.012476,0.18708146204999998,-3.3018402151,-9.232186249649999,0.020261,0.343403,-0.194188,0.00019399999999999973,0.00019999999999999185,-8.00000000000245e-05,0.00011378576740339597,1.0393294019639399e-05,5.4501114148397534e-05
1504195897.57,-1.0,0.036843584049999996,0.008708305199999999,0.0715493184,0.018764,-0.036522,0.006113,0.18431598675,-3.3035759921499994,-9.231617463949998,0.019963,0.343592,-0.194132,0.0001930000000000022,0.0001900000000000096,-7.999999999996898e-05,0.00013911959656009998,2.535390829772055e-05,5.5054078769933845e-05
1504195897.58,-1.0,0.04949416255,0.014886494699999999,0.07368716809999999,0.02514,-0.047213,-0.005601,0.18108959889999998,-3.30616494775,-9.230754478749999,0.019616,0.343872,-0.194188,0.0001899999999999992,0.00019999999999999185,-7.00000000000145e-05,0.00012707612559825776,1.8444399062733652e-05,3.491114917986149e-05
1504195897.59,-1.0,0.02960627635,0.0117091401,0.06478272989999999,0.0103,-0.043876,-0.01951,0.17794166425,-3.307783045,-9.230234726299999,0.019276,0.344047,-0.194376,0.0001360000000000007,0.00014999999999999736,-7.00000000000145e-05,0.00018355561668181863,-2.6247206312834948e-05,2.5765531584731605e-05
1504195897.6,-1.0,0.0171812508,0.0058251501,0.00187307015,-0.016233,-0.02767,-0.02172,0.1758528478,-3.3068317999499994,-9.230617185649999,0.019048,0.343944,-0.194609,0.0001349999999999997,0.00014000000000000123,-6.0000000000004494e-05,0.000171212803794063,-4.961536182324089e-05,1.3910570042074966e-05
1504195897.61,-1.0,-0.01621039245,0.0102577559,-0.05449555405,-0.036202,0.014046,-0.01649,0.17647066675,-3.3033308258999994,-9.2318626302,0.019113,0.343565,-0.194784,0.00013599999999999723,0.00016000000000000736,-6.0000000000004494e-05,0.00012813443493819854,-4.158110009355731e-05,-3.9131432701955404e-06
1504195897.62,-1.0,-0.06298811295,0.01754409685,-0.048258524649999995,-0.0455,0.059924,-0.004843,0.18015796715,-3.2986432472,-9.23346111415,0.019509,0.343058,-0.194823,0.0001380000000000027,0.00014999999999999736,-6.999999999995898e-05,8.48235581274448e-05,-1.8785303051771507e-05,-1.311815412907702e-05
1504195897.63,-1.0,-0.07176506469999999,0.03860878105,-0.01267999845,-0.049645,0.086573,0.012184,0.18623809015,-3.2933770761499996,-9.235226311149999,0.020163,0.342487,-0.194675,0.00013999999999999777,0.00015999999999999348,-7.00000000000145e-05,5.698383742114288e-05,4.839472457218719e-06,-2.1219961755303274e-05
1504195897.64,-1.0,-0.060085344549999996,0.0281450855,0.0059036033,-0.043365,0.081172,0.027151,0.19222014664999998,-3.28874833735,-9.23675614855,0.020807,0.341986,-0.194377,0.00014000000000000123,0.00016000000000000736,-6.0000000000004494e-05,2.8659267085728857e-05,1.9865652017170277e-05,-1.4533691582774289e-05
1504195897.65,-1.0,-0.018593408399999997,0.026330855249999997,0.023800739549999998,-0.031858,0.053369,0.028288,0.19666255909999997,-3.2852865899,-9.23789371995,0.021285,0.341611,-0.194055,0.00014000000000000123,0.00015999999999999348,-7.00000000000145e-05,4.35045349682639e-05,2.7138736106158134e-05,7.149272511108862e-06
1504195897.66,-1.0,0.0192994872,0.0300279623,0.0368926173,-0.01613,0.013823,0.019844,0.19841794945,-3.28329583995,-9.23856057215,0.021474,0.341397,-0.193826,0.00013799999999999923,0.00016000000000000736,-7.00000000000145e-05,2.7190909744456704e-05,1.938364073028609e-05,3.239515512398761e-05
1504195897.67,-1.0,0.051141679749999995,0.032067745499999994,0.06413549099999999,0.008047,-0.035381,0.013566,0.19665275245,-3.28339390645,-9.23856057215,0.021283,0.341407,-0.193692,0.0001339999999999987,0.00014999999999999736,-7.999999999996898e-05,4.18717958059478e-05,6.3958500415850494e-06,5.7716460534207314e-05
1504195897.68,-1.0,0.050210048,0.0299102825,0.07994381079999999,0.023781,-0.071731,0.009385,0.19129832154999998,-3.2851198768499996,-9.238060433,0.020705,0.341594,-0.19362,8.599999999999927e-05,0.00010999999999999899,-6.0000000000004494e-05,5.394976881167857e-05,2.0460609767791738e-05,7.716946269376024e-05
1504195897.69,-1.0,0.03966789925,0.0194563936,0.05031792115,0.038653,-0.082501,0.005159,0.1841885003,-3.2884443312,-9.2370209281,0.019938,0.341953,-0.193594,8.000000000000021e-05,0.00011999999999999511,-6.0000000000004494e-05,8.549873184771073e-06,1.2863745311619823e-05,0.00011055452932806631
1504195897.7,-1.0,-0.00922805765,0.03933447314999999,0.0785316532,0.033449,-0.070731,-0.002342,0.17712771230000002,-3.29155303925,-9.236050069749998,0.019175,0.34229,-0.1936,7.599999999999968e-05,0.00010999999999999899,-6.0000000000004494e-05,8.424411295226975e-06,-3.0342835930508016e-06,0.0001132108220770478
1504195897.71,-1.0,-0.023634026499999995,0.0372456567,0.041335029749999995,0.012317,-0.043921,-0.001357,0.17193018779999997,-3.2929063569499997,-9.235667610399998,0.018614,0.342437,-0.1936,7.200000000000262e-05,0.00012000000000000899,-6.0000000000004494e-05,9.532880164808688e-06,4.747423995921096e-06,7.841284174214813e-05
1504195897.72,-1.0,-0.04396321195,0.0251638639,-0.007904159899999999,-0.014007,0.002108,0.00172,0.17025325065,-3.2917589789,-9.23610890965,0.018432,0.342312,-0.193557,7.199999999999915e-05,0.00010999999999999899,-7.00000000000145e-05,1.8018686257725847e-05,6.59412671977222e-06,7.685374646193566e-05
1504195897.73,-1.0,-0.0676070451,0.011424747249999999,0.010091042849999999,-0.04245,0.047091,0.000527,0.17235187375,-3.2881893582999995,-9.237344547549998,0.018657,0.341926,-0.193497,7.400000000000115e-05,0.00010999999999999899,-5.999999999994898e-05,6.974353499100694e-05,1.2423051488852366e-05,6.740982450181843e-05
1504195897.74,-1.0,-0.079629998,0.0178677163,-0.00556037055,-0.057091,0.0845,0.000439,0.17808876399999998,-3.28266821435,-9.239198004399999,0.019273,0.341328,-0.193435,7.599999999999968e-05,0.00010999999999999899,-7.00000000000145e-05,8.294022446775351e-05,8.952081794078026e-06,4.9490559190012995e-05
1504195897.75,-1.0,-0.0714120253,0.0016867438,0.02276123465,-0.073001,0.099536,0.005725,0.1860321505,-3.2762056319999995,-9.241335854099999,0.020128,0.340629,-0.193342,7.799999999999821e-05,0.00010999999999999899,-6.0000000000004494e-05,8.562027658332028e-05,1.592855598131493e-05,5.597807104840147e-05
1504195897.76,-1.0,-0.041648842549999995,-0.013474337099999999,0.0395011862,-0.073292,0.067559,0.013255,0.19218092004999998,-3.2695763365999997,-9.243552157,0.020788,0.339912,-0.193181,7.800000000000168e-05,0.00010000000000000286,-6.0000000000004494e-05,5.444495821516071e-05,2.903242913876447e-05,6.23888460005162e-05
1504195897.77,-1.0,0.01738719045,-0.0098458766,0.0161025193,-0.055616,0.013065,0.018718,0.19449528945,-3.26407480595,-9.245454647099999,0.021034,0.339317,-0.192993,7.700000000000068e-05,0.00010999999999999899,-6.0000000000004494e-05,5.4448962353292885e-05,1.4965987320536556e-05,6.0959240676172755e-05
1504195897.78,-1.0,0.08050278984999999,-0.01905432095,0.0826112196,-0.023029,-0.047935,0.019945,0.19213188679999998,-3.26189772965,-9.24626859905,0.020777,0.339082,-0.192824,7.499999999999868e-05,0.00010000000000000286,-7.00000000000145e-05,6.970474973289065e-05,1.3664844697114376e-05,6.896801753242254e-05
1504195897.79,-1.0,0.10729455764999998,0.025889555999999998,0.12981062605,0.006535,-0.092912,0.010464,0.18584582414999998,-3.26209386265,-9.246327438949999,0.020097,0.339103,-0.192745,4.699999999999843e-05,7.000000000000062e-05,-4.999999999999449e-05,8.183493264923847e-05,-1.2923305823253628e-05,8.285833136401077e-05
1504195897.8,-1.0,0.09072131915,0.061066009549999994,0.11245285555,0.032162,-0.102683,-0.009759,0.17788282434999997,-3.26421209905,-9.24573903995,0.019237,0.339332,-0.192851,4.60000000000009e-05,5.9999999999990616e-05,-6.0000000000004494e-05,9.73558623640347e-05,-1.6184644901384715e-05,8.212510893745861e-05
1504195897.81,-1.0,0.0661164343,0.07005870759999999,0.11701294779999999,0.038754,-0.084605,-0.019389,0.17105739595,-3.2673600336999997,-9.244758374949999,0.018501,0.339672,-0.193097,4.70000000000019e-05,8.000000000001062e-05,-6.0000000000004494e-05,6.979611204460667e-05,-2.941150499147227e-06,6.443242486309231e-05
1504195897.82,-1.0,0.013660663449999999,0.041433096249999996,0.08664175275000001,0.021908,-0.055695,-0.018402,0.16590890469999997,-3.2697136296999996,-9.24401306955,0.017946,0.339927,-0.193309,4.899999999999696e-05,7.000000000000062e-05,-6.0000000000004494e-05,2.6803504977968018e-05,-5.839235124760478e-06,4.2647806241524755e-05
1504195897.83,-1.0,-0.05035714775,-0.0015102241,0.01213082605,-0.007714,-0.01817,-0.008911,0.16274135674999998,-3.2698607294499995,-9.244022876199999,0.017603,0.339943,-0.193399,5.100000000000243e-05,7.999999999999674e-05,-6.0000000000004494e-05,1.7653474076562148e-05,8.16125021563252e-06,5.903925185957171e-06
1504195897.84,-1.0,-0.0597224985,-0.04726805299999999,-0.03201871225,-0.034203,0.009738,-0.000464,0.16207450455,-3.2678013329499995,-9.244758374949999,0.01753,0.33972,-0.193383,5.2999999999997494e-05,7.999999999999674e-05,-5.999999999994898e-05,1.2345838081628813e-05,2.6698445483308575e-05,-2.4704302340472495e-05
1504195897.85,-1.0,-0.0426785408,-0.0661556609,-0.016936084549999997,-0.054405,0.021615,0.005887,0.162986523,-3.2640257727,-9.24607246605,0.017626,0.339312,-0.193297,5.199999999999996e-05,7.000000000000062e-05,-6.0000000000004494e-05,1.3011242305793758e-05,1.618834801164759e-05,-4.71288083647714e-05
1504195897.86,-1.0,-0.00818855275,-0.0593694591,-0.0081591328,-0.058754,0.012057,0.008032,0.16395738135000001,-3.2594460671500003,-9.247680756649999,0.017728,0.338816,-0.193196,5.199999999999996e-05,7.999999999999674e-05,-4.999999999999449e-05,4.5833100551728734e-05,6.4279318703341914e-06,-6.896366541497834e-05
1504195897.87,-1.0,0.0207312581,-0.024408751849999997,0.018426695349999998,-0.051401,-0.003983,0.005937,0.1642221609,-3.2548957815499997,-9.24926943395,0.017753,0.338325,-0.193125,4.80000000000029e-05,7.000000000000062e-05,-6.0000000000004494e-05,5.8712557113871355e-05,-7.877527247179827e-06,-7.80284607651005e-05
1504195897.88,-1.0,0.05120051965,0.0012454445499999998,0.0428746738,-0.035481,-0.017955,0.00065,0.16367298849999998,-3.2513653875499995,-9.25052468515,0.017692,0.337943,-0.193126,4.599999999999743e-05,7.000000000000062e-05,-4.999999999999449e-05,4.6636053355086915e-05,-1.6300488858478346e-05,-9.690826380903683e-05
1504195897.89,-1.0,0.055819451799999996,0.03125379355,0.0151610809,-0.010955,-0.024536,-0.007838,0.16264329025,-3.24936483095,-9.251250377249999,0.017579,0.337726,-0.193217,2.3000000000002185e-05,5.000000000000837e-05,-3.0000000000030003e-05,8.782702583465252e-05,-1.1885340597261873e-05,-0.00010922287416259557
1504195897.9,-1.0,0.0439730186,0.0689211362,0.023231953849999997,0.011493,-0.02045,-0.011011,0.16178030505,-3.24901179155,-9.251387670349999,0.017485,0.337689,-0.193362,2.1000000000000185e-05,3.999999999999837e-05,-3.999999999998449e-05,7.419902379379728e-05,-2.1100016685204892e-05,-7.836015170736843e-05
1504195897.91,-1.0,0.00811009955,0.06553784195,0.0031773546,0.022081,-0.029063,-0.009911,0.15978955509999998,-3.2499728432499997,-9.2510836642,0.017271,0.337792,-0.193481,1.9999999999999185e-05,2.999999999998837e-05,-3.999999999998449e-05,0.00012905183364275707,-2.8764253587665323e-05,-3.2520120292311994e-05
1504195897.92,-1.0,-0.0232417605,0.038677427599999994,-0.05427980775,0.02413,-0.032291,0.000774,0.15642587414999998,-3.2513948075,-9.25064236495,0.016908,0.337946,-0.193483,1.8000000000000654e-05,2.0000000000006124e-05,-3.0000000000030003e-05,0.00015624845479167426,-9.408738365301872e-06,-1.1462779780924137e-07
1504195897.93,-1.0,-0.03464689445,0.01069905515,-0.08575915424999998,0.022999,-0.034426,0.009316,0.15226785454999997,-3.2530423247,-9.250132419149999,0.016459,0.338124,-0.193386,1.8000000000000654e-05,2.0000000000006124e-05,-3.999999999998449e-05,0.00018364410958660038,8.476182701500079e-06,2.573885012191468e-05
1504195897.94,-1.0,-0.03303860385,-0.0129643913,-0.03843226135,0.01662,-0.032245,0.008236,0.14810983495,-3.2548173283499997,-9.249573440099999,0.016011,0.338316,-0.193262,1.4000000000000123e-05,2.999999999998837e-05,-3.999999999998449e-05,0.00018341952583655896,1.4783589017852705e-05,3.350507948274295e-05
1504195897.95,-1.0,-0.026742734549999998,-0.022202255599999998,-0.03207755215,0.002829,-0.027864,-0.000334,0.14480499389999998,-3.2556116669999997,-9.24934788715,0.015655,0.338402,-0.193213,8.999999999998592e-06,2.0000000000006124e-05,-4.0000000000040004e-05,0.00014230468631004634,1.2685513293142492e-05,4.392147062948215e-05
1504195897.96,-1.0,0.0014513841999999999,-0.01581812645,-0.028517738199999997,-0.010982,-0.024547,-0.006768,0.14264753089999999,-3.2549644280999996,-9.2496126667,0.015421,0.338331,-0.193272,4.000000000000531e-06,2.0000000000006124e-05,-4.999999999999449e-05,0.00011137587936849158,2.1021497623729957e-05,4.131223415404506e-05
1504195897.97,-1.0,0.02589936265,-0.0302437086,0.0034519407999999995,-0.018373,-0.015957,-0.007864,0.14169628585,-3.25385627665,-9.25001473935,0.015317,0.338212,-0.193362,-1.000000000001e-06,2.999999999998837e-05,-3.999999999998449e-05,5.510947356146545e-05,1.56681776612988e-05,3.969373854451064e-05
1504195897.98,-1.0,0.030528101449999998,-0.0473268929,0.03943253965,-0.01508,-0.003197,-0.00468,0.14185319224999998,-3.2532286510499997,-9.25023048565,0.015334,0.338145,-0.193434,-5.999999999999062e-06,3.0000000000002247e-05,-4.999999999999449e-05,4.286417949583843e-05,9.485660087182879e-06,2.6733726531946722e-05
1504195897.99,-1.0,0.0027066354,-0.03992287215,0.07546217174999999,-0.00862,0.003144,-0.00468,0.14228468484999998,-3.25330710425,-9.2502010657,0.015381,0.338152,-0.19349,-1.9000000000001654e-05,2.0000000000006124e-05,-2.0000000000020002e-05,2.7912946223729307e-05,-6.4831844048818255e-06,6.98899885043236e-06
1504195898.0,-1.0,-0.008708305199999999,-0.0015494506999999998,0.06571436165,-0.007505,0.004208,-0.012151,0.14293192375,-3.2529246448999998,-9.2503187455,0.01545,0.338111,-0.193591,-1.8000000000000654e-05,1.9999999999992246e-05,-2.0000000000020002e-05,2.78687241674902e-05,-8.033551931463379e-06,8.253378107059284e-06
1504195898.01,-1.0,-0.011395327299999999,0.00608992965,0.032587497949999995,-0.008489,0.008487,-0.021766,0.1441185284,-3.2521793394999996,-9.25056391175,0.015578,0.338031,-0.193786,-1.7999999999997185e-05,2.0000000000006124e-05,-2.999999999997449e-05,4.344506120101954e-05,-6.9237996518367595e-06,6.542144480592427e-06
1504195898.02,-1.0,-0.03384274915,-0.0026085689,0.013140911,-0.011626,0.013842,-0.026049,0.14562875249999999,-3.2512575143999998,-9.250867917899999,0.01574,0.337931,-0.194035,-1.9000000000001654e-05,1.9999999999992246e-05,-2.0000000000020002e-05,1.4266490965475498e-05,5.789679684564675e-07,-6.079361609456768e-06
1504195898.03,-1.0,-0.0695291485,-0.011101127799999999,0.05459362054999999,-0.02768,0.011828,-0.018598,0.14628579805,-3.2495119306999998,-9.25146612355,0.015811,0.337742,-0.194203,-2.1000000000000185e-05,3.0000000000002247e-05,-1.999999999996449e-05,1.4489746685164562e-05,-5.7312967078892996e-06,-1.3845658334066258e-05
1504195898.04,-1.0,-0.07314780235,-0.0438357255,0.0334799031,-0.038398,0.007641,-0.014336,0.146315218,-3.2469916216499994,-9.25234872205,0.015813,0.337471,-0.19431,-2.3999999999999716e-05,2.0000000000006124e-05,-3.0000000000030003e-05,2.9202526319771493e-05,-1.4959882970400074e-05,-3.5169141361701683e-05
1504195898.05,-1.0,-0.04564995575,-0.053063783149999995,0.01993691945,-0.037327,0.008691,-0.012199,0.14665845074999997,-3.2441967264,-9.25332938705,0.015848,0.337169,-0.19441,-2.3999999999999716e-05,1.9999999999992246e-05,-2.999999999997449e-05,-1.3724289949390567e-05,-4.1034877448442586e-05,-1.515866345147554e-05
1504195898.06,-1.0,-0.037157396849999996,-0.02374189965,0.08126770854999998,-0.026605,0.013928,-0.013256,0.14759008249999997,-3.2420981033,-9.254045272499999,0.015947,0.336941,-0.194513,-2.5000000000000716e-05,3.0000000000002247e-05,-2.0000000000020002e-05,-1.3992336819868001e-05,-3.3462710576914745e-05,-5.838521656476026e-06
1504195898.07,-1.0,-0.0498766219,0.01273883835,0.12475039464999998,-0.008332,0.024438,-0.022847,0.14954160585,-3.24132337795,-9.25429043875,0.016158,0.336857,-0.194707,-2.2999999999998716e-05,1.0000000000010001e-05,-2.999999999997449e-05,2.8469314862000772e-05,-9.60285810203132e-06,-1.112951568360554e-05
1504195898.08,-1.0,-0.032479624799999995,0.07839436009999999,0.11270782844999999,0.006637,0.02432,-0.030291,0.15218940134999998,-3.2409801452,-9.254359085299999,0.016444,0.336821,-0.194995,-1.9999999999999185e-05,9.999999999996123e-06,-2.0000000000020002e-05,2.8021484779205963e-05,3.0176464678177695e-06,4.403257640284153e-06
1504195898.09,-1.0,-0.01783829635,0.07992419749999999,0.0953402513,0.004427,0.014747,-0.031345,0.15461164389999998,-3.24087227205,-9.254359085299999,0.016705,0.336809,-0.195314,-1.9000000000001654e-05,9.999999999996123e-06,-1.0000000000010001e-05,4.3264666249376305e-05,6.5617672486695255e-06,1.3618963607631152e-05
1504195898.1,-1.0,0.023673253099999996,0.05737870915,0.0453851762,-0.012716,0.006366,-0.031361,0.1569456266,-3.2394208878499997,-9.2548298045,0.016956,0.336653,-0.19565,-1.8000000000000654e-05,1.0000000000010001e-05,-3.3333333333551707e-06,5.595155865112389e-05,1.699506896057912e-05,1.2780652267840864e-05
1504195898.11,-1.0,0.031008627299999997,0.037853669,-0.0035696206,-0.023395,0.006457,-0.030314,0.1590246364,-3.2368123189499998,-9.255712402999999,0.01718,0.33637,-0.195982,-1.9999999999999185e-05,9.999999999996123e-06,-3.3333333332996595e-06,-5.03060490173457e-05,2.74686118357792e-05,1.2898744847666954e-05
1504195898.12,-1.0,0.01897586775,0.01083634825,0.016720338249999998,-0.02448,0.007528,-0.024982,0.16103499965,-3.2343312364999997,-9.25654596825,0.017395,0.336102,-0.196267,-2.2999999999998716e-05,3.0000000000002247e-05,-3.3333333333551707e-06,-4.9499065876146275e-05,-3.6840193768927776e-06,-1.5928465839532002e-05
1504195898.13,-1.0,0.024232232149999998,0.02313388735,0.0719219711,-0.022345,0.01177,-0.018582,0.16311400944999999,-3.2321149335999997,-9.257281467,0.017618,0.335863,-0.196494,-2.7000000000002716e-05,3.999999999999837e-05,-4.999999999977245e-06,-0.00018294777367700021,-3.2235405480252055e-05,-5.024859100699608e-05
1504195898.14,-1.0,0.025428643449999996,0.027350746849999996,0.08119906199999999,-0.017128,0.001067,-0.012151,0.16461442689999997,-3.23033992995,-9.257869866,0.017779,0.335672,-0.196659,-6.199999999999956e-05,0.00010999999999999899,-5.000000000032756e-06,-0.00047660798300142027,-2.2529317769803825e-05,-0.0002493068810286436
1504195898.15,-1.0,0.07049020019999999,0.0223787753,0.06775414485,-0.014102,-0.018135,-0.007846,0.16503611285,-3.2289669989499994,-9.2583405852,0.017824,0.335523,-0.196801,-3.249999999999781e-05,3.999999999999837e-05,-4.999999999977245e-06,-0.0001149913090050525,-3.840830677015461e-05,-0.0001752768723378706
1504195898.16,-1.0,0.09672298894999999,0.00938496405,0.03156760635,-0.007885,-0.035235,0.001797,0.1637906683,-3.2280942071,-9.2586740113,0.017689,0.335428,-0.196862,-3.250000000000128e-05,3.999999999999837e-05,-4.999999999977245e-06,-0.00011498535357423734,-3.8428594106409975e-05,-0.00017527365256997385
1504195898.17,-1.0,0.0897504608,0.00021574629999999997,0.020662611549999998,0.001547,-0.051296,0.010377,0.1605937004,-3.22820208025,-9.25868381795,0.017343,0.33544,-0.196834,-1.3499999999999623e-05,1.9999999999992246e-05,-5.000000000032756e-06,-2.5388395802794506e-05,-1.2842869748785901e-05,-8.940008844970926e-05
1504195898.18,-1.0,0.07789422095,0.0161613592,0.023702673049999998,0.007816,-0.065196,0.014678,0.1556903754,-3.22873163935,-9.25858575145,0.016815,0.335498,-0.196742,-1.3499999999999623e-05,2.0000000000006124e-05,-4.999999999977245e-06,-2.538733448864683e-05,-1.284516977628769e-05,-8.940007580815479e-05
1504195898.19,-1.0,0.07087265955,0.0197505931,0.009610516999999999,0.017368,-0.070597,0.015769,0.14983580535,-3.22992805065,-9.258262132,0.016183,0.335627,-0.196623,-1.9999999999999185e-05,2.0000000000006124e-05,1.0000000000010001e-05,-3.816659810107481e-05,-2.1168116645320367e-05,-0.00017739443668296495
1504195898.2,-1.0,0.06207609449999999,0.01630845895,0.0058251501,0.027081,-0.057881,0.013626,0.1447265407,-3.2320168670999996,-9.2576148931,0.015632,0.335853,-0.196518,-3.200000000000078e-05,4.999999999999449e-05,3.3333333333551707e-06,-0.00014537581390339227,4.948866918486061e-06,-0.0003476869639902347
1504195898.21,-1.0,0.0234575068,-0.00022555294999999998,0.041766522349999995,0.031574,-0.031274,0.011451,0.1411373068,-3.23508634855,-9.25660480815,0.015246,0.336184,-0.19642,-7.500000000000562e-06,1.0000000000010001e-05,3.3333333332996595e-06,-6.140568475476726e-05,1.8770089753594732e-06,-8.466038820686972e-05
1504195898.22,-1.0,-0.020927391099999998,-0.023349633649999996,0.059653851949999996,0.036127,0.001724,0.0082,0.13973495584999998,-3.2391953349,-9.2551828439,0.015097,0.336628,-0.196314,-7.500000000000562e-06,9.999999999996123e-06,3.3333333333551707e-06,-6.140581669678014e-05,1.8718199104039712e-06,-8.466046622801482e-05
1504195898.23,-1.0,-0.06636160055,-0.053152043,0.08071853615,0.038508,0.029406,0.004956,0.14057832775,-3.2439613667999994,-9.253505906749998,0.015191,0.337143,-0.19621,-1.5000000000001124e-05,3.999999999999837e-05,9.99999999995449e-06,-0.00015140208295516544,1.2253470854428627e-05,-0.00015474774792922918
1504195898.24,-1.0,-0.09503624514999999,-0.08139519499999999,0.08152268144999998,0.036516,0.044333,0.002797,0.14276521069999998,-3.2492471511499996,-9.2516132233,0.01543,0.337713,-0.196119,-1.7999999999997185e-05,3.0000000000002247e-05,1.0000000000010001e-05,-0.0001806529379440036,1.1577694955855478e-05,-0.00011975906301564532
1504195898.25,-1.0,-0.093359308,-0.1108935982,0.09427132645,0.026876,0.042264,0.010261,0.14512861335,-3.2541602828,-9.249848026299999,0.015689,0.338245,-0.195993,-4.49999999999999e-05,6.999999999998674e-05,2.0000000000020002e-05,-0.0004790630022992737,4.7927003246739375e-05,-0.00016516319383574896
1504195898.26,-1.0,-0.07173564475,-0.12699611749999998,0.027350746849999996,0.040586,0.028278,0.023122,0.14610927835,-3.2597500732999998,-9.247867083,0.015798,0.338849,-0.195739,-1.4000000000000123e-05,1.5000000000001124e-05,5.000000000032756e-06,-9.926370541446516e-05,2.0544662073795905e-05,-2.1160392514429915e-05
1504195898.27,-1.0,-0.06110523615,-0.13163466294999998,0.10254813904999999,0.04571,0.001586,0.026384,0.14505016015,-3.266791248,-9.245405613849998,0.015688,0.33961,-0.195423,-1.4000000000000123e-05,1.5000000000001124e-05,4.999999999977245e-06,-9.92636774241884e-05,2.054249608551828e-05,-2.1162336908520096e-05
1504195898.28,-1.0,-0.00867888525,-0.1120703962,0.19012152355,0.026275,-0.037669,0.013611,0.1417060925,-3.2727340779,-9.24334621735,0.015329,0.340253,-0.195239,-2.9000000000001247e-05,2.0000000000006124e-05,1.0000000000010001e-05,-0.0001836156967327529,2.7408615195012587e-05,-2.4205239772645548e-05
1504195898.29,-1.0,0.05147510585,-0.06622430745,0.0389520138,0.001623,-0.064082,-0.004533,0.1369204473,-3.2747346344999997,-9.242718591749998,0.014813,0.34047,-0.195267,-2.9999999999998778e-05,1.9999999999992246e-05,1.999999999996449e-05,-0.0002119588207087908,1.2737678279250986e-05,-1.9114556547572548e-05
1504195898.3,-1.0,0.05331875605,-0.0753935252,0.011856239849999999,-0.019589,-0.060686,-0.022724,0.13237996835,-3.27454830815,-9.2428460782,0.014322,0.340449,-0.195485,-3.200000000000078e-05,2.0000000000006124e-05,2.0000000000020002e-05,-0.00018368304827331983,7.426755195050205e-06,-2.3390776589859996e-05
1504195898.31,-1.0,0.027811659399999997,-0.027233067049999997,0.00469738535,-0.021487,-0.036151,-0.030244,0.12975178615,-3.2728713709999995,-9.2434737038,0.014036,0.340269,-0.195813,-3.099999999999978e-05,9.999999999996123e-06,1.0000000000010001e-05,-0.00019931914423221286,-2.423618019831153e-06,-1.970125983674631e-05
1504195898.32,-1.0,-0.024663724749999998,0.030596747999999997,0.0063645158499999995,-0.015864,0.004286,-0.023899,0.12971255955,-3.27070410135,-9.24424842915,0.014031,0.340033,-0.196076,-5.7999999999999025e-05,3.999999999999837e-05,2.999999999997449e-05,-0.000384540184750648,2.829430618178641e-05,7.657785994097388e-06
1504195898.33,-1.0,-0.07797267414999999,0.058065174649999995,-0.00222610955,-0.009266,0.038308,-0.010068,0.13169350285,-3.2686937380999996,-9.244925087999999,0.014244,0.339816,-0.196168,-1.3500000000003093e-05,1.0000000000010001e-05,5.000000000032756e-06,-0.00014296933719393223,3.0003331278560808e-05,2.6659430400699513e-05
1504195898.34,-1.0,-0.0912999115,0.08256218634999998,-0.016033872749999997,-0.008161,0.054257,0.005921,0.1348414375,-3.2665558883999997,-9.24564097345,0.014583,0.339585,-0.196094,-1.3499999999999623e-05,9.999999999996123e-06,4.999999999977245e-06,-0.000142968411463551,3.0007165160217397e-05,2.6655109048423498e-05
1504195898.35,-1.0,-0.056907989949999994,0.0742167272,-0.0181423025,-0.011447,0.050007,0.014465,0.13830318495,-3.2643395854999997,-9.24636666555,0.014957,0.339346,-0.195917,-5.9000000000000025e-05,6.0000000000004494e-05,2.999999999997449e-05,-0.0007156064812734453,0.00019702371898344673,0.00011583570688777911
1504195898.36,-1.0,-0.0016573238499999997,0.04770935225,-0.0383440015,-0.015799,0.038325,0.011276,0.1417257058,-3.26207424935,-9.2471217776,0.015325,0.3391,-0.195784,-3.599999999999784e-05,2.999999999998837e-05,2.0000000000020002e-05,-0.0003134163095024345,7.634983324766864e-05,3.299156074998422e-05
1504195898.37,-1.0,0.05712373625,0.061066009549999994,-0.046336421249999996,-0.019061,0.02239,-0.003649,0.14518745325,-3.2591224477,-9.248102442599999,0.015698,0.338781,-0.195823,-3.949999999999787e-05,1.5000000000001124e-05,1.999999999996449e-05,-0.0002698652599952833,2.1902325222811214e-05,-1.295368528131391e-05
1504195898.38,-1.0,0.10270504544999999,0.06441988385,-0.0471111466,-0.011622,0.013825,-0.013233,0.14868842729999998,-3.2564844588499997,-9.248975234449999,0.016075,0.338496,-0.195998,-3.950000000000134e-05,1.5000000000001124e-05,2.0000000000020002e-05,-0.0002698649969556932,2.1898820782517703e-05,-1.2959580596105802e-05
1504195898.39,-1.0,0.09971401719999999,0.0610169763,-0.041854782199999996,5.4e-05,0.007346,-0.013206,0.15167945554999998,-3.25503307465,-9.24944595365,0.016397,0.338339,-0.196206,-7.800000000000168e-05,-7.999999999999674e-05,4.999999999999449e-05,-0.00018346204160146762,1.078869579007602e-06,-3.118690966796844e-05
1504195898.4,-1.0,0.09812533989999998,0.06775414485,-0.020976424349999998,0.005238,-0.004417,-0.003575,0.15356233235,-3.25428776925,-9.2496715066,0.0166,0.338258,-0.196341,-7.549999999999918e-05,-9.499999999999786e-05,5.500000000002725e-05,-0.00016323425563835592,9.82752822675792e-06,-2.4584512285041882e-05
1504195898.41,-1.0,0.1026363989,0.0594871389,-0.052014471599999994,0.006065,-0.026781,0.009263,0.15309161315,-3.253650337,-9.249906866199998,0.016549,0.33819,-0.196346,-7.549999999999918e-05,-9.499999999999786e-05,5.499999999997174e-05,-0.00016323364660397743,9.82347755851265e-06,-2.4585991047820777e-05
1504195898.42,-1.0,0.0887109559,0.050700380499999996,-0.06334115235,0.001586,-0.041671,0.026355,0.1502574913,-3.25279715845,-9.25025009895,0.016242,0.338098,-0.196159,-7.700000000000068e-05,-0.00010000000000000286,6.0000000000004494e-05,-0.00015654881595983383,3.374617735452112e-05,1.1038145341202288e-05
1504195898.43,-1.0,0.07666838969999999,-0.0036480737999999998,-0.08846578964999999,0.00168,-0.028878,0.027397,0.14733510959999999,-3.2524637323499994,-9.250416812,0.015926,0.338061,-0.195912,-3.900000000000084e-05,-5.000000000000837e-05,2.0000000000020002e-05,-9.25945491263569e-05,2.3191706136183043e-05,1.3703976306067567e-05
1504195898.44,-1.0,0.04013861845,0.04447315775,-0.09776249384999999,0.011603,0.006219,0.017743,0.14705071674999998,-3.2521008862999996,-9.25054429845,0.015896,0.338023,-0.195715,-3.900000000000084e-05,-4.999999999999449e-05,2.0000000000020002e-05,-9.25943537417595e-05,2.319303669184869e-05,1.3701842901392425e-05
1504195898.45,-1.0,-0.026036655749999995,0.06838177044999999,-0.0536423755,0.015094,0.034973,0.003823,0.14903166005,-3.25207146635,-9.25052468515,0.01611,0.33802,-0.195622,-0.00016700000000000048,-0.00018999999999999573,8.999999999997899e-05,-0.0004859469401043981,0.00012167690401421183,6.11201385773974e-05
1504195898.46,-1.0,-0.0491117032,0.06283120655,-0.06816602414999999,0.02057,0.044529,-0.011127,0.15250321415,-3.2523558591999997,-9.250367778749998,0.016485,0.33805,-0.195674,-8.99999999999998e-05,-9.000000000000674e-05,4.999999999999449e-05,-0.0002567507709647643,5.759056925480621e-05,2.069144868199757e-05
1504195898.47,-1.0,-0.055182019549999996,0.057741555199999996,-0.1076966303,0.031194,0.038045,-0.014297,0.15573940865,-3.2535522704999997,-9.24989705955,0.016835,0.338179,-0.195798,-9.400000000000033e-05,-8.999999999999286e-05,4.999999999999449e-05,-0.0002974936470645506,4.768751570383145e-05,1.6771583117525246e-05
1504195898.48,-1.0,-0.027576299799999995,0.00985568325,-0.0489155702,0.038407,0.012398,-0.004632,0.15730847264999998,-3.25654329875,-9.24881832805,0.017007,0.338502,-0.195866,-5.199999999999996e-05,-3.999999999999837e-05,2.4999999999997247e-05,-0.00015635309921013807,1.7440916497024617e-05,3.681765064156295e-06
1504195898.49,-1.0,-0.01364105015,-0.027262487,0.0007453054,0.042453,-0.011087,0.002889,0.1563964542,-3.26087783805,-9.247298297299999,0.016911,0.338971,-0.19584,-5.199999999999996e-05,-3.999999999999837e-05,2.4999999999997247e-05,-0.00015635314434669922,1.7441521838579277e-05,3.6790354566162975e-06
1504195898.5,-1.0,-0.01832862885,-0.06177208835,0.013660663449999999,0.047831,-0.007935,0.000759,0.15510197639999998,-3.2663205287999997,-9.245405613849998,0.016775,0.339559,-0.195828,-0.0002139999999999989,-0.00016000000000000736,0.00012000000000000899,-0.0007400843824592052,4.643681793137233e-05,-1.1201324635834453e-05
1504195898.51,-1.0,-0.0323423317,-0.05239693095,0.0904761529,0.045853,0.007003,-0.004606,0.1550431365,-3.2721064523,-9.243356023999999,0.016772,0.340185,-0.19586,-0.00010849999999999749,-7.499999999999174e-05,5.499999999997174e-05,-0.0003886560076808987,3.1590994498786884e-05,-6.388513034993881e-05
1504195898.52,-1.0,-0.05546641239999999,-0.03782424905,0.12580951285,0.028975,0.028458,-0.008942,0.15736731254999997,-3.2753034201999998,-9.24218903265,0.017026,0.340532,-0.195961,-0.00010850000000000096,-7.500000000000562e-05,5.500000000002725e-05,-0.00038865881401006774,3.156633497725103e-05,-6.389755596702962e-05
1504195898.53,-1.0,-0.0574081291,-0.04573821559999999,0.09996899009999999,0.01092,0.037127,-0.010054,0.1599072349,-3.2780100556,-9.2411789477,0.017302,0.340824,-0.196035,-0.00011000000000000246,-8.000000000001062e-05,4.999999999999449e-05,-0.0003534121444823679,3.1184502343739595e-05,-8.782110429284007e-05
1504195898.54,-1.0,-0.0318323859,-0.0459147353,0.10293059839999999,0.001338,0.042525,-0.003674,0.16335917569999997,-3.2796379595,-9.24054151545,0.017677,0.341,-0.196086,-0.00010999999999999899,-7.999999999999674e-05,4.999999999999449e-05,-0.00035341186211979014,3.1153315253718006e-05,-8.783138889356668e-05
1504195898.55,-1.0,-0.006148769549999999,-0.05715315619999999,0.13192886245,-0.007331,0.0298,0.004873,0.16640904385,-3.2808147575,-9.240070796249999,0.018008,0.341128,-0.196061,-0.00011350000000000249,-9.000000000000674e-05,4.999999999999449e-05,-0.0002594129752375718,3.9340740334070645e-05,-0.00010051404613198311
1504195898.56,-1.0,0.00032361945,-0.051455492549999995,0.1306441913,-0.010682,0.006391,-0.000428,0.16756622855,-3.2814227698,-9.239835436649999,0.018133,0.341193,-0.196049,-0.00011349999999999902,-8.999999999999286e-05,5.0000000000050004e-05,-0.00025941778761051637,3.931493755882087e-05,-0.00010052459768450372
1504195898.57,-1.0,0.0304398416,-0.0186130217,0.08707324535,-0.010693,-0.004247,-0.014287,0.16827230734999998,-3.2810501170999995,-9.23995311645,0.01821,0.341153,-0.196186,-0.00011999999999999858,-8.999999999999286e-05,5.999999999994898e-05,-0.0002250445967408865,4.0409308606159655e-05,-9.58386532605715e-05
1504195898.58,-1.0,0.042207821599999994,0.007109821249999999,0.1107170785,-0.009587,-0.006371,-0.024957,0.16923335905,-3.2805793978999995,-9.240110022849999,0.018313,0.341102,-0.19645,-0.00013799999999999923,-8.500000000000174e-05,6.0000000000004494e-05,-0.00020380382035245503,1.9993847365062933e-05,-7.855447205507016e-05
1504195898.59,-1.0,0.0200644059,-0.0053740442,0.1461583116,-0.021296,-0.003077,-0.023917,0.16996885779999998,-3.27976544595,-9.24038460905,0.018392,0.341014,-0.196721,-0.00013799999999999923,-8.500000000000174e-05,6.0000000000004494e-05,-0.00020380503826067375,1.997785704421773e-05,-7.855841607551373e-05
1504195898.6,-1.0,-0.023006400899999998,-0.03507838705,0.11099166469999999,-0.035096,0.00875,-0.017556,0.17054745015,-3.2780492822,-9.240982814699999,0.018454,0.340828,-0.196894,-0.00014500000000000277,-8.999999999999286e-05,7.00000000000145e-05,-0.00019854272021535557,2.803323470090824e-05,-4.243692178718117e-05
1504195898.61,-1.0,-0.038442067999999996,-0.03384274915,0.08930916155,-0.039242,0.025826,-0.013322,0.17221458065,-3.27539168005,-9.241894833149999,0.018632,0.340541,-0.19701,-0.00014699999999999783,-8.000000000001062e-05,6.0000000000004494e-05,-0.0002119711843056038,2.8206015392884254e-05,-1.9199945635928195e-05
1504195898.62,-1.0,-0.045895122,0.014298095700000001,0.051779111999999995,-0.031727,0.03428,-0.009052,0.17488198945,-3.2722045188,-9.24297356465,0.018918,0.340196,-0.197089,-0.00015049999999999786,-7.999999999999674e-05,6.0000000000004494e-05,-0.0002064687821459188,3.7733033824816076e-05,9.233201948455338e-06
1504195898.63,-1.0,-0.0235947999,0.06791105124999999,0.008825985,-0.019004,0.027775,-0.004748,0.17756901155000002,-3.2691154240499998,-9.24401306955,0.019207,0.339862,-0.197133,-0.00015050000000000133,-7.999999999999674e-05,6.0000000000004494e-05,-0.00020646791287370903,3.773492800251965e-05,9.225373187593533e-06
1504195898.64,-1.0,0.010493115499999999,0.06147788885,-0.01797558945,-0.012861,0.001077,0.002781,0.17850064329999998,-3.2665656950499997,-9.244895668049999,0.019306,0.339586,-0.197131,-0.00015300000000000036,-7.999999999999674e-05,6.0000000000004494e-05,-0.00018584920806086203,4.577171052710938e-05,4.848039581573094e-05
1504195898.65,-1.0,0.03456844125,0.032156005349999996,-0.0726868898,-0.00137,-0.023532,0.011382,0.17701983915,-3.2652221839999997,-9.2453958072,0.019144,0.339441,-0.197046,-0.0001559999999999999,-7.499999999999174e-05,6.999999999995898e-05,-0.00019478134343042797,5.421602335275999e-05,8.861853846353629e-05
1504195898.66,-1.0,0.048484077599999995,0.02650737495,-0.0846117762,0.012325,-0.040696,0.017838,0.17372480475000002,-3.2652614105999995,-9.245444840449998,0.018788,0.339446,-0.196898,-0.0001559999999999999,-7.500000000000562e-05,7.00000000000145e-05,-0.00019477563744274562,5.4233182600560426e-05,8.86075511274953e-05
1504195898.67,-1.0,0.02762533305,0.0034617474499999998,-0.04435547795,0.020842,-0.040767,0.021054,0.16959620509999998,-3.2667520214,-9.244993734549999,0.018343,0.339607,-0.196687,-0.00016050000000000092,-8.000000000001062e-05,7.00000000000145e-05,-0.000159405757768738,2.762218753304957e-05,0.00010416323519235604
1504195898.68,-1.0,0.0048052584999999995,0.0037461403,-0.028576578099999996,0.025233,-0.025884,0.019968,0.16622271749999998,-3.2688408378499996,-9.2443170757,0.017979,0.339832,-0.19648,-0.00016050000000000092,-7.999999999999674e-05,7.00000000000145e-05,-0.00015940284470450372,2.763880184675216e-05,0.00010415880316905213
1504195898.69,-1.0,-0.021231397249999995,-0.0084141057,0.007433440699999999,0.022208,-0.003485,0.020992,0.16442810054999998,-3.27119443385,-9.24352273705,0.017787,0.340087,-0.196253,-0.00016149999999999845,-7.999999999999674e-05,7.00000000000145e-05,-0.00013192986672927454,1.4128124703249867e-05,0.00012617037362649963
1504195898.7,-1.0,-0.05278919694999999,-0.046454101049999995,0.0577611685,0.005192,0.00517,0.025219,0.1630649762,-3.27325383035,-9.24281665825,0.017641,0.34031,-0.195964,-0.00016150000000000192,-7.999999999999674e-05,6.999999999995898e-05,-0.00013192774198778068,1.4144715135611108e-05,0.0001261681820630134
1504195898.71,-1.0,-0.06506712275,-0.09209425015,0.05235770435,-0.013829,0.018122,0.011291,0.16263348360000002,-3.2741462355,-9.24250284545,0.017594,0.340407,-0.195756,-0.00016000000000000042,-8.000000000001062e-05,6.0000000000004494e-05,-0.00014770266452823755,4.1777065198811414e-05,0.0001391844340831172
1504195898.72,-1.0,-0.08225818019999999,-0.09889025859999999,0.01723028405,-0.019899,0.046954,-0.006913,0.16485959314999998,-3.2739402958499997,-9.24254207205,0.017835,0.340384,-0.195729,-0.0001559999999999999,-7.000000000000062e-05,6.0000000000004494e-05,-0.0001731407160787679,3.964011640977816e-05,0.00013847308004300007
1504195898.73,-1.0,-0.09429093975,-0.06134059575,0.0058447633999999995,-0.017593,0.065046,-0.011206,0.169262779,-3.27333228355,-9.2426695585,0.018311,0.340318,-0.195788,-0.00014799999999999883,-7.000000000000062e-05,6.0000000000004494e-05,-0.00021694828136831212,5.194194572277766e-05,0.00010175920538346706
1504195898.74,-1.0,-0.10183225359999999,-0.0678816313,0.0293807234,-0.012237,0.071377,-0.003731,0.17425436384999998,-3.2733813167999997,-9.24256168535,0.018851,0.340323,-0.195786,-0.00014799999999999883,-7.000000000000062e-05,6.0000000000004494e-05,-0.00021694087818691088,5.196363946646798e-05,0.00010174692536968344
1504195898.75,-1.0,-0.0941242267,-0.06865635665,-0.015455280399999998,-0.005889,0.069176,0.004827,0.17911846225,-3.2737931961,-9.24232632575,0.019378,0.340368,-0.195694,-0.00014300000000000077,-5.9999999999990616e-05,6.0000000000004494e-05,-0.0002702270943053531,5.203903700734536e-05,4.588434375973893e-05
1504195898.76,-1.0,-0.0665283136,-0.0814344216,-0.0024810824500000003,0.006754,0.052009,0.011287,0.18295286239999997,-3.2753818733999998,-9.2416888935,0.019793,0.34054,-0.195552,-0.00014099999999999877,-5.000000000000837e-05,4.999999999999449e-05,-0.00027260037420195893,2.9929906590231425e-05,3.3733706686356335e-05
1504195898.77,-1.0,-0.04225685485,-0.1028325319,0.018691474899999998,0.029021,0.032642,0.010294,0.18545355815,-3.2792849201,-9.2402571226,0.020068,0.340962,-0.195417,-0.0001380000000000027,-4.999999999999449e-05,6.0000000000004494e-05,-0.00031164093675273286,2.130765192465134e-05,-2.8364042411577195e-05
1504195898.78,-1.0,-0.05055328075,-0.0585260872,0.03980519235,0.050228,0.011157,0.003967,0.1859733106,-3.2846785776,-9.238325212549999,0.020128,0.341546,-0.195337,-0.00012599999999999764,-3.0000000000002247e-05,4.999999999999449e-05,-0.000336421747507476,1.0740536927178468e-05,-0.00014089438663933418
1504195898.79,-1.0,-0.0293807234,-0.036755324199999995,0.08736744485,0.070366,-0.012445,-0.005562,0.18500245224999998,-3.2919354985999996,-9.2357656769,0.020029,0.342331,-0.195363,-0.00011600000000000152,-3.0000000000002247e-05,6.0000000000004494e-05,-0.00037877465641988906,2.6354039327269874e-05,-0.00018082122531737355
1504195898.8,-1.0,-0.031234180249999997,-0.05778078179999999,0.1394701763,0.077698,-0.042327,-0.023641,0.18191335749999998,-3.3008399367999997,-9.2326471622,0.019701,0.343295,-0.195554,-5.149999999999946e-05,-1.9999999999992246e-05,2.999999999997449e-05,-0.00020383728363926323,4.6617151159278336e-05,-7.613642580872604e-05
1504195898.81,-1.0,-0.0050308114499999996,-0.08670059264999999,0.14362819589999998,0.063822,-0.058175,-0.044985,0.17815741054999998,-3.30947959545,-9.229626714,0.0193,0.344231,-0.195997,-5.149999999999946e-05,-2.0000000000006124e-05,3.0000000000030003e-05,-0.00020384022666242174,4.6601650879996015e-05,-7.614571532410519e-05
1504195898.82,-1.0,0.022231675549999996,-0.0981841798,0.10701997145,0.038224,-0.064346,-0.053559,0.17439165695,-3.31579507805,-9.2274300244,0.018898,0.344915,-0.196577,-0.00016900000000000248,-7.000000000000062e-05,0.00014999999999998348,-0.0007154534889344255,0.00031693411607758293,-0.000296729277457608
1504195898.83,-1.0,-0.03186180585,-0.12353437005,0.0750404858,0.008506,-0.048119,-0.055772,0.1705768701,-3.3196294781999995,-9.22612573995,0.018486,0.345331,-0.197146,-7.300000000000015e-05,-3.999999999999837e-05,6.0000000000004494e-05,-0.00032443260586112466,0.00015543197428735667,-0.000107848039709868
1504195898.84,-1.0,-0.10004744329999998,-0.14860016745,0.0697645081,-0.018815,-0.00314,-0.064432,0.16933142555,-3.3210416358,-9.22563540745,0.018352,0.345484,-0.197735,-6.699999999999762e-05,-3.999999999999837e-05,7.00000000000145e-05,-0.0003373731657874135,0.00014035432469339248,-0.0001031722714079919
1504195898.85,-1.0,-0.1557099887,-0.11949403025,0.0828073526,-0.034318,0.055584,-0.067757,0.1727735597,-3.3203747835999997,-9.22581192715,0.018725,0.345411,-0.198352,-6.400000000000156e-05,-2.0000000000006124e-05,6.0000000000004494e-05,-0.0003376357417512743,0.00013389885596959417,-9.528920386803197e-05
1504195898.86,-1.0,-0.20402735325,-0.0713139588,0.10872632854999999,-0.035201,0.083268,-0.058189,0.17858890315,-3.3187272664,-9.226292453,0.019354,0.345233,-0.198871,-3.150000000000028e-05,6.666666666668708e-06,2.4999999999997247e-05,-0.0001982956979471595,6.323904718374962e-05,-4.8605569658355385e-05
1504195898.87,-1.0,-0.20889145165,-0.0332641568,0.12006281595,-0.023548,0.083133,-0.040011,0.18435521335,-3.3172660755499996,-9.226704332299999,0.019978,0.345075,-0.199212,-3.150000000000028e-05,6.666666666668708e-06,2.4999999999997247e-05,-0.00019829650072322735,6.322893800914109e-05,-4.8617573006448644e-05
1504195898.88,-1.0,-0.177696498,-0.029527823149999997,0.13647914805,-0.005671,0.059508,-0.023918,0.18846419969999997,-3.31756027505,-9.22651800595,0.020424,0.345107,-0.199388,-0.00010999999999999899,6.666666666668708e-06,6.0000000000004494e-05,-0.0007730824149554394,0.0001506378218247839,-0.00026991111504170995
1504195898.89,-1.0,-0.1446284742,0.008208166049999998,0.15393498504999997,0.01101,0.013531,-0.018463,0.18906240535,-3.3189332060499996,-9.22600806015,0.02049,0.345256,-0.199512,-3.900000000000084e-05,3.999999999999837e-05,1.999999999996449e-05,-0.00037866201958780543,6.033889917755886e-05,-0.00018638697600581455
1504195898.9,-1.0,-0.0823954733,0.00414821295,0.11525755744999999,0.028843,-0.027114,-0.021558,0.18668919604999998,-3.3217673279,-9.2250372018,0.020235,0.345562,-0.19967,-2.1999999999997716e-05,3.999999999999837e-05,2.0000000000020002e-05,-0.000436150684008485,0.00010772454716700963,-0.0001461734459891062
1504195898.91,-1.0,-0.08442544985,0.013180137599999999,0.09321220824999998,0.042703,-0.034686,-0.031122,0.18288421584999998,-3.3258567009499997,-9.2236446575,0.019825,0.346006,-0.199932,2.999999999999531e-06,5.4999999999999494e-05,1.4999999999987246e-05,-0.0005508713004207522,0.00015766533758077017,-0.00012045502799074015
1504195898.92,-1.0,-0.09109397185,0.0413056098,0.09215309005,0.047066,-0.024073,-0.033263,0.1796774413,-3.33019124025,-9.22214424005,0.019481,0.346476,-0.20023,2.999999999999531e-06,5.4999999999999494e-05,1.4999999999987246e-05,-0.0005508848326212235,0.0001575989740452144,-0.00012054081434642594
1504195898.93,-1.0,-0.13259571465,0.04076624405,0.07092169279999999,0.040817,-0.004854,-0.033299,0.17749055835,-3.3339864138,-9.22081053565,0.019247,0.346887,-0.200518,2.5000000000000716e-05,8.000000000001062e-05,3.0000000000030003e-05,-0.000692882913436943,0.00020752881548458113,-0.00012536163892984398
1504195898.94,-1.0,-0.15411150475,0.021143137399999998,0.03468612105,0.023993,0.029364,-0.028043,0.17775533789999998,-3.3365165294999994,-9.219898517199999,0.019277,0.347161,-0.200734,3.699999999999884e-05,7.999999999999674e-05,1.999999999996449e-05,-0.0007494715796401152,0.00023371421010565108,-0.0001171613533008653
1504195898.95,-1.0,-0.16246677054999997,-0.01517088755,0.0481114249,0.00388,0.050822,-0.024904,0.1801285472,-3.33776197405,-9.219398378049998,0.019535,0.347296,-0.20091,5.000000000000143e-05,8.999999999999286e-05,3.0000000000030003e-05,-0.0007783255936786304,0.0002118206805263867,-9.574669952949755e-05
1504195898.96,-1.0,-0.1232107506,-0.0270859673,0.0867888525,-0.0122,0.044543,-0.01851,0.1830705422,-3.3378110072999996,-9.21931992485,0.019854,0.347302,-0.201045,6.199999999999956e-05,9.000000000000674e-05,2.999999999997449e-05,-0.0007220972813632986,0.00021132679395674536,-9.191666761376727e-05
1504195898.97,-1.0,-0.06905842929999999,-0.0049915848499999995,0.0702352273,-0.01563,0.022176,-0.007799,0.18488477245,-3.33672246915,-9.2196827709,0.02005,0.347183,-0.201105,7.700000000000068e-05,0.00010000000000000286,3.0000000000030003e-05,-0.0006817262480025565,0.0002309467191492498,-7.020861764805986e-05
1504195898.98,-1.0,-0.037657536,-0.00104931155,0.044973296899999994,0.007661,0.005985,0.002945,0.1850514855,-3.3370657018999994,-9.21955528445,0.020069,0.347221,-0.201084,7.249999999999965e-05,0.00010000000000000286,4.500000000001725e-05,-0.0007090729947563101,0.00024683537168734837,-5.458502756483519e-05
1504195898.99,-1.0,-0.0205743517,0.03323473685,0.0791200522,0.044805,-0.013513,0.011585,0.18353145475,-3.3403705429499997,-9.2183882931,0.019907,0.34758,-0.200978,7.249999999999965e-05,9.999999999998899e-05,4.499999999996174e-05,-0.0007090765725330517,0.0002467967280761485,-5.475956391010062e-05
1504195899.0,-1.0,-0.0190837409,0.04474774395,0.10588240004999999,0.075564,-0.032954,0.01701,0.18009912725,-3.3468037053499997,-9.21612295695,0.019539,0.348277,-0.20081,6.499999999999909e-05,0.00010000000000000286,6.0000000000004494e-05,-0.0007351262929979896,0.00025547534066161504,-8.531332025718541e-05
1504195899.01,-1.0,0.0020201699,0.0162005858,0.07060788,0.08396,-0.053266,0.012791,0.175146769,-3.3547667051499994,-9.21331825505,0.019008,0.349141,-0.200667,7.800000000000168e-05,0.00010000000000000286,6.0000000000004494e-05,-0.0007093771571939911,0.0002593348106498805,-8.882929879949764e-05
1504195899.02,-1.0,0.02666428135,0.00045110589999999997,0.02858638475,0.082804,-0.066039,0.010675,0.16921374574999998,-3.36280815815,-9.210493939849998,0.01837,0.350014,-0.200567,8.99999999999998e-05,0.00010999999999999899,8.00000000000245e-05,-0.000667467956552148,0.00028210712005138916,-3.132058743593458e-05
1504195899.03,-1.0,0.01079712165,0.0039618866,0.00856120545,0.06257,-0.067992,-3.1e-05,0.1630845895,-3.36916286735,-9.2082874436,0.017709,0.350704,-0.200555,0.00011749999999999955,0.0001250000000000001,6.499999999998174e-05,-0.0005448231629916478,0.00024269872718751806,-6.752333306792035e-05
1504195899.04,-1.0,0.017573516799999998,-0.00783551335,0.0229867876,0.035897,-0.070964,-0.004342,0.1569064,-3.3733797268499996,-9.20684586605,0.01704,0.351162,-0.200606,0.00011749999999999955,0.0001250000000000001,6.499999999998174e-05,-0.0005448351598240642,0.00024266331227029703,-6.765521354346049e-05
1504195899.05,-1.0,0.02187863615,-0.0691368825,0.00167693715,0.014645,-0.06226,-0.006531,0.1513950627,-3.3762726885999994,-9.20588481435,0.016444,0.351476,-0.200684,0.00015400000000000136,0.00014000000000000123,6.0000000000004494e-05,-0.0005099371514385442,0.0002600083265793529,-7.791625639741451e-05
1504195899.06,-1.0,-0.021182364,-0.09079977234999999,0.00601147645,0.002051,-0.036586,-0.005531,0.14703110344999998,-3.3780967255,-9.2052866087,0.015971,0.351674,-0.200727,0.0001789999999999986,0.00015999999999999348,4.999999999999449e-05,-0.000566542357971711,0.0003159537657047018,-6.871144166709087e-05
1504195899.07,-1.0,-0.0564470774,-0.09431055305,0.03539219984999999,0.00433,-0.013179,0.005108,0.14428524145,-3.38012670205,-9.2045805299,0.015674,0.351894,-0.200669,0.00020600000000000132,0.0001799999999999996,4.0000000000040004e-05,-0.0005536510003749662,0.0003659897174568272,-6.91766801509397e-05
1504195899.08,-1.0,-0.0852590151,-0.11180561665,0.047287666299999996,0.008702,0.0102,0.024291,0.1425690777,-3.3828333374499997,-9.20360967155,0.015489,0.352189,-0.200406,0.00022199999999999998,0.0001799999999999996,2.999999999997449e-05,-0.0005499636944619191,0.00034784733839554605,-0.00011499324213537498
1504195899.09,-1.0,-0.11644416209999998,-0.12488768774999999,0.028243152,0.014201,0.035706,0.034935,0.14202971195,-3.3862166316999995,-9.202374033649999,0.015433,0.352556,-0.199983,0.0002475000000000012,0.00020500000000001073,2.4999999999997247e-05,-0.0005383913254028982,0.00036541500691500417,-6.857246978753118e-05
1504195899.1,-1.0,-0.10275407869999999,-0.12607429239999998,0.042403954599999995,0.015424,0.052736,0.033844,0.1436085826,-3.3899627719999996,-9.200971682699999,0.015607,0.352963,-0.199548,0.0002474999999999977,0.00020499999999999685,2.4999999999997247e-05,-0.0005384057817652277,0.0003653781306722781,-6.876813007117288e-05
1504195899.11,-1.0,-0.0849452023,-0.12184762625,0.040246491599999996,0.00485,0.060278,0.029546,0.14659961085,-3.3928361204499997,-9.19986353125,0.015933,0.353276,-0.19917,0.0002669999999999999,0.0002299999999999941,3.0000000000030003e-05,-0.0005700621116146998,0.00038265246094715266,5.976451540390393e-05
1504195899.12,-1.0,-0.07677626284999998,-0.12600564585,0.0384224547,-0.005797,0.059296,0.026329,0.14995348515,-3.3948170637499997,-9.19907899925,0.016299,0.353491,-0.19883,0.00027800000000000047,0.00025999999999999635,3.999999999998449e-05,-0.0006150589818787466,0.0003512700183185835,0.00011623013312234143
1504195899.13,-1.0,-0.07532487865,-0.1501986514,0.08059104969999999,-0.016486,0.051922,0.022056,0.15299354665,-3.3963567077999994,-9.198461180299999,0.016631,0.353659,-0.198534,0.00028699999999999906,0.00027000000000000635,4.999999999999449e-05,-0.0006572048764148519,0.00032756088376761916,0.0001577404301414953
1504195899.14,-1.0,-0.0814148083,-0.15552366235,0.10533322765,-0.017613,0.038077,0.015676,0.1547293237,-3.3977688654,-9.1979120079,0.016821,0.353812,-0.198296,0.0002950000000000001,0.0002999999999999947,4.999999999999449e-05,-0.0006737777289291813,0.0003096108777305151,0.00020749555160715083
1504195899.15,-1.0,-0.09981208369999998,-0.1515911957,0.12994791915,-0.018664,0.029564,0.002884,0.15562172885,-3.39915160305,-9.197382448799999,0.016919,0.353963,-0.198159,0.0003070000000000017,0.0003100000000000047,3.999999999998449e-05,-0.0006752501660840515,0.0002990919819239046,0.000266048098718219
1504195899.16,-1.0,-0.09687989535,-0.16508514609999997,0.1629669097,-0.025055,0.022157,-0.006718,0.1562787744,-3.4004853074499994,-9.19688230965,0.016991,0.354107,-0.198147,0.000335499999999999,0.00034000000000000696,3.0000000000030003e-05,-0.0006336787996907844,0.0002952140141181392,0.00034253872371037275
1504195899.17,-1.0,-0.08879921575,-0.18258020969999997,0.1492964396,-0.032493,0.019019,-0.013128,0.15703388645,-3.40138751925,-9.196539076899999,0.017073,0.354205,-0.198215,0.000335499999999999,0.0003399999999999931,2.999999999997449e-05,-0.0006335699263075867,0.00029543170921875195,0.0003423472352027668
1504195899.18,-1.0,-0.07620747715,-0.18954293120000001,0.14271617744999998,-0.044096,0.028703,-0.019569,0.15866179034999997,-3.40130906605,-9.196539076899999,0.017251,0.354197,-0.198351,0.0003720000000000008,0.00036999999999999533,3.0000000000030003e-05,-0.0006349625955390792,0.00034868116682429395,0.0004034354700607201
1504195899.19,-1.0,-0.054456327449999994,-0.1907001159,0.12677056455,-0.052491,0.04262,-0.020676,0.1620450846,-3.4001616879999994,-9.19690192295,0.017618,0.354071,-0.198536,0.0003849999999999999,0.0003500000000000031,1.0000000000010001e-05,-0.0006498402076873244,0.0003402570016075579,0.0003928774242326627
1504195899.2,-1.0,-0.03805960865,-0.18845439305,0.11222730259999998,-0.057658,0.066093,-0.012189,0.167497582,-3.3983572644,-9.197470708649998,0.018209,0.353876,-0.198664,0.0004170000000000007,0.00036999999999999533,9.99999999995449e-06,-0.000691212468892255,0.00040941007593442436,0.0004137023798616024
1504195899.21,-1.0,-0.0390696936,-0.16543818549999997,0.09800766009999999,-0.053267,0.083096,-0.005808,0.17448972345,-3.39638612775,-9.1980689143,0.018968,0.353662,-0.198707,0.000451,0.00040000000000001146,1.0000000000010001e-05,-0.0007215510951754656,0.00045984368950802157,0.0004168099595251995
1504195899.22,-1.0,-0.04639526115,-0.1348806641,0.14132363315,-0.047986,0.078778,0.00168,0.1813641851,-3.3946209307499995,-9.19858866675,0.019714,0.353469,-0.198683,0.0004839999999999983,0.0004099999999999937,3.0000000000030003e-05,-0.0007368390752480192,0.0005287965223712554,0.0005262026280338228
1504195899.23,-1.0,-0.0018828768,-0.14177473905,0.13475317765,-0.046152,0.048909,0.017743,0.18622828349999998,-3.39311070665,-9.1990495793,0.020242,0.353306,-0.198533,0.0005150000000000016,0.0004299999999999998,1.999999999996449e-05,-0.0006650767568783245,0.0005519347233309269,0.0005358997083665384
1504195899.24,-1.0,0.00016671305,-0.17041015704999998,0.12123961395,-0.036869,0.013654,0.029559,0.18748353469999998,-3.3927674738999998,-9.1991476458,0.020377,0.353268,-0.198246,0.0005450000000000003,0.00044500000000000095,3.0000000000030003e-05,-0.00065169954566624,0.0005656566848204481,0.0005319692482786964
1504195899.25,-1.0,0.01099325465,-0.19132774149999998,0.1395290162,-0.025358,-0.014152,0.034959,0.18577717759999998,-3.3939834985,-9.198735766499999,0.020193,0.353401,-0.197893,0.0005709999999999986,0.0004740000000000022,1.999999999996449e-05,-0.0006363489268284006,0.0005452229260876074,0.0005381113821241179
1504195899.26,-1.0,0.025556129899999995,-0.20469420544999997,0.16886070635,-0.021238,-0.03337,0.039264,0.18213891044999997,-3.39618999475,-9.198000267749999,0.019799,0.35364,-0.197503,0.0005950000000000018,0.0005040000000000044,3.0000000000030003e-05,-0.0006795778607435743,0.0005457420673433688,0.0005415721253057004
1504195899.27,-1.0,0.011571847,-0.19227898654999998,0.1669876362,-0.020219,-0.039777,0.043541,0.17727481204999998,-3.3982788112,-9.19731380225,0.019272,0.353867,-0.197064,0.0006224999999999981,0.0005494999999999944,9.99999999995449e-06,-0.0006731675726712183,0.0005127322555107394,0.0006008232514426171
1504195899.28,-1.0,-0.00871811185,-0.19177884739999998,0.1244856151,-0.015861,-0.028099,0.048863,0.1724205203,-3.4005735673,-9.1965586902,0.018746,0.354116,-0.19655,0.0006225000000000015,0.0005494999999999944,1.0000000000010001e-05,-0.0006728425187305653,0.0005131357680210336,0.0006004628266281786
1504195899.29,-1.0,-0.033734876,-0.16829192064999998,0.12996753244999998,-0.01678,-0.005729,0.059495,0.16886070635,-3.4025152839999997,-9.1959114513,0.018361,0.354327,-0.195923,0.0006910000000000006,0.0004895000000000038,1.0000000000010001e-05,-0.0006656372177942238,0.00045982810038536215,0.0006219300092167312
1504195899.3,-1.0,-0.04650313429999999,-0.14320650994999998,0.1156596301,-0.020866,0.018802,0.065851,0.16711512265,-3.4036528554,-9.1955191853,0.018171,0.354452,-0.195209,0.0006909999999999972,0.0004895000000000038,1.0000000000010001e-05,-0.0006653391402222653,0.0004602430914752986,0.0006216125699174402
1504195899.31,-1.0,-0.06290965975,-0.12492691435,0.07055884675,-0.024993,0.041196,0.076481,0.16676208324999997,-3.4038293751,-9.195460345399999,0.018133,0.354471,-0.194376,0.0007240000000000024,0.0005219999999999947,4.999999999977245e-06,-0.0006709638978712462,0.00045903336777164405,0.0008831071211097274
1504195899.32,-1.0,-0.0735694883,-0.11672855495,0.06779337145,-0.033484,0.052968,0.089259,0.1672426091,-3.4031919428499995,-9.19568589835,0.018186,0.354401,-0.193405,0.0007530000000000002,0.0005370000000000097,5.000000000032756e-06,-0.0006454058676186314,0.00045163802568315425,0.0010178025818146086
1504195899.33,-1.0,-0.07663896975000001,-0.1205041152,0.09098609869999999,-0.044177,0.054104,0.098849,0.1676152618,-3.4019661115999997,-9.19613700425,0.018225,0.354268,-0.192316,0.000789999999999999,0.0005439999999999889,-7.499999999993623e-06,-0.0006200960413171863,0.0004886976168432255,0.001179859934316907
1504195899.34,-1.0,-0.05375024864999999,-0.16052505385000002,0.08122848195,-0.052699,0.054168,0.099903,0.1682232741,-3.40040685425,-9.19670578995,0.01829,0.354098,-0.191201,0.0008300000000000009,0.0005470000000000058,-7.499999999993623e-06,-0.000635409996217362,0.0005543181315992296,0.0013332249179571765
1504195899.35,-1.0,-0.025879749349999998,-0.1627707767,0.10339151095,-0.058094,0.043555,0.098844,0.1686351534,-3.3983082311499997,-9.197470708649998,0.018333,0.35387,-0.190103,0.0008909999999999994,0.0005394999999999983,-7.500000000049134e-06,-0.0007690518255798473,0.0006567541062452165,0.0016641605440419482
1504195899.36,-1.0,-0.00705098135,-0.17248916685,0.1333508267,-0.06136,0.028669,0.092457,0.16821346745000001,-3.3962194147,-9.198245434,0.018286,0.353643,-0.189085,0.0008909999999999994,0.0005394999999999983,-7.499999999993623e-06,-0.0007679370665414353,0.0006580331778658355,0.0016636117490713698
1504195899.37,-1.0,0.0225356817,-0.18731682165,0.1436870358,-0.051817,0.018999,0.093552,0.16736028890000001,-3.3950131967499995,-9.1987161532,0.018192,0.353512,-0.188098,0.0009349999999999983,0.0005220000000000086,-2.999999999997449e-05,-0.000872937572278687,0.0007087501261329177,0.0019876592379637348
1504195899.38,-1.0,0.0220257359,-0.17921652875,0.176323567,-0.040065,0.019966,0.096766,0.16636981725,-3.3950230034,-9.19872595985,0.018084,0.353514,-0.187092,0.000954499999999997,0.0004679999999999962,-4.999999999999449e-05,-0.0007815966576338873,0.0006338855302518986,0.0021140223275570857
1504195899.39,-1.0,0.020790097999999996,-0.1916023277,0.22005141935,-0.037987,0.015677,0.106377,0.1649086264,-3.3958075353999995,-9.198461180299999,0.017926,0.353599,-0.186005,0.000954500000000004,0.0004679999999999962,-4.999999999999449e-05,-0.0007802323545367251,0.0006355338101715624,0.0021134679029690684
1504195899.4,-1.0,0.03307783045,-0.19369114415,0.15022807135,-0.02531,0.008096,0.124552,0.162201991,-3.39701375335,-9.19805910765,0.017632,0.35373,-0.184744,0.0009650000000000006,0.0004259999999999958,-4.999999999999449e-05,-0.0006187046612131653,0.00045061665237899895,0.0022317943528018525
1504195899.41,-1.0,0.0437572723,-0.17934401519999998,0.15440570424999997,0.001246,0.004697,0.143804,0.15870101695,-3.4004362741999996,-9.19686269635,0.017254,0.354102,-0.183277,0.0009730000000000016,0.00043700000000000683,-4.999999999999449e-05,-0.0005664638339819561,0.00026964391246342423,0.002365695057981232
1504195899.42,-1.0,0.06787182465,-0.1567494936,0.30492797509999997,0.012808,-0.015648,0.151321,0.15389575844999998,-3.4059672248,-9.194891559699998,0.016735,0.354703,-0.181728,0.0009899999999999978,0.0004580000000000001,-4.0000000000040004e-05,-0.000565782173814533,0.00016641562550545608,0.0022836976094299244
1504195899.43,-1.0,0.13637127489999998,-0.12163187995000001,0.29468002584999997,0.015662,-0.057228,0.158854,0.14658980419999998,-3.41131184905,-9.1930282962,0.015945,0.355284,-0.180126,0.001014000000000001,0.0004760000000000042,-3.999999999998449e-05,-0.0005640969936284712,0.00011842741186329775,0.0021771629254780933
1504195899.44,-1.0,0.20476285199999997,-0.1228380979,0.27245815695,0.012114,-0.101941,0.161039,0.136116302,-3.4163818871,-9.19131213245,0.014808,0.355836,-0.178536,0.0010469999999999993,0.0004899999999999904,-2.999999999997449e-05,-0.0005454053239022372,0.00011759797635901847,0.0020095937381026108
1504195899.45,-1.0,0.2659171214,-0.12882996105,0.28314740545,0.00121,-0.132736,0.163181,0.12343630354999999,-3.42072623305,-9.189870554899999,0.013431,0.356308,-0.176967,0.0011064999999999964,0.0004969999999999974,-4.500000000001725e-05,-0.00041772424398978103,0.00021857513153511476,0.001689743729234472
1504195899.46,-1.0,0.30480048865,-0.1450011269,0.23891941394999996,-0.016943,-0.136827,0.164192,0.11029539255,-3.42341325515,-9.189036989649999,0.012002,0.3566,-0.175409,0.0011065000000000033,0.0004970000000000113,-4.500000000001725e-05,-0.00041734879626442734,0.0002192792214363859,0.001689631016002724
1504195899.47,-1.0,0.28626592015,-0.18587524409999998,0.20748910069999998,-0.03694,-0.106801,0.16194,0.0987529655,-3.4245900531499998,-9.1887329835,0.010747,0.356728,-0.173854,0.0011579999999999993,0.0004969999999999974,-8.999999999997899e-05,-0.00018969526867707032,0.0003114038946494535,0.0013639406820141753
1504195899.48,-1.0,0.22022793905,-0.20669476204999998,0.17510754239999998,-0.047158,-0.055548,0.158607,0.09072131915,-3.4245704398499996,-9.18882124335,0.009873,0.356726,-0.172286,0.0011779999999999985,0.0005000000000000004,-0.000140000000000029,-1.6468512395340085e-05,0.0002782548173669852,0.0012559874106311542
1504195899.49,-1.0,0.1453541663,-0.18611060369999996,0.16445752049999998,-0.042533,-0.00976,0.164924,0.08568070104999999,-3.4243448868999997,-9.188958536449999,0.009324,0.356703,-0.170637,0.0011960000000000026,0.0004909999999999914,-0.00019999999999997797,0.00011299698170219585,0.00019412830017029314,0.0011070145304614698
1504195899.5,-1.0,0.0846510028,-0.166909183,0.1930144853,-0.025235,0.028445,0.185158,0.0829446457,-3.4252961319499997,-9.18862511035,0.009027,0.356806,-0.16878,0.0011810000000000015,0.0005290000000000017,-0.000250000000000028,0.00021302936538347694,9.410685837929478e-05,0.0008833643044550143
1504195899.51,-1.0,0.06447872375,-0.1624177373,0.23277064439999998,-0.007058,0.046389,0.210769,0.08096370239999999,-3.4282871602,-9.18752676555,0.008812,0.357131,-0.166634,0.0011499999999999982,0.0005890000000000062,-0.00026999999999999247,0.00034409390221390446,8.091007597554878e-05,0.0007129026133660954
1504195899.52,-1.0,0.06645966704999999,-0.15951496889999997,0.25835619425,0.012064,0.046216,0.232144,0.0786885596,-3.4331414519499996,-9.1857321486,0.008566,0.357659,-0.164256,0.0010970000000000008,0.0006700000000000039,-0.00026999999999999247,0.000474450863806819,0.00018267944227412514,0.0005982532541087826
1504195899.53,-1.0,0.12820233544999998,-0.17672563965,0.30351581749999995,0.015172,0.034474,0.237493,0.0763545769,-3.4392608015499997,-9.18346681245,0.008314,0.358326,-0.1618,0.001022000000000002,0.000779999999999989,-0.00026999999999999247,0.0004525045903935876,0.0002753080714559264,0.0004928296489696837
1504195899.54,-1.0,0.20669476204999998,-0.24930465629999998,0.30583018689999997,-0.000958,0.009058,0.228949,0.0735694883,-3.4455468642,-9.18113282975,0.008013,0.359011,-0.159458,0.0009309999999999943,0.0009139999999999981,-0.00024999999999997247,0.0002137067665946013,0.00028790988035365395,0.00028721838102052644
1504195899.55,-1.0,0.31219470275,-0.3327788611,0.22857339819999997,-0.024562,-0.019482,0.217183,0.07028426054999999,-3.4505090291,-9.17928917955,0.007657,0.359551,-0.157314,0.0008310000000000053,0.0010660000000000114,-0.00021000000000004349,-3.693190307041405e-05,0.00012592091336194322,-0.0001978839292491319
1504195899.56,-1.0,0.4036221007,-0.41576273340000003,0.142196425,-0.047037,-0.039502,0.20753,0.0668421264,-3.4538629033999997,-9.1780633483,0.007282,0.359916,-0.155341,0.0007379999999999956,0.00122499999999999,-0.00017999999999995797,-0.00023120830037526297,-0.0001941853414864081,-0.0008665822792385258
1504195899.57,-1.0,0.42432393884999997,-0.48139864185,0.0823954733,-0.043888,-0.054409,0.203249,0.06230164745,-3.4573638774499997,-9.1767688705,0.006789,0.360298,-0.153429,0.0006494999999999973,0.0014605000000000035,-0.00011499999999997623,-0.0005677199888447504,-0.00029088142667821337,-0.0015386184300452133
1504195899.58,-1.0,0.41753773704999997,-0.5005118027,0.07603095745,-0.016096,-0.054604,0.202188,0.0571139296,-3.4632380608,-9.1745917942,0.006225,0.360938,-0.151531,0.0006495000000000042,0.0014605000000000035,-0.00011500000000003174,-0.000567281880715198,-0.00029175610609355473,-0.0015384812274461535
1504195899.59,-1.0,0.38542095829999995,-0.50934759435,0.11121721764999999,0.013869,-0.054811,0.193663,0.05181833859999999,-3.4723582452999997,-9.17117908,0.00565,0.361932,-0.149677,0.0006149999999999975,0.001684999999999992,-6.0000000000004494e-05,-0.0011307643540374723,7.237497263745674e-05,-0.0018657154164234413
1504195899.6,-1.0,0.39070674265,-0.51556501045,0.1268195978,0.028937,-0.060205,0.169111,0.046983660149999995,-3.4833514999499995,-9.167030867049998,0.005125,0.363131,-0.148063,0.0006099999999999994,0.0018230000000000052,-3.0000000000030003e-05,-0.001617156165741207,0.000644991288023089,-0.001760307030186592
1504195899.61,-1.0,0.43462092134999997,-0.52327303735,0.06097774969999999,0.036557,-0.063404,0.143468,0.04347287945,-3.4947958605,-9.1626865211,0.004744,0.36438,-0.14674,0.0006070000000000034,0.0019430000000000003,1.5000000000042757e-05,-0.002123385098387054,0.0011979927071334995,-0.001606563816287876
1504195899.62,-1.0,0.43457188809999997,-0.556625454,0.02495792425,0.032339,-0.076101,0.123161,0.03962867265,-3.50647558065,-9.158244108649999,0.004328,0.365655,-0.145662,0.0005930000000000032,0.002037999999999998,1.4999999999987246e-05,-0.002489561330070833,0.0016036787872095726,-0.0014738519565774544
1504195899.63,-1.0,0.4232354007,-0.6341568289,0.04841543105,0.013135,-0.088709,0.102869,0.02791953255,-3.5082603909499994,-9.157606676399999,0.003049,0.36585,-0.144498,0.0005699999999999941,0.0021069999999999978,6.0000000000004494e-05,-0.002702602089221795,0.0018133412508885005,-0.001379128634421134
1504195899.64,-1.0,0.40165096405,-0.6938008742,0.01228773245,-0.012359,-0.090603,0.07721,0.01658304515,-3.5077308318499996,-9.15783222935,0.001811,0.365792,-0.143601,0.0005380000000000038,0.002146000000000009,6.999999999995898e-05,-0.002674023288766758,0.0018961662256040679,-0.0013445642849959638
1504195899.65,-1.0,0.38825508015,-0.7103250794499999,0.022447421849999996,-0.04091,-0.076485,0.048316,0.0072373077,-3.5046613504,-9.159018834,0.00079,0.365457,-0.143008,0.0005089999999999956,0.0021699999999999914,0.0001000000000000445,-0.0024625531304836024,0.0019240750022258002,-0.0014041698822072624
1504195899.66,-1.0,0.3544515576,-0.70544136775,0.04088392385,-0.064927,-0.038925,0.017225,0.00797280645,-3.5104472738999997,-9.156802531099999,0.000871,0.366088,-0.142989,0.00048100000000000226,0.0021800000000000014,0.00010999999999999899,-0.0020810751728550514,0.0019592219073389927,-0.0015219120815928022
1504195899.67,-1.0,0.31205740965,-0.725495967,0.068842683,-0.073851,0.032566,-0.004265,0.009218250999999998,-3.5038572050999996,-9.159322840149999,0.001006,0.365369,-0.142994,0.0004559999999999981,0.0021910000000000054,9.999999999998899e-05,-0.0016132249558444833,0.0019823121168003333,-0.001673268543737838
1504195899.68,-1.0,0.2752726655,-0.7121196964,0.17303833925,-0.073198,0.108228,-0.014004,0.0178677163,-3.4970317767,-9.1619216024,0.00195,0.364624,-0.143125,0.0004320000000000018,0.0022140000000000007,7.999999999996898e-05,-0.0011074015253340619,0.00200526248842281,-0.0015701865973208884
1504195899.69,-1.0,0.27543937855,-0.7347828645499999,0.28448110984999997,-0.059856,0.176315,-0.013033,0.033107250399999996,-3.49113798005,-9.16412809865,0.003613,0.363981,-0.143274,0.0004019999999999996,0.002258999999999997,4.0000000000040004e-05,-0.000694290946724907,0.0019308912464628403,-0.002053266264471554
1504195899.7,-1.0,0.3116357237,-0.7667721568499999,0.36662161025,-0.028605,0.210184,-0.002387,0.05841821404999999,-3.5029844132499997,-9.15947974655,0.006377,0.365274,-0.143583,0.00037200000000000427,0.0023260000000000017,-2.0000000000020002e-05,-0.0003710272545451865,0.0018917831905025384,-0.002272464225640203
1504195899.71,-1.0,0.39953272765,-0.7960253937999999,0.48235969354999997,0.002142,0.193934,0.010504,0.0766095498,-3.5024646608,-9.1595483931,0.008364,0.365217,-0.143499,0.000336999999999997,0.0024199999999999985,-2.0000000000020002e-05,-0.0001615389788083288,0.0018500711319013874,-0.002452399977339703
1504195899.72,-1.0,0.54237639155,-0.8051063517,0.5562920279,0.028346,0.142557,0.022382,0.09028982655,-3.5044554107499994,-9.158655987949999,0.009858,0.365434,-0.143285,0.0002920000000000006,0.0025429999999999967,-8.999999999997899e-05,-3.7947852178144004e-05,0.0017656176322751183,-0.0025630594094178116
1504195899.73,-1.0,0.6621253946999999,-0.80564571745,0.57773917145,0.045967,0.080602,0.026791,0.09802727339999999,-3.5084074907,-9.15706731065,0.010705,0.365866,-0.143008,0.0002360000000000001,0.002687000000000002,-0.000130000000000019,-8.400161356703073e-05,0.0016522408932633237,-0.0026558796935612916
1504195899.74,-1.0,0.72560384015,-0.77328377245,0.5956853409499999,0.06058,0.027273,0.027894,0.11580672985,-3.5316394445499997,-9.1479177062,0.012659,0.368404,-0.143327,0.00017400000000000054,0.0028429999999999983,-0.00015999999999999348,-0.0001880737812587352,0.0015095989372873042,-0.0027767685045617663
1504195899.75,-1.0,0.7173956740999999,-0.7288890679,0.6363535185,0.076364,-0.001626,0.025837,0.11518891089999998,-3.53832757985,-9.1453483639,0.012595,0.369135,-0.14306,0.00011099999999999999,0.0030070000000000027,-0.00017999999999995797,-0.0003046507083437344,0.0013556192556587465,-0.002975981487069901
1504195899.76,-1.0,0.6839353842999999,-0.73005605925,0.68451397665,0.076288,-0.009087,0.029052,0.1134825538,-3.5453883678499998,-9.14263192185,0.012412,0.369907,-0.142776,4.799999999999943e-05,0.0031749999999999973,-0.00020000000000003348,-0.0004486373819099221,0.0012175551302306964,-0.003281543745210058
1504195899.77,-1.0,0.636451585,-0.72252455205,0.70779496375,0.06126,-0.016429,0.035444,0.11099166469999999,-3.5514194576,-9.14031755245,0.012142,0.370567,-0.142427,-1.4000000000000123e-05,0.0033470000000000028,-0.00021999999999999797,-0.0006356272610514857,0.001037775783892192,-0.003614452110181965
1504195899.78,-1.0,0.6075023542,-0.6997142841499999,0.6531817298999999,0.037866,-0.019368,0.036409,0.12123961395,-3.57333732035,-9.13164847385,0.013276,0.372965,-0.142573,-1.000000000001e-06,0.003547999999999999,-0.00025999999999998247,-0.0007366742893837319,0.0009874744639726263,-0.0037523375760388777
1504195899.79,-1.0,0.58768311455,-0.6687939166999999,0.5465834444,0.013433,-0.012762,0.025681,0.11890563124999999,-3.57508290405,-9.1309914283,0.013021,0.373157,-0.142271,-5.1999999999996493e-05,0.003728000000000002,-0.00026999999999999247,-0.0011641447846590935,0.0007534703320648539,-0.003922422092568212
1504195899.8,-1.0,0.5540168851,-0.5880067339999999,0.43879855425,-0.002381,0.002301,0.011751,0.11816032585,-3.5752201971499997,-9.1309522017,0.01294,0.373172,-0.142116,-0.00010700000000000293,0.003906999999999997,-0.00030000000000002247,-0.0014211756912851925,0.0006646344466221255,-0.0037552134331705345
1504195899.81,-1.0,0.53859102465,-0.5494371795499999,0.31042950575,-0.005333,0.026845,0.001029,0.11996474945,-3.5747298646499996,-9.13111891475,0.013137,0.373118,-0.142081,-0.0002134999999999984,0.0041565000000000005,-0.0003250000000000197,-0.0016723060547536583,0.0005993916952418132,-0.003155646411555746
1504195899.82,-1.0,0.47214116424999997,-0.5087395820499999,0.17420533059999999,0.010891,0.050196,0.007361,0.13434129835,-3.58579176585,-9.126578435799999,0.014719,0.37433,-0.142451,-0.0002134999999999984,0.0041565000000000005,-0.0003249999999999642,-0.0016741885837776582,0.0005941123685848648,-0.003156643173976792
1504195899.83,-1.0,0.443848979,-0.51829125915,0.09158430434999999,0.042867,0.059501,0.028748,0.13898965045,-3.5891162201999998,-9.1252055048,0.01523,0.374694,-0.142206,-0.00035400000000000015,0.004385400000000001,-0.00037000000000003697,-0.001727336248720901,0.0005763499996347399,-0.002415864583428573
1504195899.84,-1.0,0.4328066911,-0.5373161601499999,0.0697252815,0.072585,0.056033,0.054424,0.14255927105,-3.5950786633999994,-9.122802875549999,0.015625,0.375348,-0.141706,-0.00046800000000000314,0.004528599999999999,-0.00039000000000000146,-0.0016858443978602367,0.0005255033634292694,-0.001970327755730583
1504195899.85,-1.0,0.47420056075,-0.6190840078500001,0.013346850649999999,0.103471,0.055768,0.065152,0.14514822665,-3.6039831016,-9.119243061599999,0.015915,0.376324,-0.141033,-0.0005900000000000002,0.00466929,-0.00040999999999996595,-0.001673165638288454,0.00044147840445929454,-0.00163292669078563
1504195899.86,-1.0,0.42519673069999997,-0.6701472343999999,0.06055606374999999,0.123817,0.055648,0.066212,0.15734769925,-3.62819572045,-9.109436411599999,0.017271,0.378979,-0.140726,-0.00035450000000000065,0.002406855,-0.00021999999999999797,-0.0008429676862271585,0.0001622091860964403,-0.0007103869175892896
1504195899.87,-1.0,0.44162286944999996,-0.7424810848,0.07068633319999999,0.137638,0.050205,0.067313,0.15977974844999998,-3.64055209945,-9.10446444005,0.017547,0.380337,-0.140015,-0.00035450000000000065,0.002406855,-0.00021999999999999797,-0.0008430857679684323,0.000161610924075406,-0.0007105259840975986
1504195899.88,-1.0,0.37536914204999994,-0.8312704938999999,0.1326251346,0.15038,0.040513,0.06415,0.1613782324,-3.65396759665,-9.099060975899999,0.017734,0.381811,-0.13934,-0.0017339999999999994,0.010094,-0.0009100000000000219,-0.003949347038650464,0.0002259927715686505,-0.0026266200498074044
1504195899.89,-1.0,0.35838402425,-0.9281209693,0.18985674399999997,0.162096,0.039348,0.066307,0.1626530969,-3.6685893117999995,-9.09314756595,0.017885,0.383418,-0.138661,-0.0009359999999999993,0.005439999999999999,-0.00046999999999997044,-0.0022630112138295466,-4.341715331479534e-05,-0.001542853197270766
1504195899.9,-1.0,0.33759392624999995,-0.97885076975,0.28591288075,0.170757,0.042521,0.072715,0.17132217549999998,-3.7058545817999997,-9.077868805249999,0.01887,0.387519,-0.138242,-0.001003999999999998,0.005584000000000002,-0.00043999999999999595,-0.002382689838589691,-0.0004403757347626325,-0.0018684725477935427
1504195899.91,-1.0,0.32274665815000003,-1.0526261977,0.3760065743,0.164366,0.047895,0.079099,0.17254800674999998,-3.7211137292,-9.0716023559,0.019019,0.389199,-0.137438,-0.0010520000000000043,0.005713999999999997,-0.00039000000000000146,-0.0022775847519971304,-0.0006868751483555258,-0.002208123001364082
1504195899.92,-1.0,0.34428206154999996,-1.1450832939,0.3696714784,0.15379,0.057576,0.075862,0.1745191434,-3.7353431783499995,-9.06570855925,0.019248,0.390769,-0.136638,-0.0010739999999999986,0.005829000000000001,-0.00032000000000004247,-0.0019316231037496134,-0.0008807552502523297,-0.002462667093223847
1504195899.93,-1.0,0.35978637519999995,-1.22658636205,0.38548960484999995,0.158305,0.077803,0.058755,0.17860851644999998,-3.74975895385,-9.0596774695,0.019712,0.392359,-0.135983,-0.0010719999999999966,0.005943999999999998,-0.00024999999999997247,-0.0014327695154654485,-0.0008673483582517516,-0.002627077541087819
1504195899.94,-1.0,0.37323129235,-1.2561730251,0.4553423728,0.155549,0.099225,0.039502,0.19434818969999998,-3.79320241335,-9.041250774149999,0.021492,0.397158,-0.135925,-0.0010600000000000054,0.006071,-0.00014999999999998348,-0.0008395047808757994,-0.0006795238676180482,-0.0026770327561812524
1504195899.95,-1.0,0.37893876265,-1.28066023015,0.5036793506499999,0.139706,0.104708,0.015982,0.20299765499999997,-3.80626487115,-9.0355727238,0.022463,0.398603,-0.135728,-0.0010529999999999984,0.006213000000000003,-5.0000000000050004e-05,-0.00023456106836894364,-0.00040174357188837995,-0.0025752417140929573
1504195899.96,-1.0,0.39990538035,-1.2832295724499998,0.45204733839999994,0.113026,0.093224,-0.001122,0.21165692695,-3.81716986595,-9.030767465299999,0.023434,0.399809,-0.13573,-0.0010709999999999956,0.006374999999999999,8.00000000000245e-05,0.00022420966685365862,-9.015929761946317e-05,-0.002398423034645547
1504195899.97,-1.0,0.44191706894999994,-1.2788165799499998,0.4076428272,0.075383,0.047726,-0.013916,0.2175311103,-3.82487789285,-9.02736455775,0.024092,0.400663,-0.135868,-0.001126000000000002,0.006552000000000002,0.00020999999999998797,0.0005883700470963316,0.0001303413071205295,-0.0021467079416913615
1504195899.98,-1.0,0.48379146445,-1.2378738162,0.37146609535,0.03556,-0.026449,-0.028823,0.2293775435,-3.8571417713499994,-9.013341048249998,0.025443,0.404238,-0.136665,-0.0012150000000000008,0.006734000000000004,0.00034000000000000696,0.000994392058750293,0.00020200684102356092,-0.0018454781965318023
1504195899.99,-1.0,0.56047946745,-1.2570850435499998,0.25379610199999997,0.015721,-0.113651,-0.041512,0.2225717284,-3.8587206419999998,-9.012831102449999,0.02469,0.404414,-0.137088,-0.001126000000000002,0.007075999999999999,0.00031999999999998696,0.0016334800162953744,0.00013347399825702766,-0.0017528518760524525
1504195900.0,-1.0,0.58301514915,-1.21160180085,0.16427119414999997,0.031173,-0.189425,-0.052026,0.20900913144999997,-3.8609565582,-9.0121936702,0.023188,0.404662,-0.137626,-0.0012459999999999971,0.0072569999999999996,0.00043999999999999595,0.002260481223141708,-6.360505373859127e-05,-0.0013707416222429325
1504195900.01,-1.0,0.58048503345,-1.14366132965,0.10075352209999999,0.077688,-0.248407,-0.06038,0.19000384374999998,-3.8666542218499997,-9.010173500299999,0.021084,0.405294,-0.138282,-0.001358999999999999,0.007444999999999993,0.0005499999999999949,0.00296160318962313,-0.00031419084247552576,-0.00125192390294937
1504195900.02,-1.0,0.49471607254999994,-1.0477032594,-0.021329463749999996,0.134265,-0.265853,-0.068831,0.17984415435,-3.8979668553,-8.99688548955,0.019987,0.408772,-0.139528,-0.001455000000000005,0.007654000000000008,0.0006900000000000239,0.003519901422197602,-0.0005363242305804761,-0.0012180984688014984
1504195900.03,-1.0,0.36724923585,-0.9523826213999999,-0.1119527164,0.168611,-0.246944,-0.079479,0.1599268482,-3.9124806972999995,-8.9909524663,0.017786,0.410385,-0.140405,-0.0015369999999999967,0.008014999999999994,0.0008900000000000019,0.0038794109322208836,-0.0006275396685315737,-0.0013823531230167108
1504195900.04,-1.0,0.24509760345,-0.8768125765,-0.26686836645,0.166875,-0.197911,-0.080636,0.1441185284,-3.9276025516,-8.98462717705,0.016039,0.412067,-0.14131,-0.0015369999999999967,0.008014999999999994,0.0008900000000000019,0.0038802713342003248,-0.0006221680523348372,-0.0013847760558839406
1504195900.05,-1.0,0.1509047302,-0.8521194317999999,-0.4737004216,0.128937,-0.142182,-0.086137,0.13340966659999998,-3.9400275771499995,-8.979351199349999,0.014856,0.413449,-0.142257,-0.0015530000000000058,0.008410000000000015,0.0011200000000000099,0.0035634742865326974,-0.0002737203470659644,-0.0017580221375786964
1504195900.06,-1.0,0.08987794724999999,-0.8394786599499999,-0.6560648849999999,0.066618,-0.083022,-0.104477,0.13008521225,-3.9580521998499996,-8.97146665275,0.014499,0.415458,-0.14343,-0.0015239999999999976,0.008690000000000003,0.0012999999999999678,0.003082898399317857,0.0001656184679799111,-0.0019835019445096913
1504195900.07,-1.0,0.11287454149999998,-0.8469807471999999,-0.8329474310499999,0.015985,-0.021847,-0.122818,0.13134046345,-3.96042540915,-8.970407534549999,0.01464,0.415722,-0.144719,-0.0014769999999999991,0.008939999999999976,0.0014500000000000068,0.002545583612405089,0.0006082707734800241,-0.0020955506001247848
1504195900.08,-1.0,0.14531493969999998,-0.84865768435,-0.8972888616999999,-0.014464,0.026378,-0.144304,0.1382541517,-3.9595035840499997,-8.970711540699998,0.01541,0.41562,-0.146237,-0.0014250000000000027,0.00914000000000001,0.0016200000000000103,0.0020221950245955522,0.0009747633772152486,-0.002113126229036477
1504195900.09,-1.0,0.2232189673,-0.84934414985,-0.8958570908,-0.018605,0.03495,-0.156068,0.1474331761,-3.9576109005999998,-8.9713980062,0.016433,0.415409,-0.147918,-0.0013019999999999976,0.009399999999999992,0.0017400000000000193,0.0015595078667869355,0.0015605068907904585,-0.002047649515047545
1504195900.1,-1.0,0.3336810729,-0.8507268874999999,-0.93589764275,0.00037,0.004959,-0.158117,0.15503332984999998,-3.9568361752499994,-8.9716137525,0.017279,0.415322,-0.149652,-0.0012810000000000009,0.009450000000000014,0.0018699999999999828,0.0014716153353844241,0.0019787125677190875,-0.0018481225888962172
1504195900.11,-1.0,0.36248320395,-0.7650363797999999,-0.9874119751999999,0.040543,-0.045449,-0.164363,0.15855391719999998,-3.9591701579499996,-8.9705154077,0.017674,0.415583,-0.151438,-0.0012799999999999999,0.009429999999999994,0.0019600000000000173,0.001634728515987005,0.002413064803787668,-0.001379713116176462
1504195900.12,-1.0,0.3369957206,-0.5897523176999999,-1.0650218033,0.089389,-0.088452,-0.186618,0.1586127571,-3.9658092599999994,-8.967583219349999,0.017685,0.416323,-0.153431,-0.001301,0.009360000000000007,0.0020399999999999863,0.0013762742251797189,0.0031806683138317915,-0.0007084352226481849
1504195900.13,-1.0,0.27093812619999996,-0.36316966945,-1.1244893289,0.131007,-0.10475,-0.214269,0.15762228544999998,-3.9764690885499996,-8.96287602735,0.017585,0.417512,-0.155718,-0.001351999999999999,0.009239999999999998,0.0021100000000000008,0.0008699550517816679,0.0037832257324270646,-8.305300194388909e-05
1504195900.14,-1.0,0.1367831542,-0.08252295975,-1.1886346265499999,0.14728,-0.082487,-0.232426,0.15860295045,-3.9891196670499998,-8.9572372036,0.017705,0.418923,-0.158255,-0.0014300000000000007,0.009069999999999995,0.0021399999999999753,0.00040765020695365806,0.004081620581151579,0.00043376747377465996
1504195900.15,-1.0,-0.026693701299999997,0.22074769149999998,-1.2352260206999999,0.142263,-0.033444,-0.217578,0.16331994909999997,-4.00178985885,-8.95150031335,0.018243,0.420338,-0.160738,-0.0015189999999999995,0.008830000000000005,0.0021300000000000208,0.00029702954857646624,0.004112010468246385,0.0009435080650425087
1504195900.16,-1.0,-0.23869386099999998,0.45399886175,-1.2400901191,0.124379,0.018884,-0.184612,0.17150850185,-4.0129792465,-8.94634201545,0.019169,0.421588,-0.162881,-0.0016019999999999993,0.00853000000000001,0.0020999999999999908,0.0005390118732591098,0.003910137992118479,0.0012990339620871927
1504195900.17,-1.0,-0.43528777355,0.67676672315,-1.2193196344,0.127844,0.078484,-0.142015,0.18314899540000001,-4.02385482135,-8.941222944149999,0.020481,0.422804,-0.164583,-0.0016590000000000008,0.008199999999999985,0.0020200000000000218,0.0011530649587760955,0.003465891135864485,0.0011926604458080137
1504195900.18,-1.0,-0.5935180713,0.89463125955,-1.07048410735,0.1482,0.126162,-0.119599,0.18276653604999998,-4.0066441506,-8.94895058435,0.02042,0.420881,-0.165235,-0.001582,0.008090000000000014,0.0013900000000000023,0.0020054804223823552,0.00257597287249145,0.0006574269899082275
1504195900.19,-1.0,-0.6762763906499999,1.0745538671,-0.8414007633499999,0.170671,0.132373,-0.122774,0.1996830073,-4.0212168325,-8.942056509399999,0.022327,0.422509,-0.166603,-0.0015380000000000012,0.007789999999999991,0.0012900000000000134,0.002107283155574624,0.001927375273500287,4.690651397076806e-06
1504195900.2,-1.0,-0.6709611863499999,1.18316251585,-0.7681156679,0.176947,0.099317,-0.150457,0.21530500074999998,-4.03676037275,-8.9346819086,0.024094,0.424247,-0.168212,-0.0014259999999999984,0.007570000000000021,0.0012099999999999889,0.0019110917704419084,0.0012157047158745105,-0.0005635727679950131
1504195900.21,-1.0,-0.67309903605,1.3284774555499999,-0.74364807615,0.169339,0.05467,-0.194155,0.22853417159999997,-4.05172532065,-8.927581894,0.025593,0.425923,-0.170262,-0.0012630000000000002,0.007399999999999962,0.0011399999999999744,0.0014544570257630784,0.0007985451069547622,-0.00082310112599282
1504195900.22,-1.0,-0.6572122630499999,1.3986832629,-0.6909177191,0.152223,0.021823,-0.23789,0.24032176489999998,-4.0650721713,-8.92119776485,0.026932,0.427418,-0.172816,-0.0010860000000000002,0.007300000000000029,0.0011099999999999999,0.0009199200653025041,0.0006548384497100379,-0.0007177950207065686
1504195900.23,-1.0,-0.6843080369999999,1.4473340535499999,-0.6275471467999999,0.146885,0.013355,-0.250693,0.25170728555,-4.0776639099,-8.915137255149999,0.028226,0.428829,-0.1756,-0.0010030000000000004,0.00716,0.0011300000000000199,0.0004273081097088127,0.0006346212896857217,-0.0004282151064493034
