Time,placement_label,user_acc_x(m/s^2),user_acc_y(m/s^2),user_acc_z(m/s^2),rotation_rate_x(rad/s),rotation_rate_y(rad/s),rotation_rate_z(rad/s),gravity_x(m/s^2),gravity_y(m/s^2),gravity_z(m/s^2),attitude_roll(rad),attitude_pitch(rad),attitude_yaw(rad),target_delta_x,target_delta_y,target_delta_z,target_delta_roll,target_delta_pitch,target_delta_yaw
1504196927.86,-1.0,-0.0173969971,0.019544653449999998,0.07332432205,0.049721,-0.051554,-0.044389,0.023830159499999996,-3.6223705703499998,-9.1130844854,0.002615,0.37834,1.849763,0.0,0.0,0.0,0.0,0.0,0.0
1504196927.87,-1.0,-0.04509097669999999,0.015298373999999998,0.07395194764999999,0.021165,-0.023608,-0.049825,0.021741343049999997,-3.62531256535,-9.11191749405,0.002386,0.378663,1.849286,0.00012234228187919463,-4.238523489932886e-05,-2.2546308724832212e-05,0.008229000779119144,-0.004450720434973743,-0.004873202550427003
1504196927.88,-1.0,-0.0545642006,-0.021143137399999998,0.0592910059,-0.014794,0.011858,-0.056354,0.02283968785,-3.6256754113999996,-9.1117703943,0.002506,0.378704,1.848739,0.00012234228187919463,-4.238523489932886e-05,-2.2546308724832212e-05,0.008292539296747115,-0.004432574981310111,-0.004934683149981467
1504196927.89,-1.0,-0.08173842775,-0.052200797949999996,0.0547603336,-0.044371,0.046204,-0.060734,0.02697809415,-3.6234983351,-9.11262357285,0.00296,0.378464,1.848159,0.00012234228187919463,-4.238523489932885e-05,-2.2546308724832215e-05,0.008356381381986577,-0.0044133185459953594,-0.004996484371128096
1504196927.9,-1.0,-0.0969485419,-0.06246836049999999,0.07077459305,-0.062408,0.061265,-0.056522,0.032607111249999994,-3.6196639349499997,-9.1141239903,0.003578,0.378044,1.847607,0.00012234228187919463,-4.2385234899328865e-05,-2.254630872483221e-05,0.008420510556167993,-0.004392932679891937,-0.005058589802011015
1504196927.91,-1.0,-0.1021460664,-0.05251461075,0.0690976559,-0.067828,0.057034,-0.045849,0.037794829099999996,-3.6148096431999996,-9.11603628705,0.004146,0.377511,1.847162,0.00012234228187919458,-4.2385234899328865e-05,-2.254630872483221e-05,0.008484909467115664,-0.0043713991807272645,-0.005120982156832543
1504196927.92,-1.0,-0.08648484635,-0.0339506223,0.049817782,-0.056272,0.040942,-0.035126,0.0415998093,-3.61017109775,-9.11786032395,0.004562,0.377003,1.846828,0.00012234228187919468,-4.238523489932884e-05,-2.2546308724832222e-05,0.008549559870875134,-0.004348700124069849,-0.005183643257571147
1504196927.93,-1.0,-0.07221617059999999,-0.006943108199999999,0.034499794699999996,-0.037214,0.025859,-0.029728,0.044090698399999996,-3.60650341065,-9.11929209485,0.004834,0.3766,1.846552,0.00012234228187919468,-4.2385234899328865e-05,-2.254630872483221e-05,0.008614442614239048,-0.004324817895322575,-0.005246554016507199
1504196927.94,-1.0,-0.05310300974999999,0.0201624724,0.0311459204,-0.022362,0.014016,-0.031816,0.04576763555,-3.6039831016,-9.1202825665,0.005018,0.376324,1.846256,0.00012234228187919458,-4.2385234899328865e-05,-2.254630872483221e-05,0.008679537618177413,-0.004299735222710099,-0.005309694419644018
1504196927.95,-1.0,-0.0334210632,0.021486370149999996,-0.00057859235,-0.009595,0.00752,-0.034984,0.0471895998,-3.6024630708499994,-9.120880772149999,0.005174,0.376157,1.84591,0.00012234228187919458,-4.2385234899328865e-05,-2.254630872483221e-05,0.008744823862279372,-0.004273435211243903,-0.0053730435111449815
1504196927.96,-1.0,-0.045493049349999995,0.0547603336,-0.018387468749999997,0.000991,-3.1e-05,-0.030683,0.0475818658,-3.6013156927999996,-9.121331878049999,0.005217,0.376032,1.845602,0.00012234228187919458,-4.2385234899328865e-05,-2.254630872483221e-05,0.008810279370320306,-0.004245901377631256,-0.005436579378898854
1504196927.97,-1.0,-0.051141679749999995,0.05020024135,-0.008786758399999999,0.011627,-0.000127,-0.024259,0.04755244585,-3.6012568528999997,-9.12135149135,0.005213,0.376024,1.845362,0.0001223422818791948,-4.2385234899328865e-05,-2.254630872483221e-05,0.008875881197081714,-0.004217117686098781,-0.005500279141330333
1504196927.98,-1.0,-0.04653255425,0.018426695349999998,-0.026683894649999998,0.018003,0.00407,-0.012514,0.047424959399999994,-3.60224732455,-9.12095922535,0.0052,0.376133,1.845227,0.00012234228187919458,-4.238523489932881e-05,-2.2546308724832236e-05,0.008941605416532883,-0.004187068585088882,-0.005564118935578843
1504196927.99,-1.0,-0.06472388999999999,0.028174505449999998,-0.04566956905,0.020251,0.021095,-0.00827,0.0481114249,-3.6033162493999997,-9.120537539399999,0.005275,0.376251,1.845174,0.00012234228187919458,-4.2385234899328865e-05,-2.254630872483218e-05,0.009007427111509814,-0.004155739044789497,-0.0056280739071725705
1504196928.0,-1.0,-0.07739408179999999,0.048994023399999996,-0.05130839279999999,0.017194,0.039234,-0.008306,0.050308114499999994,-3.60393406835,-9.1202825665,0.005516,0.376319,1.845139,0.0001223422818791948,-4.2385234899328865e-05,-2.2546308724832236e-05,0.009073320365020843,-0.004123114595448563,-0.005692118201328755
1504196928.01,-1.0,-0.06814641085,0.01230734575,-0.04446335109999999,0.007715,0.052103,-0.012614,0.05408367475,-3.60436556095,-9.1200864335,0.00593,0.376365,1.845068,0.00012234228187919458,-4.2385234899328865e-05,-2.254630872483218e-05,0.00913925825330797,-0.004089181366408123,-0.005756224956008138
1504196928.02,-1.0,-0.055309505999999994,-0.0032950343999999998,-0.0253796102,-0.009393,0.041596,-0.022232,0.05800633475,-3.6037183220499998,-9.120321793099999,0.00636,0.376295,1.844902,0.00012234228187919458,-4.2385234899328865e-05,-2.2546308724832236e-05,0.009205212840796673,-0.004053926125816343,-0.005820366296864332
1504196928.03,-1.0,-0.028674644599999997,-0.04554208259999999,-0.0136900834,-0.021223,0.020397,-0.037158,0.061144462749999996,-3.6024728775,-9.1207925123,0.006704,0.376159,1.844574,0.00012234228187919458,-4.2385234899328865e-05,-2.2546308724832236e-05,0.009271155177081214,-0.004017336320924825,-0.005884513334218688
1504196928.04,-1.0,0.00024516625,-0.07955154479999998,0.014719781649999998,-0.016131,-0.014802,-0.044559,0.06230164745,-3.6021296447499997,-9.120919998749999,0.006831,0.376121,1.844094,0.00012234228187919458,-4.2385234899328865e-05,-2.254630872483218e-05,0.009337055296070762,-0.00397940011892306,-0.005948636162206533
1504196928.05,-1.0,0.03977577239999999,-0.05692760325,0.05045521425,0.007017,-0.046974,-0.030587,0.0607816167,-3.60336528265,-9.1204394729,0.006664,0.376256,1.843685,0.00012234228187919458,-4.2385234899328865e-05,-2.2546308724832236e-05,0.009402882217442454,-0.003940106448208525,-0.006012703860220903
1504196928.06,-1.0,0.036951457199999996,-0.030841914249999994,0.10001802334999998,0.046188,-0.070764,-0.006994,0.055829258449999995,-3.6078959549499996,-9.118684082549999,0.006122,0.376753,1.84352,0.00012234228187919458,-4.2385234899328865e-05,-2.254630872483218e-05,0.009468603950542165,-0.0038994450400215985,-0.006076684496812312
1504196928.07,-1.0,-0.009296704199999999,-0.02980240935,0.15187558855,0.081212,-0.082793,0.011234,0.04790548524999999,-3.61611392765,-9.115467501349999,0.005255,0.377654,1.843608,0.000122342281879195,-4.2385234899328865e-05,-2.2546308724832236e-05,0.009534187500859659,-0.00385740647033872,-0.00614054513615736
1504196928.08,-1.0,-0.045787248850000004,-0.0036088471999999997,0.18213891044999997,0.099755,-0.070205,0.00494,0.0397953857,-3.6263030369999996,-9.11146638815,0.004368,0.378772,1.843729,0.00012234228187919458,-4.2385234899328865e-05,-2.254630872483218e-05,0.009599598879228122,-0.00381398220193363,-0.006204251847251374
1504196928.09,-1.0,-0.050415987649999994,-0.00234378935,0.1834039683,0.09679,-0.054175,-0.016441,0.0339506223,-3.636698086,-9.107337788499999,0.003728,0.379913,1.843647,0.00012234228187919458,-4.2385234899328865e-05,-2.254630872483218e-05,0.009664803113870302,-0.003769164626494348,-0.00626776971595433
1504196928.1,-1.0,-0.00787473995,-0.028390251749999998,0.18031487355,0.064921,-0.046438,-0.031454,0.030469261549999998,-3.6452102581999997,-9.103944687599999,0.003347,0.380848,1.843342,0.00012234228187919458,-4.2385234899328756e-05,-2.254630872483229e-05,0.009729764265427154,-0.003722947106680863,-0.006331062860011283
1504196928.11,-1.0,0.011434553899999998,-0.0948891454,0.12096502775,0.012714,-0.041739,-0.037957,0.02807643895,-3.6499370635,-9.102061810799999,0.003084,0.381368,1.842936,0.00012234228187919458,-4.238523489932897e-05,-2.254630872483218e-05,0.00979444544508945,-0.0036753240180118496,-0.006394094447181198
1504196928.12,-1.0,-0.0016573238499999997,-0.1296831396,0.0360688587,-0.027727,-0.02862,-0.036983,0.0264975683,-3.6504568159499997,-9.10185587115,0.002912,0.381425,1.842529,0.00012234228187919458,-4.2385234899328756e-05,-2.254630872483218e-05,0.009858808835956578,-0.0036262907904400787,-0.0064568267165889814
1504196928.13,-1.0,-0.03233252505,-0.1444911811,0.0108069283,-0.048948,-0.013528,-0.035979,0.025595356499999996,-3.6485249058999996,-9.10264040315,0.002812,0.381212,1.842167,0.00012234228187919458,-4.238523489932897e-05,-2.254630872483229e-05,0.009922815717730127,-0.0035758439494970595,-0.006519221003416176
1504196928.14,-1.0,-0.05531931265,-0.17594110764999998,0.03517645355,-0.051978,0.004616,-0.040285,0.025987622499999998,-3.646700869,-9.10336609525,0.002855,0.381012,1.841785,0.000122342281879195,-4.2385234899328756e-05,-2.254630872483218e-05,0.009986426494847267,-0.0035239811568603674,-0.006581237767029791
1504196928.15,-1.0,-0.052975523299999994,-0.10780450344999999,0.10282272524999998,-0.043351,0.013073,-0.044554,0.02768417295,-3.64480818555,-9.1041212073,0.003041,0.380804,1.841349,0.00012234228187919458,-4.238523489932897e-05,-2.254630872483218e-05,0.010049600728152308,-0.003470701250199104,-0.006642836622649195
1504196928.16,-1.0,-0.0536423755,-0.0674305254,0.11204097625,-0.030524,0.015099,-0.045603,0.029851442599999996,-3.64343525455,-9.10466057305,0.003278,0.380653,1.840884,0.00012234228187919458,-4.2385234899328756e-05,-2.254630872483218e-05,0.01011229717018547,-0.003416004282152496,-0.00670397637662834
1504196928.17,-1.0,-0.05730025595,-0.0597224985,0.13424323184999998,-0.023161,0.004376,-0.041301,0.031106693799999998,-3.6429056954499996,-9.1048665127,0.003417,0.380595,1.840463,0.00012234228187919458,-4.238523489932897e-05,-2.254630872483229e-05,0.010174473804164252,-0.0033598915582802036,-0.00676461506543502
1504196928.18,-1.0,-0.0301652554,-0.03805960865,0.1032247979,-0.019072,-0.014844,-0.035923,0.031057660549999998,-3.6422780698499997,-9.1051214856,0.003411,0.380526,1.840087,0.00012234228187919458,-4.2385234899328756e-05,-2.254630872483218e-05,0.010236087886714595,-0.0033023656738320195,-0.00682470999838003
1504196928.19,-1.0,-0.005727083599999999,-0.05098477334999999,0.06326269915,-0.014907,-0.026602,-0.03376,0.0299691224,-3.64192503045,-9.10526858535,0.003292,0.380487,1.839734,0.00012234228187919458,-4.2385234899328756e-05,-2.254630872483218e-05,0.010297095994402095,-0.003243430549166648,-0.00688421780413373
1504196928.2,-1.0,0.00960071035,-0.036225765099999994,0.0136704701,-0.007435,-0.030918,-0.041211,0.02870406455,-3.6417190908,-9.1053568452,0.003153,0.380464,1.839313,0.00012234228187919458,-4.238523489932897e-05,-2.254630872483229e-05,0.01035745407408073,-0.0031830914636581387,-0.006943094481084877
1504196928.21,-1.0,0.0024908890999999996,-0.009718390149999999,0.028596191400000002,-0.006333,-0.035175,-0.055078,0.027586106449999998,-3.64143469795,-9.10546471835,0.003029,0.380434,1.838747,0.00012234228187919458,-4.2385234899328756e-05,-2.254630872483218e-05,0.01041711749708607,-0.0031213550879218843,-0.007001295451517731
1504196928.22,-1.0,0.01803442935,0.020927391099999998,0.03923640665,-0.007299,-0.026636,-0.061499,0.0273017136,-3.6406599726,-9.10577853115,0.002999,0.380348,1.838077,0.00012234228187919458,-4.238523489932897e-05,-2.254630872483218e-05,0.010476041117252977,-0.0030582295141838856,-0.007058775619631863
1504196928.23,-1.0,0.0044326057999999995,0.0318519992,-0.0206528049,-0.013503,-0.003139,-0.063686,0.028792324399999996,-3.6388653556499997,-9.106494416599999,0.003161,0.380151,1.837393,0.00012234228187919458,-4.2385234899328756e-05,-2.254630872483218e-05,0.010534179332742477,-0.0029937242846240775,-0.007115489433362043
1504196928.24,-1.0,-0.01899548105,0.022006122599999997,0.0029616083000000002,-0.03461,0.027934,-0.060575,0.032607111249999994,-3.63590374735,-9.10766140795,0.00358,0.379826,1.836747,0.00012234228187919458,-4.238523489932897e-05,-2.254630872483229e-05,0.010591486151627527,-0.002927850417526523,-0.007171390949959777
1504196928.25,-1.0,-0.027193840449999996,0.004128599649999999,0.0006864654999999999,-0.046146,0.058921,-0.051043,0.03886375395,-3.6317849543499996,-9.1092795052,0.004267,0.379374,1.836191,0.00012234228187919458,-4.2385234899328756e-05,-2.254630872483218e-05,0.010647915261169927,-0.002860620431054839,-0.007226433905268559
1504196928.26,-1.0,-0.016504591949999998,0.010444082249999998,-0.0748835794,-0.051368,0.0792,-0.041481,0.0471895998,-3.6264403301,-9.11136832165,0.005179,0.378787,1.835729,0.00012234228187919458,-4.238523489932897e-05,-2.254630872483218e-05,0.01070342010070191,-0.002792048364494759,-0.0072805717865986885
1504196928.27,-1.0,-0.0193975537,0.01925045395,-0.020525318449999996,-0.050349,0.079182,-0.031873,0.055613512149999995,-3.62133106545,-9.1133590716,0.006102,0.378227,1.835368,0.00012234228187919544,-4.2385234899328756e-05,-2.254630872483229e-05,0.010757953937998388,-0.002722149796787088,-0.007333757909096628
1504196928.28,-1.0,0.0034617474499999998,0.035892338999999995,-0.017298930599999998,-0.035596,0.060937,-0.024343,0.0628213999,-3.6168690396999996,-9.115085041999999,0.006892,0.377737,1.835073,0.00012234228187919458,-4.238523489932897e-05,-2.254630872483218e-05,0.010811469949003505,-0.0026509418621958325,-0.007385945495466784
1504196928.29,-1.0,0.03992287215,0.0374025631,-0.04198226865,-0.011315,0.034089,-0.015715,0.0681169909,-3.6144860237499996,-9.115987253799998,0.007472,0.377476,1.834844,0.00012234228187919458,-4.2385234899328756e-05,-2.254630872483218e-05,0.010863921300753088,-0.0025784432629474274,-0.007437087758891625
1504196928.3,-1.0,0.050386567699999996,0.04723863305,-0.00422666615,0.01087,0.007267,-0.014562,0.07097072605,-3.6142996974,-9.11603628705,0.007785,0.377455,1.834632,0.00012234228187919458,-4.238523489932897e-05,-2.254630872483218e-05,0.010915261237307461,-0.002504674278692054,-0.007487137988957837
1504196928.31,-1.0,0.07695278254999999,0.06441988385,-0.028576578099999996,0.026724,-0.009914,-0.01237,0.0720788775,-3.615319589,-9.11562440775,0.007907,0.377567,1.834437,0.00012234228187919458,-4.2385234899328756e-05,-2.254630872483218e-05,0.01096544316848469,-0.002429656772644284,-0.007536049640388898
1504196928.32,-1.0,0.0774921483,0.0545642006,-0.050906320149999996,0.03201,-0.018477,-0.016616,0.0722946238,-3.6172907256499998,-9.1148496824,0.007931,0.377783,1.834213,0.00012234228187919458,-4.238523489932897e-05,-2.254630872483218e-05,0.011014420761163657,-0.0023534141942604947,-0.007583776424340938
1504196928.33,-1.0,0.0610954295,0.040893730499999996,0.00756092715,0.019315,-0.010902,-0.026259,0.07312818905,-3.6188794029499998,-9.1142024435,0.008023,0.377957,1.833913,0.00012234228187919458,-4.238523489932897e-05,-2.2546308724832398e-05,0.01106214803289618,-0.0022759715783318146,-0.0076302724020154145
1504196928.34,-1.0,0.05066115389999999,0.022064962499999997,0.0031283213499999998,0.002469,0.012689,-0.033802,0.07593289095,-3.61905592265,-9.114114183649999,0.008331,0.377977,1.833529,0.00012234228187919458,-4.238523489932854e-05,-2.254630872483218e-05,0.011108579447552058,-0.002197355540377588,-0.007675492080294388
1504196928.35,-1.0,0.0441691516,-0.03074384775,-0.0023928226,-0.009149,0.028768,-0.031716,0.08017917039999999,-3.6189186295499995,-9.114133796949998,0.008798,0.377962,1.833143,0.00012234228187919458,-4.238523489932897e-05,-2.254630872483218e-05,0.011153670012684636,-0.002117594268224332,-0.007719390509108415
1504196928.36,-1.0,0.03639247815,-0.029498403199999995,0.044022051849999994,-0.013412,0.035187,-0.022128,0.0849648156,-3.6183694571499996,-9.11431031665,0.009322,0.377902,1.83286,0.00012234228187919458,-4.238523489932897e-05,-2.254630872483218e-05,0.011197375378302399,-0.0020367175096942525,-0.007761923380200653
1504196928.37,-1.0,0.0307732677,-0.02346731345,0.08226798685,-0.016677,0.036265,-0.007192,0.08924051499999999,-3.6176633783499996,-9.11454567625,0.009791,0.377825,1.832719,0.00012234228187919458,-4.238523489932854e-05,-2.254630872483218e-05,0.01123965193668719,-0.001954756556318049,-0.007803047126943685
1504196928.38,-1.0,0.041119283449999995,-0.020888164499999997,0.07889449925,-0.00933,0.027669,0.003509,0.0928101356,-3.6173985987999995,-9.1146143228,0.010182,0.377795,1.832697,0.00012234228187919458,-4.238523489932897e-05,-2.254630872483218e-05,0.011280456922906745,-0.0018717442230051784,-0.00784271902484579
1504196928.39,-1.0,0.030018155649999996,-0.02297698095,0.07171603145,-0.00515,0.015915,0.002469,0.09492837199999998,-3.6177026049499994,-9.11446722305,0.010415,0.377829,1.832701,0.00012234228187919458,-4.238523489932897e-05,-2.254630872483218e-05,0.011319748515626005,-0.0017877148236378204,-0.007880897292362743
1504196928.4,-1.0,0.048258524649999995,-0.0119248864,0.09850779925,-0.004231,-0.005399,-0.001761,0.09569329069999999,-3.6184381036999995,-9.114173023549998,0.010499,0.377909,1.832664,0.00012234228187919458,-4.238523489932897e-05,-2.2546308724832398e-05,0.011357485937827816,-0.0017027041425490275,-0.007917541191610589
1504196928.41,-1.0,0.06999006105,0.01267999845,0.10249910579999999,-0.005425,-0.026691,-0.010266,0.09506566509999999,-3.6182027441,-9.11427109005,0.01043,0.377883,1.832528,0.00012234228187919458,-4.238523489932854e-05,-2.254630872483218e-05,0.01139362955702361,-0.0016167494018801687,-0.007952611128576592
1504196928.42,-1.0,0.052367511,0.01293497135,0.0699998677,-0.009688,-0.028781,-0.01454,0.09382022055,-3.6175555052,-9.11454567625,0.010294,0.377812,1.832331,0.00012234228187919544,-4.238523489932897e-05,-2.254630872483218e-05,0.01142814098453715,-0.001529889224817893,-0.007986068752397824
1504196928.43,-1.0,0.0350881937,0.005246557749999999,0.0559567449,-0.010686,-0.020248,-0.014557,0.09284936220000001,-3.6167513599,-9.1148692957,0.010186,0.377724,1.83214,0.00012234228187919458,-4.238523489932897e-05,-2.254630872483218e-05,0.01146098317342259,-0.0014421635947503564,-0.008017877053275502
1504196928.44,-1.0,-0.00036284604999999996,0.01318994425,0.11701294779999999,-0.0138,-0.002119,-0.002853,0.09238844965,-3.6160158611499997,-9.1151634952,0.010136,0.377644,1.832076,0.00012234228187919458,-4.238523489932897e-05,-2.254630872483218e-05,0.011492120514586646,-0.0013536138103691364,-0.008048000458596105
1504196928.45,-1.0,-0.027811659399999997,-0.011562040349999999,0.11092301815,-0.014729,0.022385,0.008844,0.09305530184999998,-3.6154961087,-9.115369434849999,0.010209,0.377587,1.832168,0.00012234228187919458,-4.238523489932854e-05,-2.254630872483218e-05,0.011521518930667884,-0.001264282436797881,-0.008076404926804726
1504196928.46,-1.0,-0.0548387868,-0.009639936949999999,0.046140288249999994,-0.009201,0.051102,0.016276,0.09569329069999999,-3.6150253895,-9.11552634125,0.010497,0.377535,1.832357,0.00012234228187919458,-4.238523489932897e-05,-2.254630872483218e-05,0.011549145967235053,-0.0011742132528322902,-0.00810305803860345
1504196928.47,-1.0,-0.06450814369999999,0.0170047311,0.09197657035,-0.010246,0.056433,0.020534,0.09907658494999999,-3.6144467971499994,-9.11572247425,0.010868,0.377471,1.832616,0.00012234228187919458,-4.238523489932897e-05,-2.2546308724832398e-05,0.01157497088087156,-0.0010834511943804692,-0.008127929085027796
1504196928.48,-1.0,-0.06387071144999999,0.022849494499999998,0.09669356900000001,-0.026372,0.038454,0.016269,0.10143018094999999,-3.6126521801999996,-9.1163991331,0.011126,0.377275,1.832853,0.00012234228187919458,-4.238523489932897e-05,-2.254630872483218e-05,0.011598964723706862,-0.0009920422942530926,-0.008150989151981092
1504196928.49,-1.0,-0.043345393,0.007639380349999999,0.03521568015,-0.036155,0.0119,0.009895,0.1020087733,-3.6095630854499996,-9.11762496435,0.011187,0.376936,1.83301,0.00012234228187919458,-4.238523489932854e-05,-2.254630872483218e-05,0.011621100423980235,-0.0009000336184306068,-0.008172211200792034
1504196928.5,-1.0,-0.00365788045,-0.0054721106999999995,-0.017573516799999998,-0.031006,-0.012649,0.007812,0.10107714155,-3.6064739906999996,-9.1188507956,0.011084,0.376597,1.833101,0.00012234228187919458,-4.238523489932897e-05,-2.254630872483218e-05,0.011641352862231502,-0.0008074731989777817,-0.008191570144401528
1504196928.51,-1.0,0.0007747253499999999,-0.01677917815,0.010042009599999999,-0.023699,-0.030828,0.011059,0.09829205295,-3.6044538208,-9.11968436085,0.010777,0.376375,1.833218,0.00012234228187919458,-4.238523489932897e-05,-2.254630872483218e-05,0.011659698942715346,-0.0007144099637876877,-0.008209042918776444
1504196928.52,-1.0,-0.0082964259,-0.0314401199,0.0393835064,-0.018449,-0.041527,0.011087,0.09403596685,-3.60340450925,-9.1201452734,0.01031,0.376261,1.833348,0.00012234228187919458,-4.238523489932854e-05,-2.254630872483218e-05,0.011676117659682517,-0.0006208936633596007,-0.008224608549187051
1504196928.53,-1.0,-0.0038442067999999996,-0.012013146249999999,0.0326169179,-0.012081,-0.040523,0.019636,0.089436648,-3.6024826841499995,-9.1205571527,0.009806,0.376159,1.833538,0.00012234228187919458,-4.238523489932897e-05,-2.254630872483218e-05,0.01169059015816315,-0.0005269747948188908,-0.008238248210987065
1504196928.54,-1.0,-0.0125917386,-0.00930651085,0.028870777599999998,-0.015201,-0.027715,0.023878,0.08546495475,-3.6014431792499995,-9.12099845195,0.00937,0.376046,1.833796,0.00012234228187919458,-4.238523489932897e-05,-2.2546308724832398e-05,0.011703099788940685,-0.00043270452342558663,-0.008249945284586335
1504196928.55,-1.0,-0.03384274915,-0.03297976395,0.0781982271,-0.0237,-0.023383,0.023856,0.08187572085,-3.6005213541499996,-9.121400524599999,0.008976,0.375945,1.834086,0.00012234228187919458,-4.238523489932897e-05,-2.254630872483218e-05,0.011713632157408504,-0.000338134601806539,-0.008259685404303774
1504196928.56,-1.0,-0.0327738243,-0.0514064593,0.07281437624999999,-0.03437,-0.02436,0.022772,0.07826687365,-3.5987071239,-9.12214583,0.008579,0.375745,1.834358,0.00012234228187919458,-4.238523489932854e-05,-2.254630872483218e-05,0.011722175166052173,-0.00024331728718229861,-0.008267456500846926
1504196928.57,-1.0,-0.020201699,-0.06547900205,0.00779628675,-0.024706,-0.018044,0.020643,0.07526603875,-3.5970498000499997,-9.12282248885,0.00825,0.375564,1.834604,0.00012234228187919458,-4.238523489932897e-05,-2.254630872483218e-05,0.011728719050319525,-0.00014830525686049256,-0.008273248837179281
1504196928.58,-1.0,-0.04796432515,-0.055731191949999995,0.013082071099999999,-0.001195,-0.010784,0.024941,0.0725103701,-3.5973734195,-9.122724422349998,0.007948,0.375599,1.834885,0.00012234228187919458,-4.238523489932897e-05,-2.254630872483218e-05,0.011733256407681969,-5.315152227391984e-05,-0.008277055037581693
1504196928.59,-1.0,-0.0663125673,-0.021201977299999997,0.08956413445,0.014783,-0.008795,0.033505,0.06945069529999999,-3.5992759095999998,-9.1219889236,0.007614,0.375808,1.835268,0.00012234228187919458,-4.238523489932897e-05,-2.254630872483218e-05,0.011735782219726376,4.209065813687296e-05,-0.008278870109738046
1504196928.6,-1.0,-0.084729456,-0.0255169033,0.0742755671,0.015785,-0.013074,0.039919,0.0654299688,-3.60169815215,-9.1210670985,0.007173,0.376073,1.835739,0.00012234228187919458,-4.238523489932854e-05,-2.254630872483218e-05,0.011736293867154024,0.00013736786689744207,-0.00827869145973481
1504196928.61,-1.0,-0.0712355056,-0.059575398749999994,0.029253236949999997,0.001888,-0.01935,0.035637,0.0612131093,-3.6032574094999994,-9.1204786995,0.006711,0.376244,1.836168,0.00012234228187919458,-4.238523489932897e-05,-2.2546308724832398e-05,0.01173479113760234,0.00023262661603218326,-0.008276518899879015
1504196928.62,-1.0,-0.038030188699999995,-0.0828269659,-0.016994924449999997,-0.015165,-0.019207,0.032406,0.0574865823,-3.60334566935,-9.120468892849999,0.006303,0.376254,1.836546,0.00012234228187919458,-4.238523489932897e-05,-2.254630872483218e-05,0.011731276226246257,0.0003278134358353224,-0.008272354649297986
1504196928.63,-1.0,-0.0400307453,-0.0940653868,-0.029370916749999997,-0.019369,-0.012777,0.030253,0.05439748755,-3.6028847567999995,-9.1206748325,0.005964,0.376203,1.836902,0.00012234228187919458,-4.238523489932897e-05,-2.254630872483218e-05,0.011725753729176613,0.0004228749635890594,-0.008266203327316646
1504196928.64,-1.0,-0.0629783063,-0.0951048917,0.02882174435,-0.024649,-0.009532,0.024901,0.051455492549999995,-3.6025905573,-9.12080231895,0.005641,0.376171,1.837233,0.00012234228187919458,-4.238523489932854e-05,-2.254630872483218e-05,0.011718230629590543,0.0005177580318931341,-0.00825807193964212
1504196928.65,-1.0,-0.0628213999,-0.09414383999999999,0.018103075899999998,-0.002305,-0.016113,0.027087,0.048160458149999995,-3.6032574094999994,-9.1205571527,0.00528,0.376244,1.837564,0.00012234228187919458,-4.238523489932897e-05,-2.254630872483218e-05,0.011708716276873532,0.0006124097563267039,-0.008247969857449133
1504196928.66,-1.0,-0.038245934999999995,-0.07416769395,-0.0036480737999999998,0.012525,-0.023706,0.036733,0.04423779815,-3.60497357325,-9.119900107149999,0.00485,0.376432,1.837965,0.00012234228187919458,-4.238523489932897e-05,-2.254630872483218e-05,0.011697222358686199,0.000706777622120569,-0.008235908789460344
1504196928.67,-1.0,-0.04423779815,-0.05110245315,0.0243597186,0.027368,-0.032359,0.042111,0.0391481468,-3.6079940214499997,-9.1187331158,0.004293,0.376763,1.838444,0.0001223422818791963,-4.238523489932854e-05,-2.254630872483218e-05,0.011683762866217196,0.0008008095695553052,-0.008221902747199916
1504196928.68,-1.0,-0.037608502749999995,-0.03168528615,0.013307624049999998,0.031633,-0.033459,0.041054,0.033872169099999995,-3.61138712235,-9.11740921805,0.003715,0.377136,1.83892,0.00012234228187919458,-4.238523489932897e-05,-2.2546308724832398e-05,0.011668354052783991,0.0008944540777811039,-0.008205968003591968
1504196928.69,-1.0,-0.04494387695,-0.03262672455,-0.024124358999999998,0.028638,-0.016372,0.027143,0.029978929049999995,-3.6144958304,-9.11619319345,0.003289,0.377477,1.83929,0.00012234228187919458,-4.238523489932897e-05,-2.254630872483218e-05,0.011651014386021341,0.0009876602468057438,-0.008188123045146156
1504196928.7,-1.0,-0.06583204145,-0.0345586346,-0.03498032055,0.016203,0.013593,0.001451,0.029017877349999995,-3.6165944535,-9.1153596282,0.003184,0.377707,1.839437,0.00012234228187919458,-4.238523489932897e-05,-2.254630872483218e-05,0.011631764493907237,0.0010803778773484929,-0.008168388517982628
1504196928.71,-1.0,-0.08936800144999998,-0.023339827,-0.047738772199999994,-0.0005,0.043592,-0.024248,0.03160683295,-3.6170455593999997,-9.11517330185,0.003468,0.377757,1.839287,0.00012234228187919458,-4.238523489932854e-05,-2.254630872483218e-05,0.011610627104920335,0.0011725575483378936,-0.008146787167989
1504196928.72,-1.0,-0.07794325419999999,-0.0394815729,-0.03968751255,-0.014188,0.059699,-0.034973,0.036647451049999995,-3.61631006065,-9.11544788805,0.00402,0.377676,1.838977,0.00012234228187919458,-4.238523489932897e-05,-2.254630872483218e-05,0.01158762698265714,0.0012641506917911993,-0.008123343775434888
1504196928.73,-1.0,-0.0907703524,-0.08736744485,-0.0385793611,-0.030123,0.071545,-0.029684,0.042737380699999994,-3.6149665496,-9.115948027199998,0.004688,0.377528,1.838699,0.00012234228187919458,-4.238523489932897e-05,-2.254630872483218e-05,0.011562790855242477,0.0013551096648496408,-0.00809808508437948
1504196928.74,-1.0,-0.10860864875,-0.09756636084999999,-0.033970235599999996,-0.02905,0.080045,-0.016887,0.048905763549999995,-3.6134465188499996,-9.11652661955,0.005364,0.377362,1.838554,0.00012234228187919458,-4.238523489932897e-05,-2.254630872483218e-05,0.011536147339909375,0.001445387818777899,-0.008071039727253648
1504196928.75,-1.0,-0.0960463301,-0.0891032219,-0.0215550167,-0.018412,0.085269,-0.001934,0.05533892594999999,-3.6126325669,-9.1168110124,0.00607,0.377272,1.838555,0.00012234228187919458,-4.238523489932854e-05,-2.254630872483218e-05,0.011507726863137169,0.0015349395647055175,-0.008042238144992941
1504196928.76,-1.0,-0.07326548214999999,-0.06781298475,0.03372506935,-0.004626,0.079817,0.006639,0.06143866224999999,-3.61311309275,-9.1165756528,0.006739,0.377326,1.838661,0.00012234228187919458,-4.238523489932897e-05,-2.254630872483218e-05,0.011477561576751505,0.0016237204359681456,-0.008011712503137813
1504196928.77,-1.0,-0.042698154099999996,-0.050386567699999996,0.0775706015,-0.006935,0.056394,0.004542,0.06634198725,-3.6137897515999997,-9.11627164665,0.007277,0.377399,1.838758,0.00012234228187919458,-4.238523489932897e-05,-2.254630872483218e-05,0.011445685270401462,0.0017116871468672024,-0.007979496604310743
1504196928.78,-1.0,0.01758332345,-0.037461403,0.06977431475,-0.00505,0.013774,-0.013525,0.06920552904999999,-3.6141427909999995,-9.11611474025,0.007591,0.377438,1.838662,0.00012234228187919458,-4.238523489932897e-05,-2.254630872483218e-05,0.011412133280853332,0.0017987976477282785,-0.007945625797507128
1504196928.79,-1.0,0.0665479269,-0.022927947699999996,0.0335779696,0.010772,-0.023627,-0.036915,0.070215614,-3.6152117158499997,-9.115683247649999,0.007703,0.377555,1.838287,0.00012234228187919458,-4.238523489932897e-05,-2.2546308724832615e-05,0.01137694239852638,0.001885011176130602,-0.007910136884629493
1504196928.8,-1.0,0.06090910315,0.007384407449999999,0.05065134725,0.033032,-0.052562,-0.053905,0.06883287635,-3.6178398980499997,-9.1146535494,0.007551,0.377843,1.837691,0.00012234228187919458,-4.238523489932897e-05,-2.254630872483218e-05,0.011340150771714907,0.0019702883042207464,-0.007873068024710883
1504196928.81,-1.0,0.0285569648,0.0452674964,0.0903976997,0.052168,-0.064435,-0.059188,0.06571436165,-3.6222038573,-9.1129471923,0.007211,0.378322,1.837038,0.00012234228187919458,-4.2385234899328106e-05,-2.254630872483218e-05,0.01130179780894136,0.0020545909820277597,-0.007834458636265307
1504196928.82,-1.0,0.0017455836999999998,0.037461403,0.13000675904999998,0.051,-0.069766,-0.047439,0.061252335899999996,-3.6272640886999996,-9.11095644235,0.006722,0.378878,1.836478,0.00012234228187919458,-4.238523489932897e-05,-2.254630872483218e-05,0.011261924079870811,0.0021378825767226495,-0.007794349298201109
1504196928.83,-1.0,-0.013425303849999999,0.0018044235999999999,0.15999549475,0.021074,-0.068467,-0.034684,0.055927324949999996,-3.63096119575,-9.10952467145,0.006139,0.379284,1.83608,0.00012234228187919458,-4.238523489932897e-05,-2.254630872483218e-05,0.011220571215226016,0.00222012790778936,-0.007752781649736029
1504196928.84,-1.0,-0.01372931,-0.055083953049999995,0.14803138175,-0.025819,-0.059561,-0.030512,0.05098477334999999,-3.6313926883499996,-9.1093775717,0.005597,0.379331,1.835754,0.00012234228187919458,-4.238523489932897e-05,-2.254630872483218e-05,0.01117778180612694,0.002301293278084593,-0.007709798289736058
1504196928.85,-1.0,0.00789435325,-0.0755504316,0.0898877539,-0.069449,-0.044285,-0.028479,0.047621092399999995,-3.6275288682499998,-9.110936829049999,0.005227,0.378907,1.835447,0.00012234228187919458,-4.238523489932897e-05,-2.254630872483218e-05,0.011133599303265296,0.002381346500789139,-0.007665442675887979
1504196928.86,-1.0,0.013297817399999998,-0.06881326304999999,0.055731191949999995,-0.094905,-0.027023,-0.030689,0.04596376855,-3.6204975002,-9.11374153095,0.005043,0.378135,1.835119,0.00012234228187919458,-4.238523489932897e-05,-2.254630872483218e-05,0.011088067916320443,0.0024602569222726967,-0.007619759024116823
1504196928.87,-1.0,-0.018416888699999998,-0.053573728949999996,0.07197100434999999,-0.089515,-0.01961,-0.029625,0.0447575506,-3.61315231935,-9.116663912649999,0.004909,0.377329,1.834824,0.00012234228187919458,-4.238523489932897e-05,-2.254630872483218e-05,0.011041232514001464,0.002537995440897056,-0.007572792208624168
1504196928.88,-1.0,-0.014896301349999998,-0.0093555441,0.09978266375,-0.07256,-0.031476,-0.025305,0.04288448045,-3.6067878035,-9.11919402835,0.004702,0.376631,1.834561,0.00012234228187919458,-4.2385234899328106e-05,-2.254630872483218e-05,0.010993138525076773,0.0026145345218249183,-0.0075245876629217445
1504196928.89,-1.0,0.00350097405,0.0472484397,0.09940020439999998,-0.04497,-0.050883,-0.02629,0.03958944605,-3.6017373787499998,-9.12119458495,0.004341,0.376078,1.83428,0.00012234228187919458,-4.238523489932897e-05,-2.254630872483218e-05,0.010943831840757312,0.0026898482078900887,-0.007475191282209526
1504196928.9,-1.0,0.029792602699999997,0.06383148485,0.040658370900000004,-0.020469,-0.059602,-0.032637,0.03574523925,-3.5985698308,-9.12246944945,0.003918,0.375731,1.833935,0.00012234228187919458,-4.238523489932897e-05,-2.254630872483218e-05,0.010893358718744417,0.0027639121266189726,-0.007424649327425814
1504196928.91,-1.0,0.0354804597,0.078060934,0.0345782479,-0.003347,-0.054413,-0.034752,0.0323031051,-3.5969419268999996,-9.123126495,0.003541,0.375552,1.833534,0.00012234228187919458,-4.238523489932897e-05,-2.254630872483218e-05,0.010841765689260985,0.0028367034934926316,-0.00737300833127863
1504196928.92,-1.0,0.022427808549999997,0.09442823285,0.013886216399999998,0.00525,-0.043831,-0.030486,0.029498403199999995,-3.59595145525,-9.123518761,0.003233,0.375443,1.833175,0.00012234228187919458,-4.238523489932897e-05,-2.254630872483218e-05,0.010789099463350604,0.0029082011115690865,-0.0073203150065426215
1504196928.93,-1.0,-0.0027850886,0.06508673605,-0.0042756994,0.003107,-0.037432,-0.01876,0.026732927899999998,-3.5953434429499995,-9.1237737339,0.00293,0.375376,1.832943,0.00012234228187919458,-4.238523489932897e-05,-2.2546308724832615e-05,0.010735406843701334,0.0029783853675664496,-0.00726661615688351
1504196928.94,-1.0,-0.0051779112,0.04257066765,-0.03066539455,0.008454,-0.025772,-0.00276,0.024183198899999998,-3.5951178899999996,-9.12386199375,0.00265,0.375352,1.832867,0.00012234228187919458,-4.238523489932897e-05,-2.254630872483218e-05,0.010680734638232936,0.0030472382245614327,-0.0072119585904475425
1504196928.95,-1.0,1.9613299999999997e-05,0.05130839279999999,-0.01983885295,0.019101,-0.018417,0.013257,0.02197670265,-3.59577493555,-9.1236168275,0.002409,0.375424,1.83297,0.00012234228187919458,-4.238523489932897e-05,-2.254630872483218e-05,0.01062512957666728,0.0031147432114209117,-0.007156389036425903
1504196928.96,-1.0,-0.0026183755499999996,0.0636255452,0.03677493749999999,0.024393,-0.016341,0.025004,0.01952504015,-3.59716747985,-9.1230676551,0.002141,0.375576,1.833219,0.00012234228187919458,-4.2385234899328106e-05,-2.254630872483218e-05,0.010568638230255556,0.003180885409122869,-0.007099954064789915
1504196928.97,-1.0,0.010855961549999998,0.023349633649999996,0.05226944449999999,0.022204,-0.02059,0.029277,0.0168282114,-3.599236683,-9.12225370315,0.001845,0.375804,1.833528,0.00012234228187919458,-4.238523489932897e-05,-2.254630872483218e-05,0.010511306934845255,0.003245651434120367,-0.007042700009351144
1504196928.98,-1.0,0.01058137535,0.016475172,0.0375790828,-0.000186,-0.024658,0.019639,0.013964669599999998,-3.5996975955499995,-9.12207718345,0.00153,0.375854,1.833774,0.0001223422818791963,-4.238523489932897e-05,-2.254630872483218e-05,0.010453181717410276,0.003309029418904208,-0.006984672894296384
1504196928.99,-1.0,0.03256788465,-0.008757338449999999,0.01250347875,-0.021351,-0.014872,0.000371,0.012621158549999999,-3.5984129244,-9.122587129249998,0.001384,0.375713,1.833815,0.00012234228187919458,-4.238523489932897e-05,-2.254630872483218e-05,0.010394308226170046,0.0033710089899339213,-0.00692591836430434
1504196929.0,-1.0,0.05085728689999999,-0.05147510585,-0.0365003513,-0.032922,-0.00304,-0.013546,0.013337044000000001,-3.5959416485999998,-9.123567794249999,0.001461,0.375442,1.833669,0.00012234228187919458,-4.238523489932897e-05,-2.254630872483218e-05,0.010334731664387808,0.0034315812430880666,-0.006866481618345022
1504196929.01,-1.0,0.0303221618,-0.0748835794,-0.0020790098,-0.037029,0.012985,-0.019986,0.01546508705,-3.59363708585,-9.124470006049998,0.001695,0.37519,1.833439,0.00012234228187919458,-4.238523489932897e-05,-2.254630872483218e-05,0.010274496727918025,0.0034907387168283677,-0.0068064073472283715
1504196929.02,-1.0,-0.00510926465,-0.0657241683,0.06173286175,-0.024229,0.015006,-0.015698,0.01723028405,-3.59232299475,-9.12497995185,0.001889,0.375045,1.83325,0.00012234228187919458,-4.238523489932897e-05,-2.254630872483218e-05,0.010213647546552851,0.003548475363220671,-0.006745739674950735
1504196929.03,-1.0,-0.024634304799999996,-0.04850369089999999,0.0619976413,-0.000846,0.011603,-0.002843,0.0182011424,-3.59277410065,-9.12480343215,0.001994,0.375096,1.833207,0.00012234228187919458,-4.2385234899328106e-05,-2.254630872483218e-05,0.010152227629200539,0.003604786517006353,-0.006684522103870827
1504196929.04,-1.0,-0.03070462115,-0.0167301449,0.11789554629999999,0.020425,0.008222,0.00574,0.018436501999999997,-3.59522576315,-9.1238325738,0.002021,0.375364,1.833271,0.00012234228187919458,-4.238523489932897e-05,-2.254630872483218e-05,0.010090279812892122,0.0036596688628767193,-0.006622797463723962
1504196929.05,-1.0,-0.01568083335,-0.011434553899999998,0.18364913454999998,0.026664,-0.008885,0.011118,0.017475450299999997,-3.5988640302999997,-9.1224008029,0.001915,0.375763,1.83339,0.00012234228187919458,-4.238523489932897e-05,-2.254630872483218e-05,0.010027846215624914,0.0037131204011309205,-0.006560607864458778
1504196929.06,-1.0,0.0024516625,-0.029145363799999997,0.13302720725,0.025478,-0.028049,0.004745,0.01521011415,-3.6024042309499995,-9.1210082586,0.001667,0.376151,1.833463,0.00012234228187919458,-4.238523489932897e-05,-2.254630872483218e-05,0.009964968193004742,0.0037651404118810294,-0.006497994652884476
1504196929.07,-1.0,0.0165340119,-0.0218688295,0.0694703086,0.023264,-0.040813,0.000494,0.01189546645,-3.60534622595,-9.1198510739,0.001304,0.376474,1.83347,0.00012234228187919458,-4.238523489932897e-05,-2.2546308724832615e-05,0.00990168629864474,0.003815729417962377,-0.006434998373068601
1504196929.08,-1.0,0.04051127115,-0.026850607699999997,0.0470326934,0.020344,-0.041892,-0.007957,0.008865211599999999,-3.6079940214499997,-9.118811569,0.000972,0.376764,1.833381,0.00012234228187919458,-4.238523489932897e-05,-2.254630872483218e-05,0.009838040248268953,0.0038648891467205626,-0.006371658730444207
1504196929.09,-1.0,0.03998171205,-0.043365006299999995,0.0774333084,0.00759,-0.038585,-0.012255,0.0062566426999999996,-3.6101907110499996,-9.11793877715,0.000686,0.377005,1.833241,0.00012234228187919458,-4.238523489932897e-05,-2.254630872483218e-05,0.009774068887452136,0.003912622490820583,-0.0063080145595454384
1504196929.1,-1.0,0.031185147,-0.06451795034999999,0.08739686479999999,-0.015821,-0.03306,-0.015508,0.004128599649999999,-3.6107300768,-9.117732837499998,0.000453,0.377064,1.833072,0.00012234228187919458,-4.238523489932897e-05,-2.254630872483218e-05,0.00970981016290029,0.003958933468240389,-0.00624410379529583
1504196929.11,-1.0,0.01189546645,-0.0889659288,0.08762241775,-0.045588,-0.020028,-0.015583,0.0027654753,-3.6090237196999997,-9.118409496349999,0.000303,0.376876,1.832892,0.00012234228187919458,-4.2385234899328106e-05,-2.254630872483218e-05,0.009645301097200187,0.004003827181582098,-0.00617996344775118
1504196929.12,-1.0,-0.0006472389,-0.11724830739999999,0.0753346853,-0.067895,-0.005994,-0.012444,0.00244185585,-3.6052873860499997,-9.11988049385,0.000268,0.376467,1.832747,0.00012234228187919458,-4.238523489932897e-05,-2.254630872483218e-05,0.009580577766910459,0.0040473097768618516,-0.006115629580199622
1504196929.13,-1.0,-0.0236144132,-0.12689805099999998,0.05927139259999999,-0.071968,0.020674,-0.008228,0.0037069137,-3.6008645868999998,-9.12162607755,0.000407,0.375982,1.832662,0.00012234228187919458,-4.238523489932897e-05,-2.254630872483218e-05,0.009515675283908287,0.004089388401891325,-0.006051137290503883
1504196929.14,-1.0,-0.057653295349999995,-0.08013013714999999,0.0751973922,-0.055834,0.038652,-0.005029,0.0061781894999999995,-3.59691250695,-9.123185334899999,0.000677,0.375548,1.83264,0.00012234228187919458,-4.238523489932897e-05,-2.254630872483218e-05,0.009450627779853393,0.004130071164402782,-0.005986520695568265
1504196929.15,-1.0,-0.0683327372,-0.0332053169,0.1211513541,-0.033494,0.031007,-0.003909,0.00832584585,-3.5946079442,-9.124097353349999,0.000912,0.375296,1.832643,0.00012234228187919458,-4.238523489932897e-05,-2.254630872483218e-05,0.00938546839365606,0.004169367090021359,-0.005921812918808889
1504196929.16,-1.0,-0.05239693095,-0.010198915999999999,0.1098737066,-0.010215,0.005242,-0.005958,0.0088455983,-3.59397051195,-9.124342519599999,0.00097,0.375226,1.832608,0.00012234228187919458,-4.238523489932897e-05,-2.254630872483218e-05,0.009320229261818636,0.004207286080221806,-0.0058570460804953095
1504196929.17,-1.0,-0.0033244543499999996,0.0118268199,0.08350362474999999,0.006591,-0.02793,-0.00587,0.0072176943999999995,-3.5944510378,-9.12415619325,0.000791,0.375279,1.83256,0.00012234228187919458,-4.238523489932897e-05,-2.254630872483218e-05,0.009254941511515291,0.004243838870354066,-0.005792251290831829
1504196929.18,-1.0,0.02293775435,-0.0075707338,0.09163333759999999,0.007476,-0.056698,-0.015424,0.0034029075499999997,-3.5958533887499997,-9.123607020849999,0.000373,0.375432,1.832427,0.00012234228187919458,-4.2385234899328106e-05,-2.254630872483218e-05,0.009189635256276585,0.004279036987877349,-0.005727458645644945
1504196929.19,-1.0,0.03074384775,-0.0489547968,0.09188831049999999,-0.003233,-0.072576,-0.032494,-0.001569064,-3.5971086399499996,-9.123116688349999,-0.000172,0.37557,1.8321,0.00012234228187919458,-4.238523489932897e-05,-2.254630872483218e-05,0.009124339594140718,0.004312892710863325,-0.005662697224535385
1504196929.2,-1.0,0.0423058881,-0.06651850695,0.06685193304999999,-0.018031,-0.066042,-0.04961,-0.005501530649999999,-3.5972067064499997,-9.123077461749999,-0.000603,0.375581,1.83158,0.00012234228187919458,-4.238523489932897e-05,-2.254630872483218e-05,0.00905908260813626,0.004345419026885233,-0.005597995091360719
1504196929.21,-1.0,0.0030106415499999996,-0.0758446311,0.04903325,-0.030605,-0.043551,-0.059278,-0.0079433865,-3.5961181682999994,-9.123499147699999,-0.000871,0.375461,1.830965,0.00012234228187919458,-4.238523489932897e-05,-2.254630872483218e-05,0.008993891368947127,0.004376629592361958,-0.0055333792969050055
1504196929.22,-1.0,-0.01124822755,-0.11381597989999999,0.05571157865,-0.042163,-0.018951,-0.055071,-0.0081983594,-3.5943529712999998,-9.12419541985,-0.000899,0.375268,1.830357,0.00012234228187919458,-4.238523489932897e-05,-2.2546308724832615e-05,0.00892879193963747,0.004406538692451445,-0.005468875883603896
1504196929.23,-1.0,-0.03531374665,-0.08969162089999999,0.01309187775,-0.038794,0.006587,-0.047639,-0.0068842683,-3.5919993753,-9.1251270516,-0.000754,0.37501,1.82985,0.00012234228187919458,-4.238523489932897e-05,-2.254630872483218e-05,0.008863809382286592,0.004435161201542082,-0.005404509892181775
1504196929.24,-1.0,-0.0747070597,-0.0698037347,0.018152109149999998,-0.029084,0.027805,-0.03485,-0.00459931885,-3.59018514505,-9.125842937049999,-0.000504,0.374811,1.829484,0.00012234228187919458,-4.238523489932897e-05,-2.254630872483218e-05,0.008798967766401988,0.004462512544425978,-0.005340305370066023
1504196929.25,-1.0,-0.08880902239999999,-0.0407564374,0.038451874649999995,-0.017297,0.037291,-0.029508,-0.0017259703999999998,-3.5891554467999995,-9.126245009699998,-0.000189,0.374698,1.829212,0.00012234228187919458,-4.238523489932897e-05,-2.254630872483218e-05,0.008734290178984416,0.004488608658210103,-0.005276285381453971
1504196929.26,-1.0,-0.09523237814999999,-0.0009414384,0.045061556749999995,-0.014171,0.031929,-0.023088,0.0006668522,-3.58796884215,-9.126715728899999,7.3e-05,0.374568,1.829009,0.00012234228187919458,-4.2385234899328106e-05,-2.254630872483218e-05,0.008669798736100631,0.004513465955005902,-0.005212472018890968
1504196929.27,-1.0,-0.06150730879999999,0.00605070305,0.0060997363,-0.015411,0.011689,-0.020919,0.0020986231,-3.5865861045,-9.12725509465,0.00023,0.374417,1.828813,0.00012234228187919458,-4.238523489932897e-05,-2.254630872483218e-05,0.00860551459585479,0.004537101285464917,-0.005148886416238341
1504196929.28,-1.0,-0.01677917815,-0.021456950199999998,-0.026213175449999997,-0.013419,-0.007506,-0.023016,0.0024124359,-3.58539949985,-9.1277160072,0.000265,0.374288,1.828588,0.00012234228187919458,-4.238523489932897e-05,-2.254630872483218e-05,0.008541457972620403,0.00455953190318148,-0.005085548762910896
1504196929.29,-1.0,0.010120462799999999,-0.03562755945,-0.011513007099999998,-0.015666,-0.025596,-0.029393,0.0015494506999999998,-3.5845561279499996,-9.1280494333,0.00017,0.374195,1.828289,0.00012234228187919458,-4.238523489932897e-05,-2.254630872483218e-05,0.008477648152417583,0.004580775430018003,-0.005022478319257395
1504196929.3,-1.0,0.038147868499999994,-0.0471111466,0.0012748644999999999,-0.012519,-0.035207,-0.033641,0.00031381279999999996,-3.5839971489,-9.12827498625,3.4e-05,0.374133,1.827914,0.00012234228187919458,-4.238523489932897e-05,-2.254630872483218e-05,0.008414103509329474,0.004600849822366859,-0.004959693432975865
1504196929.31,-1.0,0.04215878835,-0.051690852149999994,-0.0050308114499999996,-0.005112,-0.041663,-0.031482,-0.00159848395,-3.5840559888,-9.1282455663,-0.000176,0.37414,1.827537,0.00012234228187919458,-4.238523489932897e-05,-2.254630872483218e-05,0.008350841522832386,0.00461977333839525,-0.004897211556448844
1504196929.32,-1.0,0.021260817199999997,-0.038687234249999994,0.006952914849999999,0.004497,-0.034294,-0.020804,-0.0037559469499999997,-3.5847816808999995,-9.12796117345,-0.000412,0.37422,1.827255,0.00012234228187919458,-4.238523489932897e-05,-2.254630872483218e-05,0.008287878795942838,0.004637564506269287,-0.0048350492648924215
1504196929.33,-1.0,0.00027458619999999996,-0.0312832135,0.006805815099999999,0.005611,-0.020464,-0.008018,-0.00565843705,-3.58590944565,-9.127519874199999,-0.00062,0.374343,1.827141,0.00012234228187919458,-4.2385234899328106e-05,-2.254630872483218e-05,0.008225231074081574,0.004654242093405037,-0.004773222275220701
1504196929.34,-1.0,-0.0547995602,-0.032263878499999996,0.0170831843,-0.001707,0.000903,-0.003798,-0.0068450417,-3.5864193914499998,-9.12731393455,-0.00075,0.374399,1.827132,0.00012234228187919458,-4.238523489932897e-05,-2.254630872483218e-05,0.008162913264548655,0.004669825076735856,-0.00471174546552644
1504196929.35,-1.0,-0.07991439084999999,-0.017897136249999997,-0.04511059,-0.001541,0.024339,0.000431,-0.006423355749999999,-3.5862722917,-9.12737277445,-0.000704,0.374383,1.827184,0.00012234228187919458,-4.238523489932897e-05,-2.2546308724832615e-05,0.008100939456528122,0.004684332614014242,-0.004650632895085827
1504196929.36,-1.0,-0.09542851114999999,-0.0203782187,-0.06108562285,-0.000365,0.039244,0.002542,-0.0046875787,-3.58618403185,-9.12741200105,-0.000513,0.374373,1.827273,0.002013000000000001,0.00011349999999999989,-0.00014980000000000028,0.002290789716351327,0.0005844815295861228,0.0048999497723357655
1504196929.37,-1.0,-0.1061667929,-0.024732371299999997,-0.015886773,-0.004707,0.028624,0.00042,-0.0035107806999999996,-3.5861644185499997,-9.1274218077,-0.000385,0.374371,1.827354,0.002093000000000001,0.0001393000000000002,-0.00015139999999999989,0.0025183602675664662,0.0006348159637710182,0.004847740834288183
1504196929.38,-1.0,-0.08289561245,-0.04778780544999999,-0.011581653649999999,-0.011262,0.002049,-0.011285,-0.0037363336499999997,-3.5858604123999998,-9.1275394875,-0.00041,0.374338,1.827322,0.002168,0.00016299999999999995,-0.0001537000000000001,0.002751805577422717,0.0006568595506974972,0.004830815761112772
1504196929.39,-1.0,-0.059673465249999995,-0.0538777351,-0.06707748599999999,0.003665,-0.011907,-0.031515,-0.00467777205,-3.5862036451499995,-9.1274021944,-0.000512,0.374376,1.827075,0.0022359999999999984,0.000183,-0.00015600000000000032,0.0029013289453307944,0.0006356101534072955,0.004759501839765257
1504196929.4,-1.0,-0.0271840338,-0.041658649199999995,-0.059653851949999996,0.023951,-0.014199,-0.03788,-0.00512887795,-3.588253235,-9.1265980491,-0.000562,0.3746,1.826692,0.0034859999999999995,0.0003352999999999993,-0.00013949999999999987,0.0030781620072188876,0.000598228054362826,0.00521335725556582
1504196929.41,-1.0,-0.025369803549999997,-0.048454657649999996,0.01683801805,0.036699,-0.018572,-0.03358,-0.0059036033,-3.59238183465,-9.12497995185,-0.000647,0.375052,1.826331,0.003552000000000003,0.00035690000000000027,-0.0001491999999999995,0.002886000420338375,0.0005134691761234933,0.0050348972753017085
1504196929.42,-1.0,-0.07924753864999999,-0.05302455655,0.04661100745,0.03773,-0.018589,-0.026106,-0.007992419749999998,-3.5969419268999996,-9.12317552825,-0.000876,0.375551,1.826082,0.003609000000000001,0.00038350000000000016,-0.00016230000000000064,0.0025771968947605473,0.00034860454302854116,0.004872153377776467
1504196929.43,-1.0,-0.07718814214999999,-0.0453851762,-0.0216726965,0.035633,-0.010056,-0.01972,-0.00960071035,-3.6008351669499996,-9.1216358842,-0.001053,0.375979,1.825906,0.0036640000000000006,0.0004152999999999995,-0.00017659999999999985,0.0022105267872425394,0.00019655611217084257,0.004652025426811646
1504196929.44,-1.0,-0.0941242267,-0.0304202283,-0.01354298365,0.029329,0.002781,-0.018685,-0.010473502199999998,-3.6041203947,-9.1203414064,-0.001148,0.376339,1.825775,0.003719,0.0004534000000000005,-0.0001923999999999997,0.0018277995094282407,3.1730652620742816e-05,0.004379714041947258
1504196929.45,-1.0,-0.0904565396,-0.030655587899999996,0.07077459305,0.0145,0.011434,-0.026197,-0.010247949249999999,-3.60658186385,-9.1193607414,-0.001123,0.376609,1.825583,0.0037779999999999966,0.0004954999999999998,-0.00020950000000000048,0.0014487217183256629,-5.9386974627484435e-05,0.004089196828378716
1504196929.46,-1.0,-0.07709988229999999,-0.012905551399999998,0.023192727249999996,0.007149,0.022156,-0.032632,-0.00863965865,-3.60771943525,-9.11891944215,-0.000948,0.376734,1.825295,0.003845000000000001,0.0005405000000000002,-0.00022839999999999926,0.001145765422738032,-9.97303806640204e-05,0.0037721495936858807
1504196929.47,-1.0,-0.05642746409999999,-0.0273997801,0.04123696325,0.000784,0.023278,-0.037982,-0.005972249849999999,-3.6086412603499998,-9.1185565961,-0.000655,0.376835,1.824928,0.003923999999999997,0.0005878999999999997,-0.00025060000000000013,0.0008394041756556447,-9.422139386150441e-05,0.003440557704601499
1504196929.48,-1.0,-0.0334014499,-0.014906108,0.1485315209,-0.00999,0.010578,-0.03691,-0.0037069137,-3.6090139130499996,-9.118409496349999,-0.000406,0.376876,1.824535,0.004006000000000003,0.0006337000000000001,-0.00027570000000000025,0.0005977812985016318,-2.828370439034167e-05,0.0031398170755282395
1504196929.49,-1.0,-0.0073549875,-0.013278204099999998,0.11379636659999999,-0.013306,-0.003249,-0.035824,-0.0026674088,-3.6087001002499997,-9.1185369828,-0.000293,0.376841,1.824153,0.004200999999999996,0.0006522800000000001,-0.0003061000000000001,0.0004271487806564167,2.643597027129907e-05,0.002796722527519835
1504196929.5,-1.0,-0.0210254576,-0.01621039245,0.07866894629999999,0.004833,-0.001271,-0.032594,-0.0020201699,-3.6093571457999998,-9.11827220325,-0.000222,0.376913,1.823811,0.004289000000000001,0.0006929799999999999,-0.00033620000000000004,0.00031809327948484345,8.621100537253845e-05,0.002522072797084274
1504196929.51,-1.0,-0.0411094768,0.006648908699999999,0.1390779103,0.021989,0.009243,-0.032582,-0.0009414384,-3.6117205484499997,-9.1173405715,-0.000103,0.377172,1.823493,0.004375000000000004,0.00073138,-0.0003686000000000002,0.00017259283700243877,0.00012514850316414083,0.002222172642500242
1504196929.52,-1.0,-0.055093759699999995,0.01595541955,0.21486370149999998,0.028337,0.001732,-0.033625,-0.00026477954999999995,-3.6153392022999995,-9.11589899395,-2.9e-05,0.377569,1.823174,0.004454,0.0007722600000000001,-0.0004029999999999997,2.3504127228957117e-05,0.00016010346953221344,0.001999205465010645
1504196929.53,-1.0,-0.0057859235,0.0169655045,0.22332684045,0.014302,-0.0184,-0.032547,-0.00034323274999999994,-3.6181439041999996,-9.1147908425,-3.8e-05,0.377877,1.822816,0.004521999999999998,0.0008194999999999999,-0.0004368999999999996,-0.00014590445720186196,0.00017224325347031666,0.0017742588960778516
1504196929.54,-1.0,0.053495275749999995,-0.026232788749999996,0.17919691545,-0.011408,-0.030976,-0.031502,-0.0008237585999999999,-3.61923244235,-9.114359349899999,-9.1e-05,0.377997,1.822435,0.004579,0.0008644,-0.00046699999999999953,-0.0002900612026599525,0.0001311201132905282,0.0015466891766591218
1504196929.55,-1.0,0.09495779195,-0.036412091449999996,0.1368223808,-0.030676,-0.035084,-0.025125,-0.0014415775499999998,-3.6181831308,-9.1147712292,-0.000158,0.377881,1.822088,0.004635,0.0009010999999999997,-0.0004918000000000006,-0.0005138518880620779,0.00010536841396158181,0.0013480254280566761
1504196929.56,-1.0,0.0711570524,-0.0308713342,0.09200599029999999,-0.04446,-0.021122,-0.019837,-0.0017259703999999998,-3.61534900895,-9.11589899395,-0.00019,0.377571,1.821821,0.004691000000000001,0.0009304000000000005,-0.0005097000000000001,-0.0005655606749011,5.64083904039947e-05,0.001185399546610233
1504196929.57,-1.0,0.0318912258,-0.0261445289,0.1134433272,-0.05072,-0.002955,-0.018813,-0.00120621795,-3.6118480349,-9.117291538249999,-0.000133,0.377186,1.821596,0.004741999999999996,0.0009531999999999995,-0.0005179999999999994,-0.0006025621863625652,7.651056415092228e-06,0.0010423951792384312
1504196929.58,-1.0,0.011365907350000001,-0.020927391099999998,0.1072062978,-0.052757,0.00772,-0.02097,0.00015690639999999998,-3.60793518155,-9.1188311823,1.7e-05,0.376757,1.821368,0.004810000000000009,0.0009713999999999999,-0.0005172000000000006,-0.0005663349399560591,1.7468303979972788e-05,0.0008482138048455656
1504196929.59,-1.0,-0.004020726499999999,-0.0027066354,0.0739617543,-0.048524,0.006614,-0.015624,0.0014808041500000001,-3.60385561515,-9.12044927955,0.000162,0.37631,1.821184,0.004859999999999989,0.0009865000000000004,-0.0005120000000000003,-0.0004666942283857445,4.7228969084711636e-05,0.0007427700004212223
1504196929.6,-1.0,-0.000392266,-0.007678606949999999,0.06485137645,-0.041146,0.001215,-0.005995,0.0020397832,-3.6003840610499998,-9.121822210549999,0.000223,0.375929,1.821097,0.004920000000000008,0.0009785999999999996,-0.0005050000000000002,-0.00041121631395935054,6.070328000129521e-05,0.0006253387808827782
1504196929.61,-1.0,-0.013307624049999998,0.0009610516999999999,0.05491724,-0.031666,-0.009527,0.001512,0.0010395049,-3.5975009059499996,-9.12295978195,0.000114,0.375614,1.821117,0.004970000000000002,0.0009893999999999997,-0.0004959999999999999,-0.0003498889996613741,7.340308887493485e-05,0.0005300046419336457
1504196929.62,-1.0,-0.01658304515,0.0020593965,0.049533389149999996,-0.021139,-0.026665,0.002628,-0.0015298374,-3.5956082224999997,-9.12370508735,-0.000167,0.375405,1.821175,0.005019999999999997,0.0010002000000000014,-0.0004899999999999991,-0.0003099366591703401,8.584159505198308e-05,0.00048452760986172905
1504196929.63,-1.0,-0.0007354987499999999,0.00012748645,0.0681954441,-0.012766,-0.04698,0.002679,-0.0055505638999999996,-3.5945687175999996,-9.12410716,-0.000609,0.375292,1.821207,0.005080000000000001,0.0010099999999999987,-0.0004870000000000013,-0.00026916697948831114,8.270177249536381e-05,0.0004493145808510679
1504196929.64,-1.0,0.020182085699999998,0.0152199208,0.05461323385,0.007325,-0.066332,0.008085,-0.011052094549999999,-3.5948531104499994,-9.12399928685,-0.001212,0.375323,1.821267,0.005140000000000006,0.00102,-0.0004899999999999991,-0.00023934595015639992,7.2789251758687e-05,0.0004421828263774241
1504196929.65,-1.0,0.013846989799999999,0.013778343249999998,0.04082508395,0.018931,-0.081348,0.010266,-0.018485535249999997,-3.5964025611499997,-9.12337166125,-0.002026,0.375492,1.821367,0.005209999999999992,0.001032,-0.0004930000000000004,-0.0001570531581749357,6.350677824240591e-05,0.00046699915626469135
1504196929.66,-1.0,-0.02160404995,0.03146953985,0.06745994535,0.020014,-0.084545,0.001735,-0.02688002765,-3.5982364047,-9.122626355849999,-0.002946,0.375693,1.821424,0.005259999999999987,0.0010380000000000007,-0.0004980000000000002,-0.00010375843793464234,7.524449540641243e-05,0.00045328205254391296
1504196929.67,-1.0,-0.015455280399999998,0.02745862,0.03571581929999999,0.01695,-0.07279,-0.00683,-0.034078108749999995,-3.59975643545,-9.1220085369,-0.003736,0.37586,1.82139,0.005310000000000009,0.001047000000000001,-0.0005009999999999997,-4.675252416630471e-05,7.749007682655851e-05,0.000503411791144992
1504196929.68,-1.0,-0.023379053599999998,0.0040991797,0.0078060934,0.006525,-0.048186,-0.016498,-0.03902066035,-3.60063903395,-9.1216358842,-0.004278,0.375957,1.821255,0.005360000000000004,0.001058,-0.0005009999999999997,-5.006003364593781e-05,0.00011534272253932443,0.0005574450086565097
1504196929.69,-1.0,-0.061262142549999996,-0.027135000549999996,0.0335191297,-0.010321,-0.023534,-0.021907,-0.0421293684,-3.60067826055,-9.12160646425,-0.004619,0.375961,1.821074,0.005399999999999988,0.001072,-0.0004939999999999996,-3.999458235037778e-05,0.00015266406247116393,0.0006432610004880601
1504196929.7,-1.0,-0.0767076163,-0.0663517939,0.025252123749999997,-0.027262,-0.007412,-0.021964,-0.0436003659,-3.59961914235,-9.12201834355,-0.004779,0.375845,1.820883,0.005430000000000018,0.0010799999999999976,-0.00047900000000000026,4.5643604558609496e-05,0.0001914026971028271,0.0006986905783022967
1504196929.71,-1.0,-0.08709285865,-0.05859473375,-0.0026183755499999996,-0.038911,0.008658,-0.013473,-0.04413973164999999,-3.5970498000499997,-9.1230284285,-0.004839,0.375564,1.820772,0.005479999999999985,0.001060000000000002,-0.0004819999999999998,0.00016973770508954544,0.0002466693496729899,0.0007439802142616969
1504196929.72,-1.0,-0.11699333449999999,-0.05586848504999999,-0.02070183815,-0.039927,0.018249,-0.008154,-0.044316251349999995,-3.5939410919999997,-9.12425425975,-0.004857,0.375223,1.820743,0.005530000000000007,0.0010550000000000004,-0.00046600000000000114,0.0003675227859476493,0.00026550141580949926,0.0008172861262413234
1504196929.73,-1.0,-0.12122980729999999,-0.0452282698,0.00210842975,-0.036655,0.025681,-0.010295,-0.04382591885,-3.5911167768,-9.12537221785,-0.004802,0.374913,1.820717,0.005569999999999992,0.0010419999999999978,-0.00045199999999999754,0.0006583543269500503,0.00024419344140436117,0.0009331851478631137
1504196929.74,-1.0,-0.10480366854999999,-0.0466208141,0.0030792880999999995,-0.033347,0.030993,-0.023106,-0.04213917504999999,-3.58867492095,-9.126333269549999,-0.004618,0.374646,1.820571,0.005629999999999996,0.0010270000000000001,-0.0004430000000000024,0.0009810112580299624,0.00022855458142601037,0.001062524956082056
1504196929.75,-1.0,-0.0891228352,-0.0438553388,0.01073828175,-0.03118,0.027789,-0.034837,-0.039716932499999996,-3.5863507448999994,-9.1272649013,-0.004352,0.374391,1.820287,0.005680000000000018,0.001013,-0.0004359999999999989,0.001308364343128865,0.0001848716422365726,0.0012267381183175274
1504196929.76,-1.0,-0.0696860549,-0.037834055699999994,0.0040403398,-0.032212,0.032058,-0.034846,-0.03670629095,-3.5839971489,-9.12819653305,-0.004022,0.374134,1.819944,0.005729999999999985,0.0010000000000000009,-0.0004270000000000003,0.0016293394135862282,0.00020828270392270198,0.0014370289036207406
1504196929.77,-1.0,-0.07626631704999999,-0.046660040699999995,-5.88399e-05,-0.031163,0.030981,-0.032707,-0.0340094622,-3.5818985258,-9.1290300983,-0.003726,0.373903,1.819634,0.005769999999999997,0.0009860000000000008,-0.0004170000000000007,0.0018736384208006829,0.0001974785587768313,0.0016677809162493062
1504196929.78,-1.0,-0.07401078755,-0.06326269915,0.029920089149999995,-0.030133,0.028835,-0.028431,-0.03148915315,-3.5802608152499995,-9.12968714385,-0.003449,0.373724,1.81937,0.00581000000000001,0.0009799999999999982,-0.00041099999999999817,0.00204901562048021,0.00018739933949629695,0.001843195283049992
1504196929.79,-1.0,-0.0744324735,-0.05394638164999999,0.02478140455,-0.030179,0.025633,-0.024155,-0.02941995,-3.5785054249,-9.130383415999999,-0.003222,0.373531,1.819152,0.005830000000000002,0.0009960000000000004,-0.0004290000000000023,0.002020041264126027,0.00014827972748543417,0.0019685964778122234
1504196929.8,-1.0,-0.0853766949,-0.0538777351,0.024114552349999995,-0.029195,0.017095,-0.020936,-0.0282039254,-3.5767794544999996,-9.13106007485,-0.003089,0.373343,1.818976,0.0058,0.0010050000000000024,-0.000448999999999998,0.0016688585342587992,3.737495217670528e-05,0.0019746283120349872
1504196929.81,-1.0,-0.08522959515,-0.047621092399999995,0.025252123749999997,-0.021802,0.00957,-0.017707,-0.02789991925,-3.5754065235,-9.131599440599999,-0.003055,0.373193,1.818836,0.005780000000000007,0.0010309999999999972,-0.00047600000000000073,0.0011735609584389017,-5.784629451577317e-05,0.0019491718773430033
1504196929.82,-1.0,-0.08065969625,-0.0451302033,0.02038802535,-0.006962,-0.000149,-0.013393,-0.028576578099999996,-3.5752005838499996,-9.1316778938,-0.003129,0.37317,1.81874,0.005750000000000005,0.001065,-0.0005000000000000004,0.000732729535095622,-7.76007080345309e-05,0.0019432920590218838
1504196929.83,-1.0,-0.09038789304999999,-0.028615804699999997,0.04125657654999999,0.005761,-0.01091,-0.014419,-0.0302240953,-3.5761518288999996,-9.13129543445,-0.00331,0.373275,1.818652,0.005749999999999977,0.0011019999999999988,-0.0005149999999999981,0.0004986487135809625,-5.2744986928532356e-05,0.002008265565477063
1504196929.84,-1.0,-0.0931043351,-0.005491723999999999,0.0612915625,0.014247,-0.023758,-0.025055,-0.0328915041,-3.57773069955,-9.13066780885,-0.003602,0.373446,1.818471,0.005750000000000005,0.0011390000000000011,-0.0005260000000000022,0.00033356909908333066,-8.799967490258354e-07,0.00211204280630628
1504196929.85,-1.0,-0.07753137489999999,-0.0027556686499999998,0.0454440161,0.016424,-0.023769,-0.033589,-0.03529413335,-3.5795645431,-9.12994211675,-0.003866,0.373648,1.818193,0.005759999999999987,0.0011810000000000015,-0.0005389999999999978,0.0001679005764820829,9.143380907516985e-06,0.002238589154197057
1504196929.86,-1.0,-0.07394214099999999,0.0024124359,0.03841264805,0.017592,-0.013121,-0.036808,-0.03678474415,-3.5814474198999995,-9.12919681135,-0.004029,0.373854,1.817848,0.005760000000000043,0.0012240000000000029,-0.0005570000000000019,2.5823853916584483e-05,3.4052411929774706e-05,0.0022963396987970564
1504196929.87,-1.0,-0.10025338294999998,-0.014043122799999998,0.0736479415,0.001653,-0.004468,-0.035782,-0.037706569249999995,-3.5827909309499995,-9.12866725225,-0.004131,0.374001,1.817515,0.005769999999999997,0.0012599999999999972,-0.0005779999999999987,-0.00011193278854260136,2.479126106269547e-05,0.0023264370835172077
1504196929.88,-1.0,-0.11122702429999999,-0.030145642099999998,0.09205502354999999,-0.020754,-0.002158,-0.031554,-0.038559747799999995,-3.5823986649499995,-9.128814352,-0.004224,0.373959,1.817234,0.005799999999999972,0.0012869999999999965,-0.0005999999999999998,-0.00014886032277861005,1.174143687521223e-05,0.0023633903429916003
1504196929.89,-1.0,-0.11743463374999999,-0.0564078508,0.05303436319999999,-0.037787,0.00437,-0.028392,-0.03923640665,-3.5803883016999998,-9.12960869065,-0.004298,0.373738,1.816995,0.005819999999999992,0.0013050000000000006,-0.0006190000000000015,-0.00011177990805211202,-3.5588957503218666e-06,0.0023435225789480985
1504196929.9,-1.0,-0.11981764969999999,-0.08556302125,0.06165440855,-0.047378,0.005512,-0.02841,-0.039854225599999994,-3.577858186,-9.130589355649999,-0.004364,0.373461,1.816774,0.00608000000000003,0.0009540000000000035,-0.0007419999999999996,7.853096734677933e-06,-1.8858740055582857e-05,0.0023019060254845236
1504196929.91,-1.0,-0.11613034929999999,-0.0948891454,0.12722167045,-0.05484,0.001316,-0.035886,-0.04039359135,-3.57512213065,-9.1316582805,-0.004424,0.373162,1.816487,0.006129999999999969,0.0009650000000000006,-0.0007530000000000002,0.00017635636345092465,-5.412558849604565e-05,0.0022456811672272314
1504196929.92,-1.0,-0.11780728644999999,-0.09739964779999999,0.150237878,-0.064561,-0.019908,-0.045471,-0.0421489817,-3.5717192230999997,-9.13298217825,-0.004615,0.372788,1.8161,0.006180000000000019,0.0009759999999999977,-0.0007589999999999993,0.00040987174791973224,-8.317367227617112e-05,0.0021804917074005337
1504196929.93,-1.0,-0.09958653075,-0.10692190495,0.1386268044,-0.059314,-0.035929,-0.052905,-0.044963490249999995,-3.5684732219499997,-9.13423742945,-0.004922,0.372433,1.81562,0.006240000000000023,0.0009890000000000038,-0.0007659999999999993,0.0006113085555070619,-0.0001473551983208754,0.0021191311162849225
1504196929.94,-1.0,-0.09582077715,-0.08415086364999999,0.10996196645,-0.042264,-0.038204,-0.051803,-0.04827813795,-3.5659627195499994,-9.1352082878,-0.005285,0.372158,1.815116,0.006289999999999962,0.001006,-0.0007710000000000009,0.0007992707212620687,-0.00018207752766130625,0.002008503472734624
1504196929.95,-1.0,-0.11438476560000001,-0.0595655921,0.11680700814999999,-0.01984,-0.034132,-0.048568,-0.05171046544999999,-3.56525664075,-9.1354632607,-0.005661,0.372081,1.81466,0.006360000000000032,0.0010289999999999952,-0.0007759999999999989,0.0009564480724684188,-0.0003023700741231483,0.001852846112752271
1504196929.96,-1.0,-0.1321544154,-0.03821651505,0.1646928801,-0.007057,-0.034245,-0.044275,-0.0554860257,-3.5659529129,-9.1351690612,-0.006074,0.372157,1.814265,0.006419999999999981,0.0010590000000000044,-0.0007820000000000014,0.0011121772309732325,-0.0003431575636709816,0.0017284805201918108
1504196929.97,-1.0,-0.12060218169999999,-0.025948395899999997,0.1791871088,-0.010312,-0.040615,-0.043201,-0.05971269184999999,-3.5666982183,-9.134845441749999,-0.006537,0.372239,1.813891,0.006500000000000006,0.0011009999999999978,-0.0007910000000000035,0.0010935901083108934,-0.0003589240721315612,0.0015540746110425108
1504196929.98,-1.0,-0.11996474945,-0.04200188195,0.18201142399999998,-0.02424,-0.05009,-0.04641,-0.06453756364999999,-3.5666589917,-9.1348356351,-0.007065,0.372235,1.813493,0.00657000000000002,0.0011520000000000002,-0.0008019999999999972,0.00101937895464288,-0.00032529850449369846,0.001368692034688812
1504196929.99,-1.0,-0.11059939869999999,-0.058388794099999995,0.18342358159999997,-0.04032,-0.065934,-0.056015,-0.0703136805,-3.56523702745,-9.1353455809,-0.007696,0.372079,1.812996,0.006649999999999989,0.0012100000000000027,-0.0008190000000000003,0.000912041274251596,-0.0002526924496584204,0.0011566473809150324
1504196930.0,-1.0,-0.09150585115,-0.06755801185,0.17276375305,-0.055327,-0.079657,-0.063488,-0.07683510275,-3.5625009720999996,-9.13635566585,-0.00841,0.37178,1.8124,0.006789999999999963,0.0011609999999999954,-0.0008490000000000025,0.0007662615870838163,-0.00017314057405237726,0.0008755154095588802
1504196930.01,-1.0,-0.097085835,-0.07732543524999999,0.19530924139999997,-0.064881,-0.085954,-0.082706,-0.0836703378,-3.5590196113499997,-9.1376599503,-0.009157,0.371399,1.811634,0.006860000000000033,0.001236000000000001,-0.0008749999999999938,0.0006178402306031838,-0.00013814616567286997,0.000590644072044233
1504196930.02,-1.0,-0.10441140254999999,-0.0676854983,0.20571409705,-0.074424,-0.08693,-0.095529,-0.09027021325,-3.5544399058,-9.13937611405,-0.009877,0.370897,1.810705,0.006940000000000002,0.0013239999999999988,-0.000900000000000005,0.0004932702638105191,-8.839898517587486e-05,0.00023679002050558395
1504196930.03,-1.0,-0.10201857995000001,-0.054319034349999996,0.19432857639999998,-0.073272,-0.080542,-0.101941,-0.09609536335,-3.5497032938499995,-9.14116092435,-0.010512,0.37038,1.809688,0.007009999999999961,0.0014120000000000035,-0.0009259999999999963,0.0003873006730423789,-0.0001005983455693027,-6.896332804273708e-05
1504196930.04,-1.0,-0.11445341215,-0.0422274349,0.19951629424999998,-0.079584,-0.067708,-0.098772,-0.1010281083,-3.54429002305,-9.14320070755,-0.011049,0.369787,1.808683,0.007070000000000021,0.0015029999999999974,-0.0009510000000000005,0.0002392207765613552,-7.546469510288922e-05,-0.00032190299919798715
1504196930.05,-1.0,-0.1257604796,-0.0572512227,0.19025881665,-0.082709,-0.05384,-0.091329,-0.10542148749999998,-3.5386904258999996,-9.1453287506,-0.011527,0.369175,1.807764,0.007120000000000015,0.0015970000000000012,-0.0009750000000000036,7.753778676944378e-05,-0.00015362763252380063,-0.0005851801340863716
1504196930.06,-1.0,-0.12477000795,-0.06445911045,0.17860851644999998,-0.08257,-0.031475,-0.082827,-0.108069283,-3.53313005535,-9.14743718035,-0.011813,0.368567,1.806928,0.00716,0.001686,-0.0009930000000000008,-8.405909517827936e-05,-0.0002493547420805431,-0.0008790580000948012
1504196930.07,-1.0,-0.114737805,-0.04413973164999999,0.19304390525,-0.086757,-0.017597,-0.076454,-0.10926569430000001,-3.52710877225,-9.14975154975,-0.011941,0.367909,1.806176,0.007220000000000004,0.0017739999999999978,-0.001008999999999996,-0.00024288623334789428,-0.0003360624501764775,-0.0012139980623395719
1504196930.08,-1.0,-0.1348022109,-0.036431704749999995,0.20306630155,-0.102471,-0.010049,-0.077478,-0.1098540933,-3.5197047515,-9.15259547825,-0.012002,0.3671,1.80543,0.007249999999999979,0.0018600000000000075,-0.001022000000000002,-0.00036424091131870284,-0.0003635093647511578,-0.0015727306760466853
1504196930.09,-1.0,-0.12189665949999999,-0.052338091049999994,0.13934268984999998,-0.118434,-0.009913,-0.084977,-0.10988351325,-3.5106826334999996,-9.1560572257,-0.012001,0.366114,1.804597,0.007280000000000009,0.0019430000000000003,-0.0010270000000000001,-0.000414922089197578,-0.00039926610562890374,-0.0019112640997600572
1504196930.1,-1.0,-0.09491856535,-0.06530248235,0.0529951366,-0.122644,-0.003485,-0.086062,-0.10904014135,-3.5005621707,-9.1599406591,-0.011903,0.365009,1.803716,0.007589999999999986,0.0019809999999999967,-0.0009310000000000013,-0.0003830416458132646,-0.00037146816597966037,-0.002228475168344346
1504196930.11,-1.0,-0.10522535449999999,-0.0806695029,0.05749638895,-0.116232,0.004973,-0.074323,-0.10770643694999998,-3.4911772066499998,-9.163539699649998,-0.011754,0.363985,1.802938,0.007630000000000026,0.0020700000000000024,-0.0009519999999999945,-0.0003323065032732053,-0.00037681994750782266,-0.0025150586925559715
1504196930.12,-1.0,-0.11906253765,-0.08434699664999999,0.08947587459999999,-0.115186,0.006021,-0.067918,-0.10658847885,-3.4822727684499997,-9.1669426072,-0.011627,0.363013,1.802263,0.00762999999999997,0.002151,-0.0009630000000000055,-0.00023090929994173948,-0.00036317062727198035,-0.0027445128934963092
1504196930.13,-1.0,-0.14193164544999998,-0.08815197685,0.0671167126,-0.114139,0.000686,-0.072175,-0.10632369929999999,-3.4733781368999996,-9.1703160948,-0.011594,0.362043,1.801591,0.007620000000000016,0.0022179999999999978,-0.0009629999999999986,-0.00014244934056595326,-0.0003877238159497587,-0.002956637537105622
1504196930.14,-1.0,-0.12626061875,-0.0957913572,0.0036676871,-0.107735,-0.002561,-0.077494,-0.10598046655,-3.4646796383499994,-9.1736111292,-0.011552,0.361096,1.800852,0.007610000000000006,0.002257999999999996,-0.0009539999999999965,-0.00010551058559893356,-0.00042695045773100126,-0.0031901734678301263
1504196930.15,-1.0,-0.11037384574999999,-0.08723015175,0.016131939249999998,-0.09922,-0.010084,-0.084937,-0.10554897395,-3.4566381853499997,-9.1766511907,-0.011502,0.360219,1.800018,0.007689999999999975,0.0019279999999999992,-0.0008459999999999995,-6.687927170112573e-05,-0.0004633180493289757,-0.003397116839507941
1504196930.16,-1.0,-0.1381756985,-0.10814773619999998,0.08196398070000001,-0.102424,-0.015381,-0.092404,-0.1060294998,-3.4494891375,-9.1793382128,-0.01155,0.359439,1.799131,0.007780000000000009,0.0019720000000000015,-0.0008490000000000025,-6.544409832076603e-05,-0.0004733942743408992,-0.003616279365562858
1504196930.17,-1.0,-0.14235333139999998,-0.1459033387,0.10719649114999999,-0.10134,-0.019645,-0.102,-0.1067944185,-3.4428500354500002,-9.18181929525,-0.011631,0.358717,1.798143,0.007879999999999998,0.002019999999999994,-0.0008540000000000006,-8.090613525979506e-05,-0.0004943908897381277,-0.003852603114290365
1504196930.18,-1.0,-0.1492768263,-0.1442754348,0.11704236774999999,-0.12485,-0.024782,-0.102031,-0.1079516032,-3.4348968423,-9.18478090355,-0.011753,0.357851,1.797136,0.007970000000000033,0.0020700000000000024,-0.0008630000000000027,-3.758729666425431e-05,-0.0005185695860723261,-0.004074282994858125
1504196930.19,-1.0,-0.15183636195,-0.14761950245,0.137096967,-0.126927,-0.019438,-0.104177,-0.10913820784999999,-3.4260218240499993,-9.188085744599999,-0.011877,0.356885,1.796105,-0.47987,-0.084449,0.05084,-1.5827948097756335,-0.02728298086587233,0.9248012018756879
1504196930.2,-1.0,-0.1708906829,-0.15158138905,0.09776249384999999,-0.124682,-0.006672,-0.105262,-0.10937356744999999,-3.4171271924999997,-9.19139058565,-0.011899,0.355917,1.79508,0.004757096774193548,0.0002612322580645161,-0.0005159354838709677,0.04114174961610273,-0.022502479612594772,-0.021417653077683063
1504196930.21,-1.0,-0.19686849874999998,-0.1139336597,0.11598324955,-0.118155,0.009253,-0.10421,-0.10839290245,-3.4083796606999996,-9.19464639345,-0.011788,0.354966,1.794073,0.004757096774193548,0.0002612322580645161,-0.0005159354838709677,0.04264671961976563,-0.022101883155088098,-0.022886865664416334
1504196930.22,-1.0,-0.1782652837,-0.08248373315,0.20796962654999998,-0.116116,0.001766,-0.096719,-0.1075397239,-3.4000342015499996,-9.19774529485,-0.011692,0.354058,1.793129,0.004757096774193548,0.0002612322580645162,-0.0005159354838709677,0.0441829375385987,-0.02156841876226423,-0.02439109623380764
1504196930.23,-1.0,-0.12679017785,-0.11839568545,0.20845995905,-0.122745,-0.02589,-0.094546,-0.10813792955,-3.3918064221999997,-9.2007755497,-0.011753,0.353164,1.792182,0.004757096774193548,0.00026123225806451607,-0.0005159354838709677,0.04573923274911862,-0.02089244204495766,-0.025919211428595545
1504196930.24,-1.0,-0.08246411984999999,-0.14828635465,0.21885500805,-0.14009,-0.061977,-0.096647,-0.11131528415,-3.3825685579,-9.20413923065,-0.012093,0.35216,1.791207,0.004757096774193548,0.00026123225806451607,-0.000515935483870968,0.047301782130646286,-0.02006555433353352,-0.027457421109252422
1504196930.25,-1.0,-0.03672590425,-0.11817993914999998,0.17725519875,-0.154146,-0.091689,-0.106226,-0.11635590225,-3.3713693635999995,-9.2081893771,-0.012635,0.350944,1.790111,0.004757096774193548,0.0002612322580645163,-0.0005159354838709675,0.04885398726668155,-0.019081104780969582,-0.028989155459573368
1504196930.26,-1.0,-0.053465855799999996,-0.10213625975,0.14229449149999998,-0.157376,-0.102308,-0.116886,-0.12280867794999999,-3.3591306644,-9.21257294965,-0.01333,0.349615,1.788911,0.004757096774193552,0.00026123225806451607,-0.0005159354838709675,0.05037648025759389,-0.017934727785227977,-0.0304950707158258
1504196930.27,-1.0,-0.06301753289999999,-0.07479531955,0.12836904849999997,-0.14987,-0.104492,-0.127543,-0.12956545979999998,-3.3469704183999998,-9.21690748895,-0.014056,0.348295,1.787609,0.004757096774193545,0.00026123225806451607,-0.000515935483870968,0.051847301228840514,-0.016624888802294624,-0.03195322660411426
1504196930.28,-1.0,-0.0908684189,-0.0411094768,0.10477424860000001,-0.139139,-0.094995,-0.124338,-0.1359790089,-3.33501611205,-9.22114396175,-0.014746,0.346999,1.786314,0.004757096774193545,0.00026123225806451607,-0.000515935483870968,0.05324228680882037,-0.01515340201837967,-0.033339474760461174
1504196930.29,-1.0,-0.10851058225,-0.033342609999999995,0.07781576774999999,-0.130566,-0.079103,-0.106204,-0.14198067869999997,-3.3236305913999997,-9.22516468825,-0.015389,0.345765,1.785189,0.004757096774193552,0.00026123225806451607,-0.000515935483870968,0.054535697275972184,-0.013525874848892672,-0.034628085833531275
1504196930.3,-1.0,-0.13850912459999998,-0.056172491199999994,0.0804733699,-0.126329,-0.068509,-0.082731,-0.14805099505,-3.3130688293499997,-9.228871601949999,-0.01604,0.34462,1.784315,0.004757096774193552,0.00026123225806451607,-0.0005159354838709671,0.05570108948146313,-0.01175202871791603,-0.03579262237658565
1504196930.31,-1.0,-0.13427265179999998,-0.08415086364999999,0.09076054574999999,-0.134945,-0.064203,-0.05927,-0.15422918455,-3.3024482273999998,-9.23257851565,-0.016703,0.343469,1.783698,0.004757096774193545,0.0002612322580645165,-0.000515935483870968,0.05671241343008432,-0.009845845148702903,-0.036807035411445144
1504196930.32,-1.0,-0.10276388535,-0.1064021525,0.05975191845,-0.145615,-0.059862,-0.051823,-0.15984839499999998,-3.29096464025,-9.236579628849999,-0.017304,0.342227,1.783165,0.004757096774193545,0.00026123225806451607,-0.000515935483870968,0.05754527531233894,-0.007825492731641015,-0.03764692745757037
1504196930.33,-1.0,-0.08297406565,-0.11632648229999999,0.015710253299999997,-0.153049,-0.059796,-0.05824,-0.16497727295,-3.27864748785,-9.2408651349,-0.017851,0.340893,1.782589,0.004757096774193559,0.00026123225806451607,-0.0005159354838709671,0.05817827422480165,-0.005713005053137321,-0.038290889263311145
1504196930.34,-1.0,-0.059232165999999996,-0.12315191069999999,0.03227368515,-0.152983,-0.056594,-0.065717,-0.169262779,-3.26629110885,-9.2451604476,-0.018306,0.339556,1.781917,0.004757096774193545,0.00026123225806451607,-0.000515935483870968,0.05859429123805843,-0.003533701728700045,-0.03872178889860978
1504196930.35,-1.0,-0.0550741464,-0.12845730835,-0.011424747249999999,-0.141101,-0.043896,-0.074258,-0.1722243873,-3.2546996485499995,-9.2492007874,-0.018618,0.338303,1.781147,0.004757096774193545,0.00026123225806451607,-0.000515935483870968,0.05878159576366515,-0.0013153720088274756,-0.03892787816044874
1504196930.36,-1.0,-0.07259862995,-0.1301146322,-0.0456401491,-0.121779,-0.030203,-0.075315,-0.17399939094999997,-3.2446674455999998,-9.2526919548,-0.018803,0.337219,1.780361,0.004757096774193545,0.00026123225806451607,-0.000515935483870968,0.05873464133375861,0.0009127309998642197,-0.038903588404449296
1504196930.37,-1.0,-0.0731183824,-0.14912972654999998,-0.044522190999999996,-0.107894,-0.023933,-0.06783,-0.17527425545,-3.2362729532,-9.25560452985,-0.018935,0.336312,1.779634,0.004757096774193545,0.00026123225806451607,-0.000515935483870968,0.05845445271146754,0.003121012688246161,-0.03864991772051252
1504196930.38,-1.0,-0.055603705499999996,-0.19277912569999997,-0.050916126799999996,-0.108965,-0.017544,-0.056102,-0.17603917415,-3.22882970585,-9.2581836788,-0.019012,0.335508,1.779005,0.004757096774193559,0.00026123225806451607,-0.000515935483870968,0.05794855490218753,0.005280686995051909,-0.03817436002217589
1504196930.39,-1.0,0.00169655045,-0.21880597479999997,-0.056231331100000004,-0.120709,-0.005748,-0.034795,-0.1754213552,-3.2209157393,-9.26095896075,-0.01894,0.334654,1.778548,0.004757096774193545,0.00026123225806451607,-0.000515935483870968,0.05723045320604425,0.007364861297195491,-0.03749038518961878
1504196930.4,-1.0,0.057310062599999996,-0.2678980647,-0.0467973338,-0.142139,0.000792,-0.004958,-0.17417591065,-3.21192304125,-9.2641068954,-0.018799,0.333683,1.778349,0.004757096774193545,0.00026123225806451607,-0.0005159354838709662,0.05631873016832745,0.009349472272362158,-0.036616536122580756
1504196930.41,-1.0,0.052298864449999996,-0.26776077159999995,-0.0598009517,-0.161375,0.011582,0.019539,-0.17305795254999998,-3.2006846203499997,-9.268009942099999,-0.01867,0.33247,1.778448,0.004757096774193559,0.00026123225806451607,-0.000515935483870968,0.055235868913021235,0.011214008918986273,-0.035575252187791895
1504196930.42,-1.0,-0.0018632635,-0.29515074505,-0.08415086364999999,-0.164312,0.044639,0.020542,-0.17037093044999999,-3.1890049001999996,-9.2720895085,-0.018373,0.331211,1.778625,0.004757096774193545,0.00026123225806451607,-0.000515935483870968,0.05400693536095946,0.01294198591872564,-0.03439155156182572
1504196930.43,-1.0,0.06141904895,-0.23412396209999997,0.00467777205,-0.145892,0.080717,0.022644,-0.16317284935,-3.17820777855,-9.275923908649998,-0.017589,0.330047,1.778796,0.004757096774193545,0.00026123225806451694,-0.000515935483870968,0.052658252191334576,0.014521159333328981,-0.0330917053274602
1504196930.44,-1.0,0.08926993494999999,-0.21620721255,0.1078339234,-0.123344,0.101838,0.029049,-0.15331716609999999,-3.1697936728499996,-9.2789737768,-0.016522,0.329139,1.779005,0.004757096774193545,0.00026123225806451607,-0.000515935483870968,0.05121617837615733,0.015943502427846923,-0.03170201715243359
1504196930.45,-1.0,0.0722357839,-0.2078225268,0.0975173276,-0.083835,0.107903,0.033375,-0.14286327719999997,-3.16455692175,-9.280925300149999,-0.015392,0.328576,1.779295,0.004757096774193545,0.00026123225806451607,-0.000515935483870968,0.049706076547238576,0.017204978772248136,-0.030247790809438735
1504196930.46,-1.0,0.11056997874999999,-0.18176625775,0.0856512811,-0.047624,0.103338,0.039848,-0.13241919494999999,-3.1624877185999996,-9.281788285349998,-0.014266,0.328353,1.779631,0.004757096774193559,0.00026123225806451607,-0.000515935483870968,0.04815151432392373,0.018305161124606784,-0.02875253166481273
1504196930.47,-1.0,0.14887475365,-0.20371354044999998,0.09927271794999999,-0.032952,0.064867,0.032467,-0.12388740945,-3.1628309513499997,-9.281788285349998,-0.013347,0.32839,1.779912,0.004757096774193559,0.00026123225806451607,-0.0005159354838709662,0.046573711979993826,0.019246748134248648,-0.027237394513529578
1504196930.48,-1.0,0.22463112489999998,-0.22746524675,0.07644283674999999,-0.03206,0.02972,0.012247,-0.11704236774999999,-3.1637723897499996,-9.28155292575,-0.01261,0.328491,1.77997,0.004757096774193531,0.00026123225806451607,-0.000515935483870968,0.04499122207101247,0.020035028074369965,-0.02572086338097268
1504196930.49,-1.0,0.3068696918,-0.24042963805,-0.01264077185,-0.03437,-0.004335,-0.005847,-0.1114427706,-3.16412542915,-9.2815038925,-0.012007,0.328529,1.779769,0.004757096774193559,0.00026123225806451607,-0.000515935483870968,0.04341980885943442,0.020677331683707,-0.024218631127952417
1504196930.5,-1.0,0.34749864275,-0.24009621195,-0.0252227038,-0.036613,-0.024546,-0.015426,-0.10703958474999999,-3.1643019488499995,-9.28149408585,-0.011532,0.328548,1.779415,0.004757096774193531,0.00026123225806451607,-0.0005159354838709697,0.04187248636084839,0.021182506865389472,-0.02274363768151133
1504196930.51,-1.0,0.36061013379999995,-0.27177169145,0.030214288649999997,-0.03771,-0.027729,-0.013292,-0.10294040504999999,-3.16510609415,-9.281268532899999,-0.01109,0.328635,1.779053,0.0008100000000000052,0.0001682999999999997,2.9000000000001247e-05,0.0005698187343794459,-0.0004139196418535551,-0.00519705659251235
1504196930.52,-1.0,0.35923720279999993,-0.26145509564999997,0.04821929805,-0.035578,-0.021358,-0.001563,-0.09901774505,-3.1659886926499996,-9.28100375335,-0.010668,0.32873,1.778794,0.0007999999999999952,0.00016060000000000033,4.49999999999999e-05,0.000606199915526906,-0.0004664305582169348,-0.005040208695458626
1504196930.53,-1.0,0.3611396929,-0.24348931285,0.06795027785,-0.036671,-0.01603,0.013365,-0.09479107889999999,-3.16659670495,-9.280846846949999,-0.010213,0.328796,1.778679,0.0007800000000000029,0.0001510000000000001,5.199999999999996e-05,0.0005848638716741128,-0.00046949214518643423,-0.004863932069249177
1504196930.54,-1.0,0.38344982164999997,-0.2711146459,0.061075816199999994,-0.035751,-0.024572,0.030455,-0.09121165165,-3.1675577566499995,-9.28055264745,-0.009828,0.328899,1.778739,0.0007699999999999929,0.00013890000000000083,5.199999999999996e-05,0.0004878912020434001,-0.00046501409843258124,-0.004661611249068054
1504196930.55,-1.0,0.37911528234999997,-0.24264594095,0.06677347985,-0.036875,-0.02776,0.037926,-0.08836772315,-3.1680480891499996,-9.28041535435,-0.009521,0.328952,1.778902,0.0007700000000000207,0.00012079999999999903,4.49999999999999e-05,0.0004367687339181803,-0.0004582586217145579,-0.004450614908567241
1504196930.56,-1.0,0.42272545489999996,-0.2295540632,0.05311281639999999,-0.024068,-0.024666,0.043274,-0.0848471358,-3.1691660472499996,-9.28006231495,-0.009143,0.329072,1.779109,0.0007599999999999829,9.729999999999982e-05,3.799999999999984e-05,0.0004143300942680561,-0.0004390435680343696,-0.0041652562888396805
1504196930.57,-1.0,0.44939954289999995,-0.19886905534999996,0.01326839745,-0.000529,-0.016327,0.044362,-0.08054201644999999,-3.1715686764999997,-9.27927778295,-0.008679,0.329331,1.779314,0.0007600000000000107,6.77000000000004e-05,2.6999999999999247e-05,0.00042909921106648596,-0.00040097668828043,-0.0038900925086549076
1504196930.58,-1.0,0.4828402194,-0.1506105307,0.07330470874999999,0.019714,-0.014363,0.053995,-0.07537391189999999,-3.17554036975,-9.27796369185,-0.008124,0.329759,1.779579,0.0007699999999999929,3.4700000000000356e-05,2.2000000000001185e-05,0.0005564250484890731,-0.00031764445621118576,-0.0035763564114814628
1504196930.59,-1.0,0.4859783474,-0.12062179499999999,0.06969586154999999,0.033573,-0.010215,0.063612,-0.0701371608,-3.1805319545999997,-9.27629656135,-0.007561,0.330297,1.779949,0.0007600000000000107,-4.500000000001031e-06,2.2999999999998716e-05,0.0007357953151134744,-0.0002696149467498188,-0.003336211780552212
1504196930.6,-1.0,0.483075579,-0.11561059685,0.041972461999999995,0.037816,-0.007055,0.074282,-0.06498866955,-3.1859942586499996,-9.274462717799999,-0.007007,0.330886,1.780423,0.00037999999999999146,8.690000000000087e-05,-6.799999999999862e-05,0.0008767310157586916,-0.00025006747849554145,-0.003051526554315287
1504196930.61,-1.0,0.58328973535,-0.23324136359999997,0.07815900049999999,0.026039,-0.006956,0.083861,-0.05835937414999999,-3.1927118139,-9.272187575,-0.006294,0.331611,1.780939,0.00035000000000001696,4.380000000000009e-05,-6.0000000000001025e-05,0.001014342244556543,-0.00023543479262388978,-0.002813652242583786
1504196930.62,-1.0,0.6394720332,-0.33904531044999997,0.10226374619999999,0.009992,-0.010013,0.089168,-0.05139665265,-3.1997333753,-9.2698143657,-0.005545,0.332368,1.781488,0.0003399999999999792,3.599999999999437e-06,-4.799999999999943e-05,0.001118984888839547,-0.0002529312962928909,-0.0025734207163041756
1504196930.63,-1.0,0.68300375255,-0.37383930465,0.09856663914999998,-0.002891,-0.018423,0.093422,-0.04435547795,-3.20578407835,-9.2677549692,-0.004786,0.333021,1.782055,0.0003200000000000147,-3.620000000000012e-05,-3.799999999999984e-05,0.0012402777058513337,-0.00031014744450819087,-0.0023772359289849776
1504196930.64,-1.0,0.74152983975,-0.41745928385000003,0.15379769194999998,0.000228,-0.0259,0.099837,-0.037186816799999994,-3.2127467998499997,-9.2653817599,-0.004013,0.333772,1.782665,0.0003100000000000047,-7.809999999999935e-05,-2.5999999999998247e-05,0.0014952833562971168,-0.0003762808217631086,-0.002221428091195299
1504196930.65,-1.0,0.7589562568,-0.455813092,0.21442240224999998,0.009746,-0.036621,0.101999,-0.03066539455,-3.2213766518499996,-9.2624005383,-0.003311,0.334704,1.783292,0.00030999999999997696,-0.00011960000000000096,-1.6000000000002124e-05,0.001812157743889431,-0.00036869554395257964,-0.0020426647025719724
1504196930.66,-1.0,0.7676155287499999,-0.4541067349,0.29246372294999995,0.017111,-0.051597,0.098836,-0.03827535494999999,-3.22278880945,-9.2618905925,-0.004133,0.334856,1.784351,0.0003100000000000047,-0.00015529999999999884,-4.000000000000531e-06,0.002079537640928608,-0.00031342638559928027,-0.0018051964964549416
1504196930.67,-1.0,0.7949760822499999,-0.45256709085,0.30674220535,0.021305,-0.065476,0.091396,-0.0469346269,-3.224622653,-9.261204127,-0.005068,0.335054,1.785348,0.0003100000000000047,-0.00017950000000000084,9.000000000002062e-06,0.00234427728120723,-0.00022751727840608638,-0.001581327447642833
1504196930.68,-1.0,0.8189435348499999,-0.4735827418,0.30349620419999995,0.012708,-0.07712,0.084997,-0.05653533725,-3.2260544238999995,-9.2606549546,-0.006105,0.335209,1.786267,0.0003200000000000147,-0.00020459999999999923,1.8999999999998185e-05,0.0026204704124321854,-9.22946094268351e-05,-0.001409411398470506
1504196930.69,-1.0,0.8195907737499999,-0.5104263258499999,0.28438304335,-0.010762,-0.086487,0.072155,-0.0522498312,-3.23545900125,-9.2573991468,-0.005644,0.336224,1.786549,0.00016999999999997573,-0.00023220000000000011,5.100000000000243e-05,0.003060923091283474,-2.088711739101079e-05,-0.001317817918157771
1504196930.7,-1.0,0.84116540375,-0.5729829462,0.27579241795,-0.039488,-0.083042,0.061425,-0.06230164745,-3.2324483597,-9.25838961845,-0.006729,0.335899,1.78722,0.00018000000000001348,-0.00027790000000000106,5.9999999999997555e-05,0.0035795030701826214,0.00013043004068080677,-0.0011723580553484325
1504196930.71,-1.0,0.8544926411,-0.62508567765,0.22584714949999998,-0.070323,-0.076383,0.050686,-0.07128453885,-3.226583983,-9.26037056175,-0.007698,0.335266,1.787776,0.00017999999999998573,-0.00032699999999999917,6.800000000000209e-05,0.0039952431530836385,5.0779351898899705e-05,-0.001200337824004638
1504196930.72,-1.0,0.83400654925,-0.6573985894,0.20295842839999997,-0.089329,-0.054909,0.045278,-0.0783355202,-3.2186602098,-9.2630673905,-0.008457,0.334411,1.788248,0.00020000000000000573,-0.0003747999999999998,7.199999999999915e-05,0.004456688405104714,0.00021734390232452938,-0.0010467942736742675
1504196930.73,-1.0,0.7884154333999999,-0.6512302065499999,0.18887607899999997,-0.101972,-0.035609,0.047348,-0.06910746255,-3.2210922589999997,-9.2623024718,-0.007461,0.334673,1.788217,0.00018999999999999573,-0.00042550000000000053,7.399999999999941e-05,0.004861809384045568,0.00033026680029069055,-0.0009246793647497142
1504196930.74,-1.0,0.7627514303499999,-0.6582615746,0.19092566884999998,-0.10715,-0.010002,0.0569,-0.07232404375,-3.2112169624499995,-9.265705379349999,-0.007805,0.333607,1.788783,0.00019000000000002348,-0.0004783999999999995,7.700000000000068e-05,0.005237358027194716,0.0004566567988331105,-0.0007125104383813863
1504196930.75,-1.0,0.7082951029,-0.6937224209999999,0.20815595289999997,-0.106974,0.016629,0.064326,-0.07338316195,-3.20119456615,-9.269157320149999,-0.007917,0.332526,1.789438,0.00018999999999999573,-0.0005310000000000002,8.199999999999874e-05,0.005563795413011219,0.000496621883339099,-0.0006292377665244597
1504196930.76,-1.0,0.6619881015999999,-0.6985963260499999,0.23843888809999997,-0.108953,0.040082,0.070685,-0.07242211024999999,-3.19108391,-9.2726582942,-0.00781,0.331435,1.79016,0.00017999999999998573,-0.0005811000000000002,8.800000000000127e-05,0.005836351670469364,0.00043226195006029755,-0.0005718034562721686
1504196930.77,-1.0,0.6045799725,-0.6754624386999999,0.24969692229999996,-0.109941,0.055011,0.082392,-0.05826130765,-3.1938689985999997,-9.271795309,-0.006283,0.331735,1.790578,0.00015999999999999348,-0.0006274000000000002,9.400000000000033e-05,0.006116328735193299,0.0002931934891694521,-0.0004890761172751112
1504196930.78,-1.0,0.58609443725,-0.69326150845,0.25070700725,-0.11107,0.057135,0.098398,-0.05607442469999999,-3.1835524027999997,-9.27535512295,-0.006045,0.330623,1.791572,0.00014000000000000123,-0.0006741999999999998,0.00010299999999999893,0.006383919410714478,0.00015534004222517162,-0.0004384150922244201
1504196930.79,-1.0,0.56681456335,-0.70646125935,0.26690759305,-0.103729,0.047483,0.112298,-0.04382591885,-3.18756332265,-9.274041031849999,-0.004726,0.331055,1.792337,0.000130000000000019,-0.0007160000000000001,0.00011099999999999999,0.006744091032486521,9.919471673125457e-05,-0.00032346574624231295
1504196930.8,-1.0,0.5351488904999999,-0.6960956303,0.2870798721,-0.085704,0.040938,0.128347,-0.0335583563,-3.19297659345,-9.272226801599999,-0.00362,0.331639,1.793292,0.0003100000000000047,-0.0004916,7.300000000000015e-05,0.006925835329495866,9.030173751156667e-05,-0.0001775941976569495
1504196930.81,-1.0,0.51825203255,-0.6431299136499999,0.30089744194999996,-0.050528,0.045969,0.14654,-0.02399687255,-3.20031196765,-9.26972610585,-0.002589,0.33243,1.794446,0.0002999999999999947,-0.0005043999999999999,7.300000000000015e-05,0.00696198455843744,0.00014810863550662745,5.299354394638911e-06
1504196930.82,-1.0,0.47776037469999993,-0.57958282165,0.3568247669,-0.015179,0.071248,0.162563,-0.01372931,-3.2104422370999997,-9.2662447451,-0.001482,0.333523,1.795804,0.00028000000000000247,-0.0004954999999999998,6.300000000000056e-05,0.006655782268256472,0.00023840634823035778,0.0002479478754525699
1504196930.83,-1.0,0.46621794764999996,-0.5639608281999999,0.45823533454999993,0.008421,0.092365,0.174304,-0.0020397832,-3.22351450155,-9.2617140728,-0.00022,0.334934,1.797297,0.00022999999999998022,-0.0004603000000000001,4.0000000000000105e-05,0.005991584640080205,0.00030172126885097406,0.000478525897068538
1504196930.84,-1.0,0.46117732954999996,-0.55704713995,0.4707192,0.015881,0.099756,0.191378,0.01003220295,-3.23745955785,-9.25684016775,0.001084,0.336441,1.798957,0.000130000000000019,-0.00038223,-4.999999999999796e-06,0.004546695031669268,0.0003534665124280689,0.0008299453405163915
1504196930.85,-1.0,0.4615401756,-0.57048225045,0.46545302894999996,0.019999,0.095443,0.218073,0.0213392704,-3.2520028198,-9.251721096449998,0.002306,0.338012,1.800868,-2.0000000000020002e-05,-0.00023589999999999993,-8.000000000000021e-05,0.001984847194472339,0.0003337661922226953,0.0012275684147942112
1504196930.86,-1.0,0.44534939645,-0.6060117434,0.50656250575,0.012309,0.077383,0.237301,0.030047575599999998,-3.2669089278,-9.24644511875,0.003249,0.339624,1.803031,-0.00019999999999997797,-5.439000000000008e-05,-0.00016900000000000075,-0.0009140833415806071,3.149783631362091e-05,0.0010346105373020276
1504196930.87,-1.0,0.42636372205,-0.6197018268,0.5480740552,-0.002907,0.048733,0.251199,0.035264713399999995,-3.2810501170999995,-9.241424113949998,0.003816,0.341153,1.80538,-0.00032999999999999696,8.830000000000003e-05,-0.00023699999999999936,-0.0031511370224830415,-0.00017504360850439937,0.0005410022075775789
1504196930.88,-1.0,0.42681482795,-0.6124350991499999,0.54606369195,-0.022334,0.023321,0.258678,0.03766734265,-3.2934064961,-9.23701112145,0.004078,0.342491,1.807818,-0.0004300000000000137,0.00019729000000000003,-0.00028400000000000127,-0.004586798374109691,-0.00016116349265238306,0.0001989275738956131
1504196930.89,-1.0,0.4189989279,-0.58570217125,0.5275879633499999,-0.041697,0.003241,0.261879,0.03754966285,-3.3032229527499997,-9.233510147399999,0.004067,0.343554,1.810317,-0.0004699999999999982,0.00015523000000000002,-0.0002260000000000005,-0.0055365687521602425,7.467210937739388e-05,0.0002086190242660546
1504196930.9,-1.0,0.38053724659999993,-0.5666086237,0.5330012341499999,-0.052407,-0.001993,0.26507,0.03560794615,-3.3115487985999996,-9.23053873245,0.003858,0.344455,1.812873,-0.0004899999999999904,0.0002257,-0.00023799999999999863,-0.006208309691156488,0.0003757088549698473,0.0003313076754702937
1504196930.91,-1.0,0.3288758144,-0.5429745972,0.52154706695,-0.052242,0.017194,0.266102,0.03384274915,-3.3188645594999997,-9.22791055025,0.003668,0.345248,1.815477,-0.0004900000000000182,0.00028819999999999996,-0.0002480000000000017,-0.006821395666843921,0.000674852438140805,0.0004089205553841069
1504196930.92,-1.0,0.2479513386,-0.5333052402999999,0.55412475825,-0.04451,0.053358,0.27459,0.03337202995,-3.3268962058500002,-9.2250175885,0.003617,0.346119,1.818205,-0.0004899999999999904,0.0003447000000000001,-0.00026299999999999935,-0.007390370605084184,0.0007953936732500999,0.00036250599327614097
1504196930.93,-1.0,0.22383678625,-0.5679227147999999,0.6377558694499998,-0.044259,0.093836,0.292666,0.03562755945,-3.33642826965,-9.221575454349999,0.003864,0.347151,1.821118,-0.0005000000000000004,0.00037359999999999976,-0.00027699999999999947,-0.007735565869235073,0.0007446309049250477,0.00015637567182502643
1504196930.94,-1.0,0.18856226619999997,-0.61102294155,0.6862889803,-0.046297,0.117279,0.315038,0.039030467,-3.3465977657,-9.21786854065,0.004235,0.348254,1.824292,-0.0005000000000000004,0.00035630000000000037,-0.00027800000000000047,-0.007628213500779912,0.0006241311803520944,-0.0001414623696052164
1504196930.95,-1.0,0.15775957855,-0.6705591136999999,0.59290025235,-0.058036,0.125886,0.33315,0.04215878835,-3.35604156965,-9.2144264065,0.004575,0.34928,1.827694,-0.0004899999999999904,0.00029679999999999984,-0.00026199999999999835,-0.007015652468566502,0.00046780911585875273,-0.0004678050817107371
1504196930.96,-1.0,0.12819252879999998,-0.7445993211999999,0.4530280034,-0.062375,0.113141,0.331033,0.043894565399999995,-3.3653480804999996,-9.211023498949999,0.004765,0.35029,1.831171,-0.00046000000000001595,0.0002073000000000001,-0.00022900000000000004,-0.006108181475773744,0.00033308260086650776,-0.0006063907157208837
1504196930.97,-1.0,0.1658304515,-0.79089651585,0.35929604269999993,-0.048545,0.089616,0.305483,0.0450125235,-3.37532144355,-9.207365618499999,0.004889,0.351372,1.834408,-0.00042999999999998595,9.739999999999966e-05,-0.00018500000000000114,-0.004909437038582043,0.00020162539869916785,-0.0006519543651690718
1504196930.98,-1.0,0.2194139871,-0.8258474164499999,0.31121403774999995,-0.03253,0.061829,0.262865,0.045895122,-3.3876484025999996,-9.2028349462,0.004987,0.352712,1.837194,-0.0003800000000000192,-1.909999999999976e-05,-0.0001339999999999987,-0.0035488567077235356,9.74334365451135e-05,-0.0005527096408495247
1504196930.99,-1.0,0.2901199336,-0.8721642244,0.31446984554999996,-0.015507,0.026576,0.22026,0.046571780849999994,-3.4019268849999995,-9.1975589685,0.005063,0.354264,1.839461,-0.0003399999999999792,-0.00012550000000000018,-7.300000000000015e-05,-0.0020817466382381244,6.635373067886974e-05,-0.00033001952578803895
1504196931.0,-1.0,0.34190885225,-0.9196578303499999,0.33622099525,-0.019911,-0.015965,0.184034,0.045502855999999994,-3.41713699915,-9.19192014475,0.004951,0.355918,1.841284,-0.00012000000000000899,-0.00022159999999999975,-6.199999999999956e-05,-0.0007588486089900037,6.290848330836596e-05,-5.146117723753285e-05
1504196931.01,-1.0,0.31533283075,-0.9689558599,0.2702320474,-0.026387,-0.042523,0.156317,0.0366180311,-3.4148324364000002,-9.19282235655,0.003983,0.355667,1.843022,-7.999999999999674e-05,-0.00030429999999999997,-1.5000000000001124e-05,0.0004821518906608091,5.260533729245509e-05,3.6216931395216534e-05
1504196931.02,-1.0,0.31278310174999996,-1.0282860924,0.17386209785,-0.042499,-0.064753,0.142452,0.0261445289,-3.41131184905,-9.1941658676,0.002843,0.355284,1.844573,-4.000000000001225e-05,-0.00038140000000000005,2.1000000000000185e-05,0.0016010837356186247,-3.131358346331048e-05,9.409158893480818e-05
1504196931.03,-1.0,0.2807055496,-1.07332803585,0.12318133064999999,-0.033978,-0.071209,0.135006,0.014974754549999999,-3.40801681465,-9.19541131215,0.001629,0.354926,1.846032,-1.9999999999992246e-05,-0.0004426,5.000000000000143e-05,0.002411260245679614,-0.00011699358205485844,0.00021498642635853216
1504196931.04,-1.0,0.24445036455,-1.07013106795,0.0418351689,-0.034921,-0.062663,0.128586,0.0085906254,-3.4219912908999994,-9.190223594299999,0.000934,0.356446,1.847261,-1.9999999999992246e-05,-0.0004847,6.999999999999715e-05,0.002988148983276595,-0.0002455201803859275,0.00033929051515557695
1504196931.05,-1.0,0.22000238609999997,-1.05940259285,-0.057133542899999994,0.001539,-0.044839,0.120079,-0.00018632635,-3.4213440520000002,-9.190468760549999,-2e-05,0.356376,1.848561,-3.0000000000002247e-05,-0.0005136200000000001,8.700000000000027e-05,0.0033811924910376323,-0.00036173419581175814,0.00037874159376338756
1504196931.06,-1.0,0.19629971305,-1.0288548781,-0.12975178615,0.033722,-0.021663,0.122228,-0.0067077486,-3.4234622884,-9.18968422855,-0.00073,0.356606,1.849837,-4.000000000001225e-05,-0.00052754,9.99999999999994e-05,0.003595823873347115,-0.00043131636475290946,0.00042033387802820066
1504196931.07,-1.0,0.17683351279999998,-0.96865185375,-0.2108625883,0.076406,-0.008183,0.142559,-0.012385798949999999,-3.4294933781499997,-9.18742869905,-0.001348,0.357263,1.851298,-4.999999999999449e-05,-0.00052389,0.00010500000000000093,0.003600929546921261,-0.0004034051865284827,0.00045123474671227015
1504196931.08,-1.0,0.12027856225,-0.88990445425,-0.33157264315,0.117993,-1.9e-05,0.163967,-0.016131939249999998,-3.45212712635,-9.17893614015,-0.001758,0.359727,1.852926,-6.999999999998674e-05,-0.0004993700000000001,9.900000000000186e-05,0.0033298029533204154,-0.00031382796384749057,0.0005235285193152528
1504196931.09,-1.0,0.055299699349999995,-0.8447252177,-0.44849733109999995,0.160763,-0.003626,0.173732,-0.0223787753,-3.4657289499,-9.17379745555,-0.00244,0.36121,1.854776,-0.00012000000000000899,-0.00045858,8.099999999999774e-05,0.002800215325353239,-0.00020094494172351318,0.0005924600483200315
1504196931.1,-1.0,0.03384274915,-0.8112649278999999,-0.52964735985,0.20136,-0.002885,0.164194,-0.0284588983,-3.4831847869,-9.16716816015,-0.003105,0.363113,1.856573,-0.00010999999999999899,-0.0004224000000000001,9.400000000000033e-05,0.002137844775793374,-0.0001029677171708876,0.0005656230800759054
1504196931.11,-1.0,0.00581534345,-0.75039505135,-0.5715707886,0.243065,-0.001081,0.148252,-0.0339506223,-3.50439657085,-9.1590580606,-0.003707,0.365428,1.85822,-0.00015000000000001124,-0.00037849999999999993,6.899999999999962e-05,0.001466555547015691,1.3867910708009745e-05,0.0005482206994931182
1504196931.12,-1.0,-0.02640930845,-0.70577479385,-0.5701978576,0.279507,0.005036,0.12696,-0.038834334,-3.5373567214999997,-9.146368255499999,-0.004246,0.369029,1.859666,-0.00017000000000000348,-0.00034210000000000013,4.60000000000009e-05,0.0009134273403288429,8.205479043454922e-05,0.0004949350858982626
1504196931.13,-1.0,-0.05812401455,-0.7169641814999999,-0.5526733740499999,0.313645,-0.002693,0.115291,-0.0430315802,-3.5653645138999996,-9.1354632607,-0.004711,0.372093,1.860935,-0.00017999999999998573,-0.00031539999999999997,2.9000000000001247e-05,0.00046597911088896993,9.233456474055934e-05,0.0004019355274011982
1504196931.14,-1.0,-0.07669780964999999,-0.7232502441499999,-0.5236947233,0.358413,-0.014772,0.104716,-0.0479545185,-3.5970890266499995,-9.12299900855,-0.005256,0.375568,1.862114,-0.00018999999999999573,-0.00029679999999999984,1.1999999999998123e-05,0.00017115753933905076,7.366101718586648e-05,0.00027088915563533433
1504196931.15,-1.0,-0.10485270179999999,-0.6957229775999999,-0.48265389304999995,0.409634,-0.018383,0.097339,-0.053171656299999995,-3.6331480786999997,-9.1086714929,-0.005837,0.379523,1.863208,-0.00020000000000000573,-0.0002834999999999999,-2.999999999999531e-06,-5.3154326422610865e-06,-3.0651995310826408e-06,0.00015826793058981714
1504196931.16,-1.0,-0.10571568699999999,-0.64018791865,-0.40229820294999996,0.461975,-0.016676,0.089959,-0.0600755379,-3.68179886935,-9.089067999549998,-0.00661,0.38487,1.864314,-0.00021000000000001573,-0.0002771000000000002,-1.2999999999999123e-05,-5.6482605768737315e-05,-0.00010367626700991117,-1.9661323291009225e-05
1504196931.17,-1.0,-0.12782968274999998,-0.5619798849,-0.2780577541,0.483428,-0.008318,0.080375,-0.0641551043,-3.72528155545,-9.07129834975,-0.007072,0.389659,1.865247,-0.00019999999999997797,-0.00027789999999999976,-1.5000000000001124e-05,4.204225310999732e-06,-0.0002479295502744172,-0.00018098676518119028
1504196931.18,-1.0,-0.1449619003,-0.5411897869,-0.23106428729999998,0.487827,-0.001944,0.06436,-0.06707748599999999,-3.7697252932499996,-9.05290107435,-0.007409,0.394563,1.866023,-0.00018999999999999573,-0.0002877000000000001,-1.1999999999998123e-05,0.00011715371284215514,-0.00036338224965204446,-0.0004134171849525803
1504196931.19,-1.0,-0.1198568763,-0.5333248536,-0.20400773994999996,0.468816,0.011019,0.046159,-0.06838177044999999,-3.8125999670499997,-9.034925484899999,-0.007569,0.399303,1.866609,-0.000130000000000019,-0.00028310000000000054,9.999999999975306e-07,0.0003126819912213641,-0.0004440490396773189,-0.0006223598542390851
1504196931.2,-1.0,-0.07778634779999999,-0.48915570199999997,-0.19136696809999998,0.444508,0.028286,0.029011,-0.06886229629999999,-3.85961304715,-9.01492972555,-0.007638,0.404513,1.867068,-9.000000000000674e-05,-0.00029859999999999956,8.000000000001062e-06,0.0004749316854304464,-0.00047183809848405645,-0.0008607693734813404
1504196931.21,-1.0,-0.0510926465,-0.43226732534999995,-0.18959196444999998,0.399952,0.043599,0.002221,-0.06577320155,-3.8968979304499993,-8.99890565945,-0.007309,0.408653,1.867214,-5.999999999997674e-05,-0.00031389999999999977,1.5000000000001124e-05,0.000744742676872745,-0.0004808490115140174,-0.0010648392607204293
1504196931.22,-1.0,-0.038020382049999996,-0.32229555224999995,-0.2070968347,0.335212,0.061224,-0.038483,-0.059545978799999996,-3.9286126365499996,-8.985146929499999,-0.006627,0.412179,1.866943,-2.0000000000020002e-05,-0.0003290000000000003,2.2999999999998716e-05,0.0009799202091786974,-0.000394783421075795,-0.0012948052867770565
1504196931.23,-1.0,-0.026213175449999997,-0.16950794525,-0.3474888361,0.265185,0.087413,-0.074942,-0.0497981687,-3.9540510866499994,-8.97403599505,-0.005549,0.415012,1.866237,2.0000000000020002e-05,-0.0003407000000000002,3.099999999999978e-05,0.0012296647993430554,-0.0003096581850954294,-0.0015011236182652654
1504196931.24,-1.0,-0.015533733599999999,-0.034185981899999995,-0.5239104696,0.195021,0.108256,-0.093247,-0.03698087715,-3.97011437935,-8.967004627,-0.004125,0.416803,1.865267,5.999999999997674e-05,-0.0003538999999999999,3.799999999999984e-05,0.001450340551568008,-0.0002745956210967737,-0.0017000711750344566
1504196931.25,-1.0,0.0291649771,0.028252958649999996,-0.6283120655,0.136386,0.114067,-0.093359,-0.02303582085,-3.9836279430499997,-8.9610617971,-0.00257,0.41831,1.864233,7.00000000000145e-05,-0.0003654999999999995,4.49999999999999e-05,0.0015799208998528158,-0.0002007304718463221,-0.001917082250256219
1504196931.26,-1.0,0.054211161199999996,0.052524417399999995,-0.7830217759,0.081804,0.101715,-0.079556,-0.0102185293,-3.9920322420999996,-8.957345076749998,-0.00114,0.419248,1.863323,9.999999999998899e-05,-0.00037430000000000015,5.6000000000000494e-05,0.001651301810522865,-0.00016816070809921868,-0.0020922012793931355
1504196931.27,-1.0,0.00473661195,0.07438344024999999,-0.9419189258499999,0.036696,0.071173,-0.068906,-9.80665e-05,-3.9963863946999996,-8.95540336005,-1.1e-05,0.419734,1.862545,0.00010999999999999899,-0.0003795000000000005,6.400000000000156e-05,0.0016662039103430004,-0.00013345117307550503,-0.0022597486504289943
1504196931.28,-1.0,-0.0693330155,0.13694986725,-1.0721610444999998,0.000141,0.039502,-0.06678,0.0054328841,-3.98607960555,-8.959992872249998,0.000606,0.418584,1.861875,0.00010999999999999899,-0.00037689999999999946,6.600000000000009e-05,0.0015067063696643235,-0.0001414883334043271,-0.0024108937383421347
1504196931.29,-1.0,-0.22871069129999996,0.27139903875,-1.2906335932,-0.00645,0.011857,-0.073147,0.010091042849999999,-3.9854029466999994,-8.960287071749999,0.001126,0.418509,1.861085,0.00014000000000000123,-0.00031579999999999976,6.899999999999962e-05,0.0012470487439710798,-0.00013623183594924093,-0.0025163906721809015
1504196931.3,-1.0,-0.3985814826,0.4512628064,-1.3439523492499998,0.033868,-0.018308,-0.076226,0.0122190859,-3.98719756365,-8.9594927331,0.001364,0.418709,1.86025,0.00012000000000000899,-0.00030520000000000026,6.199999999999956e-05,0.0008965854306042242,-0.00015258427143938214,-0.0026397042547345873
1504196931.31,-1.0,-0.5614797457499999,0.64216886195,-1.3199750899999998,0.122161,-0.042493,-0.062154,0.011562040349999999,-3.99584702895,-8.955638719649999,0.001291,0.419675,1.859531,9.000000000000674e-05,-0.00029110000000000073,4.999999999999796e-05,0.0005083045308866829,-0.0001889943865713839,-0.002719760553988926
1504196931.32,-1.0,-0.7660268514499999,0.8517271658,-1.1973723517,0.238294,-0.050929,-0.042725,0.009002504699999999,-4.0144698573,-8.94730306715,0.001006,0.421755,1.859013,6.999999999998674e-05,-0.00027469999999999925,3.900000000000084e-05,0.00020733604104616887,-0.00022959658363497226,-0.0027394484033279043
1504196931.33,-1.0,-0.9143818526499999,1.0312477007,-0.9679261616499999,0.352406,-0.04975,-0.030788,0.00577611685,-4.04389961395,-8.93404447635,0.000647,0.425047,1.858642,4.000000000001225e-05,-0.0002675000000000004,2.5000000000000716e-05,-6.410175485083158e-06,-0.0002596050941310324,-0.0026719419822744395
1504196931.34,-1.0,-0.9607182738999999,1.12585245325,-0.72007288955,0.449477,-0.046317,-0.028474,-0.0197113665,-4.0553047479,-8.9288567585,-0.002207,0.426324,1.859374,3.0000000000002247e-05,-0.0002737999999999994,1.2999999999999123e-05,-7.60745016621378e-05,-0.00029906665532553056,-0.002634010851743529
1504196931.35,-1.0,-1.0120658933,1.2183095494499998,-0.5700899844499999,0.491101,-0.046656,-0.031603,-0.022525875049999998,-4.098385361349999,-8.90915519865,-0.002529,0.431154,1.859039,3.0000000000002247e-05,-0.0002905000000000008,2.999999999999531e-06,-2.4033244720111924e-05,-0.000323992683631813,-0.0025922626370180613
1504196931.36,-1.0,-0.9911385022,1.26724473295,-0.5239889228,0.505081,-0.038237,-0.040133,-0.024604884849999998,-4.14328020505,-8.888365100649999,-0.002768,0.436199,1.858634,1.9999999999992246e-05,-0.0003119999999999998,-1.9999999999985307e-06,6.501971483707791e-05,-0.0003735096599282173,-0.0025601327994491108
1504196931.37,-1.0,-0.9728196799999999,1.2650284300499999,-0.48592931414999996,0.482761,-0.029525,-0.04339,-0.025565936549999998,-4.186851151,-8.8679182354,-0.002883,0.441106,1.858182,1.0000000000010001e-05,-0.0003383999999999991,1.000000000001e-06,0.00017480266579239512,-0.00045511978218426563,-0.0024990586694663697
1504196931.38,-1.0,-0.90673266565,1.20487443895,-0.36932824565,0.426156,-0.035474,-0.048798,-0.048562530799999996,-4.1998743822,-8.8616615927,-0.005479,0.442575,1.858746,3.0000000000002247e-05,-0.00036500000000000074,1.2999999999999123e-05,0.00035847152836843144,-0.00048366794969245674,-0.002490587596877869
1504196931.39,-1.0,-0.84620602185,1.1562530682499998,-0.3534512793,0.348194,-0.052933,-0.061711,-0.050278694549999996,-4.23250110675,-8.846118052449999,-0.005683,0.446261,1.85812,2.999999999997449e-05,-0.0003949999999999995,3.299999999999831e-05,0.0006616089736584119,-0.0005436788475714494,-0.002493648616941402
1504196931.4,-1.0,-0.8017720906999999,1.1735814188,-0.35272558719999997,0.268199,-0.065036,-0.086379,-0.0525048041,-4.2580670433,-8.83383032,-0.005944,0.449152,1.857251,0.00010999999999999899,-0.0003910000000000007,7.200000000000262e-05,0.000836951838050437,-0.0005245531125102065,-0.0025625760707054246
1504196931.41,-1.0,-0.7523759946499999,1.1710611097499999,-0.2687218233,0.179766,-0.07173,-0.121744,-0.054024834849999995,-4.275895533,-8.825200468,-0.006122,0.451171,1.856019,0.00014000000000000123,-0.00042299999999999977,9.099999999999733e-05,0.0011604246687955122,-0.000501892891971778,-0.0025987317996389314
1504196931.42,-1.0,-0.67649213695,1.14572072615,-0.11569885669999999,0.089252,-0.075219,-0.169916,-0.07200042429999999,-4.2605775456999995,-8.8324770023,-0.008151,0.449436,1.855168,0.00015000000000001124,-0.0004519999999999993,0.0001030000000000024,0.0013936903845708226,-0.0004543115025481548,-0.002657770048701491
1504196931.43,-1.0,-0.6444145848,1.13436462545,-0.0232417605,0.003205,-0.066987,-0.231988,-0.06905842929999999,-4.262842881849999,-8.83140807745,-0.007819,0.449693,1.852771,0.00017000000000000348,-0.000478000000000001,0.00010499999999999746,0.0015248853993465872,-0.00039766065603585865,-0.0027191828706944476
1504196931.44,-1.0,-0.6617135153999999,1.1884483002,0.027801852749999998,-0.065725,-0.042928,-0.278049,-0.06192899475,-4.258567182449999,-8.83352631385,-0.007011,0.449209,1.849784,0.00017999999999998573,-0.000501999999999999,0.0001020000000000014,0.0016767171149623117,-0.0003726848894860524,-0.002751685287723016
1504196931.45,-1.0,-0.70883446865,1.2633024596499998,0.08664175275000001,-0.109194,-0.021237,-0.298443,-0.05162220559999999,-4.249927523799999,-8.83775298,-0.005841,0.448231,1.84651,0.00018000000000001348,-0.0005280000000000007,9.699999999999986e-05,0.001826772646182695,-0.00035972078872203994,-0.0027761595604057776
1504196931.46,-1.0,-0.7740584978,1.2626846407,0.22218926905,-0.150732,-0.012386,-0.305988,-0.06032070415,-4.21263283385,-8.85553243645,-0.006812,0.444016,1.844119,0.00020000000000000573,-0.0005559999999999992,9.299999999999933e-05,0.002041660670071499,-0.0003767708236608325,-0.002810954547191824
1504196931.47,-1.0,-0.8301721490999999,1.2455720364499998,0.25899362649999996,-0.187125,-0.027004,-0.306025,-0.04939609605,-4.1970206470499996,-8.8630149104,-0.005573,0.442253,1.840711,0.00020999999999998797,-0.000589000000000001,9.400000000000033e-05,0.002404814617987805,-0.0003085042351500533,-0.0027950424132775487
1504196931.48,-1.0,-0.8015563444,1.2273807007,0.25221723134999996,-0.21191,-0.052384,-0.297484,-0.04090353715,-4.1788293112999995,-8.871644762399999,-0.00461,0.440202,1.837377,0.00021999999999999797,-0.0006169999999999995,0.00010299999999999893,0.002871275704605658,-0.00029015976715007774,-0.0027510999754007948
1504196931.49,-1.0,-0.78361998155,1.1976077112999999,0.22412117909999998,-0.22077,-0.084293,-0.283567,-0.03564717275,-4.1593827243499994,-8.8808041735,-0.004013,0.438011,1.83419,0.00023000000000000798,-0.0006410000000000009,0.00011200000000000099,0.0033254784112992652,-0.00019274601847185657,-0.002669367222368768
1504196931.5,-1.0,-0.7483650748,1.1694724324499999,0.25672829035,-0.210457,-0.111063,-0.261074,-0.05278919694999999,-4.1180869212,-8.899946754299998,-0.005932,0.433365,1.832119,0.00023999999999999022,-0.0006679999999999985,0.00011900000000000105,0.0037252297440271143,-0.00014259148762651996,-0.002635967310320453
1504196931.51,-1.0,-0.7224166788999999,1.19128242205,0.25823851444999996,-0.161678,-0.128548,-0.228936,-0.05420135455,-4.102474734399999,-8.90713502875,-0.006086,0.431613,1.829483,0.0004300000000000137,-0.0007020000000000012,0.00013299999999999944,0.004143995481983964,-8.059516119240939e-05,-0.002626435151770634
1504196931.52,-1.0,-0.7424418582,1.1888013396,0.27033992055,-0.072266,-0.133582,-0.194616,-0.05767290864999999,-4.09401159545,-8.9110086555,-0.006472,0.430663,1.827238,0.00042999999999998595,-0.0007290000000000005,0.00012400000000000085,0.004384430610643086,-1.9893688728123138e-05,-0.002558755402808588
1504196931.53,-1.0,-0.7643597209499999,1.21279821215,0.40245510934999995,0.041717,-0.136685,-0.163458,-0.06283120655,-4.0952668466499995,-8.9104006432,-0.007051,0.430804,1.825356,0.00041000000000002146,-0.0007519999999999992,0.00010699999999999946,0.004410259958296692,-6.864106233406275e-05,-0.002437194092396844
1504196931.54,-1.0,-0.7743625039500001,1.23537312045,0.5734340521,0.141918,-0.1354,-0.143006,-0.068842683,-4.1060247417,-8.905399251699999,-0.007731,0.432011,1.823731,0.0003999999999999837,-0.0007680000000000013,8.599999999999927e-05,0.004295039083823227,-0.0001006495184801004,-0.002299802813521712
1504196931.55,-1.0,-0.71630713595,1.1935477581999998,0.7103741127,0.195249,-0.13265,-0.135447,-0.07512874565,-4.12270585335,-8.897642191549998,-0.008444,0.433885,1.822243,0.0003700000000000092,-0.0007799999999999994,7.300000000000015e-05,0.004106426309700151,-7.481229498185193e-05,-0.002176989119210493
1504196931.56,-1.0,-0.6467583741499999,1.0733378425,0.81068633555,0.185679,-0.132564,-0.141868,-0.08122848195,-4.1398674908499995,-8.889620351849999,-0.009137,0.435814,1.820725,0.0003599999999999992,-0.0007950000000000006,6.399999999999982e-05,0.004006308409033821,-3.9889837683659835e-05,-0.0020286461229674924
1504196931.57,-1.0,-0.5703743773,0.8718798315499999,0.7809427660999999,0.119744,-0.111765,-0.151625,-0.08564147444999999,-4.152527876,-8.8836677153,-0.00964,0.437239,1.819101,0.0003499999999999892,-0.0008190000000000003,6.100000000000029e-05,0.004149966101060887,4.100840445486753e-05,-0.001934404053679728
1504196931.58,-1.0,-0.5173105941499999,0.6702747208499998,0.7601330547999999,0.052918,-0.067517,-0.159291,-0.08632793995,-4.1589218118,-8.8806668804,-0.009721,0.437959,1.817367,0.00035000000000001696,-0.0008570000000000001,6.800000000000035e-05,0.004472954503734083,8.146698153344012e-05,-0.001866990808308877
1504196931.59,-1.0,-0.5089161017499999,0.4808788894,0.84361706625,-0.036225,-0.010301,-0.163816,-0.08169920115,-4.157774433749999,-8.881245472749999,-0.009199,0.43783,1.815562,0.0003399999999999792,-0.000902,8.099999999999948e-05,0.004862367041727156,0.0001674080864497718,-0.0017466487433620559
1504196931.6,-1.0,-0.5085532557,0.3312882503,0.9569721336,-0.114842,0.029777,-0.167225,-0.0729418627,-4.149448587899999,-8.885226972649999,-0.008209,0.436892,1.813712,0.00034000000000000696,-0.0009439999999999969,9.60000000000006e-05,0.005236029714911439,0.0002586723496442733,-0.0015394236716419485
1504196931.61,-1.0,-0.50305172505,0.2078029135,1.0500960819999998,-0.183019,0.043126,-0.167367,-0.06227222749999999,-4.134748419549999,-8.89215046755,-0.007003,0.435239,1.81185,0.0003499999999999892,-0.0009399999999999999,0.0001410000000000005,0.0057055192960071555,0.0003288475837133209,-0.0013023149289944635
1504196931.62,-1.0,-0.47728965549999997,0.11757192685,1.12936323395,-0.225896,0.02216,-0.161,-0.05302455655,-4.1155862254499995,-8.90109413235,-0.005957,0.433085,1.810041,0.0003599999999999992,-0.0009840000000000022,0.0001510000000000001,0.0062177746247988885,0.00038797522495759296,-0.0011234228955221415
1504196931.63,-1.0,-0.45361640239999995,0.0686857766,1.13191296295,-0.244263,-0.008587,-0.164179,-0.04647371435,-4.0942371483999995,-8.91097923555,-0.005215,0.430687,1.808241,0.00036000000000002697,-0.0010349999999999977,0.00015800000000000015,0.00687702681308755,0.0003121285314044986,-0.0010415831117054353
1504196931.64,-1.0,-0.45082150714999997,0.0158671597,1.1056605608999999,-0.242349,-0.037372,-0.16626,-0.04253144104999999,-4.0725448386,-8.920932985299999,-0.004768,0.428255,1.806409,0.0003599999999999992,-0.0010880000000000022,0.00016099999999999969,0.007649375466287411,0.0001395955535081761,-0.0010948769775799283
1504196931.65,-1.0,-0.4135660438,-0.03667687099999999,1.0653748426999998,-0.231833,-0.059831,-0.171539,-0.04058972435,-4.051568414249999,-8.9304846624,-0.004545,0.425905,1.804528,0.0003599999999999992,-0.0011409999999999997,0.00016199999999999895,0.008475247463594515,-5.711373128969299e-05,-0.0011924496118046468
1504196931.66,-1.0,-0.42704038089999996,-0.07394214099999999,1.0091631249,-0.229763,-0.072646,-0.175772,-0.05329914274999999,-4.044380139799999,-8.93367182365,-0.005966,0.4251,1.803217,0.00036999999999998145,-0.0011979999999999977,0.00015900000000000115,0.00929876940798069,-0.00017936417956398998,-0.0011258722769150742
1504196931.67,-1.0,-0.43007063574999993,-0.143765489,0.9053205080499999,-0.237289,-0.083234,-0.181104,-0.053259916149999996,-4.0234919753,-8.943105820949999,-0.005956,0.422763,1.801219,0.00039000000000000146,-0.0012640000000000012,0.00015399999999999962,0.010316367568981244,-0.00021119298934757502,-0.001112522780924774
1504196931.68,-1.0,-0.42726593384999995,-0.2120589996,0.7814723251999999,-0.236302,-0.093897,-0.182151,-0.0541130947,-4.0023292245999995,-8.9525888515,-0.006045,0.420399,1.799206,0.0004300000000000137,-0.001347000000000001,0.0001349999999999997,0.011929657568477525,-0.00045199726625866354,-0.001280559576130158
1504196931.69,-1.0,-0.4264912085,-0.26001351809999995,0.7179056198999999,-0.227895,-0.104632,-0.173578,-0.056241137749999996,-3.98176467955,-8.96173845595,-0.006275,0.418102,1.797253,0.00043999999999999595,-0.0014279999999999987,0.00010199999999999966,0.013425777288061269,-0.0008488032620288521,-0.0015451126452373787
1504196931.7,-1.0,-0.42224492904999994,-0.30165255399999996,0.6932713151000001,-0.208819,-0.113346,-0.157508,-0.07320664225,-3.9779891192999997,-8.9632977133,-0.008167,0.417681,1.796071,0.00043999999999999595,-0.0014390000000000028,9.200000000000007e-05,0.014196975388040212,-0.0011865443890386462,-0.0017914422586446932
1504196931.71,-1.0,-0.4668063466499999,-0.3236586766,0.6727459966499999,-0.183363,-0.116778,-0.132908,-0.07802170739999999,-3.9610628413999995,-8.97074096065,-0.008698,0.415794,1.794534,0.0004099999999999937,-0.0014869999999999953,7.400000000000115e-05,0.014337744345366943,-0.0013596949843059924,-0.0019660945903843263
1504196931.72,-1.0,-0.5170262013,-0.38141003844999993,0.6664893539499999,-0.162147,-0.11485,-0.105122,-0.08407241045,-3.9462547998999997,-8.97721334965,-0.009364,0.414144,1.793298,0.0004200000000000037,-0.0015320000000000056,6.299999999999882e-05,0.01438698454901477,-0.0013411322579535145,-0.0020221803314867115
