Time,placement_label,user_acc_x(m/s^2),user_acc_y(m/s^2),user_acc_z(m/s^2),rotation_rate_x(rad/s),rotation_rate_y(rad/s),rotation_rate_z(rad/s),gravity_x(m/s^2),gravity_y(m/s^2),gravity_z(m/s^2),attitude_roll(rad),attitude_pitch(rad),attitude_yaw(rad),target_delta_x,target_delta_y,target_delta_z,target_delta_roll,target_delta_pitch,target_delta_yaw
1504197801.51,-1.0,-0.10915782115,-0.12414238235,-0.06506712275,-0.024063,-0.001506,-0.002097,0.64530698995,-9.586588773999999,1.9624675713999997,2.823905,1.358549,1.642737,0.0,0.0,0.0,0.0,0.0,0.0
1504197801.52,-1.0,-0.10973641349999999,-0.10964815365,-0.0763741902,-0.019831,-0.003675,0.001119,0.6433358532999999,-9.5874713725,1.95880969095,2.824258,1.358976,1.642374,0.00014999999999998348,-9.999999999998899e-05,3.0000000000030003e-06,-0.00014669008932299832,-4.323422766239204e-06,-1.2665110587617434e-05
1504197801.53,-1.0,-0.1173267606,-0.07810996725,-0.060222637649999994,-0.014542,-0.005854,0.006472,0.6409038040999999,-9.5881774513,1.95612266885,2.824975,1.359321,1.641615,0.00013999999999991797,-9.999999999998899e-05,5.0000000000050004e-06,-2.8114616285268568e-05,5.0060707146304395e-06,2.8114616285490612e-05
1504197801.54,-1.0,-0.11056017209999999,-0.0048248718,-0.0243793319,-0.006017,-0.006989,0.006493,0.6363927450999999,-9.588893336749999,1.9541123055999998,2.826758,1.359667,1.639807,0.000160000000000049,-0.0001100000000000545,5.999999999992123e-06,0.00012779304122201296,3.578167763196305e-05,4.999696939689269e-05
1504197801.55,-1.0,-0.1098540933,-0.004648352099999999,-0.023732092999999996,-0.008119,-0.001646,0.008615,0.63567685965,-9.58906985645,1.9534650666999998,2.82699,1.359754,1.639537,0.00015500000000001624,-0.00012999999999996348,5.0000000000050004e-06,0.00036550205377317013,-6.204967996747968e-06,6.856981249747651e-05
1504197801.56,-1.0,-0.09321220824999998,-0.006060509699999999,-0.0155729602,-0.008092,0.003679,0.01181,0.6329604176,-9.5894523158,1.9524844016999998,2.828101,1.359939,1.638459,0.00015500000000001624,-0.00012999999999996348,4.999999999991123e-06,0.00036550011084202083,-6.229998828599648e-06,6.856725508841421e-05
1504197801.57,-1.0,-0.06878384309999999,-0.0147295883,0.0027654753,-0.009144,0.006882,0.013939,0.630371462,-9.589756321949999,1.9517979362,2.829198,1.36009,1.637427,0.00017000000000000348,-0.000140000000000029,9.000000000009e-06,0.0005020000025162119,9.59210996231974e-06,6.527154902347121e-05
1504197801.58,-1.0,-0.05171046544999999,-0.01167972015,0.0242224255,-0.003803,0.008968,0.01608,0.62781192635,-9.589972068249999,1.9516018031999998,2.830354,1.360191,1.636359,0.00017000000000000348,-0.00014999999999998348,1.1999999999998123e-05,0.0005744172120250024,3.9335859227662695e-06,8.145719523755535e-05
1504197801.59,-1.0,0.014141189299999999,-0.027752819499999998,0.03858916775,-0.017684,0.010143,0.020324,0.6255662034999999,-9.59020742785,1.9511408906499998,2.831333,1.360308,1.635474,0.00017000000000000348,-0.00014999999999998348,1.6000000000002124e-05,0.000540020557801224,-1.6277165146183492e-05,8.015778608871926e-05
1504197801.6,-1.0,0.016455558699999998,-0.0272821003,0.0401288118,-0.017734,0.005878,0.023534,0.6232420274499999,-9.59067814705,1.9496012466,2.832183,1.360535,1.634692,0.00017999999999995797,-0.0001500000000000945,1.8999999999991246e-05,0.0005105957880326972,-8.36727378827895e-06,7.387085931920279e-05
1504197801.61,-1.0,0.03266595115,-0.033734876,0.04712095325,-0.022034,0.003779,0.026732,0.6210943711,-9.59110963965,1.9481498624,2.832967,1.360747,1.63394,0.00017999999999995797,-0.00014999999999998348,2.3000000000009124e-05,0.00047555692878931133,1.871382330653759e-05,3.883627053691274e-05
1504197801.62,-1.0,0.05612345795,-0.04957261574999999,0.04943532265,-0.026359,-0.001517,0.029935,0.619191881,-9.591580358849999,1.9464238919999999,2.833599,1.360979,1.633275,0.00017000000000000348,-0.000140000000000029,3.899999999999737e-05,0.0004822024235464628,5.1127055109789765e-05,-2.0676719684642464e-05
1504197801.63,-1.0,0.05378947525,-0.06476311659999999,0.045816668799999995,-0.019969,-0.0037,0.028881,0.6171913244,-9.5921001113,1.9445214019,2.834251,1.361232,1.632558,0.000180000000000069,-0.00013999999999991797,4.099999999999937e-05,0.0005094797559443975,4.4021976017827313e-05,-2.1493413680073736e-05
1504197801.64,-1.0,0.0411683167,-0.05873202685,0.0381674818,-0.018893,-0.002643,0.02888,0.6149946348,-9.59244334405,1.9434818969999998,2.835123,1.361404,1.631608,0.00017999999999995797,-0.000140000000000029,3.999999999999837e-05,0.000521064890678602,2.7502179051008824e-05,-3.306069745612206e-05
1504197801.65,-1.0,0.0261445289,-0.02574245625,0.055505638999999996,-0.008233,-0.005924,0.025702,0.61296465825,-9.592659090349999,1.94306021105,2.836011,1.36151,1.630637,0.00017000000000000348,-0.00014999999999998348,3.500000000000725e-05,0.0005336189890121634,2.4385059243625662e-05,-3.702629969304372e-05
1504197801.66,-1.0,0.024497011699999998,0.007158854499999999,0.0763741902,-0.006073,-0.004873,0.022501,0.61116023465,-9.59263947705,1.9437270632499999,2.836954,1.361499,1.62963,0.00017999999999995797,-0.000140000000000029,2.9000000000001247e-05,0.000566215572283868,2.898980794485695e-05,-1.6011660717185627e-05
1504197801.67,-1.0,0.0197505931,0.0263210486,0.06398839125,-0.008133,0.001542,0.018216,0.6096205906,-9.592659090349999,1.9441487492,2.837734,1.361506,1.628838,0.00017000000000000348,-0.00014999999999998348,2.1999999999994246e-05,0.0005628407993780726,-3.3070713353566816e-05,3.019128961812001e-05
1504197801.68,-1.0,0.009267284249999999,0.0428354472,0.0633901856,-0.012378,0.001582,0.013939,0.6082868861999999,-9.5927081236,1.9442958489499997,2.838382,1.361533,1.628185,0.00017000000000000348,-0.00014999999999998348,1.8000000000004124e-05,0.0005230169227354864,-2.2842622352969855e-05,3.50060540410535e-05
1504197801.69,-1.0,0.0041580196,0.022731814700000002,0.0438553388,-0.016651,-0.000512,0.0118,0.6071100881999999,-9.59295328985,1.9434818969999998,2.838816,1.361651,1.62775,0.00017000000000000348,-0.000140000000000029,1.5000000000001124e-05,0.0005122591276367494,-4.137323075692478e-06,1.9328996871736948e-05
1504197801.7,-1.0,0.0008825985,0.0209077778,0.0268898343,-0.025185,-0.000442,0.011785,0.6058940636,-9.5933749758,1.94174611995,2.839131,1.361861,1.627426,0.00017000000000000348,-0.000140000000000029,1.4000000000000123e-05,0.0004505881032730308,-1.7192121216647038e-05,1.882062417690733e-05
1504197801.71,-1.0,-0.00410898635,-0.005579983849999999,0.0222807088,-0.012399,-0.002678,0.011812,0.6047564921999999,-9.593669175299999,1.94066738845,2.839509,1.362004,1.627023,0.000160000000000049,-0.00012000000000000899,1.4000000000000123e-05,0.0003303816948934113,-3.076303158011662e-05,3.254615865622146e-05
1504197801.72,-1.0,-0.00944380395,-0.025791489499999997,0.0236536398,-0.014533,-0.002661,0.011808,0.60351104765,-9.5939633748,1.9395886569499998,2.839935,1.362149,1.626565,0.000140000000000029,-0.00012999999999996348,2.0999999999993246e-05,0.00022617113040190873,2.581068397899955e-05,3.107301619642566e-05
1504197801.73,-1.0,-0.02209438245,-0.04406127844999999,0.03378390925,-0.003873,-0.005942,0.008631,0.6022361831499999,-9.594090861249999,1.9393336840499997,2.840496,1.362214,1.625949,0.00012999999999996348,-0.00011499999999997623,2.1000000000007124e-05,9.796358760461032e-05,3.782514739869569e-06,8.389725885549204e-05
1504197801.74,-1.0,-0.024212618849999996,-0.03341125655,0.06757762515,0.000428,-0.003842,0.005433,0.60121629155,-9.59397318145,1.9402555091499998,2.841112,1.362154,1.625297,0.00012999999999996348,-0.00011499999999997623,2.0999999999993246e-05,9.796451453247812e-05,3.774321036820183e-06,8.389815137233025e-05
1504197801.75,-1.0,-0.03692203725,0.0005295590999999999,0.08240527995000001,0.004786,0.002524,-0.002042,0.6006082792499999,-9.593649562,1.9420501260999998,2.841656,1.361994,1.624761,0.0001100000000000545,-0.0001100000000000545,1.2999999999999123e-05,2.3794908068586196e-05,2.6048752989282775e-05,0.00013632484975967252
1504197801.76,-1.0,-0.0397953857,0.03390158905,0.05078864034999999,0.005937,0.008915,-0.008455,0.6004807928,-9.59334555585,1.9435799635,2.841939,1.361846,1.624561,0.00012000000000000899,-0.00010999999999994348,7.000000000007001e-06,1.8094166001958456e-05,6.847673697185641e-06,0.00020339892379306335
1504197801.77,-1.0,-0.044316251349999995,0.042737380699999994,0.028243152,0.006018,0.01425,-0.015935,0.60082402555,-9.593061163,1.9448744412999999,2.841968,1.361706,1.624696,0.00010999999999994348,-0.00012000000000000899,1.000000000001e-06,-1.8567695422078145e-05,2.962264655237412e-05,0.0002229951013790199
1504197801.78,-1.0,-0.0312439869,0.0401288118,0.02309466075,0.002862,0.018541,-0.018082,0.60166739745,-9.5928454167,1.9456883932499998,2.841689,1.361599,1.625184,9.999999999998899e-05,-0.0001100000000000545,-1.000000000001e-06,-1.9418273201177172e-05,2.7402120389208307e-05,0.0002502673385457177
1504197801.79,-1.0,-0.016985117799999998,0.014445195449999998,0.0253599969,0.00181,0.019616,-0.019153,0.6028147755,-9.59260025045,1.9465611851,2.841278,1.361477,1.625813,9.999999999998899e-05,-0.00010999999999994348,1.000000000001e-06,-6.897364571112341e-05,2.2037355353887733e-05,0.000293865977367358
1504197801.8,-1.0,-0.022810267899999997,-0.02474217795,0.0311263071,-0.003526,0.020724,-0.017029,0.60370718065,-9.59246295735,1.9469338377999998,2.840914,1.361412,1.626403,0.00010000000000010001,-0.00012000000000000899,6.999999999993123e-06,-7.210698201687293e-05,9.536188694037051e-06,0.00027911700850813403
1504197801.81,-1.0,-0.0091986377,-0.07260843659999999,0.02848831825,-0.006742,0.020747,-0.013832,0.6044622927,-9.5924923773,1.9465807983999999,2.840509,1.361424,1.627035,9.999999999998899e-05,-0.00012000000000000899,1.7000000000003124e-05,-6.27224795268777e-05,-6.10633774678071e-06,0.00026037234038533974
1504197801.82,-1.0,0.00709020795,-0.10916762779999999,0.03890298055,-0.01212,0.018655,-0.008501,0.60508011165,-9.5925904438,1.9458943328999998,2.840119,1.361474,1.627626,8.999999999992347e-05,-0.00012999999999996348,1.2999999999999123e-05,-3.820611232807636e-05,5.5403982850421585e-06,0.00022476900586776427
1504197801.83,-1.0,0.00031381279999999996,-0.1198764896,0.0448752304,-0.016377,0.021883,-0.005311,0.60511933825,-9.592796383449999,1.9448548279999998,2.839949,1.361575,1.628012,9.00000000000345e-05,-0.000140000000000029,1.9999999999992246e-05,3.199859945457462e-05,6.355937003377221e-07,0.00023380099493530704
1504197801.84,-1.0,-0.004393379199999999,-0.093751574,0.047738772199999994,-0.01742,0.026152,-0.003186,0.60474668555,-9.5930415497,1.9437859031499998,2.839969,1.361694,1.62826,9.999999999998899e-05,-0.000140000000000029,2.4000000000010124e-05,9.453972617534667e-05,1.581595854815987e-05,0.00020703977652769545
1504197801.85,-1.0,0.0008629851999999999,-0.0627429467,0.0482094914,-0.014261,0.022926,2.8e-05,0.6042661597,-9.59322787605,1.9430111777999999,2.84008,1.361785,1.628392,0.0001100000000000545,-0.00015999999999993797,2.4999999999997247e-05,0.00016423659861941609,5.824197888393279e-05,0.00018250825176491237
1504197801.86,-1.0,0.02676234785,-0.019446586949999997,0.0446006442,-0.008981,0.018616,0.004314,0.60396215355,-9.59326710265,1.9428836913499998,2.840206,1.361808,1.628477,0.00012000000000000899,-0.0001500000000000945,2.5999999999998247e-05,0.00020540046962680414,4.4825506063661535e-05,0.00021207268381073785
1504197801.87,-1.0,0.0409133438,0.010473502199999998,0.05108283985,-0.00474,0.016448,0.006459,0.60372679395,-9.59326710265,1.9429915645,2.840331,1.361805,1.628525,0.00012499999999993072,-0.00015999999999993797,2.2499999999994746e-05,0.0002712799185831116,1.660921462920406e-05,0.0001679229781834657
1504197801.88,-1.0,0.042276468149999996,0.0129840046,0.0366180311,-0.004792,0.011118,0.008602,0.60341298115,-9.59322787605,1.9432367307499998,2.840513,1.361789,1.628458,0.00012500000000004174,-0.000160000000000049,2.2500000000008624e-05,0.0002712842515204539,1.6563767000876695e-05,0.00016792843628288256
1504197801.89,-1.0,0.06002650464999999,0.004540478949999999,0.0004707192,-0.005886,0.005802,0.005406,0.60376602055,-9.593316135899999,1.9427169782999998,2.84027,1.36183,1.628761,0.00012999999999996348,-0.00014999999999998348,1.8999999999991246e-05,0.00032469352828190523,2.628881385025039e-06,0.00016263102679880959
1504197801.9,-1.0,0.052534224049999995,-0.014896301349999998,-0.007129434549999999,-0.00909,0.004763,0.004334,0.6040700267,-9.59348284895,1.9417951531999997,2.839992,1.361913,1.62908,0.00012999999999996348,-0.00014999999999998348,2.1000000000007124e-05,0.0003119001085190032,2.8383830359413054e-06,0.0001183739968072528
1504197801.91,-1.0,0.055103566349999994,-0.03696126385,-0.00363826715,-0.013376,0.000539,0.00113,0.60480552545,-9.59371820855,1.9404026088999997,2.839447,1.362029,1.629623,0.0001300000000000745,-0.00014999999999998348,2.0999999999993246e-05,0.0003065065794387589,-8.838975474656507e-06,9.64579409209465e-05
1504197801.92,-1.0,0.032930730699999994,-0.05577041855,-0.00463854545,-0.016574,-0.000498,-0.001009,0.60527624465,-9.5940614413,1.9385589586999998,2.838953,1.362198,1.6301,0.00012000000000000899,-0.000140000000000029,1.9000000000005124e-05,0.000230305897213956,-2.6023764569726993e-05,0.00010620001573313775
1504197801.93,-1.0,0.0191621941,-0.048778277099999996,0.010493115499999999,-0.012307,-0.000533,-0.001002,0.6055704441499999,-9.5943164142,1.9371958343499998,2.838613,1.362324,1.630425,0.00012000000000000899,-0.00012999999999996348,-1.000000000001e-06,0.00013290305117030776,-2.789767811650634e-06,0.00013290305117030776
1504197801.94,-1.0,-0.0016082905999999998,-0.00183384355,0.02297698095,-0.013321,0.002678,-0.006346,0.6059921301,-9.59442428735,1.93652898215,2.838318,1.362377,1.630735,0.00010999999999994348,-0.00012000000000000899,-6.0000000000060005e-06,5.957761370245507e-06,1.7378105553689238e-05,0.00011845889020423161
1504197801.95,-1.0,-0.0145334553,0.02903749065,0.018867994599999997,0.002679,0.001482,-0.007383,0.6065020758999999,-9.5943164142,1.9369016348499999,2.838133,1.362324,1.630952,9.999999999998899e-05,-0.00010500000000002174,-7.999999999994123e-06,-0.00015226037324822528,2.998484222604958e-05,0.00011738043452202973
1504197801.96,-1.0,-0.01226811915,0.024291072049999998,0.025624776449999997,-0.00263,0.002595,-0.010597,0.607227768,-9.5942183477,1.9371664143999998,2.837834,1.362275,1.631302,9.999999999998899e-05,-0.00010500000000002174,-7.999999999994123e-06,-0.00015225644553140683,3.0002647568583285e-05,0.00011737555355495477
1504197801.97,-1.0,-0.0167105316,-0.0041776329,0.03853032785,-0.007953,0.002641,-0.01274,0.60808094655,-9.59416931445,1.9371369944499996,2.837427,1.362252,1.631749,9.00000000000345e-05,-9.999999999998899e-05,-7.000000000007001e-06,-0.0002278322418869383,2.337475322700122e-05,8.643676394215483e-05
1504197801.98,-1.0,-0.026997707449999995,-0.022359162,0.056064618049999994,-0.016456,0.005909,-0.013828,0.60878702535,-9.5942575743,1.93650936885,2.837002,1.362292,1.632248,4.500000000007276e-05,-5.500000000002725e-05,-4.499999999990623e-06,-0.00010854847309804683,2.3114467830875896e-06,5.1047606671961177e-05
1504197801.99,-1.0,-0.049003830049999995,-0.0290669106,0.043659205799999996,-0.015337,0.012294,-0.013836,0.6089537384,-9.59442428735,1.9356071570499997,2.836791,1.362377,1.632595,4.499999999996174e-05,-5.499999999991623e-05,-4.5000000000045e-06,-0.00010854871581589265,2.3169947660495183e-06,5.104752513229727e-05
1504197802.0,-1.0,-0.046248161399999994,-0.05141626595,0.0130428445,-0.00258,0.007924,-0.01167,0.6090321916,-9.59452235385,1.9350874046,2.836677,1.362425,1.632815,0.00017999999999995797,-0.00021999999999999797,-2.0000000000006124e-05,-0.0003154178921001005,-9.357334311710375e-05,0.00018065674175904434
1504197802.01,-1.0,-0.02499715085,-0.03943253965,0.00326561445,0.01017,0.004617,-0.006305,0.609189098,-9.59438506075,1.9357346435,2.8367,1.362356,1.632853,9.999999999998899e-05,-0.0001300000000000745,-4.999999999991123e-06,-5.4418360906360874e-05,-4.0615236656549314e-05,0.00012418800223157334
1504197802.02,-1.0,-0.0031185146999999996,-0.0359707922,0.0240459058,0.00907,0.000364,-0.006299,0.60974807705,-9.5941006679,1.9369506681,2.836615,1.362218,1.632948,9.00000000000345e-05,-0.00012000000000000899,-2.6999999999999247e-05,1.2668146696315219e-05,-1.6069595533574343e-05,0.00014662603629633786
1504197802.03,-1.0,0.029096330549999997,-0.03711817025,0.03333280335,0.001597,0.000424,-0.005245,0.610758162,-9.59385550165,1.9378430732499998,2.836275,1.362098,1.633293,0.00010999999999994348,-0.00012999999999996348,-2.2000000000008124e-05,6.72435950466177e-05,-3.841112539371139e-06,0.00017640476487801315
1504197802.04,-1.0,0.0284196717,-0.042394147949999995,0.04119773665,-0.009051,0.003708,-0.004203,0.6115819205999999,-9.5938260817,1.9377646200499998,2.835875,1.36208,1.633729,9.999999999998899e-05,-0.000140000000000029,-1.9999999999992246e-05,6.408242191202618e-05,-1.6359203359295194e-05,0.00016165673360024613
1504197802.05,-1.0,0.013386077249999998,-0.048386011099999994,0.038226321699999996,-0.014406,0.003747,5.7e-05,0.6117976668999999,-9.5939633748,1.9369898947,2.83566,1.36215,1.633975,0.0001100000000000545,-0.00013999999999991797,-1.8000000000004124e-05,4.005502109971637e-05,2.991426648502049e-05,0.00020877694694265703
1504197802.06,-1.0,-0.0291649771,-0.04366901245,0.0274193934,-0.008012,0.004757,0.00327,0.610954295,-9.594188927749999,1.9361269094999998,2.835928,1.362262,1.633758,9.999999999998899e-05,-0.000140000000000029,-1.4000000000000123e-05,4.322457456451545e-05,4.241080990419199e-05,0.00022352549347293138
1504197802.07,-1.0,-0.07579559785,-0.0392658266,0.022270902149999997,-0.018631,0.012302,0.005374,0.6089537384,-9.5945517738,1.9349893380999998,2.8367,1.362438,1.633101,9.999999999998899e-05,-0.000140000000000029,-1.2999999999999123e-05,-8.107642306187657e-06,6.929172053249388e-05,0.000240001612637597
1504197802.08,-1.0,-0.07505029245,-0.022329742049999997,0.027135000549999996,-0.014312,0.018661,0.005372,0.6068551152999999,-9.59487539325,1.93401847975,2.837541,1.362599,1.632435,9.00000000000345e-05,-0.00014999999999998348,-1.4000000000000123e-05,6.029691002562565e-05,4.862925997550782e-05,0.00026869320388578366
1504197802.09,-1.0,-0.0579573015,-0.007511893899999999,0.04790548524999999,-0.016375,0.024012,2.5e-05,0.604285773,-9.595032299649999,1.9340478997,2.838757,1.362677,1.631473,9.999999999998899e-05,-0.00014999999999998348,-1.4000000000000123e-05,7.01597438157453e-05,2.7594874856262663e-05,0.0003116203477737667
1504197802.1,-1.0,-0.0576434887,-0.00732556755,0.04870963055,-0.009876,0.033553,-0.00425,0.6039719601999999,-9.595218626,1.9332437543999998,2.838785,1.362767,1.631771,9.00000000000345e-05,-0.00014999999999998348,-1.4000000000000123e-05,5.766482049751609e-05,3.074386230195181e-05,0.0003156575838531017
1504197802.11,-1.0,-0.0303221618,-0.010973641349999999,0.050376761049999996,-0.010926,0.033565,-0.007454,0.60343259445,-9.595316692499999,1.9329201349499998,2.838991,1.362815,1.631926,8.999999999992347e-05,-0.000160000000000049,-1.5000000000001124e-05,7.239137145553798e-05,1.122297057798427e-05,0.00032210968717005795
1504197802.12,-1.0,0.0043247326499999995,-0.0089828914,0.05877125345,-0.00668,0.02927,-0.009573,0.60380524715,-9.595208819349999,1.9333516275499998,2.83888,1.362761,1.632365,8.000000000008001e-05,-0.00012999999999996348,-2.8000000000000247e-05,7.729909290099535e-05,2.818742023680265e-05,0.00028235820740696305
1504197802.13,-1.0,0.0211235241,-0.00591340995,0.0542307745,-0.00136,0.026032,-0.011694,0.6046584257,-9.594993073049999,1.9341557728499998,2.838598,1.362655,1.632929,8.999999999992347e-05,-0.00012000000000000899,-3.200000000000425e-05,2.675202451785097e-05,3.075899613569355e-05,0.00024007631229450155
1504197802.14,-1.0,0.057006056449999995,0.009983169699999999,0.0465227476,-0.00036,0.017499,-0.011678,0.60633536285,-9.594718486849999,1.9349795314499998,2.837929,1.36252,1.633799,9.00000000000345e-05,-0.0001100000000000545,-3.699999999999537e-05,-4.6172622505169514e-05,4.209015614931033e-05,0.0001621706156870184
1504197802.15,-1.0,0.09467339909999999,0.027801852749999998,0.02776262615,0.00167,0.005758,-0.009521,0.6087772187,-9.594434094,1.935636577,2.836877,1.362379,1.634941,9.999999999998899e-05,-9.999999999998899e-05,-3.999999999999837e-05,-7.254742332429842e-05,5.156235062964143e-05,0.00013578511146250527
1504197802.16,-1.0,0.10756914384999999,0.0244185585,0.011503200449999999,0.000505,-0.003828,-0.005239,0.61129752775,-9.594188927749999,1.936028843,2.835753,1.362261,1.636035,9.999999999998899e-05,-9.999999999998899e-05,-4.300000000000137e-05,-0.00010614756525795244,3.3796903195604244e-05,0.00010715595369981123
1504197802.17,-1.0,0.09782133374999999,0.0025301156999999997,0.021407916949999998,-0.001709,-0.011274,-0.000963,0.6134059574999999,-9.5940026014,1.9363034292,2.834802,1.362168,1.636876,0.0001100000000000545,-9.999999999998899e-05,-4.200000000000037e-05,-0.00010348089926437432,5.165167902188017e-05,6.01807155410361e-05
1504197802.18,-1.0,0.0885540495,-0.021966895999999996,0.0344605681,-0.008132,-0.013353,9.5e-05,0.6151907677999999,-9.59389472825,1.9362642025999999,2.833959,1.362115,1.637573,0.00010999999999994348,-9.999999999998899e-05,-3.899999999999737e-05,-0.00010445143494686171,4.630992654819366e-05,1.4019686916832974e-05
1504197802.19,-1.0,0.07169641815,-0.03794192885,0.04315906665,-0.002763,-0.009135,9.6e-05,0.6164852456,-9.5937868551,1.93639168905,2.833369,1.362061,1.638056,0.00012000000000000899,-0.0001100000000000545,-3.200000000000425e-05,-6.708987450809722e-05,2.6529077654435795e-05,-1.9440800521630663e-06
1504197802.2,-1.0,0.051122066449999996,-0.0477583855,0.054770140249999995,-0.004875,-0.005922,0.001153,0.6173090042,-9.5936887886,1.9366074353499998,2.833016,1.362014,1.63834,0.00012000000000000899,-0.00010999999999994348,-2.5999999999998247e-05,2.9388533528740268e-05,8.143576339936232e-07,-1.3421026093807242e-06
1504197802.21,-1.0,0.02872367785,-0.0694899219,0.052612677249999996,-0.004885,-0.005925,0.003287,0.6175639771,-9.593659368649998,1.93666627525,2.832907,1.362,1.638386,0.00012999999999996348,-0.00012999999999996348,-1.9000000000005124e-05,3.2083577242714156e-05,1.0641165987257395e-05,-9.677187012724353e-06
1504197802.22,-1.0,0.04090353715,-0.082179727,0.0447575506,-0.007029,-0.005909,0.005417,0.6177993367,-9.5936887886,1.9364505289499998,2.832764,1.362014,1.638463,0.0001300000000000745,-0.0001100000000000545,-2.2999999999995246e-05,8.657388615418427e-05,-3.80621676288051e-06,-1.1397170120108768e-05
1504197802.23,-1.0,0.04992565515,-0.052749970349999994,0.05396599495,-0.005973,-0.008048,0.004354,0.6183485090999999,-9.593639755349999,1.9365191755,2.832514,1.36199,1.63863,0.00013999999999991797,-0.00012000000000000899,-2.3999999999996247e-05,7.645871924544245e-05,8.750946919988678e-06,3.7030633043277916e-06
1504197802.24,-1.0,0.06057567705,-0.00814932615,0.05008256155,-0.010215,-0.006944,0.001142,0.61922130095,-9.593649562,1.9362053627,2.83206,1.361993,1.639013,0.0001500000000000945,-0.00010999999999994348,-2.6999999999999247e-05,6.575788680862615e-05,2.7534581879429254e-05,-1.197940937791575e-05
1504197802.25,-1.0,0.0819247541,0.00481506515,0.02391841935,-0.007005,-0.005906,0.001143,0.6206236518999999,-9.5935907221,1.93603864965,2.831377,1.361965,1.639624,0.00015999999999993797,-0.00012000000000000899,-3.0000000000002247e-05,6.979979212351495e-05,4.227756767205548e-05,-2.4477969856717685e-05
1504197802.26,-1.0,0.09538928455,0.0042560861,0.020780291349999997,-0.01128,-0.006936,0.001136,0.62228097575,-9.593639755349999,1.9352737309499999,2.83049,1.361988,1.640428,0.000160000000000049,-0.0001100000000000545,-3.300000000000525e-05,9.038211278733499e-05,6.858350173843952e-05,-5.351627627903088e-05
1504197802.27,-1.0,0.07218675065,-0.012513285399999999,0.0213392704,-0.01244,-0.016521,0.004351,0.62332048065,-9.5937672418,1.9342734526499998,2.829848,1.362054,1.640925,0.00017000000000000348,-0.00010999999999994348,-3.399999999999237e-05,0.00011199066732636709,4.037373994236759e-05,-4.9242889657352684e-05
1504197802.28,-1.0,0.02941995,-0.020623384949999997,0.02105487755,-0.005924,-0.015442,0.008612,0.62330086735,-9.59389472825,1.9336556336999997,2.829765,1.362116,1.64085,0.00015999999999993797,-0.00012000000000000899,-3.500000000000725e-05,0.00013744083352551506,1.7553667154945884e-05,-3.0376606334647782e-05
1504197802.29,-1.0,0.0200644059,-0.0219865093,0.02868445125,0.000509,-0.012297,0.00755,0.6230753144,-9.59387511495,1.9338125401,2.829894,1.362108,1.640583,0.00017000000000000348,-0.00012000000000000899,-3.300000000000525e-05,0.00017877408297017894,1.34034616194878e-05,-2.7901055580592526e-05
1504197802.3,-1.0,-0.0098458766,-0.0436003659,0.0335191297,0.002679,-0.009116,0.005413,0.6224673021,-9.5938064684,1.93437151915,2.830264,1.362072,1.640114,0.00017000000000000348,-0.0001300000000000745,-3.099999999998937e-05,0.00020741114448408204,3.073004574583038e-06,5.707867216542262e-06
1504197802.31,-1.0,-0.0380694153,-0.0545642006,0.01979962635,0.003803,-0.00273,0.004338,0.62135915065,-9.5937672418,1.93492069155,2.830865,1.362053,1.639475,0.000160000000000049,-0.00013999999999991797,-3.0000000000002247e-05,0.0001857380319392199,-1.7266664783743835e-05,4.851249995785345e-05
1504197802.32,-1.0,-0.04090353715,-0.0596440453,0.03677493749999999,-0.00254,0.002654,0.001116,0.6204471322,-9.593777048449999,1.9351462444999998,2.831328,1.362059,1.639043,0.00015999999999993797,-9.999999999998899e-05,-2.9000000000001247e-05,0.000187994112500256,-1.8137719132393926e-05,5.573196662789215e-05
1504197802.33,-1.0,-0.0444829644,-0.06263507355,0.02786069265,-0.009952,0.006982,-0.003173,0.6196920201499999,-9.59393395485,1.9346362986999999,2.831605,1.362134,1.638849,0.000140000000000029,-0.0001100000000000545,-3.200000000000425e-05,0.0001703572675404441,-2.374198890109369e-05,8.60376166350596e-05
1504197802.34,-1.0,-0.0553291193,-0.031528379749999995,0.04294332035,-0.01099,0.009124,-0.005312,0.6190153612999999,-9.5940614413,1.9342244193999998,2.831859,1.362197,1.638697,0.00014999999999998348,-0.00010999999999994348,-3.699999999999537e-05,0.00011322220877918454,-2.718532798251516e-05,0.0001347199929302434
1504197802.35,-1.0,-0.051337812749999996,-0.0012944778,0.0528970701,-0.007778,0.009101,-0.00744,0.61861328865,-9.59407124795,1.93429306595,2.832057,1.362202,1.638616,0.0001300000000000745,-0.0001100000000000545,-4.200000000000037e-05,8.106537161434169e-05,-3.698870725887815e-05,0.00017531521548097562
1504197802.36,-1.0,-0.023339827,0.0151218543,0.03454882795,-0.004544,0.011209,-0.01064,0.61904478125,-9.594022214699999,1.9343813258,2.83187,1.362179,1.638934,0.00013999999999991797,-0.00010999999999994348,-4.300000000000137e-05,8.019277848614337e-05,-3.9267737634851585e-05,0.0002025544045856087
1504197802.37,-1.0,0.000392266,0.0165340119,0.0306752012,-0.004551,0.010143,-0.010638,0.62000583295,-9.59393395485,1.9345088122499998,2.831438,1.362136,1.639482,0.000140000000000029,-0.0001100000000000545,-4.500000000000337e-05,3.593640150967303e-05,-2.4940347185475886e-05,0.00017400684656010412
1504197802.38,-1.0,0.00561921045,0.0060997363,0.0423843413,-0.00565,0.008018,-0.007434,0.6207609449999999,-9.59383588835,1.9347833984499998,2.831125,1.362086,1.639892,0.000140000000000029,-9.999999999998899e-05,-4.300000000000137e-05,3.593197961104799e-05,-2.4946531544500772e-05,0.0001740055584597
1504197802.39,-1.0,0.00414821295,0.00559959715,0.04300216025,-0.00678,0.002695,-0.003157,0.6211924376,-9.593777048449999,1.9349108849,2.830944,1.362059,1.640107,0.00014999999999998348,-9.999999999998899e-05,-4.099999999999937e-05,4.490203034657192e-05,6.813783048453814e-06,0.00012179152671820681
1504197802.4,-1.0,0.010591182,-0.01203275955,0.02399687255,-0.007885,0.000568,0.001114,0.6213199240499999,-9.5938064684,1.93476378515,2.830858,1.36207,1.640206,0.00014999999999998348,-9.999999999998899e-05,-3.699999999999537e-05,2.031885503406272e-05,3.1931056702516614e-05,7.569666799422947e-05
1504197802.41,-1.0,0.0334210632,-0.027272293649999998,0.031744126049999995,0.005976,-0.000612,0.001139,0.62169257675,-9.59367898195,1.9352443109999997,2.830758,1.36201,1.640299,0.000160000000000049,-9.999999999998899e-05,-3.499999999999337e-05,2.327993914530424e-05,5.4851784180520724e-05,5.7981495000025696e-05
1504197802.42,-1.0,0.05488782005,-0.0125328987,0.05023946795,0.011282,-0.001725,0.005419,0.62222213585,-9.59330632925,1.9369506681,2.830768,1.361824,1.640253,0.00017000000000000348,-9.999999999998899e-05,-3.500000000000725e-05,1.5906637393925394e-05,5.687718193336799e-05,5.638960976228624e-05
1504197802.43,-1.0,0.041756715699999995,0.00605070305,0.051573172349999995,0.014473,-0.001754,0.007558,0.6221927159,-9.59287483665,1.9390590978499997,2.831099,1.361615,1.639904,0.00017999999999995797,-7.00000000000145e-05,-4.799999999999249e-05,4.085070452841677e-05,0.00010078159367932216,6.311591830199248e-05
1504197802.44,-1.0,0.0337544893,0.00932612415,0.03550987965,0.008078,-0.0017,0.006479,0.6221044560499999,-9.5925708305,1.9405987419,2.831371,1.361465,1.639607,0.00017000000000000348,-8.000000000008001e-05,-5.200000000001037e-05,5.5744429279025454e-05,6.746478785424337e-05,6.563282034199869e-05
1504197802.45,-1.0,0.028115665550000002,0.0030890947499999997,0.0028635417999999997,0.001701,-0.000579,0.003263,0.6222123292,-9.59246295735,1.94107926775,2.831391,1.361414,1.639577,0.00017999999999995797,-7.999999999996898e-05,-5.2999999999997494e-05,7.355531435027096e-05,4.933212824398403e-05,5.2045173688619606e-05
1504197802.46,-1.0,0.0529951366,-0.0318519992,-0.0091397978,-0.003637,-0.0016,0.002187,0.6229184079999999,-9.59254141055,1.9405104820499999,2.830977,1.361448,1.63998,0.000180000000000069,-7.999999999996898e-05,-5.3999999999998494e-05,0.00011733265868629772,5.3649525183274704e-05,3.4648686899729775e-05
1504197802.47,-1.0,0.05480936685,-0.05426019444999999,-0.0079237732,-0.011117,-0.003668,0.001109,0.62379119985,-9.592727736899999,1.93929445745,2.830385,1.361541,1.640533,0.00017999999999995797,-9.00000000000345e-05,-5.2999999999997494e-05,0.00016137472022093036,-5.52251413044047e-07,1.5896338307563873e-05
1504197802.48,-1.0,0.04988642855,-0.06412568434999999,-0.008521978849999999,-0.014343,-0.006839,0.001108,0.62453650525,-9.5930415497,1.9374998405,2.829768,1.361695,1.64108,0.00019000000000002348,-7.999999999996898e-05,-5.2999999999997494e-05,0.00015818497801656228,-1.3032980201055366e-05,1.1394261140162953e-06
1504197802.49,-1.0,0.044100505049999995,-0.06758743179999999,0.00306948145,-0.005853,-0.011173,0.003265,0.6250758710000001,-9.59316903615,1.9366858885499998,2.829393,1.361759,1.641351,0.00019499999999994522,-8.000000000008001e-05,-5.150000000000987e-05,0.00012502616872067662,-2.4073804057778148e-05,-2.3754517397556185e-05
1504197802.5,-1.0,0.03927563325,-0.05981075835,0.037853669,-0.00373,-0.011193,0.005402,0.6254092970999999,-9.5931592295,1.9366074353499998,2.829224,1.361755,1.6414,0.00019500000000005624,-7.999999999996898e-05,-5.1499999999995993e-05,0.0001250261110088413,-2.4070702902889707e-05,-2.3757407890512283e-05
1504197802.51,-1.0,0.026164142199999997,-0.0356177528,0.0372064301,-0.00159,-0.01121,0.004338,0.6255073635999999,-9.5931200029,1.936813375,2.829208,1.361732,1.641292,0.00019999999999997797,-7.999999999996898e-05,-5.1999999999996493e-05,8.663214962290056e-05,-4.687317832541282e-06,-4.231627775264091e-05
1504197802.52,-1.0,0.020025179299999998,-0.02740958675,0.03319551025,-0.002662,-0.011202,0.005403,0.6255073635999999,-9.59309058295,1.9369310547999998,2.829227,1.361721,1.641154,0.00019000000000002348,-4.999999999999449e-05,-6.50000000000095e-05,5.9395708640330724e-05,2.5566652661623834e-06,-4.144932030714088e-05
1504197802.53,-1.0,0.016033872749999997,-0.0156710267,0.00399130655,-0.000547,-0.012287,0.007543,0.6253112305999999,-9.5931592295,1.9366564685999998,2.829279,1.361754,1.640976,0.00019000000000002348,-4.999999999999449e-05,-6.799999999999862e-05,-1.0864005846489277e-05,2.4149961004749088e-05,8.42303871007033e-06
1504197802.54,-1.0,0.0033244543499999996,-0.00187307015,-0.00481506515,0.001583,-0.013369,0.006481,0.6250072244499999,-9.59318864945,1.9366368552999997,2.829418,1.361766,1.64069,0.00018999999999991246,-4.999999999999449e-05,-7.199999999998874e-05,-1.0863765471214037e-05,2.414998073940744e-05,8.422747673653141e-06
1504197802.55,-1.0,0.0053936575,0.0342644351,0.026644668049999997,0.009021,-0.016628,0.007567,0.6247228316,-9.5929630965,1.9378038466499998,2.829723,1.361659,1.640204,0.000200000000000089,-4.999999999999449e-05,-7.300000000000362e-05,-2.436495179747311e-05,4.878531689889165e-05,2.3024050726405676e-05
1504197802.56,-1.0,0.00797280645,0.0334014499,0.04631680795,0.017574,-0.014568,0.007578,0.62439921215,-9.5925512172,1.9399711163,2.830206,1.361454,1.639558,0.00019999999999997797,-4.999999999999449e-05,-7.300000000000362e-05,-3.832189569941136e-05,2.6408458436488758e-05,3.551402024293271e-05
1504197802.57,-1.0,0.00171616375,-0.01770100325,0.03853032785,0.014411,-0.011342,0.005432,0.62406578605,-9.5921785645,1.94192263965,2.83065,1.361271,1.638976,0.00019999999999997797,-4.0000000000040004e-05,-7.100000000000162e-05,-6.327608148781749e-05,3.27865715321618e-05,4.3620482940265326e-05
1504197802.58,-1.0,-0.0031577413,-0.043374812949999994,0.03862839435,0.006968,-0.010212,0.002215,0.62385003975,-9.59193339825,1.9431778908499997,2.830939,1.361154,1.638577,0.00019000000000002348,-5.999999999994898e-05,-6.899999999999962e-05,-8.732180846759974e-05,5.250933608169639e-05,5.924095403642138e-05
1504197802.59,-1.0,-0.0026576021499999996,-0.07499145255,0.08950529454999999,-0.002589,-0.004805,0.002189,0.6234970003499999,-9.59159997215,1.9449725078,2.831373,1.360987,1.638095,0.00019999999999997797,-6.0000000000060005e-05,-6.899999999999962e-05,-8.024589743094168e-05,2.965090038542506e-05,7.182131349836585e-05
1504197802.6,-1.0,-0.0023928226,-0.07483454614999999,0.09017214675,-0.007908,-0.001566,0.004309,0.6232420274499999,-9.5917470719,1.9442958489499997,2.831393,1.361062,1.638047,0.00019000000000002348,-7.00000000000145e-05,-6.899999999999962e-05,-9.141307517368524e-05,-1.4015134932154893e-05,2.0169870589503702e-05
1504197802.61,-1.0,-0.0026183755499999996,-0.0475818658,0.09536967124999998,-0.00577,-0.000519,0.005379,0.6227124683499999,-9.59161958545,1.94508038095,2.831756,1.361001,1.637682,0.00019000000000002348,-7.999999999996898e-05,-6.799999999999862e-05,-7.893333952435633e-05,-1.7204194187492305e-05,1.6116722467596212e-05
1504197802.62,-1.0,0.009188831049999999,-0.02372228635,0.08674962589999999,0.00062,-0.001639,0.006459,0.62228097575,-9.591394032499998,1.94637485875,2.832151,1.360886,1.637269,0.00018999999999991246,-7.00000000000145e-05,-6.299999999999362e-05,-5.360974572532484e-05,1.6764271300928613e-05,-2.5510474213619183e-05
1504197802.63,-1.0,0.024497011699999998,-0.008521978849999999,0.07812958055,-0.000477,-0.004827,0.00753,0.621937743,-9.5911782862,1.9475124301499998,2.832479,1.360784,1.636906,0.000200000000000089,-7.00000000000145e-05,-6.20000000000065e-05,-3.9534059242951614e-05,1.9811648035661378e-05,-2.218759656424929e-05
1504197802.64,-1.0,0.040403398,-0.004648352099999999,0.08976026744999999,-0.012236,-0.007927,0.007514,0.62204561615,-9.591011573149999,1.9482969621499997,2.832546,1.360702,1.636768,0.00019999999999997797,-7.999999999996898e-05,-6.199999999999262e-05,-6.271768932841759e-05,4.180764837879991e-05,-3.380787423723497e-05
1504197802.65,-1.0,0.0273409402,-0.00010787314999999999,0.09156469105,-0.013297,-0.006854,0.008577,0.62179064325,-9.5910606064,1.9481498624,2.832642,1.360726,1.636601,0.00019999999999997797,-7.999999999996898e-05,-6.40000000000085e-05,-8.084960165133381e-05,2.400415614323137e-05,-2.46535659610414e-05
1504197802.66,-1.0,0.011964112999999998,-0.026389695149999996,0.0646062102,-0.009057,-0.01115,0.007524,0.6213003107499999,-9.591119446299999,1.9480125693,2.83285,1.360754,1.636294,0.00019999999999997797,-7.999999999996898e-05,-6.199999999999262e-05,-0.00010020976652924674,1.8704734799701583e-05,-7.70838189907419e-05
1504197802.67,-1.0,0.03713778355,-0.048640984,0.05435826095,0.000509,-0.014428,0.009681,0.62126108415,-9.591021379799999,1.9485421284,2.832946,1.360704,1.636041,0.00019000000000002348,-7.00000000000145e-05,-6.30000000000075e-05,-0.00014398200757215207,1.4377911823793e-05,-5.969056796883976e-05
1504197802.68,-1.0,0.0254188368,-0.03039080835,0.0786885596,0.005791,-0.021929,0.008635,0.6211630176499999,-9.590707566999999,1.95010138575,2.833224,1.360551,1.635544,0.00019000000000002348,-8.000000000008001e-05,-6.399999999999462e-05,-0.00014631588197655532,4.153805950091183e-06,-0.0001016838604898096
1504197802.69,-1.0,0.024908891,-0.022486648449999997,0.07675664955,0.003684,-0.018715,0.008625,0.6210747578,-9.59038394755,1.9517292896499998,2.833506,1.360392,1.635064,0.00018999999999991246,-7.999999999996898e-05,-6.699999999999762e-05,-0.00021030150590317653,-7.759835118692493e-06,-0.00010947566973684708
1504197802.7,-1.0,0.023447700149999997,0.00022555294999999998,0.082964259,0.002683,-0.013375,0.004344,0.6211826309499999,-9.59005052145,1.95329835365,2.833687,1.360233,1.634721,0.00019000000000002348,-7.999999999996898e-05,-7.100000000000162e-05,-0.00022278690329291528,-4.592376002143794e-06,-0.00010542495076648617
1504197802.71,-1.0,-0.00122583125,0.023153500649999995,0.08495500895,-0.002605,-0.009066,0.002192,0.6211728242999999,-9.5897857419,1.9546124447499997,2.833889,1.360103,1.634416,0.000180000000000069,-7.999999999996898e-05,-7.600000000000662e-05,-0.00023874341568808077,4.4604012917170976e-05,-0.00011480000712649208
1504197802.72,-1.0,-0.01020872265,0.025085410699999998,0.053818895199999994,-0.013211,-0.004711,-0.003171,0.6213297307,-9.58977593525,1.9546222513999998,2.833815,1.360098,1.634441,0.00017000000000000348,-6.0000000000060005e-05,-7.799999999999474e-05,-0.00033400959197571467,2.515266626179624e-05,-0.00010924908308629355
1504197802.73,-1.0,-0.018005009399999997,0.0053544309,0.0401288118,-0.00789,-0.005821,-0.002092,0.6213395373499999,-9.5897857419,1.9545437982,2.8338,1.360105,1.634408,0.00015999999999993797,-5.999999999994898e-05,-7.700000000000762e-05,-0.0004102429062411428,8.164974439450745e-06,-9.951028016164098e-05
1504197802.74,-1.0,-0.029292463549999998,-0.01787752295,0.0448163905,-0.011121,-0.008992,-0.001023,0.6211139844,-9.5899034217,1.9540436590499999,2.833831,1.360162,1.634315,0.000160000000000049,-6.0000000000060005e-05,-7.399999999999074e-05,-0.0005403425031296205,1.6099112831291507e-05,-0.00012879148387556771
1504197802.75,-1.0,-0.02103526425,-0.03488225405,0.059330232499999996,-0.009024,-0.011145,0.003254,0.6207805582999999,-9.5899622616,1.9538965593,2.833965,1.360187,1.634073,0.00014999999999998348,-4.999999999999449e-05,-7.100000000000162e-05,-0.000603190738760917,5.953655993007345e-05,-0.00010082168304392791
1504197802.76,-1.0,-0.0115522337,-0.052092924799999996,0.056790310149999995,-0.003728,-0.015452,0.004339,0.6204275189,-9.58995245495,1.9540436590499999,2.834149,1.360183,1.633749,0.00015999999999993797,-3.999999999992898e-05,-6.699999999999762e-05,-0.0006576813054426367,7.393576099934407e-05,-9.917027832750946e-05
1504197802.77,-1.0,0.00128467115,-0.035107807,0.0683915771,0.001618,-0.012302,0.007545,0.6197116334499999,-9.589589608899999,1.9560638289499999,2.83478,1.360005,1.633001,0.000160000000000049,-4.999999999999449e-05,-6.3500000000008e-05,-0.0007589478565128704,8.082221082261754e-05,-0.00012199243057486875
1504197802.78,-1.0,0.00169655045,-0.03509800035,0.0682935106,0.000574,-0.010161,0.006472,0.6192997541499999,-9.58959941555,1.9561520888,2.834985,1.360009,1.632682,0.000160000000000049,-5.0000000000105516e-05,-6.349999999999412e-05,-0.0007589547095876448,8.07294067910469e-05,-0.00012205326133674088
1504197802.79,-1.0,0.0166320784,-0.044512384349999996,0.049533389149999996,-0.010068,-0.006876,0.006447,0.61902516795,-9.58959941555,1.9562109286999998,2.835122,1.360012,1.632477,0.00015999999999993797,-6.999999999990347e-05,-6.30000000000075e-05,-0.0007121936382921135,8.816786018051026e-05,-9.766390794863078e-05
1504197802.8,-1.0,0.00901231135,-0.054534780649999996,0.033646616149999996,-0.018602,-0.004678,0.009631,0.61841715565,-9.58991322835,1.9548870309499997,2.835207,1.360162,1.632342,0.000160000000000049,-7.00000000000145e-05,-6.199999999999262e-05,-0.0005946178516207379,8.342486018420026e-05,-6.437314006479955e-05
1504197802.81,-1.0,-0.019005287699999998,-0.05416212795,0.030890947499999998,-0.026082,-0.003555,0.013886,0.6168088650499999,-9.590423174149999,1.9528570544,2.835658,1.360415,1.631849,0.00017000000000000348,-9.999999999998899e-05,-5.7000000000001494e-05,-0.0004644178838641988,2.5187994759034993e-05,-4.9747425399204737e-05
1504197802.82,-1.0,-0.04745437935,-0.061781894999999996,0.028596191400000002,-0.023989,-0.004644,0.020297,0.6141316496,-9.5910409931,1.9506603648,2.836581,1.360717,1.630883,0.00017000000000000348,-0.00012000000000000899,-5.099999999999549e-05,-0.0003302737489461194,3.2019856936793545e-05,-3.2962936696190326e-05
1504197802.83,-1.0,-0.077668668,-0.0667440599,0.025654196399999996,-0.017536,0.001697,0.020299,0.6106797088,-9.5916097788,1.9489638143499999,2.837945,1.360994,1.629532,0.00015999999999993797,-0.0001300000000000745,-4.600000000000437e-05,-0.00022769932234956158,2.4035891110774088e-05,8.616303706476813e-05
1504197802.84,-1.0,-0.10270504544999999,-0.06077181005,0.037490822949999995,-0.016377,0.009154,0.013886,0.60713950815,-9.59205107805,1.9478948895,2.839447,1.36121,1.62812,0.000160000000000049,-0.00014999999999998348,-4.700000000000537e-05,-0.00013123546088733562,-1.6540201170922586e-06,8.689363896108304e-05
1504197802.85,-1.0,-0.10903033469999998,-0.02405571245,0.05194582504999999,-0.016261,0.020879,0.009599,0.6037366006,-9.59240411745,1.9472182306499997,2.840942,1.361384,1.626822,0.00015999999999993797,-0.00014999999999998348,-5.099999999999549e-05,-0.00010773479607273373,2.9773173742420056e-05,0.00016147913982123008
1504197802.86,-1.0,-0.0875929978,0.011689526799999999,0.06547900205,-0.02259,0.025202,0.00211,0.6014516511499999,-9.592688510299999,1.94655137845,2.841915,1.36152,1.626108,0.000140000000000029,-0.00014999999999998348,-6.0000000000004494e-05,-0.00019326273126152316,-2.173604493926895e-05,0.00017534779751193774
1504197802.87,-1.0,-0.04946474259999999,0.029223817,0.056564757199999996,-0.025754,0.0263,-0.003233,0.6002846598,-9.593012129749999,1.9452863206,2.842281,1.361682,1.626016,0.00012999999999996348,-0.000140000000000029,-6.899999999999962e-05,-0.0002641165164289916,-7.532538915944187e-06,0.00022828710643008066
1504197802.88,-1.0,-0.031194953649999996,0.024693144699999996,0.045787248850000004,-0.023666,0.017763,-0.007483,0.60011794675,-9.59326710265,1.9440899093,2.842183,1.361806,1.626324,0.0001300000000000745,-0.000140000000000029,-7.499999999999174e-05,-0.0003937125005277764,-4.708790432017551e-06,0.00026068679838364694
1504197802.89,-1.0,0.0004903325,0.013474337099999999,0.05255383735,-0.023676,0.015633,-0.008547,0.6006082792499999,-9.593571108799999,1.9424227788,2.841713,1.361958,1.62697,0.00010999999999994348,-0.00012999999999996348,-7.900000000000962e-05,-0.0004965859903798275,-3.9364411836828594e-06,0.0002305335263621533
1504197802.9,-1.0,0.0261445289,-0.00887501825,0.0518379519,-0.015157,0.013431,-0.008529,0.60158894425,-9.593669175299999,1.9416382468,2.841137,1.362005,1.627698,0.00012000000000000899,-0.00012999999999996348,-7.799999999999474e-05,-0.0005772640065058177,3.128381943517944e-05,0.00024043675676410636
1504197802.91,-1.0,0.027615526399999996,-0.01577889985,0.06601836779999999,-0.01198,0.012336,-0.00532,0.6023538629499999,-9.593649562,1.9415107603499997,2.840758,1.361994,1.628208,0.0001100000000000545,-0.00012000000000000899,-7.150000000000212e-05,-0.0006320347419781491,1.3589510950096084e-05,0.00019329916989241358
1504197802.92,-1.0,0.011513007099999998,-0.011434553899999998,0.07336354865,-0.01205,0.008067,0.002159,0.6023048297,-9.593649562,1.9415009536999999,2.840783,1.361996,1.628275,0.00010999999999994348,-0.00012000000000000899,-7.150000000000212e-05,-0.000632037282345177,1.3711778633629379e-05,0.00019329212498486736
1504197802.93,-1.0,-0.00781590005,-0.018524761849999998,0.0717454514,-0.014226,0.005948,0.007496,0.60143203785,-9.5937476285,1.9413244339999998,2.841166,1.362041,1.62796,0.0001100000000000545,-0.00012000000000000899,-6.499999999999562e-05,-0.000636249653255927,3.349589288870192e-05,0.00010006273781293373
1504197802.94,-1.0,-0.0068842683,-0.018103075899999998,0.06948011525,-0.015296,0.005956,0.008562,0.6003434997,-9.5938653083,1.9410498477999998,2.841635,1.362102,1.627542,0.00010999999999994348,-0.00012000000000000899,-6.30000000000075e-05,-0.0005570847888303199,5.985613740810969e-05,5.669051123513569e-05
1504197802.95,-1.0,0.0066096821,-0.00644296905,0.063350959,-0.01424,0.003817,0.0075,0.59956877435,-9.5940026014,1.9405987419,2.841935,1.362171,1.627284,0.0001100000000000545,-0.00012999999999996348,-6.399999999999462e-05,-0.0005111192170259571,6.327529653260555e-05,4.6507358631986406e-05
1504197802.96,-1.0,0.0480721983,-0.010414662299999999,0.062958693,-0.01429,-0.002576,0.00751,0.5997158740999999,-9.59407124795,1.94023589585,2.841814,1.362202,1.627381,0.00012000000000000899,-0.00012000000000000899,-6.599999999999662e-05,-0.00047983837148057873,7.071370339439831e-05,3.309856155109259e-05
1504197802.97,-1.0,0.07475609294999999,-0.01179739995,0.0441495383,-0.012232,-0.012184,0.007529,0.60041214625,-9.594188927749999,1.93945136385,2.841374,1.362259,1.627719,0.00012000000000000899,-0.0001300000000000745,-6.899999999999962e-05,-0.0004916264413281635,3.2744519442129416e-05,-4.912190659733806e-05
1504197802.98,-1.0,0.08566108774999999,-0.018005009399999997,0.02160404995,-0.017653,-0.021732,0.009669,0.6013241646999999,-9.5944144807,1.9380490128999999,2.840736,1.362371,1.628147,0.00012999999999996348,-0.00011999999999989797,-7.100000000000162e-05,-0.000535976738935906,3.350539874413805e-05,-9.3489016732895e-05
1504197802.99,-1.0,0.09899813175,-0.023290793749999997,0.0347743809,-0.019854,-0.030239,0.009678,0.60264806245,-9.59465964695,1.9364014956999998,2.839873,1.362493,1.628705,0.00013499999999999623,-0.0001100000000000545,-7.300000000000362e-05,-0.0005526814789431622,2.8009212997837096e-05,-0.0001522780985371286
1504197803.0,-1.0,0.1022049063,-0.00505042475,0.02693886755,-0.022013,-0.033418,0.009678,0.6040798333499999,-9.594953846449998,1.9345088122499998,2.838921,1.362637,1.629309,0.00013499999999999623,-0.00010999999999994348,-7.300000000000362e-05,-0.0005526843882137644,2.792500314519053e-05,-0.00015229318550213922
1504197803.01,-1.0,0.08334671834999999,-0.0033538743,0.026281822,-0.022066,-0.038749,0.01182,0.6051291448999999,-9.5952970792,1.9324788357,2.838126,1.362807,1.629709,0.000140000000000029,-0.00012000000000000899,-7.499999999999174e-05,-0.000516211778869069,5.299765082145136e-05,-0.0002191682024513808
1504197803.02,-1.0,0.04058972435,-0.0008727918499999999,0.02272200805,-0.021001,-0.037694,0.013954,0.6052468247,-9.5956893452,1.9304978924,2.83778,1.363,1.629666,0.00013999999999991797,-9.999999999998899e-05,-6.40000000000085e-05,-0.00041706254153961453,4.462826111617524e-05,-0.00026542655078909405
1504197803.03,-1.0,0.0045895122,-0.0092770909,0.0029223816999999997,-0.015685,-0.038806,0.016099,0.6045897791499999,-9.59611103115,1.9285954022999998,2.83781,1.363209,1.629249,0.000140000000000029,-0.00010000000000010001,-6.199999999999262e-05,-0.0003069477556143507,7.123072298420574e-05,-0.00023320421801364954
1504197803.04,-1.0,-0.0320873588,-0.035686399349999995,0.0028635417999999997,-0.008164,-0.033537,0.013969,0.60325607475,-9.59648368385,1.9271636313999998,2.838226,1.363393,1.628487,0.000140000000000029,-0.00010999999999994348,-6.0000000000004494e-05,-0.0002251918316455992,4.9440507758902186e-05,-0.00023557098519855213
1504197803.05,-1.0,-0.048905763549999995,-0.048140844849999996,0.012905551399999998,-0.007069,-0.029285,0.015032,0.60151049105,-9.596748463399999,1.9263987127,2.838937,1.363524,1.627463,0.00014999999999998348,-0.00012000000000000899,-5.4999999999999494e-05,-0.0001255450173629491,3.627229771541174e-05,-0.00022004002829989489
1504197803.06,-1.0,-0.045689182349999996,-0.04876847045,0.048454657649999996,-0.004886,-0.023973,0.01396,0.5997943272999999,-9.596875949849998,1.92631045285,2.839736,1.363586,1.626417,0.000140000000000029,-0.000140000000000029,-5.2999999999997494e-05,-6.575821233356649e-05,3.360098112126231e-05,-0.00019971460196133162
1504197803.07,-1.0,-0.045375369549999996,-0.03837342144999999,0.0572512227,-0.00589,-0.017569,0.011814,0.59813700345,-9.5969445964,1.92648697255,2.840548,1.363619,1.625419,0.00014999999999998348,-0.00012999999999996348,-5.1999999999996493e-05,-5.623622100170422e-05,4.4579522858301246e-05,-0.00018706844860372218
1504197803.08,-1.0,-0.028125472199999998,-0.019015094349999997,0.04988642855,-0.005856,-0.015434,0.008609,0.5970484653,-9.5970034363,1.9265261991499998,2.841069,1.363649,1.624739,0.000140000000000029,-0.00012999999999996348,-5.4999999999999494e-05,-7.412491541014532e-05,3.5967621418553364e-05,-0.0002049517718166749
1504197803.09,-1.0,-0.0068254284,-0.0076295737,0.0234575068,-0.010095,-0.013266,0.006463,0.59654832615,-9.597160342699999,1.92587896025,2.84121,1.36373,1.624464,0.00014999999999998348,-0.0001300000000000745,-5.9000000000003494e-05,-0.00012312767964095528,4.6746199828140433e-05,-0.0001781394147849502
1504197803.1,-1.0,0.00316754795,-0.00638412915,-0.0023143694,-0.016531,-0.017475,0.006459,0.5962835465999999,-9.59750357545,1.924260863,2.841102,1.363898,1.624411,0.000140000000000029,-0.00010999999999994348,-6.499999999999562e-05,-0.00018704168234862095,7.700383518183251e-05,-0.0001579390994682628
1504197803.11,-1.0,0.0177892631,-0.01579851315,-0.01456287525,-0.019827,-0.025978,0.011805,0.5960285737,-9.59797429465,1.9219955268499997,2.840887,1.364132,1.624383,0.00013999999999991797,-0.0001100000000000545,-6.799999999999862e-05,-0.0003145498252272727,3.6695620553528485e-05,-0.0001463319685425235
1504197803.12,-1.0,0.005207331149999999,-0.0319304524,-0.013533176999999999,-0.01562,-0.030281,0.017157,0.59513616855,-9.59844501385,1.9199165170499999,2.841004,1.364366,1.623963,0.0001300000000000745,-9.999999999998899e-05,-6.50000000000095e-05,-0.0004254410875961234,7.787089530530977e-06,-0.0001513256594511958
1504197803.13,-1.0,-0.020495898499999998,-0.0423451147,-0.00326561445,-0.023099,-0.030221,0.019279,0.5934592314,-9.5991020594,1.9171314284499998,2.841394,1.364695,1.623262,0.00012999999999996348,-9.00000000000345e-05,-6.299999999999362e-05,-0.00041576622547512265,4.557235631885703e-05,-0.00010738934766141295
1504197803.14,-1.0,-0.03727507665,-0.05012178815,0.00630567595,-0.013455,-0.024972,0.019287,0.59139002825,-9.599562971949998,1.9154937178999998,2.842138,1.364922,1.622228,0.00012999999999996348,-8.999999999992347e-05,-6.0000000000004494e-05,-0.0004489948496555485,2.2694399300027257e-05,-7.417851199487124e-05
1504197803.15,-1.0,-0.036196345149999996,-0.05053366744999999,0.019642719949999998,-0.010201,-0.019669,0.01715,0.5894090849499999,-9.59989639805,1.9144247930499998,2.842925,1.365089,1.621221,0.0001300000000000745,-9.999999999998899e-05,-5.8000000000002494e-05,-0.00038478837550659506,4.609392335219731e-05,-3.179479717874134e-05
1504197803.16,-1.0,-0.02185902285,-0.04714056654999999,0.0209666177,-0.011168,-0.011129,0.010729,0.58809499385,-9.60015137095,1.9135520011999998,2.843425,1.365217,1.620585,0.00012999999999996348,-9.999999999998899e-05,-5.7000000000001494e-05,-0.0003057311080358893,7.012704067888009e-06,1.3009914133665923e-05
1504197803.17,-1.0,-0.007021561399999999,-0.025507096649999998,-0.005452497399999999,-0.013246,-0.006845,0.00645,0.5868691626,-9.6005338303,1.9119829372,2.843779,1.365409,1.62016,0.000140000000000029,-0.00010000000000010001,-5.7999999999988616e-05,-0.00023913689006649363,3.878148326563746e-05,3.5449691638045344e-05
1504197803.19,-1.0,-0.00661948875,-0.0251638639,-0.00387362675,-0.016377,0.000642,0.004296,0.58646708995,-9.60087706305,1.9104138732,2.843741,1.365579,1.620194,0.00013999999999991797,-0.00010999999999994348,-6.40000000000085e-05,-0.0002391343195182749,3.878978804405797e-05,3.544023825530207e-05
1504197803.2,-1.0,-0.005933023249999999,-0.0049229383,-0.0169066646,-0.014149,0.009154,-0.001052,0.5862219236999999,-9.601210489149999,1.90877616265,2.843616,1.365749,1.620394,0.000140000000000029,-9.999999999998899e-05,-6.899999999999962e-05,-0.0002461570159253412,6.297686126166546e-05,3.410758810706849e-05
1504197803.21,-1.0,-0.03721623675,0.01003220295,-0.02427145875,-0.0088,0.012305,0.001087,0.5853393252,-9.601494881999999,1.9076091712999999,2.84387,1.365892,1.620254,0.00014999999999998348,-9.00000000000345e-05,-7.300000000000362e-05,-0.00020302606978805926,6.51640688897892e-05,4.39787281304449e-05
1504197803.22,-1.0,-0.0381870951,0.00577611685,-0.041011410299999995,-0.00028,0.011168,0.002173,0.5843586601999999,-9.601740048249999,1.9066873461999998,2.844202,1.366013,1.620044,0.000140000000000029,-9.00000000000345e-05,-7.699999999999374e-05,-0.00020102648329101136,7.248781923085978e-05,3.7648217627528346e-05
1504197803.23,-1.0,-0.02076067805,0.0089240515,-0.0352058735,-0.000324,0.009032,0.007514,0.58325050875,-9.601887148,1.9062754669,2.844675,1.366089,1.619668,0.00014999999999998348,-8.999999999992347e-05,-7.899999999999574e-05,-0.00021689163168958636,6.309544250182597e-05,2.6990910187207895e-05
1504197803.24,-1.0,0.011836626549999998,-0.023486926749999998,-0.0505827007,-0.008902,0.005903,0.010706,0.58236791025,-9.60224999405,1.90473582285,2.844871,1.366268,1.619524,0.00014999999999998348,-7.00000000000145e-05,-6.20000000000065e-05,-0.00023836943698585245,4.082284087680854e-05,8.11549143753254e-06
1504197803.25,-1.0,0.03601982545,-0.06806795765,-0.036333638249999994,-0.014316,-0.00258,0.012846,0.5816814447499999,-9.602710906599999,1.90261758645,2.844888,1.366501,1.61948,0.00014999999999998348,-7.00000000000145e-05,-5.8000000000002494e-05,-0.0002223132282366258,5.0126404280703696e-05,-6.71477000679932e-06
1504197803.26,-1.0,0.0543680676,-0.07699200915,-0.02266316815,-0.017569,-0.008947,0.012851,0.58144608515,-9.60321104575,1.9001659239499997,2.844644,1.366752,1.619623,0.0001500000000000945,-5.999999999994898e-05,-5.7000000000001494e-05,-0.00018527195683093467,1.995800170662143e-05,-2.6180460999447597e-05
1504197803.27,-1.0,0.0565255306,-0.06604778774999999,-0.029214010349999996,-0.014397,-0.011107,0.014993,0.5810832390999999,-9.60368176495,1.8978907811499999,2.844482,1.36699,1.619658,0.00017000000000000348,-7.00000000000145e-05,-5.3999999999998494e-05,-0.00014536540365561734,9.49482390155687e-06,-3.0920424452518525e-05
1504197803.28,-1.0,0.05298532994999999,-0.056290171,-0.0234967334,-0.008011,-0.012226,0.016073,0.5805732933,-9.60401519105,1.8963609437499998,2.844501,1.367158,1.619505,0.00015999999999993797,-4.999999999999449e-05,-5.2999999999997494e-05,-0.00014044781586131094,-3.241647343665832e-05,-7.156230892046977e-05
1504197803.29,-1.0,0.04638545449999999,-0.06483176315,-0.0286942579,-0.00258,-0.014333,0.018202,0.5798476012,-9.60430939055,1.89512530585,2.844671,1.367303,1.619171,0.00017000000000000348,-4.999999999999449e-05,-5.2999999999997494e-05,-0.00021806194070772555,-3.853708480705542e-05,-0.000109766121119792
1504197803.3,-1.0,0.0439141787,-0.0640178112,-0.035980598849999997,-0.011088,-0.010002,0.019247,0.5788767428499999,-9.6046722366,1.8935856618,2.844911,1.367486,1.618788,0.00017000000000000348,-4.0000000000040004e-05,-5.099999999999549e-05,-0.0003271303781708923,-9.687405881253497e-06,-0.00010676193498149189
1504197803.31,-1.0,0.05047482755,-0.05918313275,-0.004118793,-0.022801,-0.007773,0.018154,0.5780039509999999,-9.605162569099999,1.8913497456,2.845001,1.367735,1.618594,0.00017999999999995797,-2.0000000000020002e-05,-5.100000000000937e-05,-0.000442677834185945,-6.15068660980711e-06,-0.0001330118955856774
1504197803.32,-1.0,0.03772618255,-0.032705177749999995,0.01422944915,-0.03125,-0.000239,0.012788,0.5772782589,-9.605750968099999,1.8885646569999999,2.844939,1.368034,1.618633,0.00017000000000000348,-2.0000000000020002e-05,-5.2999999999997494e-05,-0.0005046161504027591,-1.8922569152035607e-05,-0.00010802115449382033
1504197803.33,-1.0,0.04882731034999999,-0.05494665995,-0.048376204449999995,-0.026937,0.002926,0.008519,0.57740574535,-9.606555113399999,1.8844262506999998,2.844267,1.368442,1.619313,0.00019000000000002348,-9.99999999995449e-06,-5.7000000000001494e-05,-0.0005257039096042693,-4.031144502913975e-05,-0.0001404766054692308
1504197803.34,-1.0,0.049621649,-0.054544587299999996,-0.04659139415,-0.015253,-0.003564,0.008551,0.5766114067,-9.60695718605,1.8826512470499999,2.844388,1.368643,1.619175,0.000180000000000069,2.0000000000020002e-05,-5.4999999999999494e-05,-0.0005403109527302163,-3.640855084729999e-05,-0.00014369131330782547
1504197803.35,-1.0,0.09162353095,-0.048258524649999995,-0.07606037739999999,-0.010073,-0.02066,0.01179,0.57740574535,-9.60740829195,1.8800917113999998,2.843622,1.368874,1.619756,0.00018999999999991246,2.999999999997449e-05,-5.9999999999990616e-05,-0.0005011005058066509,1.226268315779322e-07,-0.00018240908572086934
1504197803.36,-1.0,0.10636292589999999,-0.026487761649999997,-0.0989687118,-0.011274,-0.034508,0.01608,0.5783864103499999,-9.6079280444,1.8771202964499998,2.8427,1.369139,1.620341,0.00021999999999999797,4.0000000000040004e-05,-6.20000000000065e-05,-0.0004465490766025759,-1.438319264690513e-05,-0.00018388484446885123
1504197803.37,-1.0,0.0983606995,-0.01573967325,-0.10843212905,-0.019915,-0.044033,0.021416,0.57889635615,-9.608653736499999,1.87325647635,2.84187,1.369507,1.62071,0.00021999999999999797,5.999999999994898e-05,-6.399999999999462e-05,-0.0004073547012104495,2.213461480393697e-05,-0.00022263313521631023
1504197803.38,-1.0,0.07156893169999999,0.00442279915,-0.10533322765,-0.025277,-0.047186,0.021411,0.57905326255,-9.60950691505,1.8688140639,2.841124,1.369945,1.620959,0.00024000000000001798,7.999999999996898e-05,-6.70000000000115e-05,-0.0003793483177749746,1.676769404745926e-05,-0.00025065457822814885
1504197803.39,-1.0,0.04474774395,-0.014356935599999999,-0.1107170785,-0.028453,-0.045027,0.019266,0.5787982896499999,-9.61048758005,1.8638715123,2.840499,1.370444,1.62111,0.00024000000000001798,9.00000000000345e-05,-6.999999999998674e-05,-0.00032479697686849107,2.2771065271154356e-06,-0.00025212821023679055
1504197803.4,-1.0,0.037912508899999996,-0.06478272989999999,-0.10853019555,-0.030593,-0.046074,0.018196,0.57844525025,-9.611536891599998,1.8585465013499998,2.839862,1.370984,1.621265,0.00024999999999997247,9.999999999998899e-05,-7.000000000000062e-05,-0.00034683549823366633,-7.507175357956974e-05,-0.0003196346929019711
1504197803.41,-1.0,0.03717701015,-0.10631389264999999,-0.08830888325,-0.028486,-0.047161,0.021403,0.57783723795,-9.6124979433,1.85374124285,2.839426,1.37148,1.621207,0.0002500000000000835,9.999999999998899e-05,-6.899999999999962e-05,-0.0003949277602262047,-0.00014791854649298664,-0.0003518884411579659
1504197803.42,-1.0,0.0614876955,-0.14334380305,-0.06246836049999999,-0.02319,-0.050404,0.023551,0.5773174855,-9.613331508549999,1.8495930298999999,2.839043,1.371908,1.621067,0.00024999999999997247,0.00012000000000000899,-6.40000000000085e-05,-0.00041988148460814223,-0.00018406800061554485,-0.000371555454987349
1504197803.43,-1.0,0.079629998,-0.1373127133,-0.06688135299999999,-0.011476,-0.051568,0.025707,0.5769840594,-9.6139689408,1.8463666420499998,2.838711,1.372238,1.620852,0.00026999999999999247,0.00014999999999998348,-2.2999999999995246e-05,-0.00044240672557327443,-0.00016055690727512228,-0.0004107224661407116
1504197803.44,-1.0,0.10686306505,-0.07864933299999999,-0.0507788337,-0.001842,-0.049514,0.022515,0.57742535865,-9.614272946949999,1.8446308649999998,2.838224,1.372397,1.620792,0.00029000000000001247,0.00017000000000000348,-1.9000000000005124e-05,-0.00048621901888257213,-0.00010000849625901864,-0.00048174452788352085
1504197803.45,-1.0,0.14904146669999999,-0.00975761675,-0.029223817,0.001368,-0.049539,0.020383,0.5787982896499999,-9.614341593499999,1.8438757529499998,2.83743,1.372429,1.621044,0.00031999999999998696,0.00017000000000000348,-1.9999999999992246e-05,-0.0004917083346835938,-6.973888353023483e-05,-0.0004758632214068026
1504197803.46,-1.0,0.1787948428,0.05514279295,-0.03956983275,0.003525,-0.050616,0.01398,0.5813578253,-9.614292560249998,1.8432971605999997,2.836076,1.372406,1.621844,0.00034000000000000696,0.00019999999999997797,-2.6000000000012125e-05,-0.0004440587979090971,7.342757069705996e-06,-0.0005053843496392041
1504197803.47,-1.0,0.21099988139999998,0.07095111275,-0.06621450079999999,0.003519,-0.053809,0.009711,0.5850745456499999,-9.614243527,1.84240475545,2.834105,1.372378,1.623232,0.00037999999999993594,0.00021000000000004349,-3.499999999999337e-05,-0.00040494423579273686,4.3712698336362266e-05,-0.0005442425536055229
1504197803.48,-1.0,0.24557812929999998,0.0519556317,-0.1441185284,0.000301,-0.058043,0.005431,0.593890724,-9.6144004334,1.8387664883,2.829185,1.372459,1.627483,0.00040000000000006697,0.0002300000000000635,-4.700000000000537e-05,-0.0004003085213211133,5.994077298732137e-05,-0.0005842708438471567
1504197803.49,-1.0,0.24488185715,0.05202427824999999,-0.14353993605,-0.004051,-0.068663,0.005443,0.59458699615,-9.6144592733,1.83818789595,2.828753,1.372494,1.627249,0.00043999999999999595,0.00024999999999997247,-5.7999999999988616e-05,-0.00037595295190784306,4.6165562160194185e-05,-0.0006886385019718722
1504197803.5,-1.0,0.250657974,0.024232232149999998,-0.17624511379999996,-0.010626,-0.087795,0.008661,0.5997354873999999,-9.61495941245,1.83393180985,2.825535,1.37275,1.62958,0.00044999999999995044,0.00026999999999999247,-6.70000000000115e-05,-0.0003590448434536153,6.357726122940832e-05,-0.0007943370564006402
1504197803.51,-1.0,0.23714441029999997,0.00679600845,-0.1786575497,-0.016163,-0.108005,0.016153,0.60441325945,-9.615626264649999,1.8288617717999998,2.822405,1.373098,1.631619,0.0004899999999999904,0.00031000000000003247,-7.599999999999274e-05,-0.00036725454411956626,2.8826168619877635e-05,-0.000892703258460803
1504197803.52,-1.0,0.22436634535,-0.0317539327,-0.16893915955,-0.017439,-0.128251,0.024721,0.6083653393999999,-9.616430409949999,1.8233308212,2.819553,1.373515,1.633168,0.000500000000000056,0.00031999999999998696,-8.299999999999974e-05,-0.00035039711323192613,-7.960849289556649e-06,-0.0010606199957700069
1504197803.53,-1.0,0.2210026644,-0.12535840694999997,-0.1719498011,-0.018688,-0.1453,0.032211,0.6151711544999999,-9.617695467799999,1.81437734975,2.814703,1.374172,1.6365,0.0005199999999999649,0.00035999999999991594,-8.500000000000174e-05,-0.0003423821775989655,-3.8283480578105156e-05,-0.001287603766827572
1504197803.54,-1.0,0.22148319025,-0.12492691435,-0.16978253144999997,-0.010314,-0.163488,0.03546,0.61469062865,-9.6181269604,1.8122100801,2.814577,1.374402,1.63501,0.0005500000000000504,0.0004849999999999577,-8.950000000000624e-05,-0.0004402282537681046,-0.00012920562310658745,-0.0017087896695882066
1504197803.55,-1.0,0.26251421385,-0.14187280555,-0.1478254421,-0.010422,-0.175212,0.037609,0.6185446421,-9.6188330392,1.8071596553499998,2.811815,1.374769,1.635957,0.0005499999999999394,0.0004850000000000687,-8.949999999999236e-05,-0.000440013257795524,-0.00012995922489023037,-0.0017087577102525842
1504197803.56,-1.0,0.2923558498,-0.11835645885,-0.14307902349999999,-0.020087,-0.182593,0.037599,0.6229772479,-9.619607764549999,1.80151102495,2.808658,1.375174,1.637217,0.0006099999999999994,0.0005399999999999849,-8.800000000000474e-05,-0.0004436571046362303,-0.00017235322191955227,-0.0019339879725872589
1504197803.57,-1.0,0.30756596395,-0.07196119769999999,-0.18522800519999996,-0.031881,-0.189956,0.036517,0.6279688327499999,-9.62066688275,1.7941266175,2.804908,1.375728,1.639001,0.0006500000000000394,0.0005600000000000049,-9.099999999999386e-05,-0.00035281364698724893,-0.00010281942701184654,-0.0020157334128824145
1504197803.58,-1.0,0.29093388555,0.0817090078,-0.23448680815,-0.031875,-0.189956,0.0333,0.638609048,-9.62215749355,1.7823390242,2.797543,1.376514,1.64432,0.0007000000000000339,0.0005800000000000249,-9.800000000000086e-05,-0.0002486989100083381,-3.435770555149098e-05,-0.002128706357234722
1504197803.59,-1.0,0.29062987939999996,0.08232682675,-0.231044674,-0.019124,-0.196454,0.033334,0.63891305415,-9.62276550585,1.77889689005,2.796777,1.37684,1.643119,0.0007499999999999174,0.0006199999999999539,-0.00010699999999999599,-3.443791105617322e-05,4.786463270800567e-05,-0.0019974008444143543
1504197803.6,-1.0,0.2353007601,0.14957102579999998,-0.21856080855,0.003106,-0.210504,0.045133,0.6429239739999999,-9.6234225514,1.7738954985499997,2.793881,1.377188,1.643846,0.0007900000000000684,0.0006400000000000849,-0.00011700000000000599,9.519024489357264e-05,0.00010664397290760519,-0.0020563839752636426
1504197803.61,-1.0,0.1488453337,0.17372480475000002,-0.21212764615,0.030574,-0.232063,0.064428,0.6440811586999999,-9.62378539745,1.7715026759499999,2.792873,1.37738,1.642493,0.0008399999999999519,0.0006599999999999939,-0.0001229999999999981,0.00022310509512379895,0.00014618362178420163,-0.002034012047967937
1504197803.62,-1.0,0.0320285189,0.1312914302,-0.233594403,0.058067,-0.250426,0.08372,0.6414922031,-9.62400114375,1.77126731635,2.794124,1.377495,1.638671,0.0008599999999999719,0.0007099999999999884,-0.0001239999999999991,0.00030847516908982797,0.00020107273738401155,-0.0020756185802595084
1504197803.63,-1.0,-0.05665301705,0.050180628049999995,-0.24715699994999998,0.085643,-0.262388,0.096598,0.63604951235,-9.6239913371,1.7733169061999998,2.797209,1.377487,1.63286,0.0008900000000000574,0.0007300000000000084,-0.00011800000000000699,0.0003531124441527034,0.00020392272532920863,-0.0020585492835536456
1504197803.64,-1.0,-0.1238776028,-0.04084469725,-0.24347950619999997,0.101661,-0.257197,0.100889,0.62875336475,-9.623795204099999,1.7769649799999998,2.801507,1.377384,1.625846,0.0009099999999999664,0.0007500000000000284,-0.00010099999999998999,0.000438187877811691,0.000137556323078325,-0.00223230037587574
1504197803.65,-1.0,-0.12004320265,-0.0977134606,-0.21612875934999998,0.10818,-0.246588,0.093413,0.6216239302,-9.623344098199999,1.7819369515499999,2.805944,1.377143,1.618794,0.0009200000000000319,0.0007899999999999574,-9.100000000000774e-05,0.0004323149455647268,0.00012459484313098734,-0.002226248341544501
1504197803.66,-1.0,-0.09778210715,-0.12484846114999998,-0.2303974351,0.10304,-0.229483,0.080567,0.61582820005,-9.62284395905,1.7866245302500001,2.809656,1.376879,1.612641,0.0009500000000000064,0.0008299999999999974,-8.199999999999874e-05,0.00035917874481872225,0.00022933106353795196,-0.0019949107020631462
1504197803.67,-1.0,-0.072765343,-0.0951833449,-0.2321037922,0.090389,-0.214453,0.073049,0.6111700413,-9.622432079749998,1.79042951045,2.812644,1.376662,1.607376,0.0009599999999999609,0.0008700000000000374,-7.999999999999674e-05,0.0003519681455546042,0.00025860006819766745,-0.001961865543618102
1504197803.68,-1.0,-0.040491657849999994,-0.04463006415,-0.24896142354999998,0.087274,-0.206962,0.066626,0.607620034,-9.6221084603,1.79337150545,2.814918,1.376492,1.602924,0.0009900000000000464,0.0009099999999999664,-8.299999999999974e-05,0.0003731296095139669,0.00035056187774040737,-0.0018866856866548432
1504197803.69,-1.0,-0.0550545331,0.00811009955,-0.2620925279,0.092616,-0.20594,0.065567,0.6040700267,-9.62172600095,1.79662731325,2.817242,1.376289,1.598435,0.0010099999999999554,0.0009399999999999409,-9.000000000000674e-05,0.00040394620343509047,0.0004107918201072813,-0.0018036317700598214
1504197803.7,-1.0,-0.09301607525,0.07286340949999999,-0.25929763265,0.107558,-0.203934,0.066659,0.5998335538999999,-9.6210885687,1.8014619916999999,2.820167,1.375952,1.593371,0.001040000000000041,0.000980000000000092,-9.800000000000086e-05,0.00041680136414212754,0.00047158992116957954,-0.0016753271725611363
1504197803.71,-1.0,-0.12004320265,0.107284751,-0.28959037449999997,0.128927,-0.198783,0.067757,0.59499887545,-9.62019616355,1.80780689425,2.823634,1.375484,1.587804,0.0010700000000000154,0.0010199999999999099,-0.00010699999999999599,0.000493810713103171,0.0005381685939849223,-0.001630059996148181
1504197803.72,-1.0,-0.1475508559,0.09044673295,-0.3042611229,0.147085,-0.191481,0.074183,0.588987399,-9.6190683988,1.8157502807499997,2.827926,1.374894,1.581468,0.0010899999999999244,0.0010499999999999954,-0.00011200000000000099,0.0005133238864745149,0.0005704935413421985,-0.0015345372683019942
1504197803.73,-1.0,-0.18482593255,0.060860069899999994,-0.27787142774999996,0.163065,-0.188425,0.082748,0.5815147316999999,-9.61760720795,1.82587074355,2.833264,1.37413,1.574116,0.0010999999999999899,0.0010900000000000354,-0.00011099999999999999,0.0006134046670343007,0.0006141230760927652,-0.0014495934021587775
1504197803.74,-1.0,-0.21503041454999997,0.029017877349999995,-0.27051644025,0.174792,-0.182139,0.093436,0.57236512725,-9.61599891735,1.83722684425,2.839582,1.373289,1.56583,0.0011500000000000954,0.0011200000000000099,-8.899999999999186e-05,0.0007997654642208918,0.0006708553062859668,-0.0014325063619707867
1504197803.75,-1.0,-0.25217800474999996,-0.023124080699999997,-0.28591288075,0.198392,-0.162093,0.098784,0.56163665215,-9.61413565385,1.8502304621499999,2.846884,1.372324,1.556717,0.0011700000000000044,0.0011499999999999844,-7.700000000000762e-05,0.0008737569731986916,0.0006724758724132585,-0.0012845288028738855
1504197803.76,-1.0,-0.2700359144,-0.08812255689999998,-0.2664074539,0.227406,-0.136756,0.096661,0.55016287165,-9.611683991349999,1.86633298145,2.854929,1.371062,1.547108,0.0011899999999999133,0.0011700000000000044,-6.399999999999462e-05,0.0008446072460548404,0.0007275322538702333,-0.0011320737989575225
1504197803.77,-1.0,-0.24825534475,-0.1253878269,-0.2310839006,0.243613,-0.111314,0.095583,0.5386988978,-9.60868315645,1.8850244563499998,2.863234,1.369526,1.537492,0.0012000000000000899,0.0012100000000000444,-5.100000000000937e-05,0.0007697401467876563,0.0007133184441632245,-0.0008878499995742528
1504197803.78,-1.0,-0.2250233909,-0.13583190914999999,-0.27606700414999996,0.251216,-0.094326,0.094504,0.5274408636,-9.6055744484,1.9039709041499997,2.871347,1.367945,1.52826,0.0012299999999999534,0.0012199999999999989,-4.200000000000037e-05,0.0008297462907422837,0.0007757947258286713,-0.0007352236411396484
1504197803.79,-1.0,-0.24804940509999998,-0.10798102315,-0.274978466,0.255605,-0.078378,0.094489,0.5154571373,-9.602299027299999,1.9236822706499999,2.879792,1.366293,1.518863,0.0012400000000000189,0.0012400000000000189,-3.999999999999837e-05,0.0008957609964685975,0.0008636015633165517,-0.0005529992079750246
1504197803.8,-1.0,-0.25298215004999997,-0.035588332849999994,-0.1980747167,0.263226,-0.061387,0.090208,0.503473411,-9.5985332737,1.9455412935,2.888363,1.364409,1.509502,0.0012599999999999278,0.0012599999999999278,-4.400000000000237e-05,0.0010053310519835268,0.0008807613596328867,-0.0003418316902820129
1504197803.81,-1.0,-0.2387723142,0.048690017249999995,-0.17608820739999997,0.273016,-0.040151,0.085924,0.49181330414999996,-9.5943752541,1.9689007338,2.896811,1.362349,1.500485,0.0012700000000001044,0.0012800000000000589,-5.4999999999999494e-05,0.0010921794491793868,0.000932172692168276,-0.00013437132666949125
1504197803.82,-1.0,-0.26521104259999995,0.09593845695,-0.19971242725,0.291374,-0.016851,0.078449,0.47994725764999996,-9.5898445818,1.9937115583,2.905358,1.360131,1.491588,0.0012699999999999934,0.0012900000000000134,-7.099999999998774e-05,0.0011713507811421664,0.0009404856151191687,9.041103752371882e-05
1504197803.83,-1.0,-0.28562848789999995,0.08148345485,-0.20192873015,0.30977,0.008584,0.066701,0.46833618405,-9.58481377035,2.02047390615,2.91382,1.357693,1.483053,0.0012799999999999478,0.0012899999999999023,-8.500000000000174e-05,0.0011765526851086339,0.0009058226291915883,0.00014081994588122093
1504197803.84,-1.0,-0.24467591749999998,0.07658012985,-0.16213334445,0.323873,0.034049,0.060281,0.45760770895,-9.57916513995,2.0495113968,2.921919,1.354987,1.475125,0.0012600000000000389,0.0013000000000000789,-0.00010400000000000686,0.0011514162903285552,0.0008379745654545356,0.0003462941984803125
1504197803.85,-1.0,-0.2063711426,0.08160113465,-0.1389602305,0.33689,0.053136,0.047466,0.4481835183,-9.572967337149999,2.0803533110499997,2.929401,1.352052,1.468036,0.0012599999999999278,0.0012999999999999678,-0.0001260000000000011,0.0011418681080697102,0.0007216370347953305,0.0005551577521890616
1504197803.86,-1.0,-0.16264329025,0.06145827555,-0.10786334334999999,0.33493,0.067019,0.034633,0.4403774249,-9.566436108249999,2.11181304425,2.93601,1.349006,1.461993,0.0012300000000000644,0.0012900000000000134,-0.00014999999999999736,0.0011264647624802393,0.0005796333987331259,0.0007342364548841296
1504197803.87,-1.0,-0.09991015019999999,0.04823891135,-0.09933155785,0.327572,0.072422,0.020737,0.43479744105,-9.559806812849999,2.14278244495,2.941399,1.345951,1.457228,0.0012099999999999334,0.0012999999999999678,-0.0001749999999999946,0.001002016984256171,0.0004007291623526754,0.0009687555509522161
1504197803.88,-1.0,-0.0834938181,-0.006992141449999999,0.013454723799999999,0.32329,0.06288,0.007942,0.42885461114999995,-9.553206937399999,2.1731928666,2.946758,1.342952,1.452477,0.0012000000000000899,0.0012999999999999678,-0.00020000000000000573,0.0007791862644461744,0.0003053390591793992,0.0011754202371616618
1504197803.89,-1.0,-0.08252295975,-0.013915636349999998,-0.01691647125,0.310379,0.042751,-0.002719,0.42788375279999996,-9.5462834425,2.2035738683,2.949803,1.33985,1.449832,0.0011599999999999389,0.0013000000000000789,-0.00022500000000000298,0.0004186132798367215,0.00028722045948503805,0.0015634825471025904
1504197803.9,-1.0,-0.0434042329,-0.005668243699999999,0.1119527164,0.287791,0.015239,-0.010181,0.4281191124,-9.539712987,2.2318170203,2.952069,1.336939,1.447726,0.0011299999999999644,0.0013099999999999223,-0.0002510000000000012,4.667070566899412e-06,0.0002516678407453732,0.001781697552401873
1504197803.91,-1.0,-0.03686319735,0.029792602699999997,0.2419496688,0.266331,-0.005886,-0.019788,0.42966856309999996,-9.533574024099998,2.2575888964999997,2.953521,1.334254,1.446226,0.001080000000000081,0.0012900000000000134,-0.0002819999999999906,-0.0003101049602540762,0.00019329719259530975,0.0020077634973425518
1504197803.92,-1.0,-0.045934348599999994,0.09957672409999999,0.39389390389999995,0.252525,-0.013206,-0.044349,0.43350296325,-9.52764100085,2.2817819020499996,2.953847,1.331686,1.445771,0.0010399999999999299,0.0012699999999999934,-0.00031699999999999784,-0.0005686798404871407,6.431461299816199e-05,0.002231504730754841
1504197803.93,-1.0,-0.046257968049999994,0.1477077623,0.4768973895,0.249497,-0.008889,-0.072115,0.43995573894999995,-9.521609911099999,2.3056120615499998,2.953041,1.329101,1.446492,0.0009900000000000464,0.0012100000000000444,-0.00034400000000001096,-0.000727866642126429,-3.846757280911994e-05,0.002185767006442685
1504197803.94,-1.0,-0.0643708506,0.2023111895,0.5041794897999999,0.256027,-0.006789,-0.094522,0.44864443084999994,-9.51530423515,2.3298050671,2.951355,1.326432,1.448143,0.0009299999999999864,0.0011600000000000499,-0.00037600000000000133,-0.0007919480380400579,-7.945240043083501e-05,0.002375083931174693
1504197803.95,-1.0,-0.21320637764999997,0.29187532395,0.60245192945,0.258252,0.000659,-0.100936,0.45815688134999993,-9.508802426199999,2.3543903386499996,2.949397,1.323705,1.450158,0.0008599999999999719,0.0011099999999999444,-0.0003959999999999936,-0.0008446390361664946,-0.0001183301431639805,0.0024993736694242097
1504197803.96,-1.0,-0.3530982399,0.29075736584999995,0.75698512015,0.253073,0.018819,-0.103112,0.46757126535,-9.502300617249999,2.37867160405,2.947499,1.321008,1.452244,0.0008099999999999774,0.0010700000000000154,-0.0003979999999999956,-0.0008953563513776075,-0.0001484434039560334,0.0025141607593152093
1504197803.97,-1.0,-0.45509720654999997,0.18431598675,0.7712341826,0.23948,0.048776,-0.11066,0.47694642274999993,-9.49596552135,2.4019820111,2.945578,1.318409,1.454655,0.0007500000000000284,0.0010200000000000209,-0.00037700000000000233,-0.0008436347458307125,-0.00017924014574521863,0.0025874084581932744
1504197803.98,-1.0,-0.28142143505,0.03195987235,0.6710690595,0.213912,0.057504,-0.104315,0.48567434125,-9.490110951299998,2.4232918615499996,2.943794,1.316028,1.457091,0.0007099999999999884,0.0010000000000000009,-0.00034000000000000696,-0.0005866159657519354,-0.0002304703100648453,0.002249684223674997
1504197803.99,-1.0,-0.28876661589999997,0.027036934049999996,0.653319023,0.175166,0.030094,-0.080851,0.49301952209999994,-9.48517820635,2.4410320914,2.942301,1.314042,1.459032,0.0007000000000000339,0.0009899999999999354,-0.0002899999999999986,-4.490278137092574e-05,-0.0002537919503031727,0.001752261863639637
1504197804.0,-1.0,-0.27153633185,0.028615804699999997,0.61461217545,0.141549,-0.019743,-0.052002,0.49883486555,-9.481216319749999,2.4552027006499997,2.941145,1.312456,1.460155,0.0007000000000000339,0.0010200000000000209,-0.0002299999999999941,0.0005828064088282403,-0.00026659362337011494,0.0011866679771672661
1504197804.01,-1.0,-0.2975141477,-0.03197948565,0.4994526845,0.124948,-0.075049,-0.020978,0.50311056495,-9.47794089865,2.46697068065,2.940412,1.31115,1.460274,0.0007099999999999884,0.001060000000000061,-0.00016000000000000736,0.0009309150743450623,-0.0001827571607402323,0.0006595056516489617
1504197804.02,-1.0,-0.2570322965,-0.19485813549999997,0.3191280043,0.135003,-0.130579,0.013294,0.5055720341,-9.47472431745,2.4787975005500003,2.940392,1.309875,1.459098,0.0007199999999999429,0.0011599999999999389,-8.400000000000074e-05,0.0010536343439184748,-1.7157202899964474e-05,0.0001973827987744592
1504197804.03,-1.0,-0.27030069395,-0.33127844365,0.1382933783,0.167354,-0.19057,0.062556,0.50522880135,-9.471027210399999,2.4929288832,2.941635,1.30842,1.455992,0.0007300000000000084,0.0012699999999999934,-7.999999999994123e-06,0.0009392921628534889,0.0002647738115275633,-0.00024161634401231868
1504197804.04,-1.0,-0.30003445675,-0.46334459919999993,0.02085874455,0.199634,-0.252703,0.122496,0.50099232855,-9.466751511,2.5099630342499997,2.944579,1.306745,1.450479,0.0007800000000000029,0.001414999999999944,4.400000000000237e-05,0.0007105318019327012,0.0009339594315587174,-0.000761719497081037
1504197804.05,-1.0,-0.35357876574999997,-0.53100067755,0.04074663075,0.218278,-0.295526,0.166368,0.4933431415499999,-9.46209335225,2.5289781286,2.948936,1.30493,1.443006,0.0007800000000000029,0.001415000000000055,4.400000000000237e-05,0.0007098206738906931,0.0009345009972925311,-0.0007610562257570619
1504197804.06,-1.0,-0.43534661345,-0.45204733839999994,0.1412745999,0.218025,-0.312598,0.18988,0.48368359129999994,-9.457405773549999,2.5483168424,2.954018,1.303116,1.434527,0.0007900000000000684,0.0015600000000000058,0.00013099999999999223,0.00039300986509105407,0.001652103602837629,-0.0010601909671151821
1504197804.07,-1.0,-0.49920751825,-0.2704281804,0.32831683535,0.194539,-0.315599,0.18771,0.47376906815,-9.45316930075,2.56582171265,2.959003,1.301489,1.426091,0.0007699999999999374,0.0016300000000000203,0.00015900000000000636,0.0002522020918103163,0.0020986921795107527,-0.0010899472566431312
1504197804.08,-1.0,-0.5719630546,-0.031508766449999996,0.4129384182,0.171381,-0.296194,0.155613,0.46602181465,-9.44938393385,2.58115931325,2.962969,1.30004,1.418839,0.0007400000000000739,0.0016800000000000148,0.00015899999999999248,-1.9466825860403603e-05,0.0023539354074966212,-0.0010529186181066352
1504197804.09,-1.0,-0.5582043246499999,0.19046475629999998,0.37064233675,0.155697,-0.274721,0.125661,0.4606379638,-9.445843733199998,2.5950259163499996,2.965915,1.298695,1.412871,0.0006899999999999684,0.0017099999999999893,0.0001290000000000041,-9.400507502377309e-05,0.0025192304725536463,-0.0008819866163025658
1504197804.1,-1.0,-0.49374521419999995,0.315970263,0.3509015503,0.147351,-0.266103,0.104299,0.4461633484,-9.440273556,2.6177577310499998,2.972777,1.296587,1.403334,0.0006099999999999994,0.0017300000000000093,7.899999999999574e-05,-0.000240720029723418,0.002572799264488612,-0.0007377429142828573
1504197804.11,-1.0,-0.55587034195,0.35710915975,0.29936760454999994,0.138997,-0.255359,0.085052,0.44438834475,-9.43696871495,2.62993759035,2.974201,1.295346,1.399177,0.0005199999999999649,0.0017499999999999738,2.2000000000008124e-05,-0.0004537683790357683,0.0025289927475944385,-0.0006263096550699343
1504197804.12,-1.0,-0.6487785440499999,0.3113219109,0.27532169874999995,0.135988,-0.244656,0.06368,0.44436873144999994,-9.43367368055,2.641715377,2.97494,1.294115,1.395825,0.00034999999999996145,0.0017800000000000038,-5.300000000001137e-05,-0.0006847323559615592,0.0022134790895071976,-0.0005421564495573516
1504197804.13,-1.0,-0.7745292169999999,0.23425144854999996,0.18011874055,0.143713,-0.228706,0.03914,0.42810930574999995,-9.4293293346,2.6598576795,2.982008,1.292497,1.386594,0.0003500000000000725,0.0017800000000000038,-5.2999999999997494e-05,-0.0006859583279217318,0.0022131058111736213,-0.0005436926604516223
1504197804.14,-1.0,-0.7784714902999998,0.23030917524999997,0.16682092314999997,0.153694,-0.199986,0.009219,0.43206138569999997,-9.4253870613,2.6731554968999998,2.98135,1.291038,1.385125,0.00017999999999995797,0.0018199999999999883,-0.00010999999999999899,-0.0008986631038143678,0.001852881716306598,-0.0005047075374720045
1504197804.15,-1.0,-0.7952212484999999,0.22301302765,0.1941324434,0.166934,-0.160643,-0.015378,0.43758252965,-9.42094464885,2.68789489185,2.98021,1.2894,1.384533,9.00000000000345e-05,0.0018400000000000083,-0.00019099999999999673,-0.0010075043236030812,0.0016852313474737812,-0.0002623516873746512
1504197804.16,-1.0,-0.7675076556,0.23630103839999997,0.17469566309999998,0.191738,-0.134196,-0.026055,0.4436920726,-9.4158157709,2.7047819431499995,2.979,1.287526,1.384323,-4.0000000000040004e-05,0.0018699999999999828,-0.00021000000000000185,-0.0011912198103767313,0.0016346880672659658,-0.0001531036666796437
1504197804.17,-1.0,-0.7991046819,0.27649849675,0.13663605445,0.218665,-0.104577,-0.029263,0.44925244314999996,-9.4099317809,2.72427756335,2.978158,1.285386,1.384049,-3.999999999992898e-05,0.0019100000000000228,-0.00022600000000000398,-0.0012593979964805602,0.0016449290615294654,-6.910362367718026e-05
1504197804.18,-1.0,-0.85783670875,0.28276494609999997,0.15854411055,0.239248,-0.073828,-0.040995,0.4340619423,-9.40242969365,2.75250110205,2.985182,1.282681,1.376524,-0.00012000000000000899,0.0019199999999999773,-0.00024199999999999222,-0.001115175304790883,0.0016920505534530061,-7.206038208695809e-06
1504197804.19,-1.0,-0.8026743025,0.2613276092,0.18757179455,0.233058,-0.056712,-0.055979,0.44055394459999997,-9.39566310515,2.7745072246499998,2.984122,1.280261,1.376999,-0.00017000000000000348,0.0019500000000000073,-0.0002520000000000022,-0.0008460215284391559,0.0017171875397112846,-5.1663860456852007e-05
1504197804.2,-1.0,-0.7550532101,0.2295148366,0.10107714155,0.212957,-0.048001,-0.07631,0.44874249735,-9.389278975999998,2.7947089236499996,2.982383,1.278,1.378301,-0.00021999999999999797,0.0019700000000000273,-0.00025999999999999635,-0.0004890884292640951,0.0016891016332591935,-7.392328012112426e-05
1504197804.21,-1.0,-0.74113757375,0.10637273255,-0.013503757049999999,0.189433,-0.056328,-0.079538,0.45772538874999996,-9.383453825899998,2.81277277295,2.980276,1.275947,1.379958,-0.000260000000000038,0.0019899999999999918,-0.00026500000000000135,-0.0001226451441098675,0.0015309052408181145,-0.0001494843875200491
1504197804.22,-1.0,-0.6849160492999999,-0.06494944295,-0.046248161399999994,0.182928,-0.066931,-0.076306,0.44984084215,-9.378981993499998,2.8289145188499996,2.983898,1.274382,1.375996,-0.00031999999999998696,0.0020200000000000218,-0.00026800000000000435,0.00014064698213989146,0.0013457154636609125,-9.379909827123001e-05
1504197804.23,-1.0,-0.79474072265,-0.036843584049999996,-0.05096516005,0.19212,-0.109645,-0.062338,0.45880412025,-9.3732745232,2.8463507425499994,2.981778,1.272394,1.377178,-0.00039000000000000146,0.0020599999999999508,-0.00027299999999999547,0.00016924278937668902,0.0011601920961177292,-4.846289130766568e-05
1504197804.24,-1.0,-0.8026154625999999,-0.04286486715,-0.06946050194999999,0.208876,-0.134316,-0.038783,0.46667886019999993,-9.36724343345,2.8648460844499994,2.980113,1.270311,1.377569,-0.000500000000000056,0.0022000000000000353,-0.0002980000000000066,0.00019341913658088572,0.001026690004471309,-9.912422271085575e-05
1504197804.25,-1.0,-0.7225343586999999,-0.09715448154999999,-0.22606289579999997,0.225879,-0.135534,-0.02701,0.47323950905,-9.360692591249999,2.88511643,2.979013,1.268061,1.37729,-0.0005600000000000049,0.0022499999999999742,-0.00032499999999999196,0.00017562605961973787,0.0008600515260559494,-0.00018031985769184633
1504197804.26,-1.0,-0.6544565944,-0.060183411049999996,-0.20273287545,0.222727,-0.134429,-0.036602,0.46366821864999996,-9.3562109522,2.90115030275,2.98311,1.266534,1.372062,-0.0006499999999999284,0.0023299999999999987,-0.0003579999999999972,0.0001584779563146288,0.0008035792141070086,-0.0003362515926267351
1504197804.27,-1.0,-0.6828272328499999,0.05180853195,-0.16821346745000001,0.19417,-0.114988,-0.056943,0.4549304935,-9.35178815305,2.9167526829,2.986869,1.265032,1.367385,-0.0007300000000000084,0.0024200000000000332,-0.00039200000000000346,9.004991867578305e-05,0.0007277815034441026,-0.00047722672183458936
1504197804.28,-1.0,-0.77438211725,0.058692800249999996,-0.34122238675,0.161234,-0.102974,-0.069781,0.42782491289999997,-9.3519352528,2.9203713367499997,2.996132,1.265083,1.35769,-0.0008099999999999774,0.0025099999999999567,-0.0004279999999999978,-6.234613547784207e-05,0.0006637864568588281,-0.0005983551027155531
1504197804.29,-1.0,-0.7841887672499999,0.05416212795,-0.35425542460000004,0.141997,-0.120865,-0.067668,0.43762175624999994,-9.3474045805,2.9334141812499994,2.993499,1.26355,1.359243,-0.0009100000000000774,0.002610000000000001,-0.0004569999999999991,-0.00017320210972071592,0.0006283028716764782,-0.0005514767763133976
1504197804.3,-1.0,-0.92740508385,-0.06900939604999999,-0.35236274114999994,0.143844,-0.146464,-0.053714,0.42461813834999995,-9.3464827554,2.9382488597,2.998071,1.26324,1.353661,-0.0009799999999999809,0.00272,-0.0004790000000000072,-0.0002947747058843486,0.0005273997583028489,-0.0004480954629701994
1504197804.31,-1.0,-1.06079513715,-0.1545135774,-0.3345930913499999,0.170298,-0.164804,-0.041862,0.40822141954999996,-9.34508040445,2.9450154482,3.003855,1.262769,1.346686,-0.0010899999999999244,0.0028200000000000447,-0.0004929999999999934,-0.00032426352142533865,0.0004502805047930103,-0.0002996344883178237
1504197804.32,-1.0,-1.1107992455,-0.19511310839999998,-0.27008494764999996,0.201162,-0.170385,-0.037495,0.39074596924999994,-9.342334542449999,2.9560773493999997,3.01017,1.261846,1.339085,-0.0011800000000000699,0.002909999999999968,-0.0005040000000000044,-0.0003991182865905607,0.00029787630448718794,-0.00015094701963458412
1504197804.33,-1.0,-1.0470756338,-0.0754915917,-0.13670470099999998,0.213043,-0.154488,-0.042806,0.3737118182,-9.338205942799998,2.97128746355,3.016476,1.260465,1.331591,-0.0012900000000000134,0.0030100000000000127,-0.0005129999999999996,-0.0003622366694231438,0.00019357660607410843,-4.1070774423723755e-05
1504197804.34,-1.0,-1.0559408453999999,-0.0815521014,-0.15457241730000001,0.186626,-0.12975,-0.054637,0.38257702979999997,-9.332145433099999,2.98915517985,3.014297,1.258447,1.332448,-0.0014999999999999458,0.0030899999999999817,-0.0005050000000000054,-0.0002934937121079617,0.00011638124480062295,-1.7873818779934325e-05
1504197804.35,-1.0,-1.0423488285,-0.03869704089999999,-0.16680130985,0.135654,-0.103748,-0.061175,0.39142262809999995,-9.327418627799998,3.0027373901,3.011967,1.256882,1.333742,-0.0016000000000000458,0.003170000000000006,-0.0005160000000000026,-0.00020164985501547328,7.49303197618012e-05,-5.0181163266271867e-05
1504197804.36,-1.0,-1.06799321825,-0.026370081849999998,-0.2388311541,0.075116,-0.072342,-0.066673,0.4000132535,-9.32448643945,3.0107101965499994,3.009502,1.255913,1.335488,-0.0016999999999999238,0.0032400000000000206,-0.0005239999999999967,1.6164830446419032e-05,6.461309508543067e-06,-7.965638650175855e-05
1504197804.37,-1.0,-1.08246783365,-0.0493666761,-0.24200850869999996,0.039983,-0.060327,-0.064586,0.38171404459999997,-9.325574977599999,3.0097099182499996,3.01544,1.256273,1.329416,-0.0017900000000000693,0.0033199999999999896,-0.0005219999999999947,0.00016311727817996946,9.66216016557997e-05,-5.004299999600281e-05
1504197804.38,-1.0,-1.16690309015,-0.07473647964999999,-0.18713049529999998,0.041091,-0.051817,-0.059262,0.388931739,-9.32415301335,3.0131912789999995,3.013225,1.255804,1.331189,-0.0018799999999999928,0.003400000000000014,-0.0005140000000000006,0.00052903364416923,2.1946725527133282e-05,-6.349650492099013e-05
1504197804.39,-1.0,-1.2891822089999998,-0.11197232969999998,-0.15244437425,0.082675,-0.051101,-0.052787,0.39555122775,-9.32177980405,3.0196538613499997,3.011343,1.255026,1.332615,-0.0019599999999999618,0.003500000000000003,-0.0005010000000000014,0.0008520519985781849,4.324846113235026e-06,0.0001068529040980648
1504197804.4,-1.0,-1.3679198018499998,-0.1481784815,-0.09733100125,0.142384,-0.052664,-0.047344,0.40170980394999994,-9.3177492709,3.0312747416,3.00984,1.253703,1.333626,-0.0020700000000000163,0.003589999999999982,-0.0004939999999999944,0.001050424219698698,-5.527075714217844e-05,0.0003610736093488942
1504197804.41,-1.0,-1.36582117875,-0.14452060105,-0.09921387804999998,0.195934,-0.031777,-0.055783,0.3743198305,-9.31407177715,3.04603374985,3.019317,1.252504,1.324342,-0.0021900000000000253,0.003709999999999991,-0.0004950000000000093,0.0011632267725096845,-2.890696276325322e-05,0.0004305495494121292
1504197804.42,-1.0,-1.32928160085,-0.12828078865,-0.12189665949999999,0.209226,0.010768,-0.085723,0.38147868499999993,-9.307422868449999,3.0654214968999995,3.017784,1.250343,1.32597,-0.0023199999999999887,0.0038100000000000356,-0.0005059999999999926,0.0011368368068125356,-0.00015514614504441582,0.0005442583826251735
1504197804.43,-1.0,-1.1573023798,-0.07387349445,-0.15767131869999998,0.168087,0.04312,-0.128547,0.39130494829999996,-9.3013721654,3.08249487455,3.015324,1.248391,1.328938,-0.002449999999999952,0.003919999999999979,-0.0005259999999999987,0.0009956574632248305,-0.0003088439841478774,0.0005123130938402554
1504197804.44,-1.0,-1.02813899265,-0.12398547595,-0.2468333805,0.101287,0.069288,-0.170338,0.40429875955,-9.297047432749999,3.0938411685999996,3.011649,1.247002,1.333464,-0.002650000000000041,0.0041200000000000125,-0.0005000000000000004,0.0006729202260697953,-0.000413852122876035,0.00041507280205066444
1504197804.45,-1.0,-0.92920950745,-0.16972369154999997,-0.3323277552,0.036482,0.085845,-0.202471,0.39680647895,-9.298449783699999,3.09059516745,3.013901,1.247452,1.332696,-0.002789999999999959,0.004259999999999986,-0.0005230000000000096,0.00022128010233180007,-0.0005176200714789303,0.00034637287687866447
1504197804.46,-1.0,-0.8574150227999999,-0.14467750745,-0.24825534475,0.001403,0.086161,-0.22815,0.41479187505,-9.297302405649999,3.09167389895,3.008226,1.247085,1.339601,-0.002910000000000079,0.004400000000000015,-0.0005389999999999978,-0.0002955148325298751,-0.0005334717635578912,0.0002972556939662141
1504197804.47,-1.0,-0.8342909420999999,-0.08519036854999999,-0.13753826624999999,0.005643,0.073354,-0.243064,0.43475821444999996,-9.2961942542,3.09228191125,3.001915,1.246728,1.347078,-0.0030199999999999116,0.0045600000000000085,-0.0005479999999999929,-0.0007234994677496331,-0.0004281018468001996,0.0002871088092111229
1504197804.48,-1.0,-0.8778226614499999,-0.0676266584,0.03115572705,0.037538,0.054992,-0.250392,0.4131933911,-9.29624328745,3.0950669998499993,3.008876,1.246745,1.341823,-0.003130000000000077,0.004699999999999982,-0.0005529999999999979,-0.0010500242881885669,-0.0002778391493689636,0.0003305573880763024
1504197804.49,-1.0,-0.9001327901999999,-0.0706471066,0.02513444395,0.070447,0.032347,-0.253497,0.43551332649999996,-9.29322283925,3.1010882829499997,3.002068,1.245778,1.349405,-0.0032200000000000006,0.004830000000000001,-0.0005560000000000009,-0.0011426209180718239,-0.00018296624124780614,0.000350002414714945
1504197804.5,-1.0,-0.93421089895,-0.11776805985,-0.015984839499999997,0.101234,0.01079,-0.257646,0.4362194053,-9.29039852405,3.10944354875,3.002214,1.244877,1.350181,-0.003309999999999924,0.0049699999999999744,-0.0005560000000000009,-0.0011006405813551723,-7.649923294361649e-05,0.0003623478116172585
1504197804.51,-1.0,-0.9350052375999999,-0.20993095654999996,-0.12319113729999999,0.107553,-0.002038,-0.262921,0.43836706164999995,-9.2881724145,3.1157884513,3.001819,1.244168,1.351345,-0.003410000000000024,0.005080000000000029,-0.0005510000000000098,-0.0010208750111493359,-5.5325592971611215e-05,0.000410203775669693
1504197804.52,-1.0,-0.9617185522,-0.3396435161,-0.22201274934999998,0.089421,-0.007198,-0.274655,0.44157383619999996,-9.287289816,3.1179459143,3.000905,1.24389,1.352984,-0.0035200000000000786,0.005199999999999982,-0.0005299999999999888,-0.0007928071746257093,-8.638385259818193e-05,0.0004741260329289565
1504197804.53,-1.0,-1.1095047677,-0.6000689135,-0.317539327,0.055403,0.002692,-0.286442,0.44466293095,-9.287976281499999,3.11546483185,2.999822,1.244108,1.354883,-0.003649999999999931,0.005319999999999991,-0.0005000000000000004,-0.0005134364612400244,-0.00014163910308462313,0.0004959298475200047
1504197804.54,-1.0,-1.13628672885,-0.6026774824,-0.3213639205,0.036471,0.029501,-0.298264,0.47144489209999996,-9.2853677126,3.11928942535,2.991588,1.243281,1.36381,-0.00383,0.00545000000000001,-0.0004299999999999998,-0.00016440719641774848,-0.00025112842568519866,0.00041185679622135485
1504197804.55,-1.0,-1.26385163205,-0.7266041184500001,-0.22765157309999998,0.047439,0.058196,-0.312172,0.49859950594999997,-9.28251397745,3.12358473805,2.983303,1.242374,1.373087,-0.003970000000000029,0.005599999999999994,-0.0003500000000000031,0.00021600220607798093,-0.0003897424910137559,0.00012306505810877333
1504197804.56,-1.0,-1.3504639648499999,-0.76388900175,0.01218966595,0.062603,0.082587,-0.318593,0.5256560533,-9.279042423349999,3.1294491147499994,2.975174,1.24128,1.382499,-0.0041200000000000125,0.005750000000000033,-0.00025999999999999635,0.0006120586900006941,-0.00028675568941038954,-5.4701991407668515e-05
1504197804.57,-1.0,-1.3206223289,-0.75039505135,0.16676208324999997,0.066932,0.095336,-0.3111,0.5238025964499999,-9.277120319949999,3.1354409779,2.976062,1.240676,1.383507,-0.0042400000000000215,0.005929999999999991,-0.00014000000000000123,0.0008929042561605094,-0.0004788703656126714,-0.0006902959646886142
1504197804.58,-1.0,-1.2506028479,-0.8075972408,0.1325466814,0.04965,0.081604,-0.290825,0.54865264755,-9.27378605895,3.1410699949999996,2.968668,1.239627,1.39225,-0.0043599999999999195,0.006110000000000004,-2.0000000000006124e-05,0.0010836461866945424,-0.0004960785943104451,-0.0013181736475881278
1504197804.59,-1.0,-1.13838535195,-0.89612187035,0.010855961549999998,0.010737,0.039266,-0.257728,0.5718551814499999,-9.27160898265,3.14335494445,2.961635,1.238945,1.400226,-0.0044600000000000195,0.006309999999999982,9.000000000000674e-05,0.0011001354194999369,-0.0003905332470852674,-0.002008939160848544
1504197804.6,-1.0,-1.026363989,-0.9500682519999999,-0.16087809325,-0.041203,-0.021096,-0.208611,0.592713926,-9.2712265233,3.1406090824499997,2.955061,1.238826,1.407125,-0.004530000000000034,0.006510000000000016,0.00019999999999999185,0.0009050839179109982,-0.00015101645092885363,-0.002607101144053048
1504197804.61,-1.0,-0.93425012555,-0.9817241181999999,-0.28722697184999996,-0.083664,-0.085804,-0.145564,0.5879871206999999,-9.2783265379,3.12046622335,2.955348,1.241055,1.40676,-0.0045999999999999375,0.006709999999999994,0.00027000000000000635,0.0005817612375962344,0.0001920177302425774,-0.0029962749571332825
1504197804.62,-1.0,-0.9235510704,-1.05094926055,-0.29344438795,-0.121846,-0.154813,-0.087869,0.6018341105,-9.281229306299998,3.1091787691999997,2.950392,1.241969,1.410523,-0.0046400000000000885,0.006909999999999972,0.0003399999999999931,0.00026294114382796607,0.0005869005312382214,-0.003136763420609423
1504197804.63,-1.0,-0.91002770005,-1.0538422223,-0.2328490976,-0.150096,-0.191921,-0.045156,0.6126998787,-9.2853677126,3.0946649271999997,2.946136,1.243279,1.413068,-0.0046999999999999265,0.007090000000000041,0.00038000000000000533,-5.563215116799469e-05,0.0009692373296186219,-0.0031336644841070127
1504197804.64,-1.0,-0.8758515248,-1.0231964410499998,-0.1873854682,-0.17589,-0.19813,-0.017438,0.6210159178999999,-9.290427944,3.07778768255,2.942492,1.244886,1.41481,-0.0047599999999999865,0.007289999999999963,0.0004600000000000021,-0.0004077317703112815,0.0013225796401208356,-0.003044427611886946
1504197804.65,-1.0,-0.9197558968499999,-0.9560797284499999,-0.11672855495,-0.186406,-0.172469,-0.01,0.60551160425,-9.3005287935,3.0502211893999998,2.945626,1.248121,1.410273,-0.004830000000000001,0.007470000000000032,0.0005299999999999888,-0.0008203657255034802,0.0016534218478154727,-0.002869593186722308
1504197804.66,-1.0,-0.9896478914,-0.84648060805,-0.1202687556,-0.172954,-0.097977,-0.020782,0.610758162,-9.3058243845,3.03297129205,2.942876,1.249828,1.411902,-0.0048799999999999955,0.00762999999999997,0.0006130000000000024,-0.0012533688117817299,0.0020829775633148806,-0.002623300841645082
1504197804.67,-1.0,-1.0164200459,-0.75612213495,-0.011209000949999999,-0.159295,-0.004294,-0.042272,0.61508289465,-9.310453123299999,3.0178788577,2.940532,1.251325,1.414062,-0.004930000000000101,0.007759999999999989,0.0007170000000000093,-0.0015590850360005515,0.002617759788875018,-0.0024277946582833554
1504197804.68,-1.0,-1.0168123118999999,-0.74529559335,0.21701135784999998,-0.185918,0.128072,-0.054293,0.61727958425,-9.3154349015,3.0019920847,2.938796,1.252949,1.416874,-0.0049599999999999644,0.007860000000000034,0.0008279999999999954,-0.0016936346597018481,0.003178762326630613,-0.002379760281393417
1504197804.69,-1.0,-0.7705673303999999,-0.9209621147999999,0.28018579714999997,-0.253437,0.237301,-0.033229,0.59490080895,-9.3235351944,2.9813098598499996,2.944638,1.2556,1.413614,-0.0049599999999999644,0.007909999999999973,0.0009409999999999974,-0.0019575470728889766,0.0036267656010298133,-0.002369817459477619
1504197804.7,-1.0,-0.43734717004999996,-1.20261890945,0.39538451469999997,-0.372864,0.279787,0.020927,0.5865357365,-9.33366546385,2.95110537785,2.945398,1.258951,1.415683,-0.0049599999999999644,0.007880000000000026,0.0010529999999999984,-0.0024102331163047275,0.003673053428584261,-0.0018246256931111482
1504197804.71,-1.0,-0.17619608055,-1.3058633206499999,0.4170964378,-0.510884,0.296799,0.125263,0.5688445399,-9.3481891125,2.9082993505999997,2.948438,1.263814,1.41558,-0.0049600000000000755,0.007675000000000015,0.0011995000000000061,-0.002813843952976791,0.0037162133258998864,-0.0013792255616137394
1504197804.72,-1.0,-0.001765197,-1.254270535,0.41878318159999994,-0.654393,0.301058,0.240286,0.5403071883999999,-9.36716498025,2.8521464727,2.954372,1.270283,1.412517,-0.0049599999999999644,0.007674999999999987,0.0011994999999999922,-0.0028196125339658984,0.0037123218080876708,-0.0013900089716265551
1504197804.73,-1.0,0.043688625749999994,-1.05279291075,0.6144846889999999,-0.803116,0.311769,0.341413,0.5017376339499999,-9.3904165474,2.78184259885,2.96315,1.278402,1.406576,-0.0049400000000000555,0.007299999999999973,0.0012960000000000055,-0.002211664813084546,0.003282789621222193,-0.000978315192125434
1504197804.74,-1.0,0.15664162045,-0.6960465970499999,0.7177094868999999,-0.958909,0.347088,0.401923,0.45582289865,-9.41751232135,2.6968679766,2.974154,1.288143,1.398614,-0.00489999999999996,0.006950000000000012,0.0013119999999999937,-0.0009700010917663704,0.0025794571073465278,-0.0007710210406898232
1504197804.75,-1.0,0.46147152905,-0.42297062115,0.6741679609,-1.103693,0.401536,0.425059,0.4056814972,-9.44772661,2.5973598990499998,2.986654,1.299409,1.389649,-0.0048699999999999855,0.0065900000000000125,0.0012620000000000131,0.0005743944344334118,0.0016101201443632362,-0.0008682502483940979
1504197804.76,-1.0,1.0140468366,-0.1839139141,0.5342564853499999,-1.216487,0.43125,0.412002,0.35528512284999997,-9.47952957595,2.48648591415,2.999668,1.311784,1.380573,-0.0048000000000000265,0.0062399999999999956,0.001225999999999991,0.0020716148455575123,0.0006061471175231592,-0.0008944398836319145
1504197804.77,-1.0,1.6239125934499998,0.06669502664999999,0.45394982849999993,-1.289914,0.442532,0.391574,0.3070069849,-9.5118228744,2.3667271043499998,3.012595,1.324967,1.371779,-0.004689999999999972,0.005959999999999993,0.0011769999999999975,0.0031461049097338822,-0.00027134917502413813,-0.0009378523604540723
1504197804.78,-1.0,2.1598362093,0.1468643904,0.48106521575,-1.317842,0.420382,0.3937,0.2597977718,-9.5432041544,2.24279066165,3.026269,1.338482,1.362111,-0.0045800000000000285,0.005759999999999987,0.001121999999999998,0.0035791970644760696,-0.0008249445398349486,-0.000798746811571438
1504197804.79,-1.0,2.3585189382999996,0.19757457755000002,0.5828680494,-1.306699,0.359529,0.415174,0.21240223235,-9.5728202374,2.1180991069,3.041647,1.351986,1.350213,-0.004379999999999995,0.005629999999999996,0.0010385000000000116,0.0030376191983907397,-0.0010083112079799506,-0.0002084736177190294
1504197804.8,-1.0,2.44033581925,0.22499397095,0.6795223918000001,-1.282044,0.269767,0.462341,0.16321207595,-9.600239630799999,1.99480009645,3.059956,1.365259,1.334498,-0.004379999999999995,0.005630000000000024,0.0010384999999999978,0.003037633225860148,-0.0010076786970312224,-0.00021152902001286833
1504197804.81,-1.0,2.4914676923499997,0.2800190841,0.7045685758999999,-1.210637,0.162559,0.520294,0.11088379154999999,-9.6247366425,1.87682609695,3.08258,1.377885,1.313346,-0.004180000000000017,0.005599999999999994,0.0009600000000000025,0.001775125842732983,-0.0007426881346102032,-6.0599276356154697e-05
1504197804.82,-1.0,2.3234503578999997,0.3012406747,0.7669977098,-1.14443,0.070315,0.575009,0.05503491979999999,-9.646409339,1.7647164741499999,3.110415,1.389771,1.28596,-0.003960000000000019,0.005589999999999984,0.0008879999999999999,0.0006245233828341412,-0.0002762057543628238,8.15560802644999e-05
1504197804.83,-1.0,2.1437631099499996,0.2165504453,0.8015171177999999,-1.04931,-0.011506,0.625486,-0.004393379199999999,-9.66497332745,1.6609228905499998,-3.138949,1.400608,1.251714,-0.0039599999999999635,0.005590000000000012,0.0008879999999999999,0.0006244903671048796,-0.00027625696825439583,8.138182588568466e-05
1504197804.84,-1.0,2.0584550616,0.17031209055,0.81188274685,-0.965767,-0.084688,0.657781,-0.0663321806,-9.680673774099999,1.5654061195499998,-3.099244,1.410338,1.210793,-0.0037800000000000056,0.005540000000000017,0.0008269999999999944,7.665323520944511e-05,7.850815954868473e-05,0.0003010171592753297
1504197804.85,-1.0,2.0590728805499996,0.14912972654999998,0.8152660410999999,-0.902103,-0.119328,0.672896,-0.129643913,-9.6939127516,1.47702858975,-3.054041,1.41902,1.163859,-0.003689999999999971,0.005489999999999995,0.000798000000000007,-3.842804989373505e-05,-8.317903060284237e-05,0.000484903503803924
1504197804.86,-1.0,2.1452144941499998,-0.00089240515,0.74302045055,-0.874129,-0.096105,0.663297,-0.1928968055,-9.7055042119,1.39155382835,-3.003851,1.427046,1.112057,-0.003640000000000032,0.005399999999999988,0.000777999999999987,-1.597851869838962e-05,-0.0006500618308655781,0.0006146958654957846
1504197804.87,-1.0,2.06546681635,-0.1407254275,0.66780344505,-0.86591,-0.037506,0.606636,-0.25290369684999997,-9.71575216115,1.30786387725,-2.950576,1.43454,1.057726,-0.003610000000000002,0.005290000000000017,0.0007670000000000038,7.536523812134988e-05,-0.0014825465650876168,0.0007648114165959008
1504197804.88,-1.0,1.6430257543,-0.34620416495,0.36391497485,-0.870995,0.066002,0.508244,-0.30511430144999996,-9.72530383825,1.22299712815,-2.8971,1.441907,1.00412,-0.003599999999999992,0.005199999999999982,0.0007580000000000087,0.0003028209954227812,-0.0022469738362087543,0.0009780204442486617
1504197804.89,-1.0,1.6881559575999998,-0.33745663314999996,0.44846791115,-0.860847,0.213062,0.420475,-0.35024450474999996,-9.734051370049999,1.1384343851999998,-2.843128,1.449038,0.951522,-0.003599999999999992,0.005110000000000003,0.0007549999999999918,0.00045379577057991227,-0.0028197683808028895,0.001168651137721577
1504197804.9,-1.0,1.4227978152499998,-0.4443785381,0.6795714250499999,-0.863785,0.32081,0.326348,-0.38760784125,-9.7422006962,1.05338130975,-2.789005,1.456089,0.900019,-0.003599999999999992,0.005019999999999997,0.0007580000000000087,0.0005578327322948162,-0.0034045990970221762,0.00167925314948425
1504197804.91,-1.0,0.9353876969499999,-0.49041095319999994,0.9180005065,-0.900373,0.381906,0.272807,-0.41898912125,-9.750036209549998,0.9651901062999999,-2.732039,1.463293,0.846422,-0.003599999999999992,0.004960000000000006,0.0007609999999999978,0.0005641607880635391,-0.0038087709853107388,0.0017738315958832906
1504197804.92,-1.0,0.7183469191499999,-0.5604892741,0.76694867655,-0.967188,0.426156,0.263007,-0.44854636435,-9.757616749999999,0.87068342025,-2.665884,1.470756,0.7841,-0.003610000000000002,0.004900000000000002,0.0007529999999999898,0.0005476105365713746,-0.004176842380875012,0.0018425732145218587
1504197804.93,-1.0,0.6414627831499999,-0.25527690615,0.3088898617,-1.036409,0.446965,0.270322,-0.4782114806,-9.7647559912,0.7689492331499999,-2.585228,1.478327,0.707498,-0.003599999999999992,0.004849999999999993,0.0007250000000000034,0.0004930486657215294,-0.00446445954121466,0.0019367211846129662
1504197804.94,-1.0,0.6740502811,-0.24904968339999997,0.41657668535000003,-1.089897,0.455886,0.31291,-0.51079897855,-9.77098321395,0.6612624095,-2.483868,1.485488,0.610302,-0.003640000000000032,0.004799999999999999,0.0006560000000000038,0.0004827180892490457,-0.004926817487971746,0.0024627463353713575
1504197804.95,-1.0,0.72262261855,-0.0245754649,0.50562106735,-1.111586,0.455991,0.38332,-0.5491920133,-9.77578847245,0.55022171155,-2.357133,1.49144,0.487733,-0.0036299999999999666,0.004799999999999999,0.0005939999999999973,6.927304102144483e-05,-0.0046243539637440545,0.0022015009253711915
1504197804.96,-1.0,0.5597831953,0.16878225315,0.5582925845,-1.029324,0.385966,0.463642,-0.59464583605,-9.77851472115,0.44442757134999994,-2.212617,1.495022,0.346881,-0.003630000000000022,0.004806000000000005,0.0005269999999999997,-0.0003194836427746761,-0.004622144200822964,0.0021890552945512676
1504197804.97,-1.0,0.45375369549999994,0.35670708709999993,0.6535641892499999,-0.870346,0.295077,0.531324,-0.6464837879499999,-9.77894621375,0.3531963064,-2.070821,1.495605,0.20784,-0.003610000000000002,0.004818000000000003,0.0004600000000000021,-0.0006492217363589514,-0.004556613731022674,0.002146681667433925
1504197804.98,-1.0,0.42654024174999994,0.5074549109,0.6020302435,-0.733947,0.301367,0.575312,-0.7029210587,-9.7775046362,0.276939796,-1.946111,1.49368,0.085699,-0.003599999999999992,0.004834999999999992,0.00039400000000000546,-0.0009079850353175267,-0.004573623658961745,0.0022177919557645476
1504197804.99,-1.0,0.44937992959999995,0.3218738663,0.76492850665,-0.67358,0.362701,0.549691,-0.75853457085,-9.775072586999999,0.20711644799999998,-1.837354,1.49053,-0.019908,-0.0035800000000000276,0.004856000000000013,0.0003409999999999941,-0.0010628970997181852,-0.004650238466320289,0.002376267080032579
1504197805.0,-1.0,0.8152072011999999,-0.060614903649999996,1.02170583025,-0.624772,0.407146,0.461103,-0.8068323221,-9.77237575825,0.1417257058,-1.744685,1.487166,-0.108906,-0.0035499999999999976,0.0048749999999999905,0.0003090000000000037,-0.0012499200428224277,-0.004964347286781301,0.002497289177927575
1504197805.01,-1.0,1.3766575269999999,-0.12022952899999999,0.9238060432999999,-0.568587,0.42598,0.350157,-0.8440975920999999,-9.769914289099999,0.08131674180000001,-1.66683,1.484216,-0.182796,-0.0035499999999999976,0.0048920000000000075,0.0002949999999999897,-0.0013869224007587722,-0.005419841193181618,0.0024166642682558193
1504197805.02,-1.0,1.6435062801499998,0.15632780764999998,0.7553277962999999,-0.547663,0.46105,0.275414,-0.8728703032,-9.7676979862,0.023388860249999997,-1.597584,1.481638,-0.247823,-0.0035299999999999776,0.004902999999999991,0.00028900000000001147,-0.0013249200529605876,-0.005870569251116953,0.0022010372403252765
1504197805.03,-1.0,1.7396604833999998,0.5284215286,0.42518692404999997,-0.522443,0.503537,0.207069,-0.89465087285,-9.7656974296,-0.0325384647,-1.534441,1.479379,-0.30632,-0.003489999999999993,0.004917000000000005,0.00027599999999999847,-0.0010548461835835354,-0.006075764082521529,0.0019272941090999751
1504197805.04,-1.0,1.75528247685,0.52664652495,0.47972170470000003,-0.505669,0.565262,0.151484,-0.9102728662999999,-9.76392242595,-0.08707324535,-1.475435,1.477415,-0.360025,-0.003489999999999993,0.0048889999999999975,0.00021699999999999497,-0.00032579469980120734,-0.0065771514995511815,0.0019428398521870172
1504197805.05,-1.0,1.6185091292999998,0.5138390400499999,0.59782319065,-0.524257,0.603841,0.089474,-0.9200010630999998,-9.7623435553,-0.14352032274999998,-1.416042,1.475705,-0.413677,-0.0034399999999999986,0.004918000000000006,0.00017000000000000348,0.00022538414613659796,-0.006340318478721629,0.0012379253635805831
1504197805.06,-1.0,1.3680472882999999,0.6938204874999999,0.3925601995,-0.557111,0.58288,0.011534,-0.9219820063999999,-9.761117724049999,-0.2023700294,-1.354727,1.474393,-0.469319,-0.003379999999999994,0.004966999999999999,0.00011400000000000299,0.0008633998449805169,-0.006090840304042278,0.0006685892961151296
1504197805.07,-1.0,1.1262937524999999,1.0356901131499998,-0.06847983695,-0.60538,0.516203,-0.043937,-0.9176965003499999,-9.76001937925,-0.26521104259999995,-1.28946,1.473233,-0.529528,-0.003330000000000055,0.005046999999999996,4.499999999998949e-05,0.001465735594866846,-0.005943216862502654,0.00039976327225410557
1504197805.08,-1.0,1.0569018971,1.1993336817,-0.39422733,-0.629187,0.457819,-0.07056,-0.9098119537499999,-9.7587543214,-0.33061159144999996,-1.222245,1.471925,-0.59232,-0.0032999999999999696,0.005167999999999999,-3.099999999998937e-05,0.001812233758759163,-0.005718349658564659,0.0001469618489644553
1504197805.09,-1.0,0.9634641358999999,1.29015306735,-0.49387270065,-0.619099,0.388466,-0.065084,-0.9018195339999999,-9.757096997549999,-0.39511973515,-1.157847,1.470228,-0.652933,-0.003269999999999995,0.005327000000000005,-0.00011700000000000599,0.0018132226599205659,-0.005426971727202634,-0.00021602345263049827
1504197805.1,-1.0,0.6546331140999999,1.20095177895,-0.18390410744999997,-0.580368,0.31246,-0.03713,-0.8959943839,-9.75497876115,-0.45594057844999997,-1.10008,1.4681,-0.707674,-0.003259999999999985,0.005518999999999996,-0.00020499999999999685,0.0015264066802944676,-0.005127089934901186,-0.0006807466757079439
1504197805.11,-1.0,0.45317510315,1.05561722595,-0.07247114349999999,-0.524377,0.255501,-0.016652,-0.8928170293,-9.7525565186,-0.51081859185,-1.051113,1.465713,-0.754215,-0.0032400000000000206,0.005727000000000003,-0.00028500000000000747,0.0010507919189115533,-0.004892872287517003,-0.0011771868154668574
1504197805.12,-1.0,0.43754330304999994,0.92238407905,0.0204762852,-0.464724,0.244353,-0.015461,-0.89004174735,-9.750104856099998,-0.56006758815,-1.00914,1.463357,-0.793966,-0.0032300000000000106,0.005940999999999998,-0.0003549999999999942,0.0005185846599435884,-0.004604661452499936,-0.0016192238637426914
1504197805.13,-1.0,0.5731202393,1.0632958329,0.1323701617,-0.384577,0.252231,-0.028145,-0.88631522035,-9.7479670064,-0.60162817085,-0.974438,1.461344,-0.826364,-0.0032099999999999906,0.0061511,-0.0004170000000000007,4.328111027485093e-05,-0.0043218577107080325,-0.0019906986633833057
1504197805.14,-1.0,0.5671774093999999,1.06167773565,0.1664580771,-0.30663,0.24522,-0.051481,-0.88037239045,-9.7463391025,-0.6357258928999999,-0.945384,1.459837,-0.853087,-0.003159999999999996,0.0063455000000000004,-0.0004829999999999973,-0.00011359709232650061,-0.003981742044533165,-0.001914391278210914
1504197805.15,-1.0,0.6335390099499999,1.1612446531,0.16166262525,-0.226678,0.22008,-0.077983,-0.87205635125,-9.7453584375,-0.6617527419999999,-0.921661,1.458933,-0.874665,-0.0031300000000000217,0.0065293,-0.0005409999999999998,-0.0005035614424899748,-0.00352024760605274,-0.002245981922009199
1504197805.16,-1.0,0.7205534154,1.3382056523499999,0.06820525075,-0.147813,0.186434,-0.114078,-0.86046489095,-9.745142691199998,-0.6797773647,-0.902178,1.458742,-0.892323,-0.0030699999999999616,0.0066931000000000004,-0.0006000000000000033,-0.0007930432568847845,-0.002898920427891083,-0.0025396806470812106
1504197805.17,-1.0,0.8105784623999999,1.5808712065999997,0.05969307855,-0.078571,0.149672,-0.151253,-0.84559800955,-9.74570167025,-0.6904077733,-0.886089,1.459248,-0.906902,-0.0030200000000000227,0.006840000000000001,-0.0006589999999999929,-0.0007154635991746261,-0.0022933317543420983,-0.00251052178208111
1504197805.18,-1.0,0.8481575451999999,1.7269118384,0.04423779815,-0.026588,0.093864,-0.180952,-0.82780874645,-9.7468882749,-0.69516399855,-0.872277,1.460343,-0.919698,-0.002929999999999988,0.006973,-0.0007230000000000014,-0.0005364777175864699,-0.001545266986027416,-0.0023889842463752364
1504197805.19,-1.0,0.7418142326,1.7834471756499999,-0.02776262615,0.009261,0.028587,-0.199988,-0.80825428635,-9.7485161788,-0.69543858475,-0.860283,1.461853,-0.931326,-0.002850000000000019,0.007100999999999996,-0.0007880000000000109,-0.0003803295971902543,-0.000755128247623249,-0.0021886262311534566
1504197805.2,-1.0,0.6031678148999999,1.7572340001999998,-0.15716137289999998,0.034617,0.000667,-0.194557,-0.7890234456999999,-9.75027156915,-0.6927809826,-0.850258,1.463521,-0.941354,-0.0027800000000000047,0.007228999999999999,-0.0008519999999999917,-0.0002716170738605861,3.316062094138594e-05,-0.0020042694943473993
1504197805.21,-1.0,0.48790045079999994,1.63619051925,-0.27097735279999996,0.072811,-0.01033,-0.168854,-0.77175393505,-9.7520857994,-0.6867008595999999,-0.843654,1.46526,-0.948072,-0.00273000000000001,0.007361000000000006,-0.0009149999999999991,-0.00023444547869333476,0.0005858215807637013,-0.0019282664683852868
1504197805.22,-1.0,0.24276362074999996,1.50242781325,-0.40144502439999996,0.124831,-0.01294,-0.120726,-0.7588581903,-9.753890222999999,-0.6753447588999999,-0.843563,1.467022,-0.948292,-0.00267999999999996,0.007488999999999996,-0.0009750000000000036,-4.88110858687385e-05,0.0010152216670635816,-0.0018543879049930378
1504197805.23,-1.0,-0.3370153339,1.0685914238999998,-0.7452857866999999,0.14807,-0.014243,-0.075853,-0.750404858,-9.7554985136,-0.6614585424999999,-0.848311,1.468615,-0.943657,-0.002640000000000031,0.007616000000000005,-0.0010249999999999981,0.0002999352030457203,0.0012158286465961954,-0.0017593373824216219
1504197805.24,-1.0,-0.34143813305,1.0700231947999999,-0.7616236655999999,0.170253,-0.018727,-0.038447,-0.7459722522,-9.7569302845,-0.6451206635999999,-0.857773,1.470058,-0.934318,-0.002599999999999991,0.007714999999999993,-0.0011010000000000048,0.0005921240106268044,0.0011922050104253845,-0.0014310118052076604
1504197805.25,-1.0,-0.47464185999999997,0.8492166634,-0.9802531207,0.17968,-0.022033,-0.008538,-0.7446091278499999,-9.7581855357,-0.62745888695,-0.870572,1.47134,-0.921676,-0.0025700000000000167,0.00787800000000001,-0.001119999999999996,0.0005556303380078731,0.0013209740942627946,-0.0011296375980202056
1504197805.26,-1.0,-0.49330391495,0.5726299067999999,-1.1409448876,0.172141,-0.015602,0.015988,-0.7456976659999999,-9.759185814,-0.61041492925,-0.884826,1.47237,-0.907519,-0.002569999999999961,0.008058999999999997,-0.001122999999999999,5.0963086650757106e-05,0.0016307064135892002,-0.0008210611092401843
1504197805.27,-1.0,-0.33227872195,-0.21669754504999997,-1.065786722,0.175358,-0.00496,0.018135,-0.75992711515,-9.756351692149998,-0.6375303164999999,-0.872758,1.469473,-0.919474,-0.0025700000000000167,0.008248999999999992,-0.0011099999999999999,-0.0006620542288411357,0.0018734394721684478,-0.00019148932638113347
1504197805.28,-1.0,-0.33114115055,-0.21563842685,-1.0835759851,0.187391,0.026918,0.009561,-0.7610646865499999,-9.757410810349999,-0.61975086005,-0.887387,1.470545,-0.90459,-0.002579999999999971,0.008426000000000003,-0.0010770000000000085,-0.0014152344896687374,0.0020693250093928306,0.0004270496049904038
1504197805.29,-1.0,-0.322442652,-0.50440504275,-0.9818417979999999,0.203045,0.091868,-0.006568,-0.76033899445,-9.758636641599999,-0.6010299652,-0.901892,1.471804,-0.889265,-0.002630000000000021,0.008570000000000008,-0.0010219999999999951,-0.00198667248572848,0.0020248469428794102,0.0009974109142423249
1504197805.3,-1.0,-0.36832796735,-0.78093295945,-0.9160882097499999,0.207942,0.163235,-0.018427,-0.7579952051,-9.759989959299999,-0.58177951125,-0.916172,1.473205,-0.873456,-0.0026700000000000057,0.00868999999999999,-0.0009429999999999994,-0.0022061436997864448,0.0017817673571218773,0.0014190002975909
1504197805.31,-1.0,-0.4418091958,-1.10349329125,-0.9366527548,0.218108,0.23029,-0.023864,-0.7545432643,-9.7614021169,-0.5622740843999999,-0.930386,1.474693,-0.857015,-0.00273000000000001,0.008779999999999996,-0.0008490000000000025,-0.0019038297057809572,0.0013859443826811368,0.001695636878814466
1504197805.32,-1.0,-0.55259492085,-1.3639677218999997,-1.0467225943999998,0.212132,0.281492,-0.027167,-0.7504440845999999,-9.76278485455,-0.5433276365999999,-0.944139,1.47618,-0.840482,-0.0027499999999999747,0.008849999999999997,-0.0007419999999999927,-0.0011674810093369459,0.0009233551024072639,0.0018976211958272593
1504197805.33,-1.0,-0.5924393398,-1.4292603976,-1.2372363839499998,0.19856,0.316772,-0.030455,-0.74592321895,-9.764089139,-0.5259404461499999,-0.956663,1.477593,-0.824789,-0.0027699999999999947,0.008930000000000021,-0.0006310000000000066,-0.00010482646842469023,0.0005419712448040404,0.0020936952975957324
1504197805.34,-1.0,-0.6188584548999999,-1.40720524175,-1.557099887,0.180787,0.353164,-0.045494,-0.74015690875,-9.7653443902,-0.5105930389,-0.966918,1.478976,-0.811015,-0.00276000000000004,0.009029999999999982,-0.0005199999999999927,0.0010752408275167546,0.00029913283803129076,0.002352859836222909
1504197805.35,-1.0,-0.6540839417,-1.4210816515,-1.9739511585499998,0.165224,0.40232,-0.055214,-0.73305689415,-9.7665800281,-0.49701082864999996,-0.974988,1.480361,-0.798997,-0.0027800000000000047,0.009190000000000004,-0.0004210000000000047,0.0019704162991347474,0.00019312703092588812,0.002424784229032695
1504197805.36,-1.0,-0.7107075387999999,-1.4125890926,-2.30423913055,0.163164,0.400225,-0.07336,-0.7243191689999999,-9.767884312549999,-0.4839581775,-0.981765,1.481849,-0.788134,-0.002779999999999949,0.009349999999999997,-0.0003039999999999987,0.003058707028096297,-0.00018491223430050496,0.0030621964532329127
1504197805.37,-1.0,-0.8740078745999998,-1.4168451786999998,-2.54136392755,0.157523,0.345952,-0.098892,-0.7134926274,-9.769316083449999,-0.4709937862,-0.98734,1.483507,-0.778906,-0.00277000000000005,0.009539999999999993,-0.00016499999999999848,0.0038790001394537477,-0.0005713211837450327,0.0037817389613170604
1504197805.38,-1.0,-0.87058535375,-1.40691104225,-2.6478347266,0.151809,0.279963,-0.128672,-0.7003124897999999,-9.77086553415,-0.4583432077,-0.991273,1.485345,-0.771975,-0.002789999999999959,0.009750000000000009,-9.000000000009e-06,0.004132926181255492,-0.0008393165418403292,0.004453481489343547
1504197805.39,-1.0,-0.6053841178,-1.4990249056999998,-2.3426615852499997,0.157943,0.2139,-0.180848,-0.6829939459,-9.77272879765,-0.44464331765,-0.993708,1.487596,-0.767227,-0.0028100000000000347,0.009970000000000007,0.00014800000000000924,0.0037524413427147962,-0.000944191889737267,0.004991911941786942
1504197805.4,-1.0,-0.11663048845,-1.60039624675,-1.8475336333999999,0.165293,0.147857,-0.262909,-0.6587911337,-9.7750529737,-0.42979604954999995,-0.992733,1.4905,-0.766533,-0.002840000000000009,0.010199999999999987,0.0003070000000000017,0.0028092511664075115,-0.0010291143783409673,0.005250180643432745
1504197805.41,-1.0,0.5991667017,-1.6034265016,-1.29009422745,0.177085,0.085006,-0.374855,-0.6244580520499999,-9.77800477535,-0.41353662384999995,-0.98587,1.494348,-0.772414,-0.0028699999999999837,0.010410000000000003,0.0004699999999999982,0.0015358586300815436,-0.0011430445347477836,0.005214173616435724
