Time,placement_label,user_acc_x(m/s^2),user_acc_y(m/s^2),user_acc_z(m/s^2),rotation_rate_x(rad/s),rotation_rate_y(rad/s),rotation_rate_z(rad/s),gravity_x(m/s^2),gravity_y(m/s^2),gravity_z(m/s^2),attitude_roll(rad),attitude_pitch(rad),attitude_yaw(rad),target_delta_x,target_delta_y,target_delta_z,target_delta_roll,target_delta_pitch,target_delta_yaw
1504198291.02,-1.0,-0.0450713634,-0.025075604049999995,0.0333033834,0.000147,0.001016,0.003141,0.14861978074999999,-9.5343781694,2.2899704547999997,3.076782,1.334603,-1.630158,0.0,0.0,0.0,0.0,0.0,0.0
1504198291.03,-1.0,-0.030459454899999995,-0.0179657828,0.02468333805,0.000106,-0.002183,0.006349,0.1476293091,-9.5342997162,2.29035291415,3.077227,1.334569,-1.630619,0.00016800000000000148,2.0000000000020002e-05,-2.2000000000001185e-05,-0.00019461339400317357,3.0089885893369583e-05,5.4176458103905034e-05
1504198291.04,-1.0,-0.026193562150000002,-0.0157887065,0.01909354755,0.001151,-0.004324,0.007423,0.14650154434999998,-9.53423106965,2.2907157602,3.077723,1.33454,-1.631141,0.00016599999999999948,1.9999999999992246e-05,-2.2999999999998716e-05,-0.00013817847310271247,2.4742425567492177e-05,7.658971754276322e-05
1504198291.05,-1.0,-0.026468148349999998,-0.012523092049999998,0.03325435015,0.004355,-0.003286,0.008494,0.1452757131,-9.53405454995,2.2915199055,3.078279,1.334463,-1.631723,0.00016299999999999648,1.0000000000010001e-05,-2.6000000000001716e-05,-0.000149206795270862,3.668166012671392e-05,9.655251470175319e-05
1504198291.06,-1.0,-0.029576856399999997,-0.0075707338,0.0342448218,0.00864,-0.00119,0.008498,0.14389297545,-9.53377996375,2.2927751567,3.078914,1.334341,-1.632386,0.00015700000000000436,5.0000000000050004e-06,-2.8000000000000247e-05,-0.00015316266322851213,2.629956617328233e-05,0.0001009392845302548
1504198291.07,-1.0,-0.0408545039,0.0007747253499999999,0.029920089149999995,0.010797,0.000925,0.007432,0.14246120455,-9.533436731,2.2942559608499997,3.07958,1.334195,-1.633042,0.00015400000000000136,4.999999999977245e-06,-2.8999999999997778e-05,-0.00015248385964072853,1.5616102424287348e-05,0.00011440021854669524
1504198291.08,-1.0,-0.047738772199999994,-0.014876688049999998,0.0401876517,0.010803,0.000926,0.006365,0.14096078709999998,-9.53305427165,2.2959525113,3.080273,1.334028,-1.633708,0.00014999999999999736,-9.999999999982245e-06,-3.0000000000002247e-05,-0.0001030988230759089,-3.100730427574305e-05,9.416381356397441e-05
1504198291.09,-1.0,-0.0508769002,-0.027193840449999996,0.034597861199999996,0.011882,0.003048,0.007432,0.13931326989999998,-9.532701232249998,2.2975117686499997,3.081031,1.333875,-1.634439,0.00014700000000000824,3.333333333327415e-06,-2.9999999999998778e-05,-9.058058148680992e-05,-3.4698791771869963e-05,9.309695799042395e-05
1504198291.1,-1.0,-0.05459362054999999,-0.0234378935,0.0342252085,0.00661,0.009487,0.005278,0.13764613939999998,-9.53242664605,2.2987768265,3.081788,1.333753,-1.635119,0.00014599999999999336,3.333333333327415e-06,-2.9000000000001247e-05,-0.00011606045627132744,-1.5083020761030852e-05,8.049422424505348e-05
1504198291.11,-1.0,-0.036206151799999996,-0.02119217065,0.0384616813,0.006666,0.013754,0.001001,0.13661644115,-9.532122639899999,2.3000713043,3.082268,1.333623,-1.635482,0.00014700000000000824,3.333333333327415e-06,-3.099999999999978e-05,-0.0001283497606214823,-9.865300070854843e-06,8.029151368149634e-05
1504198291.12,-1.0,-0.015406247149999998,-0.014396162199999998,0.038638201,0.003457,0.012715,0.000998,0.1360182355,-9.5318872803,2.3010911958999998,3.082553,1.33352,-1.635642,0.00014699999999999436,-9.999999999982245e-06,-1.5999999999998654e-05,-0.00011465383119935169,-6.025594188274752e-06,7.284213971825437e-05
1504198291.13,-1.0,-0.00856120545,-0.010650021899999999,0.0234967334,0.002351,0.008461,0.002071,0.13545925645,-9.531740180549999,2.30172862815,3.082811,1.333458,-1.635812,0.00014499999999999236,-2.000000000002e-06,-1.6999999999999654e-05,-0.00011371462395493026,7.962653869597602e-09,6.773875669574547e-05
1504198291.14,-1.0,-0.01107170785,-0.008571012099999999,0.01320955755,-0.00193,0.007429,0.003133,0.1348218242,-9.53172056725,2.3018365013,3.083087,1.33345,-1.636008,0.00014200000000000323,-2.000000000002e-06,-1.8000000000000654e-05,-0.00012956650841733364,-1.3577259463382063e-06,4.282108623432368e-05
1504198291.15,-1.0,-0.008973084749999999,-0.0097870367,0.00589379665,0.001268,0.006339,0.002073,0.1342138119,-9.531700953949999,2.3019639877499998,3.083353,1.33344,-1.636213,0.00013900000000000023,-2.000000000002e-06,-1.9999999999999185e-05,-0.00011450214278285742,-3.700558330210768e-06,4.501841091530956e-05
1504198291.16,-1.0,-0.0020593965,-0.009639936949999999,0.020819517949999998,0.003376,0.003124,0.002083,0.13389019245,-9.5315538542,2.30260142,3.08351,1.333376,-1.636335,0.00013699999999999823,-2.000000000002e-06,-1.9000000000001654e-05,-8.996681231066006e-05,-2.9326645285987496e-05,6.273469901230122e-05
1504198291.17,-1.0,-0.00477583855,-0.00510926465,0.03231291175,0.00443,0.002049,0.003154,0.1334685065,-9.5312988813,2.3036801515,3.083722,1.333265,-1.636534,0.0001320000000000071,-2.000000000002e-06,-1.9999999999999185e-05,-4.708212611737039e-05,-3.621798278286015e-05,6.478350225624929e-05
1504198291.18,-1.0,-0.0131605243,-0.008786758399999999,0.03264633785,0.006497,-0.004365,0.006371,0.1327232011,-9.5310635217,2.3047000431,3.084068,1.333163,-1.636929,0.0001280000000000031,-1.0000000000010001e-05,-1.8000000000000654e-05,-3.3146869685252156e-05,-3.088329456146788e-05,5.6053761929741874e-05
1504198291.19,-1.0,-0.0363826715,-0.01638691215,0.037167203499999996,0.006551,0.000965,0.004228,0.13170330949999998,-9.53079874215,2.3058572278,3.084538,1.333048,-1.637425,0.00012099999999999611,-9.999999999982245e-06,-1.6999999999999654e-05,1.855190474064905e-05,-2.4613315596777596e-05,7.070976256640105e-05
1504198291.2,-1.0,-0.0423255014,-0.030635974599999997,0.0391873734,0.009842,0.006276,-0.005382,0.13121297699999998,-9.5304555094,2.3072791920499998,3.084787,1.332902,-1.637603,0.00011600000000000499,-1.0000000000010001e-05,-1.5999999999998654e-05,2.7880312759798187e-05,-6.037367109223979e-05,3.6529357785641814e-05
1504198291.21,-1.0,-0.041433096249999996,-0.03217561865,0.03552949295,0.008821,0.01055,-0.007525,0.13090897085,-9.5301220833,2.3086913496499997,3.084949,1.332755,-1.637659,0.00011099999999999999,-1.0000000000010001e-05,-1.5000000000001124e-05,3.543577061582148e-05,-5.394426752558523e-05,2.8970792450566663e-05
1504198291.22,-1.0,-0.0571727695,-0.02470295135,0.033322996699999996,0.007746,0.009493,-0.007524,0.13049709155,-9.5298082705,2.31000544075,3.085161,1.332621,-1.637756,0.00011099999999999999,3.333333333327415e-06,-1.1000000000000593e-05,2.555163939210736e-05,-2.0404225300918455e-05,3.915481601646231e-05
1504198291.23,-1.0,-0.0612915625,-0.028664837949999997,0.0518379519,0.007726,0.006298,-0.008584,0.13012443885,-9.52944542445,2.31153527815,3.08536,1.332462,-1.637863,0.00010999999999999899,3.3333333333551707e-06,-1.2999999999999123e-05,-2.6331447967375965e-05,1.2792912337245e-05,1.9045264710970677e-05
1504198291.24,-1.0,-0.04254124769999999,-0.0214961768,0.049778555399999994,0.007727,0.006298,-0.008584,0.1300754056,-9.529121804999999,2.31284936925,3.08541,1.332324,-1.637832,0.00010999999999999899,3.333333333327415e-06,-1.3000000000002593e-05,-2.3742951465566264e-05,2.93592551903199e-05,5.006647427974187e-06
1504198291.25,-1.0,-0.037490822949999995,-0.00065704555,0.02582090945,0.006649,0.004177,-0.009648,0.13026173195,-9.52885702545,2.3139182941,3.085356,1.332212,-1.637711,0.00010799999999999699,1.9999999999992246e-05,-1.2999999999999123e-05,-3.974766900016746e-05,2.6659091843184157e-05,-1.2317642079651137e-05
1504198291.26,-1.0,-0.0207312581,0.015357213899999998,0.018377662099999997,0.007696,0.000973,-0.010708,0.13086974424999998,-9.5285726326,2.3150754788,3.085125,1.332087,-1.637449,0.00010399999999999299,1.0000000000010001e-05,-1.4000000000000123e-05,-8.12750375513982e-05,2.7383985707674086e-05,-4.708037279366195e-06
1504198291.27,-1.0,-0.014062736099999999,0.0027360553499999997,0.0260660757,0.010856,-0.002253,-0.007494,0.1315267898,-9.5282195932,2.3165072497,3.084877,1.331933,-1.637194,9.900000000000186e-05,1.9999999999992246e-05,-1.1000000000000593e-05,-0.00010980553293116202,2.7416929667234413e-05,-7.285936519663139e-07
1504198291.28,-1.0,-0.023810546199999998,-0.0089044382,0.038451874649999995,0.010831,-0.005449,-0.007488,0.13199750899999999,-9.52779790725,2.31818418685,3.084714,1.331754,-1.637061,9.300000000000974e-05,1.0000000000010001e-05,-7.999999999997592e-06,-0.0001262772834023096,2.0733768110847706e-05,4.727478771560101e-06
1504198291.29,-1.0,-0.0246146915,-0.0156710267,0.04605202839999999,0.014041,-0.00441,-0.007484,0.1323505484,-9.5273173814,2.32016513015,3.08461,1.331545,-1.636988,8.499999999998786e-05,-5.0000000000050004e-06,-5.000000000001531e-06,-0.00011427115988515979,-2.1580687858957504e-06,4.3750029543598856e-05
1504198291.3,-1.0,-0.0452674964,-0.0352843267,0.05675108354999999,0.010858,-0.002252,-0.007493,0.13236035505,-9.52685646885,2.3220382002999997,3.084654,1.331348,-1.637037,7.800000000000862e-05,-5.0000000000050004e-06,-1.000000000001e-06,-8.73046921299192e-05,-1.3513843455825736e-05,7.525269761421427e-05
1504198291.31,-1.0,-0.0629194664,-0.06309598609999999,0.0529166834,0.004492,0.002063,-0.00751,0.13204654224999998,-9.52658188265,2.3231757717,3.084814,1.331231,-1.63717,7.300000000000362e-05,-3.0000000000002247e-05,2.000000000002e-06,5.281521110012122e-06,-3.301343046402394e-05,8.42813129434683e-05
1504198291.32,-1.0,-0.06390013139999999,-0.07366755479999999,0.0536619888,-0.004025,0.006392,-0.004329,0.1313894967,-9.52648381615,2.3236268775999998,3.085108,1.331188,-1.637384,6.899999999999962e-05,-3.0000000000002247e-05,4.9999999999980616e-06,3.568407022291886e-05,-8.876694696846599e-06,0.00010713765919068141
1504198291.33,-1.0,-0.0642139442,-0.05714334954999999,0.05833976085,-0.010404,0.011769,-7.9e-05,0.13020289205,-9.52654265605,2.3234503578999997,3.085614,1.331214,-1.637766,6.899999999999962e-05,-3.999999999998449e-05,5.000000000001531e-06,0.0001507845575208222,2.6474324715142217e-05,0.00016893772868198376
1504198291.34,-1.0,-0.08673981925,-0.0362453784,0.05386792844999999,-0.011436,0.01604,-8.6e-05,0.12849653495,-9.526640722549999,2.3231267384499996,3.086339,1.331257,-1.638326,6.899999999999962e-05,-4.000000000001225e-05,5.999999999999062e-06,0.00021290141230201343,4.119159967830299e-05,0.00020459031315001042
1504198291.35,-1.0,-0.08825004335,-0.012385798949999999,0.048484077599999995,-0.007202,0.014935,0.005262,0.12626061875,-9.5267093691,2.32296983205,3.087294,1.331286,-1.639128,6.699999999999762e-05,-3.999999999998449e-05,9.000000000002062e-06,0.00018784967730534063,6.0688429840860536e-05,0.0002438086894629432
1504198291.36,-1.0,-0.08703401874999998,0.015249340749999998,0.038755880799999996,-0.000876,0.00742,0.00849,0.12384818284999999,-9.5266701425,2.3232738382,3.088336,1.331268,-1.640069,6.299999999999362e-05,-3.0000000000002247e-05,1.1000000000000593e-05,0.00014506566763472506,6.67737305917182e-05,0.00026831126290904894
1504198291.37,-1.0,-0.08556302125,0.01677917815,0.02272200805,0.002322,0.00633,0.007432,0.12147497355,-9.5265524627,2.32389165715,3.089369,1.331216,-1.64103,5.3999999999998494e-05,-1.9999999999992246e-05,1.3999999999996654e-05,4.886373364620944e-05,8.265784419214661e-05,0.00027113667212641523
1504198291.38,-1.0,-0.0698821879,-0.00658026215,0.00814932615,0.007656,0.006287,0.007442,0.11941557705,-9.526375943,2.32469580245,3.09027,1.331143,-1.641863,4.300000000000137e-05,-1.0000000000010001e-05,1.2000000000001593e-05,-4.422167115580855e-05,5.373429301114285e-05,0.00022566442330551606
1504198291.39,-1.0,-0.0492882229,-0.0391481468,0.0316362529,0.006623,0.00843,0.004235,0.11781709309999999,-9.5261405834,2.32575492065,3.090978,1.331041,-1.642488,3.200000000000425e-05,-1.0000000000010001e-05,7.000000000000062e-06,-4.506966504003174e-05,4.692426517172166e-05,0.000257307996477496
1504198291.4,-1.0,-0.03884414065,-0.0457186023,0.06679309315,0.002502,0.018069,-0.009664,0.11739540715,-9.52585619055,2.3269513319499997,3.091183,1.330917,-1.642518,2.3999999999996247e-05,3.333333333327415e-06,-2.999999999999531e-06,-6.160218462580858e-05,2.505801422847398e-05,0.0002800837261641709
1504198291.41,-1.0,-0.0339506223,-0.0233594403,0.056143071249999996,0.000494,0.027686,-0.019291,0.11790535295,-9.525620830949999,2.3278829637,3.090989,1.330817,-1.64205,2.0000000000006124e-05,3.3333333333551707e-06,-1.4000000000000123e-05,-6.491162398525319e-05,3.994893700953739e-06,0.00029794509833191984
1504198291.42,-1.0,-0.05162220559999999,-0.0012160246,0.0034617474499999998,0.006949,0.032963,-0.021423,0.11835645885,-9.52546392455,2.328490976,3.090806,1.330751,-1.641518,1.8000000000004124e-05,3.333333333327415e-06,-2.2999999999998716e-05,-6.094420537161582e-05,2.6517183863594695e-05,0.0003306135560672274
1504198291.43,-1.0,-0.04366901245,0.0466012008,-0.04308061345,0.016505,0.025429,-0.024593,0.11833684554999999,-9.525395278,2.32879498215,3.090822,1.33072,-1.641219,1.4999999999987246e-05,3.999999999998449e-05,-2.7000000000002716e-05,-6.767371403459954e-05,6.560634523933295e-05,0.00032762712648604086
1504198291.44,-1.0,-0.0455224693,0.0462089348,-0.04458103089999999,0.014363,0.024381,-0.024595,0.12019030239999999,-9.525003011999999,2.3302953995999998,3.090061,1.330552,-1.640174,1.2000000000012001e-05,4.000000000001225e-05,-2.9999999999998778e-05,-5.094506859526504e-05,8.97903289083235e-05,0.00027702094344617123
1504198291.45,-1.0,-0.034911674,0.062350680699999994,0.0005295590999999999,0.007962,0.024435,-0.024604,0.1206610216,-9.524679392549999,2.33158007075,3.089889,1.330415,-1.639718,4.999999999991123e-06,4.999999999999449e-05,-2.6000000000001716e-05,-1.7848194693081965e-05,8.591466551366445e-05,0.0002763361713699064
1504198291.46,-1.0,-0.0366376444,0.062174161,-0.00010787314999999999,0.006851,0.020179,-0.022464,0.12237718535,-9.52450287285,2.33220769635,3.089166,1.33034,-1.638744,1.000000000001e-06,4.999999999999449e-05,-1.9999999999999185e-05,-2.6327236972489843e-05,3.4813529195876214e-05,0.00026791220661948056
1504198291.47,-1.0,-0.039206986699999995,0.01222889255,-0.015504313649999999,0.007898,0.019103,-0.020325,0.12329901045,-9.52438519305,2.3326391889499996,3.088782,1.330289,-1.638125,-2.000000000002e-06,4.000000000001225e-05,-1.1999999999998123e-05,-1.8171397220045904e-05,4.778337413524625e-06,0.0002632355036883416
1504198291.48,-1.0,-0.055182019549999996,-0.049964881749999995,-0.0070019481,0.005745,0.018053,-0.018191,0.1237206964,-9.52430673985,2.3329628084,3.088612,1.330253,-1.637735,-4.999999999991123e-06,3.0000000000002247e-05,-2.999999999999531e-06,1.9204561759522676e-05,-4.429981892650758e-06,0.00026712545111873265
1504198291.49,-1.0,-0.05877125345,-0.11478683825,0.00589379665,0.003606,0.020198,-0.013927,0.1237206964,-9.524267513249999,2.33309029485,3.088614,1.33024,-1.637505,-3.0000000000030003e-06,1.9999999999992246e-05,4.999999999970306e-07,7.649811183219057e-05,-3.1339657895479434e-06,0.00025789684353572095
1504198291.5,-1.0,-0.0567412769,-0.1410392403,0.024153778949999996,-0.003838,0.02452,-0.011812,0.1233284304,-9.5243557731,2.3327862887,3.088776,1.330273,-1.63741,1.000000000001e-06,1.9999999999992246e-05,5.000000000005e-07,0.0001508458312304839,7.003669253657918e-06,0.00026723561030206344
1504198291.51,-1.0,-0.024751984600000002,-0.1062648594,0.042492214449999996,-0.00601,0.022402,-0.007542,0.1232107506,-9.524414613,2.3325509291,3.08882,1.330299,-1.637203,5.999999999992123e-06,-3.333333333327415e-06,-1.9999999999985307e-06,0.0001968216067536055,1.9522281190287316e-05,0.00025274497805083396
1504198291.52,-1.0,-0.0097674234,-0.06438065724999999,0.0436395925,-0.00387,0.024513,-0.005407,0.12304403755,-9.5243949997,2.332609769,3.088891,1.330294,-1.637029,1.0000000000010001e-05,-3.333333333327415e-06,-4.000000000000531e-06,0.00027455105740159524,6.278763257183684e-05,0.0002812122026860653
1504198291.53,-1.0,-0.0005099458,-0.0118072066,0.035264713399999995,-0.000684,0.024484,-0.002199,0.12276945135,-9.524296933199999,2.3330412616,3.08902,1.33025,-1.636908,-7.000000000007001e-06,-3.333333333327415e-06,-9.999999999999593e-06,0.00026888661375279455,2.968620832688451e-05,0.0002574799008281392
1504198291.54,-1.0,0.0174950636,0.02549729,0.020201699,-0.000656,0.026617,-0.004338,0.12285771119999998,-9.524198866699999,2.3334433342499996,3.088988,1.330207,-1.636609,-4.999999999991123e-06,-1.0000000000010001e-05,-9.999999999999593e-06,0.0002888314448887819,5.653387787019071e-05,0.0002607705223637291
1504198291.55,-1.0,0.030057382249999997,0.03474496095,0.01919161405,-0.003832,0.027712,-0.007548,0.12347553014999998,-9.524159640099999,2.33356101405,3.08873,1.330192,-1.636075,-3.0000000000030003e-06,-1.9999999999992246e-05,-8.000000000001062e-06,0.0002694458578835768,3.568932341369013e-05,0.00020060829143875303
1504198291.56,-1.0,0.0335191297,0.0096497436,0.0328915041,-0.009169,0.026691,-0.008624,0.12420122224999998,-9.52420867335,2.33332565445,3.088414,1.330213,-1.635488,7.50000000007689e-07,-5.0000000000050004e-06,-4.000000000000531e-06,0.00029348932684158946,1.0032157466977054e-05,0.00016651345618456936
1504198291.57,-1.0,0.049337256149999995,-0.02297698095,0.0226141349,-0.009202,0.022429,-0.008617,0.12528976039999998,-9.5243557731,2.3326882222,3.087933,1.330273,-1.634761,7.499999999938112e-07,-5.0000000000050004e-06,-1.9999999999985307e-06,0.00023321896294037359,7.506270353285771e-06,0.00012057844268964502
1504198291.58,-1.0,0.059134099499999995,-0.04486542375,0.021466756849999998,-0.007125,0.016017,-0.007536,0.1265646249,-9.5244538396,2.3321880830499997,3.087377,1.330318,-1.634015,7.499999999938112e-07,1.0000000000010001e-05,-5.000000000001531e-06,0.00022006579460720488,9.863895916284449e-06,7.118732674926687e-05
1504198291.59,-1.0,0.06673425325,-0.0535246957,0.031077273849999996,-0.002908,0.009588,-0.007519,0.1280944623,-9.52448325955,2.3320017567,3.086721,1.330329,-1.633246,7.50000000007689e-07,1.0000000000010001e-05,-8.999999999998592e-06,0.00015826540356611574,-8.322671665172976e-07,6.359117058485353e-06
1504198291.6,-1.0,0.08994659379999999,-0.029027683999999998,0.035490266349999994,-0.002951,0.00426,-0.007511,0.1301734721,-9.5244342263,2.33207040325,3.085834,1.33031,-1.632316,5.999999999992123e-06,1.9999999999992246e-05,-1.1000000000000593e-05,8.477147591179346e-05,-4.066622882437088e-06,-3.4634736473693195e-05
1504198291.61,-1.0,0.1008908152,0.0001765197,0.053367789299999996,0.003387,-0.003253,-0.006422,0.1325466814,-9.524159640099999,2.33305106825,3.084842,1.330193,-1.631349,8.999999999995123e-06,1.9999999999992246e-05,-1.2000000000001593e-05,1.7157392941946625e-06,2.6043923044616335e-05,-3.5140202739203374e-05
1504198291.62,-1.0,0.09168237084999999,0.0191425808,0.040599530999999994,0.007598,-0.009682,-0.005338,0.13487085745,-9.523826214,2.33430631945,3.08388,1.330048,-1.630474,-1.4000000000000123e-05,4.999999999999449e-05,-7.000000000000062e-06,-2.183913886044664e-05,4.258799302414573e-05,-4.053207234622214e-05
1504198291.63,-1.0,0.09531083135,0.0211627507,0.03621595845,0.007599,-0.009683,-0.005339,0.13722445345,-9.5234535613,2.3356890570999997,3.082907,1.329888,-1.629602,-8.999999999995123e-06,4.000000000001225e-05,-2.999999999999531e-06,-6.160062427751356e-05,6.921475548438139e-05,-5.918542557925566e-05
1504198291.64,-1.0,0.08487655574999999,-0.000196133,0.0288511643,0.003352,-0.00858,-0.007485,0.13957804945,-9.52318878175,2.33662068885,3.081927,1.329776,-1.628727,-6.999999999993123e-06,3.0000000000002247e-05,-9.999999999975306e-07,-8.074616482733887e-05,4.9698807327525074e-05,-0.00011181019841022266
1504198291.65,-1.0,0.0883775298,-0.03221484525,0.04831736455,-0.004143,-0.010652,-0.005362,0.14191203214999998,-9.52305148865,2.33705218145,3.080943,1.329716,-1.627866,-5.0000000000050004e-06,9.999999999982245e-06,-2.000000000002e-06,3.7050574276165094e-05,1.1847756088867456e-05,-0.00014315771800688104
1504198291.66,-1.0,0.08001245735,-0.042933513699999995,0.04731708625,-0.011619,-0.011657,-0.005374,0.14400084859999998,-9.5231005219,2.3367089486999997,3.080046,1.329739,-1.62709,-3.0000000000030003e-06,1.0000000000010001e-05,-1.9999999999985307e-06,7.053543735202616e-05,-2.1854734360227113e-05,-0.00017920936617776828
1504198291.67,-1.0,0.0714708652,-0.03254827135,0.05470149369999999,-0.010583,-0.014863,-0.004301,0.14595237195,-9.5231593618,2.3363559093,3.079204,1.329763,-1.626396,2.5000000000025002e-06,-1.0000000000010001e-05,-2.999999999999531e-06,0.00015853751075911582,-5.419459578925867e-05,-0.00018979055008039314
1504198291.68,-1.0,0.06910746255,-0.035990405499999996,0.05437787424999999,-0.007429,-0.020219,-0.00322,0.14787447535,-9.5231593618,2.3362284228499997,3.078383,1.329763,-1.62577,2.5000000000025002e-06,-9.999999999982245e-06,-4.000000000000531e-06,0.0002014917112225234,-5.801822334228213e-05,-0.00024205183757175508
1504198291.69,-1.0,0.07556023825,-0.02923362365,0.0446006442,-0.00107,-0.025599,-0.003201,0.15009077824999997,-9.52303187535,2.33658146225,3.077445,1.329711,-1.625088,7.999999999994123e-06,-2.0000000000020002e-05,-2.999999999999531e-06,0.00021558936296006692,-5.032997131082517e-05,-0.00027863097166658246
1504198291.7,-1.0,0.0755700449,-0.00893385815,0.0503669544,-0.00112,-0.031993,-0.003191,0.15247379419999998,-9.522835742349999,2.3372483144499996,3.076449,1.329625,-1.624412,1.0000000000010001e-05,-9.999999999982245e-06,1.5000000000015001e-06,0.00019749114808664814,-6.429919799355588e-05,-0.0003186677594824161
1504198291.71,-1.0,0.08017917039999999,-0.006246836049999999,0.05196543835,-0.00327,-0.034107,-0.003193,0.15505294314999998,-9.5226690293,2.33773864695,3.075366,1.329556,-1.623676,9.999999999996123e-06,-1.9999999999992246e-05,1.4999999999980307e-06,0.0001400534054050162,-6.387927208173494e-05,-0.0003625282250994122
1504198291.72,-1.0,0.07582501779999999,-0.015759286549999998,0.055819451799999996,-0.007581,-0.038336,-0.00106,0.15746537904999997,-9.522590576099999,2.33793477995,3.074343,1.329519,-1.623055,1.0999999999997123e-05,-1.0000000000010001e-05,8.000000000001062e-06,7.128489392327353e-05,-4.01614087264246e-05,-0.0003746416580965306
1504198291.73,-1.0,0.06281159324999999,-0.03282285755,0.06239971394999999,-0.009736,-0.040451,6e-06,0.15954438884999997,-9.522590576099999,2.3377876802,3.073452,1.32952,-1.622586,-8.999999999995123e-06,1.0000000000010001e-05,6.999999999996592e-06,1.329647540604384e-05,-4.5999226123694115e-05,-0.00036160066534496327
1504198291.74,-1.0,0.05692760325,-0.05200466495,0.06418452424999999,-0.007624,-0.042601,0.00108,0.16138803905,-9.522551349499999,2.3377974868499996,3.072667,1.329505,-1.622234,-5.0000000000050004e-06,4.999999999977245e-06,9.000000000002062e-06,-2.862642766299217e-05,-3.298421740871582e-05,-0.00036876207694680474
1504198291.75,-1.0,0.03839303475,-0.06292927305,0.06097774969999999,-0.007634,-0.042603,0.003214,0.16272174344999998,-9.522551349499999,2.33771903365,3.072098,1.329504,-1.622101,1.000000000001e-06,5.0000000000050004e-06,8.999999999998592e-06,-4.1347689407666977e-05,-3.0774099321062565e-05,-0.00036638165352020913
1504198291.76,-1.0,0.029508209849999998,-0.04104083025,0.04417895825,-0.007605,-0.04047,0.001075,0.16397699464999999,-9.522590576099999,2.3374542541,3.071556,1.329523,-1.621977,7.999999999994123e-06,1.0000000000010001e-05,1.1000000000000593e-05,-3.571325441864559e-05,2.214949271550637e-06,-0.00034259107112433185
1504198291.77,-1.0,0.02654660155,-0.0180246227,0.023388860249999997,-0.008691,-0.041529,0.003209,0.16513417935,-9.522727869199999,2.3368462418,3.071043,1.329578,-1.621883,1.5000000000001124e-05,-5.0000000000050004e-06,1.2000000000001593e-05,-4.497746069587194e-06,1.788829131177394e-05,-0.0003340337173846075
1504198291.78,-1.0,0.022192448949999995,-0.0115522337,0.014925721299999998,-0.009743,-0.038326,0.005336,0.1660461978,-9.522904388899999,2.33603228985,3.070631,1.329656,-1.621857,2.1000000000007124e-05,-5.0000000000050004e-06,1.1999999999998123e-05,5.7511288739098276e-05,3.0182369875841886e-05,-0.0002705077671091294
1504198291.79,-1.0,0.02397725925,-0.00487390505,-0.0040795664,-0.00869,-0.039401,0.006407,0.1668111165,-9.523149555149999,2.3349829783,3.070274,1.32976,-1.6219,2.1999999999994246e-05,-1.9999999999992246e-05,1.2000000000001593e-05,0.00018379704430282473,2.1560687154753566e-05,-0.00023186417148135519
1504198291.8,-1.0,0.00059820565,-0.0098458766,-0.0160044528,-0.006559,-0.038355,0.008544,0.16699744284999998,-9.5234143347,2.3338846335,3.070163,1.329874,-1.622176,2.2000000000008124e-05,-3.0000000000002247e-05,9.999999999999593e-06,0.00025670062089644397,7.580279660635014e-06,-0.0001975576918058497
1504198291.81,-1.0,-0.0319108391,-0.009561483749999999,-0.0190837409,0.000982,-0.029891,0.007475,0.16642865715,-9.5235516278,2.3333746877,3.070387,1.329931,-1.622724,1.9999999999992246e-05,-3.0000000000002247e-05,8.000000000001062e-06,0.00031265240335676125,-8.563679312345585e-07,-0.00017259608378561442
1504198291.82,-1.0,-0.05811420789999999,-0.010650021899999999,-0.020662611549999998,7e-05,-0.022433,0.008542,0.16526166579999998,-9.52365950095,2.33301184165,3.070876,1.329978,-1.623462,2.1000000000007124e-05,-3.999999999998449e-05,7.999999999997592e-06,0.0003663120174330903,-2.1163234280141552e-05,-0.00018926731519075535
1504198291.83,-1.0,-0.044767357249999994,-0.01166010685,-0.00924767095,-0.000939,-0.017093,0.005331,0.1634376289,-9.523845827299999,2.3323744094,3.071635,1.330059,-1.624395,2.9999999999891225e-06,-1.0000000000010001e-05,1.000000000001e-06,0.00036576316634095996,-2.325454830942597e-05,-0.00021327335789955715
1504198291.84,-1.0,-0.044855617099999995,-0.0116306869,-0.0091397978,-0.001965,-0.013884,0.002121,0.16351608210000002,-9.523875247249999,2.3322567296,3.071596,1.33007,-1.624503,4.000000000004e-06,-1.0000000000010001e-05,4.000000000000531e-06,0.00028066000188076146,-4.795667362778033e-06,-0.00022119613959814544
1504198291.85,-1.0,-0.0265760215,-0.024408751849999997,-0.01162088025,-0.00835,-0.013828,-0.001092,0.16334936905,-9.52411060685,2.3312956778999996,3.07164,1.330172,-1.624686,5.0000000000050004e-06,3.333333333327415e-06,8.000000000001062e-06,0.00017937359719955026,-1.8810511249300887e-05,-0.0002447369293214763
1504198291.86,-1.0,0.0024026292499999997,-0.0475622525,-0.010954028049999998,-0.010524,-0.018074,-2e-05,0.1638495082,-9.5244538396,2.3298835202999997,3.071385,1.330316,-1.624605,4.999999999991123e-06,3.3333333333551707e-06,1.0999999999997123e-05,0.0001172845560115654,-3.428648613001961e-05,-0.000253906858747488
1504198291.87,-1.0,0.0292042037,-0.07167680485,-0.0046287388,-0.015912,-0.02336,0.002114,0.16472230005,-9.5248853322,2.3280496767499996,3.070954,1.330502,-1.624393,5.0000000000050004e-06,3.333333333327415e-06,1.1000000000000593e-05,4.508873100261823e-05,-4.6232605357188206e-05,-0.0002574276423041866
1504198291.88,-1.0,0.0421293684,-0.07929657189999999,0.0101793027,-0.018051,-0.023343,0.003177,0.16571277169999998,-9.5253364381,2.3261177667,3.070471,1.330697,-1.624154,6.0000000000060005e-06,1.0000000000010001e-05,9.999999999999593e-06,-8.745365511764192e-07,-5.893796061307022e-05,-0.0002429331564841597
1504198291.89,-1.0,0.04213917504999999,-0.06912707585,0.030596747999999997,-0.013806,-0.025511,0.004254,0.16660517685,-9.525630637599999,2.3248429022,3.070053,1.330823,-1.624003,1.1999999999998123e-05,9.999999999982245e-06,9.999999999999593e-06,6.751854476449992e-05,-8.548241960104619e-05,-0.00022833329780924672
1504198291.9,-1.0,0.0243793319,-0.046973853499999996,0.010493115499999999,-0.010591,-0.024471,0.00319,0.16715434925,-9.525944450399999,2.32355823105,3.069775,1.330955,-1.623974,2.2999999999995246e-05,-5.0000000000050004e-06,8.000000000001062e-06,0.000146338246217681,-5.056307562867346e-05,-0.00016225997724483854
1504198291.91,-1.0,0.0098458766,-0.02591897595,-0.01371950335,-0.007359,-0.019172,0.005321,0.1673210623,-9.5261994233,2.32247949955,3.069672,1.331066,-1.624076,3.599999999999437e-05,-4.999999999977245e-06,9.000000000002062e-06,0.0001980315336416183,-6.565137442793301e-06,-9.983971596905228e-05
1504198291.92,-1.0,-0.00106892485,-0.01521011415,-0.02864522465,-0.001972,-0.013886,0.003186,0.1673210623,-9.526424976249999,2.32153806115,3.069644,1.331165,-1.62419,4.000000000001225e-05,-1.0000000000010001e-05,-3.0000000000030003e-06,0.0002126262169532822,6.355006972347255e-05,3.9418234565324894e-07
1504198291.93,-1.0,-0.01030678915,0.022849494499999998,-0.016896857949999997,-0.00085,-0.0075,0.00211,0.16697782954999998,-9.5266309159,2.32071430255,3.069765,1.331253,-1.624395,4.799999999999249e-05,-1.0000000000010001e-05,-9.999999999975306e-07,0.00028842386632010886,9.73266555617247e-05,1.1411027624586012e-05
1504198291.94,-1.0,-0.01026756255,0.02282007455,-0.01701453775,0.000265,-0.00218,0.001035,0.16693860295,-9.526601495949999,2.320841789,3.069785,1.331241,-1.624442,5.3999999999998494e-05,-1.9999999999992246e-05,9.999999999975306e-07,0.00032231308469188313,0.00011350938779064457,4.984925222106806e-05
1504198291.95,-1.0,-0.008737725149999999,0.017259704,-0.0065312289,0.003469,-0.001142,0.002107,0.16660517685,-9.52658188265,2.3209790821,3.069933,1.331228,-1.624598,5.9000000000003494e-05,-3.0000000000002247e-05,3.0000000000030003e-06,0.0002998451975282368,6.990776271131871e-05,6.0547009891442904e-05
1504198291.96,-1.0,0.006639102049999999,0.00196133,0.012464252149999999,0.006676,0.000961,0.004243,0.1663403973,-9.526395556299999,2.32173419415,3.070071,1.331151,-1.624732,6.299999999999362e-05,-3.0000000000002247e-05,1.9999999999985307e-06,0.0003104086063205891,3.972385109207721e-05,6.036157249977858e-05
1504198291.97,-1.0,0.033528936349999997,-0.023222147199999998,0.016475172,0.006698,0.003093,0.003171,0.16653653029999999,-9.52620922995,2.3225089195,3.070009,1.331068,-1.624655,6.90000000000135e-05,-1.9999999999992246e-05,-9.999999999975306e-07,0.0002775269503543232,2.8687082564760047e-05,4.341508509875247e-05
1504198291.98,-1.0,0.0557213853,-0.0208685512,0.011375713999999999,0.006726,0.005226,0.001032,0.1672426091,-9.526013096949999,2.32326403155,3.069732,1.330984,-1.624351,7.699999999999374e-05,-1.0000000000010001e-05,-1.000000000001e-06,0.00023622292361835662,3.1782044439987445e-05,2.320166862279649e-05
1504198291.99,-1.0,0.07390291439999999,-0.015700446649999998,-0.01740680375,0.00458,0.003113,-3.7e-05,0.16836056719999998,-9.525934643749999,2.3234699711999998,3.069258,1.330954,-1.623852,8.500000000000174e-05,-9.999999999982245e-06,-3.0000000000030003e-06,0.00013829602638870675,5.3208731832121714e-05,-8.864968211619306e-06
1504198292.0,-1.0,0.08737725149999999,-0.014621715149999999,-0.03870684755,0.003499,0.002055,0.001029,0.16970407825,-9.525973870349999,2.3232248049499997,3.068676,1.330969,-1.623265,9.199999999999486e-05,3.333333333327415e-06,-2.999999999999531e-06,9.583819121194992e-05,6.313377909794582e-05,-1.3435387206328642e-05
1504198292.01,-1.0,0.0906330593,-0.035568719549999996,-0.048778277099999996,0.002375,-0.004331,0.002104,0.1710868159,-9.5261209701,2.32251872615,3.068061,1.331033,-1.622689,9.599999999999886e-05,3.333333333327415e-06,-4.000000000000531e-06,6.025895691763594e-05,2.202846885324128e-05,-5.226345344033767e-05
1504198292.02,-1.0,0.0883579165,-0.051249552899999995,-0.033568162949999994,-0.001906,-0.006426,0.001031,0.17261665329999998,-9.5262974898,2.32167535425,3.06738,1.331109,-1.622082,9.000000000000674e-05,3.333333333327415e-06,-1.2999999999999123e-05,2.6483801710330823e-05,-1.0300465228096911e-05,-4.68974503473607e-05
1504198292.03,-1.0,0.07701162245,-0.05535853925,-0.0027262486999999995,-0.002993,-0.009613,-3.4e-05,0.17407784415,-9.526385749649998,2.32120463505,3.066737,1.331147,-1.621547,9.499999999999786e-05,-9.999999999982245e-06,-1.6999999999999654e-05,7.96043395001611e-05,-3.691798469884766e-05,-6.6981861153170286e-06
1504198292.04,-1.0,0.05149471914999999,-0.0437572723,0.0011277647499999999,-0.000829,-0.006434,-0.001105,0.17520560889999998,-9.526464202849999,2.3208025624,3.066241,1.33118,-1.621124,0.00010100000000000386,-1.0000000000010001e-05,-2.2000000000001185e-05,0.0001245691419828887,-3.353402495909208e-05,3.8263984343256396e-05
1504198292.05,-1.0,0.043737659,-0.047601479099999996,-0.02391841935,0.005603,-0.003289,-0.002167,0.17623530715,-9.526503429449999,2.32055739615,3.065795,1.331198,-1.620718,0.00010999999999999899,-3.0000000000002247e-05,-2.5999999999998247e-05,0.00013775006953808955,-4.738001355408805e-05,3.2916027991380936e-05
1504198292.06,-1.0,0.04725824635,-0.023192727249999996,-0.03658861115,0.003479,-0.003269,-0.004307,0.17749055835,-9.526532849399999,2.3203514564999996,3.065247,1.331209,-1.620215,0.00011799999999999311,-3.0000000000002247e-05,-2.5000000000000716e-05,0.0001789685800415164,-4.959173495300284e-05,2.6584340255042527e-05
1504198292.07,-1.0,0.04884692365,0.00848275225,-0.022790654599999998,-0.004,-0.00321,-0.002186,0.17859870979999998,-9.5266309159,2.3198807372999997,3.064758,1.33125,-1.619755,0.0001260000000000011,-3.0000000000002247e-05,-1.9999999999999185e-05,0.0002093713861968105,-3.751630474724266e-05,1.2447431764206485e-05
1504198292.08,-1.0,0.0557606119,0.009561483749999999,-0.0091005712,-0.009364,-0.004236,0.002075,0.17961860139999997,-9.526807435599999,2.3190569787,3.064295,1.331328,-1.619347,0.0001310000000000061,-3.0000000000002247e-05,-1.2999999999999123e-05,0.0002597273765636565,9.198757788819734e-07,1.935850153123031e-05
1504198292.09,-1.0,0.0453263363,-0.014808041499999999,-0.00204958985,-0.006219,-0.008529,0.006357,0.18002067404999997,-9.526983955299999,2.3182920599999997,3.064095,1.331404,-1.619248,0.00013299999999999423,-1.9999999999992246e-05,-7.000000000000062e-06,0.0002464916713134091,1.5366490440316127e-05,7.012652643245687e-06
1504198292.1,-1.0,0.011434553899999998,-0.0315577997,0.019760399749999998,-0.000911,-0.008578,0.011703,0.17935382184999998,-9.52699376195,2.3183312866,3.064384,1.331406,-1.619649,0.0001320000000000071,-1.9999999999992246e-05,-2.000000000002e-06,0.00020888651945161207,3.933026093028147e-05,2.08522572434644e-05
1504198292.11,-1.0,-0.02019189235,-0.049543195799999995,0.03209716545,0.005454,-0.01183,0.013855,0.17791224429999997,-9.526817242249999,2.31916485185,3.065028,1.331331,-1.620418,0.00013099999999999223,-2.0000000000020002e-05,-1.9999999999985307e-06,0.00019211532080731786,3.1096757067139436e-05,2.7549570582374727e-05
1504198292.12,-1.0,-0.033891782399999994,-0.0588399,0.030214288649999997,0.006541,-0.008643,0.014919,0.17604898079999998,-9.5266505292,2.31998861045,3.065854,1.331259,-1.621331,0.0001280000000000031,-3.0000000000002247e-05,-2.000000000002e-06,0.00020606212524576506,2.1173111646621834e-05,3.609220889178033e-05
1504198292.13,-1.0,-0.0375202429,-0.052749970349999994,0.04347287945,0.005503,-0.0065,0.01278,0.17429359045,-9.52644458955,2.32094966215,3.066638,1.331172,-1.622203,0.00012099999999999611,-1.9999999999992246e-05,-2.999999999999531e-06,0.0002534625641765764,3.869647095688933e-05,9.492430434332455e-05
1504198292.14,-1.0,-0.04630700129999999,-0.0413056098,0.040354364749999996,0.006634,-0.001177,0.008504,0.17259704,-9.52622884325,2.3219793604,3.067396,1.331078,-1.622979,0.00011900000000000799,-3.999999999998449e-05,-7.000000000000062e-06,0.0003662725624784535,2.7671947487650783e-05,0.00013975520682896203
1504198292.15,-1.0,-0.05063173395,-0.005668243699999999,0.03323473685,0.007772,0.006275,0.006359,0.17093971614999998,-9.525944450399999,2.3232542249,3.068148,1.330957,-1.623677,0.00011399999999998911,-5.000000000002225e-05,-1.2999999999999123e-05,0.00042276467238355764,6.815236891943854e-06,0.00017940676530869837
1504198292.16,-1.0,-0.05320107625,0.025526709949999997,0.0335191297,0.003584,0.014837,0.004203,0.1693216189,-9.52571889745,2.32432314975,3.068872,1.330857,-1.624268,0.00010900000000001187,-4.999999999999449e-05,-1.5999999999998654e-05,0.0004772758047879577,-1.088838716545304e-05,0.00021195681640984176
1504198292.17,-1.0,-0.057976914799999994,0.03992287215,0.0166516917,-0.001695,0.019148,-8.3e-05,0.16781139479999999,-9.52560121765,2.3248821288,3.069535,1.330811,-1.624739,0.00010199999999999099,-6.0000000000004494e-05,-1.6000000000002124e-05,0.0005794492964985576,-5.287480606686046e-06,0.00022117702872981315
1504198292.18,-1.0,-0.06971547485,0.0214373369,1.9613299999999997e-05,-0.003789,0.023429,-0.00116,0.1660854244,-9.5256698642,2.3247448357,3.070273,1.330838,-1.625227,9.699999999999986e-05,-4.999999999999449e-05,-1.4000000000000123e-05,0.000550760921918636,-7.868122682719303e-06,0.00025295080822596017
1504198292.19,-1.0,-0.0839841506,-0.0011571847,5.88399e-05,-0.005919,0.024511,-9.6e-05,0.16403583454999998,-9.52581696395,2.3242643098499998,3.071134,1.330903,-1.625831,9.200000000000874e-05,-3.999999999998449e-05,-8.999999999998592e-06,0.0004657468415063537,-5.869482730069819e-06,0.00028886389167193105
1504198292.2,-1.0,-0.08970142755,-0.0129840046,0.0061781894999999995,-0.004889,0.021304,0.002048,0.1618293383,-9.525964063699998,2.32383281725,3.072068,1.330965,-1.626523,8.899999999999186e-05,-4.000000000001225e-05,-4.000000000000531e-06,0.00038774614570358246,3.811266299247329e-05,0.00034114664432916
1504198292.21,-1.0,-0.1041073964,-0.031577413,0.020201699,0.001533,0.024448,0.003123,0.15917173615,-9.5259248371,2.3241760499999997,3.073213,1.330948,-1.62741,8.299999999999974e-05,-1.9999999999992246e-05,-2.999999999999531e-06,0.00027827390165802157,6.591808524913922e-05,0.00035953146988843
1504198292.22,-1.0,-0.10119482134999999,-0.05537815255,0.0364415114,0.003664,0.023366,0.002063,0.15671026700000001,-9.5257679307,2.32499000195,3.074292,1.33088,-1.628247,7.600000000000662e-05,-1.9999999999992246e-05,-5.000000000001531e-06,0.00017950670832989069,8.043219566244986e-05,0.0003591293450904143
1504198292.23,-1.0,-0.089828914,-0.050906320149999996,0.054456327449999994,0.007974,0.026531,-0.001135,0.15462145054999998,-9.525454117899999,2.3264315795,3.075226,1.330744,-1.628906,7.899999999999574e-05,-1.6666666666775853e-06,-9.999999999999593e-06,6.952112774771813e-05,0.00010629494214153823,0.00035350489781371675
1504198292.24,-1.0,-0.07202003759999999,-0.024673531399999997,0.06600856114999999,0.014402,0.029676,-0.001128,0.15281702695,-9.5249049455,2.3287851754999997,3.076064,1.33051,-1.629442,7.500000000000562e-05,-1.6666666666498298e-06,-1.5000000000001124e-05,2.2814374620594435e-06,0.00013708380550192523,0.0003870020745866398
1504198292.25,-1.0,-0.0612915625,0.009561483749999999,0.057202189449999996,0.017667,0.034982,-0.0054,0.15152254915,-9.524267513249999,2.33146239095,3.076695,1.330239,-1.629725,7.199999999998874e-05,-1.6666666666775853e-06,-1.9999999999999185e-05,1.1043067924987326e-05,9.380525274704787e-05,0.0004233770595265529
1504198292.26,-1.0,-0.0607031635,0.02079990465,0.03139108665,0.017685,0.037113,-0.005403,0.15018884475,-9.5236889209,2.3339238601,3.07733,1.329989,-1.629975,7.100000000000162e-05,-1.6666666666775853e-06,-2.5000000000000716e-05,1.1869266780317744e-05,9.736312490082888e-05,0.0004461176164366476
1504198292.27,-1.0,-0.0516810455,0.029155170449999997,0.01862282835,0.014561,0.044602,-0.008623,0.1491003066,-9.523218201699999,2.3359244166999997,3.07785,1.329787,-1.630056,6.799999999999862e-05,-1.6666666666498298e-06,-2.6999999999999247e-05,7.020805229718263e-05,0.00010380941734333682,0.0004583998361100683
1504198292.28,-1.0,-0.04342384619999999,0.0225160684,-0.0095124505,0.00712,0.046797,-0.010773,0.1483157746,-9.5230024554,2.3368266285,3.078207,1.329698,-1.629934,6.80000000000125e-05,-1.6666666666775853e-06,-2.6999999999999247e-05,0.00012707218186025493,6.260420412607104e-05,0.0004569027750369603
1504198292.29,-1.0,-0.0421882083,0.013180137599999999,-0.011130547749999999,0.002839,0.045765,-0.009711,0.1475312426,-9.52295342215,2.33709140805,3.07855,1.329675,-1.629808,6.799999999999862e-05,-1.9999999999992246e-05,-2.2000000000001185e-05,0.00018768973801153166,5.295729950693939e-05,0.0004658181481330681
1504198292.3,-1.0,-0.041325223099999996,-0.0046189321499999995,-0.0027752819499999998,-0.001429,0.045801,-0.009717,0.1466682574,-9.5229632288,2.3371208279999998,3.07892,1.329678,-1.629694,6.899999999999962e-05,-2.0000000000020002e-05,-1.8999999999998185e-05,0.0002753977952407727,4.105676737209407e-05,0.00045697392222321387
1504198292.31,-1.0,-0.016612465099999998,-0.0330876371,0.0176911966,-0.000381,0.044724,-0.007578,0.14605043845,-9.5229240022,2.33730715435,3.079189,1.329663,-1.629503,7.199999999998874e-05,-1.9999999999992246e-05,-1.5000000000001124e-05,0.0003049225350042484,3.2572382239859365e-05,0.0004387137778021355
1504198292.32,-1.0,-0.0051779112,-0.04635603455,0.034303661699999995,0.00065,0.041517,-0.005436,0.14554049265,-9.522825935699998,2.3377484536,3.079418,1.329619,-1.629285,8.100000000001162e-05,-1.9999999999992246e-05,-8.000000000001062e-06,0.00025413987161537754,8.63494350076266e-05,0.00042303773677254686
1504198292.33,-1.0,-0.0034519407999999995,-0.05071018715,0.04449277105,0.001685,0.039374,-0.002228,0.14485402714999998,-9.522649416,2.33848395235,3.079726,1.329547,-1.6292,8.400000000000074e-05,-2.0000000000020002e-05,-7.999999999997592e-06,0.0002765196507383827,5.026303863742143e-05,0.0003976358909781874
1504198292.34,-1.0,-0.0053250109499999995,-0.06332153905,0.0427962206,0.003763,0.032962,-0.001146,0.14404007519999998,-9.52246308965,2.33928809765,3.080096,1.329468,-1.629221,8.799999999999086e-05,-9.999999999982245e-06,-9.000000000002062e-06,0.000224582296749265,8.219190474623161e-05,0.00037903890343027324
1504198292.35,-1.0,0.019466200249999996,-0.05111225979999999,0.03862839435,0.003758,0.032961,-7.9e-05,0.14363800255,-9.52225715,2.3401608895,3.080289,1.329379,-1.629092,9.200000000000874e-05,-1.0000000000010001e-05,-1.0999999999997123e-05,0.0001994844306705268,0.00010343613102925531,0.000365334315594934
1504198292.36,-1.0,0.030116222149999997,-0.0284588983,0.02549729,0.007995,0.029728,0.001001,0.1433143831,-9.52201198375,2.3411709744499998,3.080455,1.329275,-1.628957,9.499999999999786e-05,2.000000000002e-06,-1.6000000000002124e-05,0.00016809866086076042,0.00010415810399755365,0.00031286708175171096
1504198292.37,-1.0,0.025428643449999996,-0.0033244543499999996,0.01899548105,0.011198,0.028638,-0.001127,0.14306921684999999,-9.5217079776,2.3424360322999997,3.080592,1.329144,-1.628813,9.800000000000086e-05,2.000000000002e-06,-1.9999999999999185e-05,0.00013930340927093,0.00010372475482145482,0.00029157937923063315
1504198292.38,-1.0,0.03788308895,0.0020593965,0.00967916355,0.010145,0.029714,-0.002199,0.14317708999999998,-9.521403971449999,2.3436716702,3.080577,1.329014,-1.628513,0.00010099999999998999,2.000000000002e-06,-2.3999999999999716e-05,0.00011026391858770523,0.00010179389095865687,0.00027155248942001275
1504198292.39,-1.0,0.0413448364,0.010551955399999998,0.0008727918499999999,0.004807,0.028693,-0.003274,0.1434516762,-9.5212176451,2.3443973622999996,3.080479,1.328937,-1.628128,0.00010600000000000886,2.000000000002e-06,-2.3000000000002185e-05,0.00014146661371761127,0.00011830551203995121,0.00025372267177048435
1504198292.4,-1.0,0.03792231555,0.00344213415,-0.01018910935,0.003699,0.025502,-6.9e-05,0.1435889693,-9.521148998549998,2.3446915618,3.080428,1.328905,-1.627824,0.00010999999999999899,2.000000000002e-06,-2.0999999999996716e-05,0.00010714897675501156,0.00010090189535660876,0.00021638293098613648
1504198292.41,-1.0,0.030812494299999996,-0.00946341725,-0.011993532949999998,0.003648,0.021236,0.00314,0.14336341635,-9.52110977195,2.3448484682,3.080527,1.32889,-1.627704,0.00011400000000000299,1.9999999999992246e-05,-1.8000000000000654e-05,0.00011043239285712936,0.00010525970971153598,0.00021728718854574502
1504198292.42,-1.0,0.025330576949999996,-0.0230848541,-0.0098262633,0.003598,0.016971,0.006349,0.14286327719999997,-9.5210999653,2.3449269214,3.080743,1.328885,-1.627734,0.0001270000000000021,1.0000000000010001e-05,-1.1000000000000593e-05,0.00015748744297550132,0.000138193138413234,0.00020715420443462307
1504198292.43,-1.0,0.012297539099999998,-0.04680714045,0.0062958693,0.006781,0.014814,0.006358,0.14227487819999998,-9.521021512099999,2.3452603475,3.081002,1.328853,-1.627846,0.00012999999999999123,4.999999999977245e-06,-1.1000000000000593e-05,0.00018173984787184239,0.00011429897087200658,0.00017164325550556025
1504198292.44,-1.0,0.013346850649999999,-0.04694443354999999,0.005678050349999999,0.005678,0.011624,0.008497,0.1412353733,-9.520884219,2.34587816645,3.081461,1.328795,-1.628194,0.0001300000000000051,5.0000000000050004e-06,-1.2999999999999123e-05,0.0001724589608886884,0.00013418515374663542,0.00021072456564075193
1504198292.45,-1.0,0.0096497436,-0.0421293684,0.005687856999999999,0.008842,0.008399,0.010642,0.1401370285,-9.52075673255,2.3464567588,3.081939,1.328741,-1.628597,0.0001260000000000011,1.0000000000010001e-05,-1.8000000000000654e-05,0.00022019754470448127,7.727662226297838e-05,0.00022428405902530368
1504198292.46,-1.0,0.00658026215,-0.0358531124,0.005727083599999999,0.007775,0.008407,0.01064,0.13900926375,-9.520599826149999,2.34717264425,3.082436,1.328673,-1.629025,0.0001229999999999981,1.0000000000010001e-05,-2.2000000000001185e-05,0.00018976373664814083,6.524703029353596e-05,0.0002383380163238913
1504198292.47,-1.0,-0.0024712758,-0.0149845612,0.00640374245,0.00993,0.008394,0.006375,0.13804821204999998,-9.5203742732,2.3481435025999997,3.082871,1.328578,-1.629385,0.00011999999999999511,9.999999999982245e-06,-2.3999999999999716e-05,0.00016427243445904516,8.251401162540084e-05,0.00025367667509768044
1504198292.48,-1.0,-0.0182207557,0.00018632635,0.010728475099999999,0.008953,0.016932,0.002089,0.13702832045,-9.52012910695,2.3492026208,3.083327,1.328473,-1.629699,0.00011600000000000499,2.0000000000020002e-05,-2.1999999999997716e-05,0.00014547826924893315,6.215990204450073e-05,0.0002703347728285621
1504198292.49,-1.0,-0.02005459925,-0.00514849125,0.016279039,0.007939,0.020142,-0.003255,0.13632224164999998,-9.5198839407,2.3502421257,3.083652,1.328368,-1.629822,0.00011500000000000399,1.9999999999992246e-05,-2.1000000000000185e-05,0.00010519051619084507,6.806435012585155e-05,0.00029945018324673
1504198292.5,-1.0,-0.0193583271,-0.01809326925,0.018338435499999996,0.005862,0.026554,-0.004337,0.13577306925,-9.519658387749999,2.35117375745,3.083909,1.328274,-1.629826,0.00011599999999999111,3.0000000000002247e-05,-1.6999999999999654e-05,6.51542112675152e-05,7.549999707312516e-05,0.00032730740317465923
1504198292.51,-1.0,-0.04118793,-0.02025073225,0.0314793465,0.004818,0.028696,-0.005409,0.1348610508,-9.51944264145,2.3521053892,3.084318,1.328182,-1.629939,0.00011900000000000799,3.0000000000002247e-05,-1.6000000000002124e-05,9.911929359751603e-05,8.73456517198612e-05,0.0003379325113465059
1504198292.52,-1.0,-0.03690242395,-0.040491657849999994,0.022574908299999998,0.005922,0.034014,-0.004349,0.13387057915,-9.519256315099998,2.35291934115,3.08476,1.328101,-1.630043,0.0001260000000000011,3.0000000000002247e-05,-5.999999999999062e-06,9.75114534174093e-05,0.0001674666964994742,0.0003736355602932395
1504198292.53,-1.0,-0.0339506223,-0.0303417751,0.0018828768,0.010168,0.033974,-7.1e-05,0.1325662947,-9.5190797954,2.3537038731499997,3.085331,1.328027,-1.630282,0.00013199999999999323,3.0000000000002247e-05,-8.000000000001062e-06,0.0001149388591805689,0.0001786331325479562,0.00036458992600552076
1504198292.54,-1.0,-0.0390696936,-0.013376270599999998,-0.013552790299999999,0.01443,0.033938,0.001005,0.1310952972,-9.51883462915,2.35478260465,3.085976,1.327923,-1.630586,0.00013599999999999723,2.999999999997449e-05,-8.999999999998592e-06,0.00013075223061420616,0.00017813200431104903,0.00039089287062499256
1504198292.55,-1.0,-0.02980240935,0.0005295590999999999,0.00010787314999999999,0.020809,0.031754,0.002088,0.12961449305,-9.51838352325,2.35668509475,3.08665,1.327732,-1.630934,0.00013599999999999723,3.0000000000002247e-05,-9.000000000002062e-06,0.0001481622268033611,0.00013203332490507869,0.0003749038172743413
1504198292.56,-1.0,-0.0328522775,-0.003726527,0.00436395925,0.020821,0.033884,0.003152,0.12786890935,-9.5178637708,2.3588621710499997,3.087438,1.327514,-1.631376,0.0001360000000000111,2.0000000000020002e-05,-8.999999999998592e-06,0.00013108465741140662,0.00012229479000525068,0.00038271085097774105
1504198292.57,-1.0,-0.01670072495,-0.01311149105,-0.013533176999999999,0.018678,0.032836,0.003151,0.12653520494999998,-9.517451891499999,2.3605979481,3.08804,1.327339,-1.63165,0.00013599999999999723,3.0000000000002247e-05,-9.999999999999593e-06,0.0001303957896758856,0.00011769410835982264,0.0003865060181996727
1504198292.58,-1.0,0.010787315,-0.0415998093,0.011640493549999999,0.013378,0.037142,0.003134,0.12552512,-9.517108658749999,2.36205913895,3.088499,1.327191,-1.63175,0.00013900000000000023,1.9999999999992246e-05,-9.999999999999593e-06,0.00010888648630591469,9.295253036101236e-05,0.00038721968062360723
1504198292.59,-1.0,0.0282627653,-0.04074663075,0.0244381718,0.010189,0.037171,0.000993,0.12496614095,-9.51675561935,2.3634811032,3.088766,1.327045,-1.631659,0.00014100000000000223,1.9999999999992246e-05,-1.4000000000000123e-05,9.483242852104112e-05,0.00010037792141814883,0.0004063986344005066
1504198292.6,-1.0,0.02837063845,-0.03347009644999999,0.009963556399999999,0.008083,0.039321,-0.00115,0.1245640683,-9.516549679699999,2.3643342817499997,3.088959,1.326957,-1.631463,0.00014699999999999436,3.0000000000002247e-05,-1.6000000000002124e-05,7.690056771370024e-05,8.717234486699255e-05,0.00039144696105652965
1504198292.61,-1.0,0.03305821715,-0.0137096967,0.0042855060499999995,0.004904,0.04148,-0.002227,0.12435812864999998,-9.516412386599999,2.36492268075,3.089055,1.326897,-1.631159,0.00015099999999999836,3.0000000000002247e-05,-1.7999999999997185e-05,6.770201778061313e-05,8.519237946535974e-05,0.0003703643648526045
1504198292.62,-1.0,0.050278694549999996,0.0053740442,-0.007207887749999999,0.003822,0.038294,-0.004359,0.1246425215,-9.5163339334,2.36519726695,3.088941,1.326867,-1.630658,0.00016700000000000048,4.000000000001225e-05,-1.4000000000000123e-05,6.889462159653803e-06,0.0001578580060801471,0.0003179781387577796
1504198292.63,-1.0,0.056907989949999994,-0.03182257925,0.013327237349999998,0.002711,0.034038,-0.002222,0.12609390569999998,-9.5162554802,2.3654620465,3.088336,1.326831,-1.629719,0.00017200000000000548,3.999999999998449e-05,-1.0000000000003062e-05,4.844320077301845e-06,0.0001164223154317412,0.00029660923059726674
1504198292.64,-1.0,0.057731748549999996,-0.0318519992,0.013180137599999999,0.001602,0.030847,0.000984,0.1252701471,-9.51622606025,2.3656091462499997,3.088686,1.32682,-1.62974,0.0001799999999999996,4.000000000001225e-05,-4.9999999999980616e-06,2.8460532566221275e-06,0.00010898425463068406,0.00022591130481508515
1504198292.65,-1.0,0.05151433245,-0.0520536982,0.03709855695,0.002614,0.026571,0.005262,0.1250544008,-9.5160789605,2.3662269652,3.088791,1.326756,-1.629579,0.00019099999999999673,4.999999999999449e-05,-5.000000000001531e-06,5.585492169291051e-05,0.00011566223350500948,0.0002166618422750899
1504198292.66,-1.0,0.04919015639999999,-0.044002438549999995,0.05686876335,0.006838,0.022272,0.007411,0.1248386545,-9.515745534399999,2.3675606696,3.088913,1.326618,-1.629494,0.00020099999999999285,3.999999999998449e-05,-8.999999999998592e-06,7.723477611332186e-05,0.000127331978631684,0.0002003802690504486
1504198292.67,-1.0,0.037284883299999995,-0.02199631595,0.030076995549999996,0.017493,0.021117,0.008498,0.12418160895,-9.51530423515,2.3693650932,3.089231,1.326432,-1.629613,0.00021300000000000485,6.0000000000004494e-05,-1.5000000000001124e-05,8.329011111629647e-05,0.00016265469264520327,0.00019667664153699693
1504198292.68,-1.0,0.04445354444999999,-0.01448442205,-0.02549729,0.023859,0.014674,0.005317,0.12388740945,-9.5148825492,2.3710714502999997,3.08939,1.326255,-1.629634,0.00022400000000000198,6.0000000000004494e-05,-1.8999999999998185e-05,8.099184421350714e-05,0.00015005192640704657,0.000181518167268635
1504198292.69,-1.0,0.05282842355,0.01779906975,-0.0452478831,0.019534,0.008315,0.006387,0.12389721609999998,-9.5145491231,2.3724149613499996,3.089416,1.326114,-1.629583,0.0002289999999999931,7.00000000000145e-05,-2.2000000000001185e-05,8.225371956149807e-05,0.00015762143222053382,0.0001752368311300767
1504198292.7,-1.0,0.06820525075,0.0265760215,-0.03525490675,0.003474,0.002052,0.007437,0.12437774195,-9.51450008985,2.3726012877,3.089219,1.326092,-1.629373,0.00022900000000000698,7.999999999999674e-05,-2.2999999999998716e-05,3.234643650174007e-05,0.00012712639789858038,0.0001275327815949412
1504198292.71,-1.0,0.0656457151,0.00734518085,-0.052308671099999995,-0.000843,-0.003242,0.008505,0.1248386545,-9.51471583615,2.37168926925,3.089003,1.326184,-1.629202,0.00022600000000000398,8.999999999997899e-05,-2.3000000000002185e-05,2.5356197634440747e-05,8.937107353146345e-05,8.201853634648426e-05
1504198292.72,-1.0,0.0372064301,-0.024408751849999997,-0.0668028998,0.002303,-0.008598,0.010653,0.12470136139999999,-9.51499042235,2.37063015105,3.089037,1.326297,-1.629321,0.00022199999999999998,9.000000000000674e-05,-1.9999999999999185e-05,-4.1238098051232797e-05,9.028065785554595e-05,3.578402441495321e-05
1504198292.73,-1.0,-0.0037363336499999997,-0.06198783465,-0.005246557749999999,0.007679,-0.003314,0.010653,0.12404431585,-9.515117908799999,2.37012020525,3.089305,1.326353,-1.629664,0.0002249999999999891,0.00012000000000000899,-1.1999999999998123e-05,-0.00011413191934184219,9.235809186947108e-05,-9.2259214555801e-06
1504198292.74,-1.0,-0.0030204482,-0.06227222749999999,-0.006433162399999999,0.013038,-0.002289,0.007459,0.12333823705,-9.514833515949999,2.3713068098999996,3.089629,1.326233,-1.630043,0.00023000000000000798,0.00012000000000000899,-5.000000000001531e-06,-0.00021492123281108277,9.66490603779846e-05,-2.6357038880653327e-05
1504198292.75,-1.0,0.00932612415,-0.06671463995,0.01915238745,0.009887,0.002002,0.004243,0.1229557777,-9.51457854305,2.3723561214499997,3.089811,1.326125,-1.63023,0.00024199999999999222,0.00012999999999999123,1.9999999999985307e-06,-0.0002551333051219462,0.00012423268813899213,-9.670077655932197e-05
1504198292.76,-1.0,0.0334602898,-0.0471111466,0.036843584049999996,0.007804,0.006285,0.001029,0.1232107506,-9.514284343549999,2.3735231127999996,3.089727,1.326001,-1.630093,0.0002580000000000082,0.00012999999999999123,6.000000000002531e-06,-0.00026268789503003376,0.00015944949245683127,-0.0001472166592804136
1504198292.77,-1.0,0.058369180799999996,-0.04045243125,0.047934905199999996,0.009908,0.00307,0.002105,0.12388740945,-9.51391169085,2.3749941103,3.089476,1.325843,-1.62981,0.00027599999999999847,0.00014000000000000123,7.999999999997592e-06,-0.0003152759194142707,0.00020143652840021176,-0.00015302842701558905
1504198292.78,-1.0,0.08082640929999999,-0.031724512749999996,0.016455558699999998,0.016262,-0.000184,0.006389,0.12477000795,-9.513509618199999,2.3765533676499997,3.089139,1.325674,-1.629483,0.0002950000000000036,0.00015000000000001124,1.3000000000002593e-05,-0.00034824361722640695,0.00017796275137071937,-0.00018078658976061757
1504198292.79,-1.0,0.09829205295,-0.043561139299999996,-0.01320955755,0.016212,-0.002322,0.012795,0.1254074402,-9.5131958054,2.3777791989,3.088898,1.325542,-1.629296,0.00031599999999999684,0.00014000000000000123,2.1000000000000185e-05,-0.0003767748498040291,0.00019598058135628094,-0.00022211757408285848
1504198292.8,-1.0,0.11523794414999998,-0.05739832244999999,-0.032930730699999994,0.009751,-0.00441,0.021325,0.12568202639999998,-9.5131173522,2.3780537850999997,3.088793,1.325511,-1.629261,0.0003419999999999951,0.00012999999999999123,3.199999999999731e-05,-0.0003604560058336759,0.00020462114190578085,-0.00028041961826685835
1504198292.81,-1.0,0.13170330949999998,-0.0722750105,-0.027321326899999998,0.002216,-0.008617,0.027721,0.12567221974999998,-9.5132154187,2.3776811324,3.088786,1.325551,-1.629389,0.00037299999999999833,0.00014000000000000123,4.300000000000137e-05,-0.0003124220196244476,0.0002433404867621114,-0.00029562155581819294
1504198292.82,-1.0,0.16104480629999998,-0.07582501779999999,-0.00756092715,-0.004193,-0.016041,0.036272,0.1255055067,-9.513401745049999,2.3769162137,3.088839,1.325632,-1.629662,0.0004050000000000026,0.00012999999999999123,5.300000000000096e-05,-0.00026185289874236517,0.0002819687060497955,-0.00030603368332560166
1504198292.83,-1.0,0.1835412614,-0.12061198834999999,-0.03935408645,-0.005359,-0.0235,0.043748,0.12800620245,-9.51395091745,2.3746018443,3.08774,1.325861,-1.628904,0.00043900000000000883,0.000130000000000019,4.599999999999743e-05,-0.0001912401122206031,0.00036270990638187506,-0.00033020413136342075
1504198292.84,-1.0,0.18714030194999998,-0.12031778885,-0.0383440015,-0.011834,-0.031972,0.044819,0.12440716189999998,-9.5142549236,2.37359175935,3.089228,1.325987,-1.630751,0.0004639999999999922,0.00014000000000000123,4.400000000000237e-05,-0.00015153557560720898,0.00035607808374904515,-0.00038455236493373235
1504198292.85,-1.0,0.1886407194,-0.1179151596,-0.062115321099999996,-0.025747,-0.037186,0.044801,0.12410315574999999,-9.515157135399999,2.3699731054999997,3.089277,1.326369,-1.631257,0.0004829999999999973,0.00014000000000000123,3.699999999999884e-05,-7.749157423586617e-05,0.0002927961763532494,-0.00044675119288151155
1504198292.86,-1.0,0.20163453064999998,-0.08058124305,-0.06938204875,-0.041782,-0.043444,0.04051,0.12457387495,-9.5164319999,2.36482461425,3.088963,1.326906,-1.631448,0.0004970000000000113,0.00015999999999999348,2.5000000000000716e-05,-9.988817399131378e-05,0.00022647953868704107,-0.0005993548332160481
1504198292.87,-1.0,0.21124504765,-0.0435219127,-0.08193456075,-0.053532,-0.047607,0.036223,0.12573105965,-9.5180206772,2.35837183855,3.088329,1.327577,-1.631373,0.0005109999999999976,0.00017000000000000348,8.999999999998592e-06,-0.000146640971498746,0.00014551594659484302,-0.0007379555833042506
1504198292.88,-1.0,0.23463390789999997,-0.026732927899999998,-0.10869690859999999,-0.047211,-0.059378,0.033048,0.1279375559,-9.51969761435,2.3514679569499997,3.08724,1.328289,-1.630934,0.0005300000000000027,0.00020999999999998797,-1.9999999999985307e-06,-0.00032374686099045924,0.00010062936964128077,-0.0008887432956428132
1504198292.89,-1.0,0.24724525979999998,-0.025310963649999997,-0.11056997874999999,-0.02816,-0.077653,0.034176,0.13074225779999998,-9.52097247885,2.34615275265,3.085925,1.32883,-1.63044,0.0005559999999999871,0.00023999999999999022,-9.999999999999593e-06,-0.0004368798824376796,0.00012740992401139017,-0.0009513212364326007
1504198292.9,-1.0,0.24435229805,0.0078845466,-0.0946145592,-0.002718,-0.095982,0.03745,0.1336254129,-9.521541264549999,2.3436716702,3.084637,1.329073,-1.630161,0.0005890000000000062,0.00029000000000001247,-1.4000000000000123e-05,-0.000488030007399054,0.00016520349537318957,-0.0009752409059042844
1504198292.91,-1.0,0.2360068389,0.04390437205,-0.07904159899999999,0.008923,-0.105673,0.040684,0.1362928217,-9.521649137699999,2.3430538512499997,3.083489,1.329121,-1.630139,0.0006250000000000006,0.0003100000000000047,-1.5000000000001124e-05,-0.0004981926087666011,0.00027195343985608744,-0.000932342686746912
1504198292.92,-1.0,0.21542268055,0.0630763728,-0.1193665438,0.009862,-0.122729,0.038577,0.13906810365,-9.52181585075,2.34223009265,3.082287,1.329191,-1.63023,0.0006540000000000018,0.00034000000000000696,-1.8000000000000654e-05,-0.0004380403460413351,0.0003629461256333677,-0.0008582504552182568
1504198292.93,-1.0,0.1427063708,0.044963490249999995,-0.18883685239999998,0.011927,-0.130207,0.039658,0.14085291395,-9.52225715,2.34032760255,3.081479,1.329379,-1.630795,0.000676999999999997,0.00032999999999999696,-2.2999999999998716e-05,-0.0004888524488728674,0.0004767938132816951,-0.000813073805636555
1504198292.94,-1.0,0.0344409548,0.016553625199999998,-0.23164287965,0.023655,-0.131369,0.038612,0.14093136715,-9.52273767585,2.3383858858499997,3.081397,1.329582,-1.632097,0.000686000000000006,0.0003599999999999992,-2.9999999999998778e-05,-0.0004710566292058793,0.00041214503257291923,-0.000789307696083319
1504198292.95,-1.0,-0.047179793149999996,0.0073157609,-0.20986230999999997,0.048253,-0.126239,0.034377,0.13980360239999998,-9.52261999605,2.3389056383,3.081889,1.329535,-1.633915,0.0006919999999999982,0.0003999999999999837,-4.000000000000184e-05,-0.0006063588587288393,0.00037920533663160505,-0.0007727208036061306
1504198292.96,-1.0,-0.10670615865,0.028870777599999998,-0.1634768555,0.08035,-0.117973,0.029083,0.13797956549999998,-9.521580491149999,2.34324998425,3.082778,1.329091,-1.636031,0.0006940000000000002,0.0004300000000000137,-4.999999999999796e-05,-0.0008615318216054213,0.00038777709161608165,-0.0007196851774042834
1504198292.97,-1.0,-0.10254813904999999,0.056496110649999993,-0.12945758664999998,0.104019,-0.101104,0.016287,0.1368223808,-9.519727034299999,2.3508305246999996,3.083458,1.328303,-1.637765,0.0007019999999999943,0.00047999999999998044,-6.200000000000302e-05,-0.0011010204324000128,0.0004135068271109432,-0.0006856095377819615
1504198292.98,-1.0,-0.05577041855,0.0701763874,-0.1225635117,0.110591,-0.086229,0.0056,0.1371754202,-9.51754015135,2.3596467030499997,3.083523,1.327377,-1.638739,0.0007169999999999954,0.0005000000000000004,-7.499999999999868e-05,-0.0013124832896576066,0.0004359309587265159,-0.0006529904394476649
1504198292.99,-1.0,-0.02301620755,0.08443525649999999,-0.1432751565,0.104332,-0.075509,-0.006171,0.13898965045,-9.5154905615,2.36778622255,3.082961,1.326511,-1.638966,0.0007380000000000025,0.0005100000000000104,-8.599999999999927e-05,-0.001365602743650829,0.00045514311649164085,-0.0005853890721279065
1504198293.0,-1.0,0.006246836049999999,0.08111080215,-0.15043401099999998,0.094802,-0.070096,-0.012602,0.14189241884999998,-9.5136665246,2.37494507705,3.081918,1.325742,-1.638627,0.0007650000000000018,0.0005199999999999927,-8.99999999999998e-05,-0.0013206080190375502,0.0004577024050205214,-0.0005407443251300714
1504198293.01,-1.0,0.052730357049999996,0.0516418189,-0.16770352165,0.093717,-0.067963,-0.006204,0.14524629314999998,-9.51202881405,2.3812899796,3.080675,1.325055,-1.638059,0.000799000000000008,0.0005100000000000104,-8.900000000000227e-05,-0.0011351727817998647,0.00044882017337943836,-0.0005313548548839808
1504198293.02,-1.0,0.05823188769999999,0.01517088755,-0.19073934249999996,0.096802,-0.073331,0.007685,0.1476685357,-9.51042052345,2.3875662356,3.079821,1.324381,-1.637949,0.0008349999999999885,0.0004899999999999904,-7.899999999999921e-05,-0.0008749446390303728,0.00043683647137671144,-0.0004958993409693857
1504198293.03,-1.0,0.01626923235,-0.03148915315,-0.19952610089999998,0.103066,-0.07873,0.025851,0.14788428199999998,-9.50881223285,2.3939601714,3.079897,1.323708,-1.638853,0.0008870000000000128,0.0004900000000000182,-6.600000000000009e-05,-0.0006665973175237205,0.0004094816723916317,-0.0005045915476683538
1504198293.04,-1.0,-0.00846313895,-0.08586702739999999,-0.18084443264999997,0.108315,-0.077727,0.044004,0.14582488549999997,-9.5070960691,2.400864053,3.080927,1.322997,-1.640717,0.0009199999999999903,0.0004699999999999982,-4.799999999999943e-05,-0.0004112562928559882,0.0003836451764480664,-0.0004872211804896054
1504198293.05,-1.0,-0.015759286549999998,-0.1491003066,-0.15860295045,0.106168,-0.070264,0.057864,0.14204932525,-9.505370098699998,2.40795426095,3.082667,1.322276,-1.643272,0.0009500000000000064,0.00045000000000000595,-3.399999999999931e-05,-0.00016735461911365768,0.00036311898294427714,-0.0004181442490599485
1504198293.06,-1.0,-0.0004707192,-0.19233782644999997,-0.14736452954999998,0.109359,-0.064973,0.067467,0.13724406675,-9.50357548175,2.41527002185,3.08483,1.321537,-1.646203,0.0009749999999999898,0.00043999999999998207,-2.5000000000000716e-05,7.293074790082343e-06,0.0003166013789135391,-0.00041065650219151983
1504198293.07,-1.0,0.01917200075,-0.20694973495,-0.1196215167,0.107259,-0.056437,0.073852,0.13196808905,-9.50169260495,2.42299766205,3.087183,1.320756,-1.649239,0.0009960000000000108,0.0004200000000000037,-2.2999999999998716e-05,0.00011131046797818733,0.0002902681691643316,-0.00038547921766807214
1504198293.08,-1.0,0.0521909913,-0.16777216820000002,-0.07914947215,0.101935,-0.052136,0.078104,0.1266234648,-9.49971166165,2.4309998884499997,3.089552,1.319945,-1.652256,0.0010169999999999901,0.0004200000000000037,-2.9000000000001247e-05,0.000260506777064462,0.0002509468206413068,-0.0004011777427960217
1504198293.09,-1.0,0.0893974214,-0.09477146560000001,-0.054309227700000004,0.100849,-0.051067,0.083436,0.12143574694999999,-9.49759342525,2.43953167395,3.091853,1.319076,-1.655203,0.0010380000000000111,0.0004200000000000037,-3.600000000000131e-05,0.0003545124975778968,0.0002238533655432029,-0.00041951631187053806
1504198293.1,-1.0,0.10876555515,-0.04043281795,-0.0763741902,0.1009,-0.045738,0.08129,0.11659126185,-9.495524222099998,2.4478280998499997,3.094,1.318228,-1.657945,0.0010589999999999905,0.0004299999999999998,-3.999999999999837e-05,0.00037716219250727434,0.00019101046010772116,-0.00044704174745380243
1504198293.11,-1.0,0.10280311194999998,-0.00187307015,-0.08593567395,0.105237,-0.038312,0.079147,0.1116192903,-9.49337656575,2.4563500786999994,3.096181,1.317356,-1.660666,0.0010799999999999976,0.0004499999999999921,-4.000000000000184e-05,0.00035081526470426283,0.00020630258767528886,-0.00045595067214632135
1504198293.12,-1.0,0.08452351635,0.00665871535,-0.12371088974999998,0.116035,-0.024545,0.07487,0.10641195914999999,-9.491130842899999,2.46524471025,3.098454,1.316444,-1.66335,0.0011099999999999999,0.0004600000000000021,-3.799999999999984e-05,0.00035847594330573607,0.00025302224502499193,-0.0004434372475337067
1504198293.13,-1.0,0.0697645081,-0.028135278849999997,-0.15154216245,0.131047,-0.016142,0.072745,0.10097907505,-9.4886595671,2.47497290705,3.100817,1.315444,-1.666006,0.0011400000000000021,0.0005099999999999966,-4.699999999999843e-05,0.00033835468849163775,0.00023724584382356362,-0.0005593940477779391
1504198293.14,-1.0,0.07489338605,-0.09195695705,-0.1881111603,0.144899,-0.017323,0.073837,0.09554619095,-9.48604119155,2.48519143635,3.103165,1.314389,-1.668646,0.0011600000000000082,0.0005300000000000027,-3.999999999999837e-05,0.0003068149376994622,0.00024308095634517635,-0.0006423500665834192
1504198293.15,-1.0,0.05231847775,-0.11621860915,-0.148472681,0.152307,-0.023779,0.074928,0.08968181424999999,-9.483030549999999,2.4968809631499997,3.10569,1.313181,-1.671503,0.0011699999999999905,0.0005399999999999988,-3.700000000000231e-05,0.0002865056225753726,0.0002234280915285325,-0.0007292305264188226
1504198293.16,-1.0,0.057427742399999995,-0.10809870294999999,-0.042099948449999994,0.154282,-0.040849,0.07923,0.0839841506,-9.4794805427,2.5105220133,3.108154,1.311765,-1.674455,0.0011900000000000105,0.0005600000000000049,-3.799999999999984e-05,0.0002348776582252743,0.00019683156107919153,-0.0009097742672482534
1504198293.17,-1.0,0.09081938565,-0.07143163859999999,0.03649054465,0.147704,-0.058917,0.085653,0.0788650793,-9.4755971093,2.5253104415,3.110372,1.310222,-1.677359,0.0011999999999999927,0.0005599999999999911,-4.29999999999979e-05,0.00017927011652485447,0.00015954520974159614,-0.0010859711212347634
1504198293.18,-1.0,0.11196252305,-0.0283019919,0.0675678185,0.13901,-0.076965,0.08887,0.07418730724999999,-9.471743095849998,2.5398635101,3.112391,1.308701,-1.680256,0.0012199999999999989,0.0005800000000000111,-4.900000000000043e-05,0.00017353826956845175,0.00013073054568124576,-0.00113897610449043
1504198293.19,-1.0,0.173381572,-0.001569064,0.07232404375,0.127203,-0.085394,0.089929,0.07067652655,-9.4681048287,2.5535143669,3.113923,1.307271,-1.682777,0.0012500000000000011,0.0005700000000000011,-5.400000000000196e-05,0.00019521635562336215,0.00011735681765001615,-0.0012647415846678278
1504198293.2,-1.0,0.26559350195,-0.0014906108,0.0499354618,0.120738,-0.092802,0.090993,0.06885248965,-9.4647313411,2.5660276523,3.114768,1.305955,-1.684714,0.0012700000000000072,0.0005799999999999972,-5.2999999999997494e-05,0.00021602649745733338,0.0001043951284158684,-0.0014423620824823846
1504198293.21,-1.0,0.3141658394,-0.0130624578,0.007688413599999999,0.108801,-0.114023,0.097408,0.067862018,-9.461838379349999,2.5766972874999996,3.115264,1.30483,-1.686495,0.0013099999999999917,0.0005899999999999933,-4.80000000000029e-05,0.00025027425549573046,0.00015604837316174347,-0.0015664090799084596
1504198293.22,-1.0,0.3048495219,-0.03205793885,-0.00761976705,0.097837,-0.139527,0.115574,0.06594972125,-9.45930826365,2.58602341165,3.116095,1.30385,-1.68889,0.0013400000000000079,0.0005900000000000072,-3.899999999999737e-05,0.0002782537075347591,0.0002607460080605861,-0.0016321309480047397
1504198293.23,-1.0,0.2162366325,-0.0235947999,-0.00534462425,0.099661,-0.168331,0.131634,0.0616446019,-9.456846794499999,2.5951239828499997,3.117844,1.3029,-1.692483,0.0013799999999999923,0.0006199999999999956,-1.1000000000000593e-05,0.0002283967336211834,0.00034869437113704826,-0.0018318480664613057
1504198293.24,-1.0,0.11333545404999999,0.00130428445,0.040354364749999996,0.103753,-0.184359,0.141274,0.054858400099999996,-9.4540617059,2.6053915454000003,3.120539,1.30183,-1.697202,0.0014100000000000085,0.0006199999999999956,-2.000000000002e-06,0.00018731736771138152,0.0004540139544422228,-0.0018095380244049775
1504198293.25,-1.0,0.09205502354999999,0.018005009399999997,0.08863250269999999,0.109041,-0.186541,0.14769,0.04725824635,-9.450864738,2.6171202987999997,3.123538,1.300606,-1.702278,0.0014199999999999907,0.0006300000000000056,-5.000000000005e-07,0.00016769517871662032,0.0005173888788212455,-0.0018072485932171256
1504198293.26,-1.0,0.0536031489,0.016553625199999998,0.05202427824999999,0.108046,-0.179071,0.14554,0.039030467,-9.4477658366,2.62842736625,3.126746,1.299423,-1.707516,0.0014300000000000007,0.0006300000000000056,-4.999999999970306e-07,0.00020181961383403113,0.000519627094124564,-0.0016014096141555578
1504198293.27,-1.0,-0.0016867438,0.0015298374,0.02688002765,0.110337,-0.164164,0.138046,0.030116222149999997,-9.4447061618,2.63950888075,3.130184,1.298262,-1.712841,0.0014300000000000007,0.0006299999999999917,-7.000000000000062e-06,0.0001821084271773632,0.00047669150418117034,-0.001561158464654211
1504198293.28,-1.0,-0.005315204299999999,0.0210254576,0.0494843559,0.114797,-0.148203,0.125217,0.021770763000000002,-9.44146016065,2.6511689875999997,3.13338,1.297036,-1.717732,0.0014200000000000046,0.0006199999999999956,-1.8000000000000654e-05,0.0001351922579022613,0.0004345437194051005,-0.0014666403363648994
1504198293.29,-1.0,0.011915079749999998,0.030096608849999998,0.07538371854999999,0.123472,-0.139735,0.111341,0.014719781649999998,-9.43781208685,2.6641824121499997,3.136069,1.295663,-1.721986,0.0014099999999999946,0.0006099999999999994,-3.099999999999978e-05,0.00015749405308973508,0.0003861468982193639,-0.0013776608344336916
1504198293.3,-1.0,-0.01485707475,0.007502087249999999,0.0565451439,0.137419,-0.135578,0.102819,0.008119906199999999,-9.43392865345,2.67793133545,3.13856,1.294209,-1.725974,0.0014000000000000123,0.0006000000000000033,-4.49999999999999e-05,9.296626617816273e-05,0.0003146013084076582,-0.0013064178253291425
1504198293.31,-1.0,-0.07032348715,-0.0021182363999999996,0.0341663686,0.153466,-0.133573,0.097508,0.0010395049,-9.42969218065,2.6928374434499998,3.141207,1.29263,-1.730089,0.00136,0.0006200000000000094,-5.8000000000002494e-05,-0.00010036316548212021,0.00026307889360044356,-0.0012436579850799712
1504198293.32,-1.0,-0.1419022255,0.0300279623,0.0761192173,0.169517,-0.132631,0.090065,-0.0065312289,-9.424730015749999,2.71013637405,-3.139181,1.290794,-1.734324,0.00134999999999999,0.0006399999999999878,-7.399999999999768e-05,-0.00029917327225903456,0.00027802598438975146,-0.0011858244829744402
1504198293.33,-1.0,-0.1432947698,0.08097350905,0.1377834325,0.175981,-0.130543,0.081537,-0.013376270599999998,-9.419110805299999,2.7295731543499997,-3.136692,1.288729,-1.738206,0.00136,0.0006600000000000078,-7.599999999999968e-05,-0.0006068591673495938,0.0003229537240287961,-0.0012134073156795377
1504198293.34,-1.0,-0.15950516225,0.0957913572,0.12447580844999999,0.17067,-0.13475,0.070865,-0.0194563936,-9.4135798547,2.74855882875,-3.134513,1.286708,-1.741793,0.0013299999999999979,0.0006899999999999962,-8.99999999999998e-05,-0.0009042872975526528,0.0003271307608438967,-0.0010821238214163698
1504198293.35,-1.0,-0.20537086429999998,0.11074649844999998,0.13608688205,0.153644,-0.138855,0.055903,-0.024771597899999998,-9.408323490299999,2.76642654505,-3.13264,1.284805,-1.745076,0.0013100000000000056,0.0007000000000000062,-0.0001020000000000014,-0.0011856673283467956,0.0003272041365320888,-0.0008955509031308706
1504198293.36,-1.0,-0.20939159079999997,0.13008521225,0.16461442689999997,0.129172,-0.137576,0.045189,-0.028988457399999997,-9.4035770717,2.7824996443999996,-3.131177,1.283092,-1.747936,0.0012800000000000034,0.0007100000000000023,-0.00011399999999999952,-0.001367708313184668,0.0003159059652761975,-0.0007088134713711947
1504198293.37,-1.0,-0.2008990319,0.13644972809999997,0.13426284515,0.11961,-0.138552,0.035568,-0.02864522465,-9.40021339075,2.79384593845,-3.13134,1.281886,-1.749201,0.0012599999999999834,0.0007099999999999884,-0.0001260000000000011,-0.0014261207328405412,0.0002738514861038155,-0.000586168153865696
1504198293.38,-1.0,-0.23518308029999999,0.1179739995,0.15583747515,0.129286,-0.133297,0.029171,-0.02788030595,-9.39670261005,2.80563353175,-3.131656,1.280632,-1.750291,0.0012199999999999989,0.00068,-0.0001339999999999987,-0.0014456401857136925,0.00023390772585729636,-0.0005023040940367318
1504198293.39,-1.0,-0.27020262745,0.11891543789999999,0.20983289004999997,0.145372,-0.12703,0.022783,-0.026526988249999998,-9.3927113035,2.81899018905,-3.132184,1.279213,-1.751094,0.0011900000000000244,0.0006700000000000039,-0.00013900000000000023,-0.0013851809162295226,0.000119615305768761,-0.00038235837624345237
1504198293.4,-1.0,-0.2721541508,0.1265646249,0.22814190559999997,0.149757,-0.116402,0.017441,-0.029812216,-9.38703325315,2.83777973045,-3.131086,1.277207,-1.753332,0.0011799999999999866,0.0006400000000000017,-0.0001370000000000017,-0.0013652673221962175,6.99220089368513e-05,-0.0004478895300947805
1504198293.41,-1.0,-0.2771751556,0.1094618273,0.26317125939999997,0.130648,-0.107715,0.012056,-0.02793914585,-9.3831007865,2.85078334835,-3.131793,1.275824,-1.753737,0.0011500000000000121,0.0006300000000000056,-0.00012999999999999817,-0.0013317769500607035,4.185019031122117e-05,-0.0005398256886456343
1504198293.42,-1.0,-0.23944897304999999,0.049817782,0.25023628805,0.091231,-0.100995,0.010908,-0.02601704245,-9.38016859815,2.86043309195,-3.132499,1.274798,-1.754079,0.0011400000000000021,0.0006299999999999917,-0.00011800000000000005,-0.0013512211789370454,1.2525316054112778e-05,-0.0006416629270304952
1504198293.43,-1.0,-0.17803973074999999,-0.0487978904,0.21624643915,0.052815,-0.099616,0.015113,-0.027713592899999997,-9.37732466965,2.8697297961499997,-3.131937,1.273805,-1.755617,0.0011499999999999844,0.00068,-9.99999999999994e-05,-0.0014426304497130449,3.784603401135733e-05,-0.0008967548953953131
1504198293.44,-1.0,-0.1200137827,-0.1522580479,0.18817980685,0.036742,-0.10269,0.0247,-0.029017877349999995,-9.375461406149999,2.8758001125,-3.131502,1.273156,-1.757076,0.0011400000000000021,0.00068,-7.700000000000068e-05,-0.0014329159858250673,3.5871542219068075e-05,-0.001055973505168284
1504198293.45,-1.0,-0.1264273318,-0.2059984899,0.17512715569999998,0.045191,-0.103841,0.04073,-0.031744126049999995,-9.373647175899999,2.88167429585,-3.130577,1.272527,-1.759043,0.0011400000000000021,0.00068,-4.799999999999943e-05,-0.0012999677577623103,7.876218825186854e-05,-0.0011840997136914888
1504198293.46,-1.0,-0.16758584185,-0.18689513569999996,0.2244938318,0.071739,-0.107276,0.061067,-0.03682397075,-9.37091112055,2.8905100875,-3.128855,1.271577,-1.761858,0.0011400000000000021,0.00068,-1.9000000000001654e-05,-0.0010831137189266649,0.00014668309218945907,-0.0013517140965964014
1504198293.47,-1.0,-0.22444479855,-0.14308883014999998,0.2213753171,0.096118,-0.113892,0.083542,-0.04490465034999999,-9.3672728534,2.9021603876999995,-3.126122,1.270322,-1.765768,0.0011599999999999944,0.0006899999999999962,1.1000000000000593e-05,-0.000803937298331947,0.00030833589998202626,-0.0014630852350968615
1504198293.48,-1.0,-0.30603612654999995,-0.0954187045,0.2129808247,0.111958,-0.121502,0.104938,-0.056388237499999994,-9.36302657395,2.91564453145,-3.122257,1.268861,-1.770903,0.0011700000000000044,0.000693000000000013,3.699999999999884e-05,-0.0006187781660791369,0.0005138040974963509,-0.001524656167487648
1504198293.49,-1.0,-0.35920778285,-0.0479545185,0.1967802389,0.108622,-0.128948,0.120964,-0.0702548406,-9.358711647949999,2.9291482885,-3.117612,1.267387,-1.776909,0.0011799999999999866,0.0007149999999999934,5.400000000000196e-05,-0.0005068780342232238,0.0007054284095189267,-0.0015164361386487135
1504198293.5,-1.0,-0.35350031255000003,-0.0039030467,0.17860851644999998,0.099004,-0.129935,0.123092,-0.08433718999999999,-9.3545830483,2.9419361600999996,-3.112933,1.26598,-1.782972,0.0011900000000000244,0.0007380000000000025,6.199999999999956e-05,-0.0005143552304796017,0.0008632583215872902,-0.0015190479183354588
1504198293.51,-1.0,-0.29429756649999994,0.022947561,0.12426986879999999,0.086182,-0.13196,0.124148,-0.0975957808,-9.3510526543,2.9527234750999996,-3.108551,1.264784,-1.788746,0.0011799999999999866,0.0007629999999999998,5.7999999999999025e-05,-0.000587190176054353,0.0009677258446900705,-0.0015483620888908645
1504198293.52,-1.0,-0.24115533014999996,0.039089306899999995,0.06518480255,0.080814,-0.138304,0.120953,-0.109442214,-9.34804201275,2.96183385295,-3.104658,1.263766,-1.794127,0.0011599999999999944,0.000789999999999999,4.300000000000137e-05,-0.0007104333052401213,0.000979005357837126,-0.0013873299135696016
1504198293.53,-1.0,-0.22603347585,0.0850040422,0.09974343714999999,0.083014,-0.135116,0.113485,-0.12037662874999999,-9.34472736505,2.9718660558999996,-3.101108,1.262648,-1.799147,0.0011299999999999921,0.0008770000000000028,-1.6000000000002124e-05,-0.0010389633686169741,0.0008282329158706414,-0.0015742746999467538
1504198293.54,-1.0,-0.17254800674999998,0.13367444615,0.1468643904,0.089475,-0.134093,0.103892,-0.12941836005,-9.34088315825,2.9835555826999998,-3.098242,1.261357,-1.80347,0.0010800000000000254,0.0009069999999999911,-4.999999999999796e-05,-0.0013840850993163123,0.0008096070361331975,-0.001477379085244479
1504198293.55,-1.0,-0.15547462909999998,0.1422160383,0.12282829124999999,0.094757,-0.145849,0.096454,-0.1373715532,-9.33699972485,2.99531375605,-3.095763,1.260061,-1.807469,0.0010499999999999954,0.0009320000000000023,-8.99999999999998e-05,-0.0018008373722153692,0.000826319158205413,-0.0011854373825648246
1504198293.56,-1.0,-0.21099988139999998,0.14130401985,0.06555745525,0.092515,-0.165001,0.087949,-0.14483441384999998,-9.333390877649999,3.00619913755,-3.09345,1.258859,-1.811436,0.0009799999999999809,0.0009500000000000064,-0.00013400000000000217,-0.0021644195401131494,0.0008727671182127139,-0.0006863343920053833
1504198293.57,-1.0,-0.25264872395,0.1269372776,0.07199061765,0.078467,-0.191517,0.081573,-0.1516696489,-9.33009584325,3.0160744340999996,-3.091348,1.257766,-1.815433,0.0009000000000000119,0.0009549999999999975,-0.00018499999999999767,-0.0023538344384232968,0.0008314173699284222,-0.00020614216489711623
1504198293.58,-1.0,-0.35500073,0.08753415789999999,0.0733145154,0.072862,-0.225568,0.081631,-0.15900502309999998,-9.32705578175,3.0250769388,-3.089079,1.256762,-1.819915,0.0007900000000000129,0.0009460000000000024,-0.00023500000000000257,-0.002375506709083819,0.0006064447368154813,6.908846228859122e-05
1504198293.59,-1.0,-0.5053170612,0.15005155165,0.07020580735,0.067479,-0.235105,0.076313,-0.16835076055,-9.32403533355,3.0338735038499998,-3.086158,1.255767,-1.825158,0.0006599999999999939,0.0009279999999999983,-0.00027299999999999894,-0.002071033422222923,0.00018649325688113727,0.00016627026270243928
1504198293.6,-1.0,-0.6489648704,0.1536309789,0.09103513194999999,0.075159,-0.220227,0.058169,-0.17898116914999998,-9.320720685849999,3.0434251809499995,-3.082852,1.254678,-1.83063,0.0005099999999999827,0.0009069999999999911,-0.00028599999999999806,-0.00155635315337177,-0.00032537110036967576,0.00013371289905950157
1504198293.61,-1.0,-0.7915535613999999,0.10668654535,0.09956691745,0.088421,-0.180879,0.029303,-0.17660795985,-9.318082697,3.0516529602999998,-3.083786,1.253812,-1.831669,0.0003700000000000092,0.000905000000000003,-0.00026600000000000235,-0.0010827386843486053,-0.0007975609621377888,-9.15656807287668e-06
1504198293.62,-1.0,-0.9161274363499999,0.06481214985,0.18112882549999998,0.106248,-0.109591,-0.008151,-0.17278336635,-9.314964182299999,3.0613713504499995,-3.085211,1.252794,-1.831531,0.00029000000000001247,0.0009330000000000033,-0.00021599999999999744,-0.0009125760651207404,-0.001004684816885204,-5.86420880471783e-05
1504198293.63,-1.0,-0.96541565925,0.0180246227,0.26494626304999996,0.113351,-0.042483,-0.041347,-0.1677917815,-9.31156127475,3.0719723391,-3.087028,1.251687,-1.830235,0.00021999999999999797,0.0009740000000000026,-0.00017800000000000107,-0.001062303928274666,-0.0008573401300331351,-1.0833222553907618e-05
1504198293.64,-1.0,-0.9929331191499999,-0.02752726655,0.32298201774999996,0.097809,0.004555,-0.057445,-0.1803835201,-9.30642259015,3.08680980055,-3.083223,1.25002,-1.833712,0.00022999999999998022,0.0010379999999999973,-0.00011699999999999905,-0.001323492626862155,-0.0004418949411768569,0.0002991130111347218
1504198293.65,-1.0,-1.0765250037499998,-0.0996747906,0.36542519895,0.063899,0.033605,-0.057555,-0.1757940079,-9.30430435375,3.0934489026,-3.084825,1.249336,-1.831726,0.0002700000000000202,0.0010959999999999998,-7.700000000000068e-05,-0.001585736414324801,8.074874435837209e-05,0.0005936960693450066
1504198293.66,-1.0,-0.9345149051,-0.19601532019999998,0.22417021235,0.049054,0.044385,-0.058667,-0.17175366809999998,-9.30283335625,3.09808744805,-3.086209,1.248862,-1.829816,0.00030999999999997696,0.0011329999999999951,-6.300000000000056e-05,-0.0016572904953291445,0.0005504905818720651,0.0008081078842564482
1504198293.67,-1.0,-0.65238739125,-0.10135172775,0.14669767735,0.055385,0.036871,-0.056508,-0.16762506845,-9.30128390555,3.1029809663999997,-3.087625,1.248361,-1.827907,0.00034000000000000696,0.0011490000000000111,-6.700000000000109e-05,-0.0014342227671999552,0.0008702121229020587,0.000993369804296984
1504198293.68,-1.0,-0.37634980705,0.07677626284999998,0.1511008632,0.072338,0.025007,-0.051111,-0.17087106959999998,-9.2980379044,3.1124934169,-3.086749,1.24732,-1.828296,0.00034000000000000696,0.0011579999999999924,-8.599999999999927e-05,-0.0011895591459463173,0.0010021999494185252,0.0009066660562190298
1504198293.69,-1.0,-0.2090973913,0.19035688315,0.0815128748,0.087181,0.015291,-0.047866,-0.1669484096,-9.29549798205,3.120279897,-3.088141,1.246507,-1.82665,0.00031999999999998696,0.0011740000000000084,-0.00010699999999999946,-0.0009790379895993073,0.00100343261111413,0.0007755421545434515
1504198293.7,-1.0,-0.13165427624999998,0.2014678176,0.00024516625,0.092304,-0.009263,-0.044612,-0.16268251685,-9.2927030868,3.1288214891499995,-3.089643,1.245613,-1.825084,0.00030000000000002247,0.0012089999999999879,-0.00012699999999999864,-0.000913480217918039,0.0008745210638390066,0.0006686123331672844
1504198293.71,-1.0,-0.1286044081,0.14020567505,-0.06773453154999999,0.068531,-0.042109,-0.037123,-0.1579459049,-9.29039852405,3.1359018904499996,-3.091267,1.244878,-1.823719,0.0002500000000000002,0.0012690000000000062,-0.00013900000000000023,-0.0009624829753922537,0.0007498500563367649,0.000591875313668333
1504198293.72,-1.0,-0.24366583255,0.0616053753,-0.10278349865,0.038419,-0.068506,-0.031792,-0.15287586685,-9.28900597975,3.1402756563499996,-3.092949,1.244436,-1.822606,0.00020999999999998797,0.001348000000000002,-0.00014300000000000423,-0.0011422942484704546,0.0006918985289712243,0.0005547495217851361
1504198293.73,-1.0,-0.30577134699999997,-0.0012160246,-0.11759154014999999,0.02771,-0.074809,-0.033934,-0.14748220935,-9.2881331879,3.1431097782,-3.094704,1.244158,-1.821555,0.00020000000000000573,0.0014899999999999913,-0.00015300000000000036,-0.0013322463587535083,0.0007118758442141715,0.0003644933575028819
1504198293.74,-1.0,-0.3746728698999999,-0.046650234049999996,-0.1185820118,0.035155,-0.08445,-0.044578,-0.14083330065,-9.287142716249999,3.1463459727,-3.096862,1.243843,-1.820152,0.00017999999999998573,0.0015670000000000128,-0.0001439999999999983,-0.0013525953270860924,0.0006836760924529006,0.00030882854482505717
1504198293.75,-1.0,-0.4566368506,-0.014876688049999998,-0.06549861535,0.051066,-0.086728,-0.029603,-0.1348806641,-9.285701138699999,3.15086683835,-3.09881,1.243384,-1.819034,0.00016000000000002124,0.0016259999999999886,-0.00013300000000000117,-0.001149127802952954,0.0006281444099587308,0.00017883081110825483
1504198293.76,-1.0,-0.38931419835,-0.058712413549999995,-0.12018049574999999,0.07023,-0.090081,-0.027419,-0.1377049793,-9.28435762765,3.1546816251999994,-3.097969,1.242961,-1.820587,0.00016999999999997573,0.0016710000000000058,-0.00012199999999999711,-0.0006888705658663064,0.0006019086705395527,-3.4297487967127616e-05
1504198293.77,-1.0,-0.4139975363999999,-0.10046912925,-0.14842364774999997,0.078745,-0.091219,-0.025268,-0.13232112845,-9.2819549984,3.1619777728,-3.099768,1.242201,-1.819651,0.00018000000000001348,0.0017070000000000002,-0.00011599999999999805,-6.087762690443199e-05,0.0006622054964877666,-0.00031110310214421677
1504198293.78,-1.0,-0.41872434169999995,-0.015367020549999999,-0.2619944614,0.075495,-0.090139,-0.013534,-0.1278983293,-9.279522949199999,3.16930334035,-3.101259,1.241431,-1.819035,0.00018999999999999573,0.0017429999999999946,-0.00011699999999999905,0.0006186988054832643,0.0007557192944502855,-0.0004598232662346158
1504198293.79,-1.0,-0.49110722534999995,0.0857885742,-0.29336593475,0.070029,-0.096504,0.002479,-0.12479942789999998,-9.27727722635,3.1759816689999996,-3.102317,1.240726,-1.818909,0.00020000000000000573,0.001788999999999999,-0.00012100000000000305,0.001232724949276065,0.0008944431164250588,-0.0005892280145194384
1504198293.8,-1.0,-0.5765329535,0.13014405215,-0.3645720204,0.075163,-0.10829,0.023857,-0.12318133064999999,-9.274953050299999,3.182846324,-3.102912,1.239993,-1.819392,0.00020000000000000573,0.0018450000000000064,-0.0001260000000000011,0.001704791960489116,0.0009791318469927202,-0.0005404166506398633
1504198293.81,-1.0,-0.7085108492000001,0.12340688359999999,-0.43511125384999993,0.094022,-0.132985,0.05382,-0.12347553014999998,-9.27209931515,3.1911427498999996,-3.102919,1.239098,-1.820712,0.00015999999999999348,0.001917000000000002,-0.00013200000000000017,0.0020073253707999505,0.0010290475274277178,-0.0002844743857304266
1504198293.82,-1.0,-0.89516081865,0.05074941374999999,-0.45825494785,0.125854,-0.153521,0.073133,-0.1250740141,-9.268274721649998,3.2021654244999995,-3.102554,1.237903,-1.822684,9.000000000000674e-05,0.002006999999999995,-0.00013599999999999723,0.0020984454092138893,0.0009627135051490932,9.32965717944656e-05
1504198293.83,-1.0,-1.04939980985,-0.07761963475,-0.4965891427,0.165106,-0.176231,0.081781,-0.1270549574,-9.26321449025,3.2167086864499996,-3.102116,1.236327,-1.824946,-0.00010000000000001674,0.0021770000000000053,-0.00012100000000000305,0.0017365012584329431,0.0009230111701072907,0.00048714997553256367
1504198293.84,-1.0,-1.27053976735,-0.06796989114999999,-0.43668031784999994,0.196078,-0.174352,0.078629,-0.12886918765,-9.25699707415,3.2344587229499995,-3.10177,1.234403,-1.827187,-0.00022999999999998022,0.0023029999999999995,-0.00014799999999999536,0.0013406816892382878,0.0007081374705291132,0.000983978321929313
1504198293.85,-1.0,-1.3353126906,-0.0899073672,-0.4094080242,0.21674,-0.13827,0.05832,-0.13008521225,-9.250024545999999,3.2543171891999996,-3.101641,1.232254,-1.828887,-0.0003700000000000092,0.0024309999999999957,-0.0001870000000000066,0.0009815004161537466,0.0004369187530230967,0.0015005508548167068
1504198293.86,-1.0,-1.2788067733,-0.10147921419999999,-0.37172106825,0.215229,-0.084937,0.01873,-0.1295850731,-9.2429441447,3.27439140175,-3.102039,1.230086,-1.829513,-0.0005199999999999927,0.0025640000000000038,-0.00023599999999999316,0.0005790413129267424,0.00032957670761524227,0.0018437333058535232
1504198293.87,-1.0,-1.3571422935000002,0.07705084905,-0.40899614489999997,0.201204,-0.004845,-0.035873,-0.1266626914,-9.23622658945,3.2934064961,-3.103153,1.228042,-1.828603,-0.0006600000000000217,0.002708999999999996,-0.00028300000000000547,0.00026948614157507045,0.0002900893559405482,0.002071376592544083
1504198293.88,-1.0,-1.4759400515999999,0.2796268181,-0.39986615374999995,0.179835,0.084908,-0.100113,-0.1209944477,-9.230195499699999,3.3104602604499997,-3.105061,1.226219,-1.825918,-0.0007799999999999752,0.0028670000000000015,-0.0003249999999999989,-8.956862766273943e-05,0.0003399343537859867,0.0021965706774955684
1504198293.89,-1.0,-1.5772133261499999,0.4456337893,-0.2969257487,0.161719,0.177837,-0.169689,-0.11205078289999999,-9.22487048875,3.3255919213999996,-3.107913,1.224615,-1.821239,-0.0008800000000000197,0.003041000000000002,-0.00035400000000000015,-0.0006356963765319357,0.0004241702741256681,0.002199383773874297
1504198293.9,-1.0,-1.6065842429,0.5036303174,-0.29456234605,0.150848,0.249383,-0.228541,-0.10003763665,-9.22002600365,3.33938987795,-3.111646,1.22316,-1.814798,-0.0009599999999999886,0.0032279999999999948,-0.00037099999999999633,-0.0012267610893705871,0.0005950792114914893,0.002138072449922923
1504198293.91,-1.0,-1.4718604852,0.38889251239999995,-0.31524457089999997,0.150097,0.274987,-0.251003,-0.08630832664999999,-9.21525997175,3.35288382835,-3.115856,1.221739,-1.807414,-0.0010000000000000009,0.0034100000000000033,-0.0003809999999999994,-0.0018252255786215255,0.0007698850208555097,0.0019331028474461887
1504198293.92,-1.0,-1.2254193706999998,0.19633893965,-0.3744963502,0.152977,0.246173,-0.232801,-0.07284379619999999,-9.210366453399999,3.3666425582999997,-3.11996,1.22028,-1.800309,-0.0010199999999999931,0.003581000000000001,-0.0003860000000000044,-0.00224323447704311,0.0008374433443683049,0.0016168954113386924
1504198293.93,-1.0,-0.9689068266499999,0.0030400615,-0.5277546764,0.164918,0.168236,-0.18461,-0.061046396249999996,-9.2050120225,3.3814898263999997,-3.123542,1.218693,-1.794473,-0.0010300000000000031,0.0037339999999999977,-0.0003970000000000015,-0.002367519223421377,0.0008413712606947232,0.0013318140999912798
1504198293.94,-1.0,-0.77212658775,-0.15091453685,-0.65328960305,0.170287,0.071169,-0.133194,-0.0508769002,-9.1993437788,3.3970431732999997,-3.126617,1.217022,-1.790164,-0.0010300000000000031,0.0038720000000000004,-0.0004170000000000007,-0.0022677432943951636,0.0008092761361941925,0.001080244675202513
1504198293.95,-1.0,-0.6534955427,-0.22421924559999998,-0.7129238416999999,0.177835,-0.023779,-0.087116,-0.0418743955,-9.19337152895,3.41329279235,-3.129326,1.215269,-1.787291,-0.0012900000000000134,0.004003,-0.0003979999999999956,-0.002282295927841016,0.0007751678957101937,0.0008417066752934854
1504198293.96,-1.0,-0.63024397555,-0.18306073555,-0.7380484789999999,0.173923,-0.094108,-0.057111,-0.033244543499999994,-9.1873992791,3.4294247316,-3.131898,1.213523,-1.785398,-0.0012999999999999956,0.004132000000000002,-0.0004369999999999999,-0.0019720868602446373,0.000743879491464039,0.0005104203948189667
1504198293.97,-1.0,-0.6430808803999999,-0.15772035195,-0.75372931235,0.183111,-0.137886,-0.044209,-0.024604884849999998,-9.1811622497,3.4461548764999996,-3.134453,1.21171,-1.784046,-0.0013199999999999878,0.004257299999999999,-0.00048300000000000426,-0.0015403196607475245,0.0006757224348354907,0.00012081200951818971
1504198293.98,-1.0,-0.6140728096999999,-0.11009925954999998,-0.7286929349,0.192385,-0.181648,-0.048385,-0.014258869099999998,-9.174611407499999,3.4636205201499997,-3.137476,1.209813,-1.782655,-0.00137000000000001,0.004381500000000001,-0.0005329999999999988,-0.0012983018612060526,0.0005682036055782991,-0.0001908229747638046
1504198293.99,-1.0,-0.5950086820999999,-0.04694443354999999,-0.67253025035,0.186753,-0.216758,-0.049382,-0.01879934805,-9.17417010825,3.4647678982,-3.136166,1.209686,-1.785647,-0.0014099999999999946,0.0045076,-0.0005840000000000012,-0.0011251083778471838,0.00042809579893154925,-0.0003528737760234435
1504198294.0,-1.0,-0.6536034158499999,0.07238288365,-0.7610842998499999,0.160811,-0.261295,-0.053618,-0.005246557749999999,-9.1682566983,3.4804487315499997,-3.140085,1.207982,-1.784145,-0.001469999999999999,0.0046332,-0.0006379999999999997,-0.0010437262504985334,0.00030375946477212423,-0.000335378515470941
1504198294.01,-1.0,-0.7116685904999999,0.1836589412,-0.7550826300499999,0.101768,-0.301311,-0.04511,0.009414384,-9.1641575186,3.4912066265999995,3.138896,1.206807,-1.782771,-0.0015499999999999958,0.004755799999999999,-0.0006909999999999972,-0.0010241079206165793,0.00021426826549908462,-0.00025435597865974824
1504198294.02,-1.0,-0.7617413453999999,0.22112034419999999,-0.7722933008,0.053508,-0.322242,-0.029146,0.02358499325,-9.161960829,3.4968944835999998,3.134849,1.206179,-1.781841,-0.0016200000000000103,0.004875600000000001,-0.0007389999999999966,-0.000982578977795523,0.00020274262848651858,-0.00022487468409770894
1504198294.03,-1.0,-1.0603734512,0.22309148084999997,-0.5019435736,0.034203,-0.324232,-0.012097,0.0364022848,-9.160646737899999,3.5002287445999998,3.131192,1.205803,-1.781406,-0.0018299999999999983,0.004899999999999998,-0.0007600000000000037,-0.0009111091278448669,0.000207372803780137,-0.0002608384592043267
1504198294.04,-1.0,-1.07156283885,0.22193429614999996,-0.504846342,0.033121,-0.316779,0.002831,0.047601479099999996,-9.159489553199998,3.5031315129999996,3.128006,1.205471,-1.781407,-0.001920000000000005,0.005006,-0.0007790000000000019,-0.0006674811290516836,0.00033745543010832435,-0.00037431285522981916
1504198294.05,-1.0,-1.2981454870999998,0.2572088162,-0.33437734505,0.015244,-0.281471,0.007008,0.057202189449999996,-9.158695214549999,3.5050536164,3.125275,1.205246,-1.781613,-0.002009999999999984,0.00511,-0.000778999999999995,-0.00038897694548811756,0.0004242607495068551,-0.0005090583787122904
1504198294.06,-1.0,-1.4750574530999998,0.19233782644999997,-0.36479757335,-0.034536,-0.233113,0.011106,0.06487098975,-9.1593718734,3.50314131965,3.123076,1.20544,-1.781901,-0.0021000000000000185,0.005209999999999999,-0.0007600000000000037,3.130824490593653e-05,0.0004941444062398492,-0.0006380591633953214
1504198294.07,-1.0,-1.5772623594,0.00287334845,-0.44803641855,-0.113017,-0.170668,0.016197,0.06997044775,-9.162637487849999,3.4945016609999997,3.121573,1.206372,-1.782276,-0.0021999999999999797,0.005311000000000003,-0.0007269999999999985,0.0005009552247270399,0.000406385667194753,-0.0007149673695092673
1504198294.08,-1.0,-1.7208513286999998,-0.20589061674999998,-0.56724605595,-0.1883,-0.11144,0.017029,0.07289282945,-9.1686097377,3.47874237445,3.120641,1.208084,-1.782628,-0.0022800000000000042,0.005415999999999997,-0.0006870000000000001,0.0010629687587075942,0.0002474610079827855,-0.0007352821115248487
1504198294.09,-1.0,-1.87306034335,-0.3584526708,-0.60511933825,-0.215846,-0.08245,0.024402,0.0739617543,-9.176003951799999,3.4591584943999996,3.120214,1.210217,-1.783116,-0.004840000000000011,0.011175000000000004,-0.0012870000000000034,0.003971535235470558,-3.1014648437022174e-05,-0.0010567351809337433
1504198294.1,-1.0,-1.9688222806,-0.4052696179,-0.5296081332499999,-0.189072,-0.064564,0.032956,0.07351064839999999,-9.1829078334,3.4408004456,3.120232,1.212217,-1.783871,-0.0012850000000000084,0.002896999999999997,-0.00031649999999999734,0.0012244218343915314,-7.334993205243556e-05,-7.624856821808468e-05
1504198294.11,-1.0,-2.0057148979,-0.32155024684999994,-0.4604418308,-0.109903,-0.037511,0.033046,0.07195139105,-9.18746792565,3.42865000625,3.120611,1.213543,-1.784765,-0.0012849999999999806,0.0028970000000000037,-0.00031649999999999734,0.0012244227830748855,-7.325689449588779e-05,-7.633828004682819e-05
1504198294.12,-1.0,-1.9703815379499998,-0.11594402294999999,-0.43199273914999997,-0.016606,0.009693,0.013911,0.07028426054999999,-9.18882124335,3.4250509657,3.121074,1.213939,-1.785307,-0.0026600000000000096,0.005965999999999992,-0.0006540000000000018,0.002349867047167109,-0.00010912231810866757,6.843325213912177e-05
1504198294.13,-1.0,-1.82079089885,0.1365674079,-0.41626287254999994,0.051368,0.07844,-0.027721,0.06973508815,-9.1875561855,3.4284734865499997,3.121256,1.213568,-1.784856,-0.002790000000000001,0.006173999999999999,-0.000681000000000001,0.0021125645314366004,0.0001294250664869434,6.714306589550301e-05
1504198294.14,-1.0,-1.6687584039,0.27518440564999996,-0.4806141098499999,0.080032,0.156056,-0.08865,0.07167680485,-9.184908389999999,3.4355146612499996,3.120733,1.212797,-1.782841,-0.0028699999999999976,0.006402000000000005,-0.0007100000000000023,0.0018457155113793533,0.0004076167055651059,0.00020156473779464612
1504198294.15,-1.0,-1.5433117371,0.24353834609999997,-0.5701390177,0.074475,0.210533,-0.170946,0.07865913965,-9.1821429147,3.44273235565,3.118748,1.211995,-1.778592,-0.0029700000000000004,0.006654999999999994,-0.0007239999999999955,0.0013989039310700058,0.0007173087775609321,0.0003774139556087519
1504198294.16,-1.0,-1.3909163960999997,0.17762785144999998,-0.55259492085,0.045042,0.220441,-0.243598,0.09176082405,-9.1801227448,3.4477827804,3.114985,1.211409,-1.772211,-0.0030799999999999994,0.006926000000000002,-0.0007110000000000033,0.0007963397716854725,0.0009374733408888947,0.0005885321940254373
1504198294.17,-1.0,-1.3150325384,-0.045365562899999996,-0.50956334065,0.035404,0.185407,-0.292653,0.1108935982,-9.17860271405,3.45128375445,3.109472,1.210966,-1.764225,-0.00655,0.01466300000000001,-0.001224999999999997,-0.00031448869097272514,0.0018667752095862244,0.0019668569314671425
1504198294.18,-1.0,-1.3781285245,-0.5042971695999999,-0.45819610795,0.071245,0.113745,-0.320217,0.13508660375,-9.17620989145,3.4567852850999996,3.102533,1.210274,-1.755376,-0.0017650000000000027,0.0038549999999999973,-0.00021849999999999647,-0.00040518982455450825,0.0002778621074059906,0.0005506401625945401
1504198294.19,-1.0,-1.5194129310499997,-1.00181794405,-0.31350879384999997,0.142216,0.039651,-0.335975,0.16370240844999998,-9.17144385955,3.46817080575,3.094428,1.2089,-1.746109,-0.0017650000000000027,0.0038549999999999973,-0.00021850000000000341,-0.00040504146914277506,0.00027808194869072267,0.0005505342229540355
1504198294.2,-1.0,-1.6478408194499998,-1.4071562085,-0.20763620045,0.225248,0.002759,-0.357114,0.19560344089999998,-9.16369660605,3.48694073385,3.085555,1.206675,-1.736518,-0.003723999999999991,0.007930000000000006,-0.00027599999999999847,-0.0009675064740315431,0.0002005923897938633,0.0009996305195943966
1504198294.21,-1.0,-1.7532230803499997,-1.7527621677999998,-0.1595541955,0.264042,0.02486,-0.398714,0.23051511489999998,-9.15387034275,3.5105355337499997,3.076024,1.203872,-1.726126,-0.003922999999999996,0.008169999999999983,-9.800000000000086e-05,-0.0010673392539903848,-0.00010209157970209048,0.0007623542900853097
1504198294.22,-1.0,-1.8434050337499999,-1.95553426985,-0.1253878269,0.243512,0.09541,-0.447975,0.267721545,-9.1438381398,3.5339832339,3.06598,1.201029,-1.714561,-0.0041180000000000105,0.008400000000000019,9.10000000000008e-05,-0.0013128678758353995,-0.00034665839694891787,0.000320044981538703
1504198294.23,-1.0,-1.9155917843999999,-1.9877491151,-0.0987333522,0.149569,0.194266,-0.493143,0.30564386055,-9.13615953285,3.5507231854499994,3.055725,1.198869,-1.701708,-0.008792999999999995,0.0174,0.0008239999999999983,-0.0035813105555311253,-0.0011170097023767145,-0.0018828463979617682
1504198294.24,-1.0,-1.93113532465,-1.9114141514999998,-0.0069234948999999995,0.008258,0.261508,-0.50418,0.3428797106,-9.13288411175,3.5557343836,3.04546,1.197952,-1.68803,-0.0022625000000000006,0.004530000000000006,0.00035349999999999965,-0.0009076840492330263,-0.00018858022322865153,-0.0011912123733776037
1504198294.25,-1.0,-1.92595741345,-1.8771301030999998,0.06339999225,-0.142339,0.264841,-0.467088,0.37705588584999994,-9.1348552484,3.5472025980999997,3.035694,1.198503,-1.674661,-0.0022625000000000006,0.0045299999999999785,0.00035349999999999965,-0.0009074471409094009,-0.00018965850702978848,-0.0011910258218682523
1504198294.26,-1.0,-2.01882638895,-1.8364521188999998,0.018387468749999997,-0.273402,0.199775,-0.391415,0.40693674839999994,-9.141867003149999,3.5257750678499997,3.026684,1.200474,-1.66262,-0.004538,0.009300000000000003,0.000892999999999998,-0.0015023893458199211,2.7839532553919355e-05,-0.003133495261288255
1504198294.27,-1.0,-2.00460674645,-1.75640043495,-0.18211929715,-0.355,0.07565,-0.273923,0.4310218808,-9.15247779845,3.4952469664,3.018896,1.203476,-1.653088,-0.008973999999999996,0.019240000000000007,0.002242000000000001,-0.0032257087102380844,0.0015693143519133201,-0.008378636187437838
1504198294.28,-1.0,-1.9122967499999999,-1.7652558398999998,-0.5266955581999999,-0.361152,-0.0715,-0.13171,0.44764415254999995,-9.1644321048,3.4616886100999995,3.012992,1.206884,-1.647143,-0.0021930000000000005,0.004934999999999995,0.0006439999999999987,-0.0009614175075562947,0.0008116715190575885,-0.002066089333848109
1504198294.29,-1.0,-1.7675996292499998,-1.8233896610999998,-0.7076968972500001,-0.287138,-0.199066,0.012743,0.45557773239999994,-9.17497425355,3.4325922795499997,3.009642,1.209917,-1.64538,-0.0021930000000000005,0.004934999999999995,0.0006439999999999987,-0.0009631567661925189,0.0008096863505606677,-0.0020669978971030734
1504198294.3,-1.0,-1.50129024185,-1.8313918875,-0.6411587769999999,-0.186843,-0.262878,0.124039,0.4550285599999999,-9.182682280449999,3.4119983145499995,3.009014,1.21215,-1.647404,-0.004310000000000001,0.009989999999999999,0.0013670000000000002,-0.002069201177880675,0.002277474771761323,-0.0032966533366356465
1504198294.31,-1.0,-1.3230543781,-1.7594699163999998,-0.44586914889999996,-0.124978,-0.24105,0.162534,0.44917398995,-9.188017098049999,3.3983670710499996,3.010181,1.213704,-1.651361,-0.004254000000000001,0.010050000000000003,0.0014310000000000017,-0.002239610925467872,0.003264955684081361,-0.0021332151535289334
1504198294.32,-1.0,-1.3637715889,-1.5387810647999998,-0.11677758819999999,-0.156105,-0.139547,0.148425,0.44066181775,-9.193528435349998,3.3845691144999996,3.012125,1.215314,-1.655222,-0.004236999999999998,0.010030000000000011,0.001475000000000004,-0.0023687354522019533,0.004368431729296907,-0.0010774221759808356
1504198294.33,-1.0,-1.47955870545,-1.1466523578999999,0.1849141924,-0.269954,0.011676,0.113804,0.4304530951,-9.20213867405,3.3623962788499995,3.014265,1.217846,-1.657827,-0.004272000000000005,0.009910000000000002,0.0014819999999999972,-0.0022169496896959906,0.004739799267413192,-0.0007228700125998522
1504198294.34,-1.0,-1.51874607885,-0.7165032689499999,0.1485903608,-0.402947,0.186474,0.104726,0.41591963979999996,-9.21494615895,3.3289850222999995,3.017298,1.221644,-1.659521,-0.008763999999999994,0.019199999999999995,0.0029,-0.001841915294317431,0.010041250952015801,0.0008806655022890464
1504198294.35,-1.0,-1.3695378991,-0.4750145127,0.24871625729999997,-0.543934,0.315483,0.127737,0.3952472216,-9.2322745095,3.28317816015,3.021784,1.226847,-1.661231,-0.0045610000000000026,0.009189999999999976,0.0013680000000000012,0.00021230197165955644,0.003999768340407828,0.0007520967499252684
1504198294.36,-1.0,-1.1567335940999999,-0.34705734349999995,0.28675625265,-0.667343,0.396365,0.186108,0.3507838705,-9.25383933285,3.2270350889,3.033315,1.233428,-1.66885,-0.002357999999999999,0.004445000000000032,0.0006444999999999992,0.00031298421550252087,0.0013364138921623248,0.0003323937039471092
1504198294.37,-1.0,-0.9662590311499999,-0.0945557193,0.11337468064999999,-0.789991,0.451639,0.264785,0.31398931969999994,-9.2788953236,3.1581531792999997,3.042496,1.241233,-1.67392,-0.0023580000000000025,0.004444999999999977,0.0006444999999999992,0.0003134776337492262,0.0013363098906205018,0.0003328639022956992
1504198294.38,-1.0,-0.7586620572999999,0.19418147665,0.0675678185,-0.932863,0.496451,0.316762,0.27039876045,-9.30771706795,3.0763166850499997,3.053921,1.250438,-1.680877,-0.009838,0.01683000000000001,0.0022790000000000032,0.0025984038984039337,0.00037201424383748183,0.0002277394572275382
1504198294.39,-1.0,-0.37548682184999993,0.56608887125,0.12375011635,-1.128752,0.557725,0.329123,0.22330722714999998,-9.34113813115,2.9771910668499997,3.066726,1.261444,-1.688641,-0.0049805000000000006,0.007960000000000023,0.0009759999999999977,0.002167482056875336,-0.0014220135639013698,-0.0006188392058986691
1504198294.4,-1.0,0.23246663825,0.7930147522500001,0.24732371299999997,-1.339174,0.64899,0.308317,0.17559787489999998,-9.37936445285,2.8578049097499996,3.080226,1.274516,-1.696242,-0.0024473999999999997,0.0038549999999999973,0.00044349999999999945,0.001252230887222261,-0.0008251899683433539,-0.00045256181183517263
1504198294.41,-1.0,1.0143508427499999,0.8218364966,0.19626048645,-1.50556,0.773996,0.283258,0.127682583,-9.4207583225,2.72092368905,3.094701,1.289333,-1.703599,-0.0024473999999999993,0.0038549999999999973,0.00044349999999999945,0.0012524883593478808,-0.0008246228086712382,-0.0004535582545264205
1504198294.42,-1.0,1.66806213175,0.5744931703,0.5845744065,-1.619898,0.874058,0.264737,0.07955154479999998,-9.463260343599998,2.5711271103,3.110662,1.305384,-1.711303,-0.009214,0.014909999999999979,0.0016660000000000008,0.0051962974357822045,-0.0024065707932230396,-0.0010663901058466374
1504198294.43,-1.0,1.9328122617999999,0.4826244731,1.1137118205499998,-1.670839,0.900065,0.251794,0.033126863699999995,-9.50486995955,2.4138480575999997,3.127872,1.322072,-1.719795,-0.004239699999999999,0.007230000000000014,0.0008309999999999984,0.0024000932704979494,-0.0002570313560845694,0.0005300680415455394
1504198294.44,-1.0,2.0802258246,0.6147200486,1.1764841872,-1.654321,0.84024,0.266872,-0.011934693049999999,-9.5437533268,2.2554510467999997,-3.136303,1.338723,-1.730494,-0.003831000000000001,0.00713999999999998,0.0009480000000000009,0.0019855711796414877,0.0010179116559134727,0.0013846551501682791
1504198294.45,-1.0,2.0767346572,0.5863788300999999,1.0592260731499998,-1.576727,0.698894,0.313154,-0.056780503499999996,-9.578557127649999,2.1020162009,-3.114589,1.354694,-1.745183,-0.003831000000000001,0.007140000000000035,0.0009480000000000009,0.0019872083064558232,0.0010151764114356698,0.0013868397561611623
1504198294.46,-1.0,2.07715634315,0.29315018844999996,1.0294334704499999,-1.449438,0.509173,0.372416,-0.10239123265,-9.60838895695,1.9592804101499999,-3.089382,1.369373,-1.76524,-0.0017819999999999989,0.0035299999999999776,0.0005614999999999995,0.0008463297290612903,0.0007142204062318136,0.0009555318858635031
1504198294.47,-1.0,2.0503155421,-0.1975647709,1.04837991825,-1.310456,0.319347,0.440238,-0.15007116495,-9.6333272679,1.8294501708,-3.059745,1.382507,-1.791714,-0.0017819999999999989,0.0035299999999999776,0.0005614999999999995,0.0008470794244672675,0.0007134135366291261,0.0009562113549044238
1504198294.48,-1.0,1.9264967792,-0.8262494891,1.0309927278,-1.193603,0.164867,0.509027,-0.20102651835,-9.654068332649999,1.7114173313999999,-3.024666,1.394164,-1.825329,-0.007057000000000001,0.013819999999999999,0.002603000000000001,0.0032146880349128715,0.00035823239634003023,0.003629604723394575
1504198294.49,-1.0,1.8407670449,-1.3492773601999999,0.9971597852999999,-1.113784,0.055436,0.588346,-0.25729707604999996,-9.6715339763,1.60174956445,-2.982316,1.404606,-1.867488,-0.003597000000000003,0.006750000000000034,0.0014359999999999998,0.0016856224276009524,-0.0017517268627127436,0.0016503402225701569
1504198294.5,-1.0,1.8338435499999999,-1.4797058051999998,0.86360301895,-1.051854,-0.034647,0.648387,-0.31876515824999996,-9.68625375795,1.4984267000499998,-2.931983,1.413938,-1.918617,-0.001839499999999994,0.003324999999999967,0.0007430000000000006,0.0008687331033809809,-0.0015743518456048378,0.000800273855202982
1504198294.51,-1.0,1.61361561095,-1.4883160439,0.5550760033,-0.97751,-0.074691,0.652856,-0.38135119854999994,-9.69843361725,1.4018802307999998,-2.875995,1.422102,-1.975965,-0.0018395000000000009,0.0033250000000000224,0.0007429999999999971,0.0008673209869030085,-0.001575042585562958,0.0007987647604761339
1504198294.52,-1.0,1.3496696261999999,-1.6570590704500001,0.3580407915,-0.89464,-0.023096,0.592066,-0.44017148525,-9.7083677537,1.3131202416499999,-2.81815,1.429099,-2.034818,-0.007629000000000004,0.012960000000000027,0.0029920000000000016,0.0036326012988712186,-0.009933994020749015,0.003243236088651291
1504198294.53,-1.0,1.2901432607,-1.7532230803499997,0.46021627784999997,-0.817519,0.0723,0.470348,-0.48973429434999993,-9.71665437295,1.23174465995,-2.76316,1.435215,-2.089883,-0.0019799999999999957,0.003149999999999986,0.0006824999999999991,0.0008488272582298784,-0.0031940529684546526,0.0009810410871624597
1504198294.54,-1.0,1.2294597105,-1.4880512643500001,0.37599676764999995,-0.787136,0.202165,0.362364,-0.5291570273499999,-9.724136846899999,1.1538896656,-2.711627,1.440985,-2.14015,-0.0019800000000000026,0.003149999999999986,0.0006825000000000025,0.0008454387153489229,-0.00319489169175724,0.0009780388335551837
1504198294.55,-1.0,1.10965186745,-0.6999692570499999,0.04202149524999999,-0.827615,0.314435,0.31513,-0.5639216015999999,-9.73142318785,1.0732201627,-2.657794,1.446853,-2.191516,-0.003972000000000003,0.006269999999999998,0.0012349999999999983,0.0012999333105441213,-0.006201836040901965,0.0020593810907240107
1504198294.56,-1.0,0.9857252313999999,-0.16840960045,0.018740508149999998,-0.944045,0.412395,0.284868,-0.59637180645,-9.7391017948,0.9821850307499999,-2.595903,1.453355,-2.249931,-0.003969,0.006240000000000023,0.0010810000000000004,0.000713672856629044,-0.005977131995198004,0.002230325072656192
1504198294.57,-1.0,0.7559063886499999,0.060605097,0.03713778355,-1.062971,0.473066,0.267477,-0.6269195211999999,-9.74709421455,0.8783424139,-2.521699,1.460533,-2.319963,-0.003955999999999994,0.006239999999999968,0.0009259999999999997,0.0001298589325784416,-0.005963200431861049,0.0025150501065972497
1504198294.58,-1.0,0.4173317973999999,0.49871718574999996,-0.04073682409999999,-1.10562,0.481933,0.275927,-0.6576535622999999,-9.7544001688,0.76783127505,-2.433333,1.467522,-2.403994,-0.003936000000000009,0.006259999999999988,0.0007780000000000009,-0.0003128445738511676,-0.005849506481566236,0.002834918773293782
1504198294.59,-1.0,0.11356100699999999,0.9468222508499999,0.05976172509999999,-1.054247,0.506012,0.282378,-0.68861315635,-9.76017628565,0.65970315215,-2.334754,1.4734,-2.49807,-0.003913,0.006260000000000043,0.000645999999999999,-0.0006308673411672405,-0.005760545422656582,0.003148533012845456
1504198294.6,-1.0,-0.08079698934999999,1.2155146542,0.3304644917,-0.906567,0.558082,0.277205,-0.71917067775,-9.764010685799999,0.56332339595,-2.235273,1.477507,-2.592539,-0.0038869999999999877,0.006289999999999962,0.000529,-0.0009366031531967689,-0.005652457071644967,0.003467052794221659
1504198294.61,-1.0,0.0391873734,1.4164332994,0.7500420119499999,-0.729834,0.621665,0.241107,-0.7469725305,-9.766207375399999,0.48327171199999996,-2.14504,1.47995,-2.677086,-0.003856000000000012,0.006310000000000038,0.00043400000000000036,-0.0011670024632481901,-0.0055167796786759205,0.0037641109533746997
1504198294.62,-1.0,0.40343577435,1.5480287357499998,1.086380687,-0.565728,0.68858,0.175095,-0.76885116665,-9.76747243325,0.41912641435,-2.069895,1.481384,-2.745749,-0.003814999999999999,0.006330000000000002,0.00036019999999999976,-0.0013336709247673273,-0.005394845659675962,0.003933755477309786
1504198294.63,-1.0,0.7597800154,1.50293775905,1.2155931074,-0.47428,0.720965,0.07486,-0.7816292316,-9.768619811299999,0.3654742322,-2.008174,1.482696,-2.800538,-0.007546999999999998,0.012669999999999959,0.0005783999999999997,-0.0029629894630187614,-0.011222836288559579,0.007721867616373834
1504198294.64,-1.0,1.0355430133999999,1.1981961102999998,1.1220082464499999,-0.459728,0.744392,-0.024424,-0.7841593473,-9.770179068649998,0.3146561719,-1.952397,1.48453,-2.849098,-0.0018559999999999965,0.003165000000000029,0.00012104999999999928,-0.0006490484563976828,-0.002762107277632264,0.0016592962749025775
1504198294.65,-1.0,1.3165035359,0.9144995324499999,0.69182973755,-0.486889,0.759629,-0.116295,-0.77720643245,-9.77229730505,0.2619552348,-1.895885,1.487065,-2.898224,-0.0018559999999999965,0.0031649999999999734,0.00012105000000000102,-0.0006535834671144158,-0.00276102532565603,0.0016609646261119826
1504198294.66,-1.0,1.39465272975,0.5817500913,0.31760797355,-0.512129,0.769487,-0.173996,-0.7630358232,-9.7747391609,0.20642017584999997,-1.834999,1.490104,-2.951627,-0.007152000000000006,0.012700000000000045,0.0004104999999999994,-0.001558002769444844,-0.011764276801400575,0.004835855354618723
1504198294.67,-1.0,1.5273072842999997,0.41347778394999996,0.02837063845,-0.498184,0.771516,-0.185717,-0.74619780515,-9.7770535303,0.15119892969999998,-1.770714,1.493081,-3.008325,-0.0034049999999999914,0.006389999999999951,0.0001670999999999999,0.00012072414406150145,-0.006007473184790779,0.0014592667372116397
1504198294.68,-1.0,1.42448455905,0.30546734085,-0.07051962015,-0.460581,0.688061,-0.157752,-0.73076213805,-9.7788775672,0.09999841004999999,-1.706789,1.495514,-3.065284,-0.003260000000000013,0.006450000000000011,0.00013729999999999992,0.0007268900228523112,-0.005920378310766861,0.0009471344550951999
1504198294.69,-1.0,1.0930295957,0.2720560843,-0.01972117315,-0.434134,0.56417,-0.096646,-0.7201317294499999,-9.780034751899999,0.0526420972,-1.643769,1.4971,-3.122506,-0.001559999999999992,0.0032650000000000734,5.140000000000006e-05,0.0005774377219398552,-0.0028099100503886643,0.0002375244274595012
1504198294.7,-1.0,0.91018460645,0.2487947105,-0.24992247525,-0.424701,0.441495,-0.045178,-0.71475768525,-9.780564311,0.007511893899999999,-1.581302,1.497843,3.102774,-0.0015600000000000058,0.0032649999999999624,5.140000000000006e-05,0.0005767681465422836,-0.0028100185210475637,0.00023590097397396814
1504198294.71,-1.0,0.71283558185,0.2574637891,-0.38834334,-0.426597,0.346657,-0.033285,-0.69906704525,-9.7816038159,-0.044404511199999996,-1.507358,1.499307,3.032393,-0.0059000000000000025,0.013479999999999936,3.720000000000112e-05,0.002615468946124855,-0.009792884901224763,-8.709362687076005e-05
1504198294.72,-1.0,0.7081970364,0.44820313159999997,-0.48871440274999994,-0.41861,0.277328,-0.034217,-0.6956249110999999,-9.78155478265,-0.0876910643,-1.445394,1.49924,2.973229,-0.002795000000000006,0.007040000000000046,-0.00018729999999999962,0.0009886359089863461,-0.003830417326787572,-0.0006184932677433252
1504198294.73,-1.0,0.7651932861999999,0.754719784,-0.53717886705,-0.39767,0.212179,-0.058616,-0.6905254531,-9.781466522799999,-0.12871228124999998,-1.386516,1.499108,2.916474,-0.002794999999999992,0.007040000000000046,-0.00018730000000000135,0.0009910739468650398,-0.0038297877078148357,-0.0006223236004654353
1504198294.74,-1.0,0.7002242299499999,1.1196252304999998,-0.5047286622,-0.371015,0.180042,-0.106546,-0.6810718425,-9.781544976,-0.16684053645,-1.330559,1.499232,2.862255,-0.00270999999999999,0.007359999999999922,-0.0003809999999999994,0.000573351136891942,-0.002724031347554723,-0.0008702238175849475
1504198294.75,-1.0,0.67253025035,1.55332432675,-0.46124597609999995,-0.339041,0.142538,-0.159795,-0.6664010940999999,-9.7818980154,-0.20194834344999998,-1.276549,1.499731,2.809639,-0.0026700000000000057,0.007570000000000077,-0.0005175000000000006,0.00025448570296227047,-0.0022304248017228634,-0.001013361480206365
1504198294.76,-1.0,0.6330682907499999,1.8847792901,-0.47633841044999997,-0.284704,0.106969,-0.201266,-0.6474350329999999,-9.78249622105,-0.23219205205,-1.226449,1.500602,2.760563,-0.0026450000000000085,0.007914999999999894,-0.000699749999999999,-0.00031837551424462873,-0.0017539607863996665,-0.001139916717727174
1504198294.77,-1.0,0.44509442354999995,2.0601221921,-0.49350004794999996,-0.206983,0.069061,-0.228817,-0.6254092970999999,-9.7833690129,-0.2549925133,-1.183656,1.501871,2.718451,-0.0026449999999999807,0.007915000000000005,-0.0006997500000000007,-0.0003163912869368346,-0.0017543234474728386,-0.001139416083316469
1504198294.78,-1.0,0.13230151515,2.1050562624,-0.3248354746,-0.129295,0.034339,-0.244633,-0.60170662405,-9.78445755105,-0.26967306835,-1.149462,1.503508,2.684583,-0.002630000000000021,0.008220000000000005,-0.0008400000000000005,-0.0007623216696504009,-0.0014617955391136306,-0.0012054514061831112
1504198294.79,-1.0,-0.10248929914999999,1.93737235405,-0.3981892166,-0.06746,0.023182,-0.253045,-0.577023286,-9.7857226089,-0.277724328,-1.122214,1.50545,2.657514,-0.002610000000000001,0.008410000000000029,-0.0008999999999999998,-0.000831788514153553,-0.0012875689363476273,-0.0012925137976947942
1504198294.8,-1.0,-0.24755907259999999,1.6160770801,-0.6398446859,-0.036464,0.029322,-0.254069,-0.55210458835,-9.7870367,-0.28192157419999997,-1.09868,1.50754,2.63421,-0.002579999999999999,0.008560000000000012,-0.0009319999999999988,-0.0005818646794073512,-0.0010847429076814574,-0.0012947781431617011
1504198294.81,-1.0,-0.41098689485,1.3005971496,-0.9220016196999999,-0.018152,0.050484,-0.255142,-0.5270878241999999,-9.78834098445,-0.2843732367,-1.076038,1.509687,2.611987,-0.0025149999999999895,0.008730000000000016,-0.0009405000000000004,0.00016022718231933908,-0.0008437678398200976,-0.0011128493342154044
1504198294.82,-1.0,-0.5533598395499999,1.0860178409499999,-1.2065317627999999,0.004698,0.091855,-0.262641,-0.50128652805,-9.7896844955,-0.28475569605,-1.054207,1.511974,2.590915,-0.0025149999999999895,0.008730000000000016,-0.0009405000000000004,0.00016117183605168783,-0.0008435917108107205,-0.0011130206049013713
1504198294.83,-1.0,-0.636451585,0.80633218295,-1.3154248043999999,0.031701,0.136382,-0.257336,-0.4755048452,-9.79102800655,-0.28301011234999995,-1.033938,1.51434,2.571885,-0.0024000000000000132,0.008919999999999928,-0.0009210000000000017,0.0011225388129509906,-0.0005128316729074989,-0.0007361333604268827
1504198294.84,-1.0,-0.7283398955,0.6201137060999999,-1.3243880825,0.06492,0.169118,-0.233853,-0.4514000995,-9.79230287105,-0.2782342738,-1.018422,1.516698,2.557971,-0.0023999999999999855,0.008920000000000039,-0.0009209999999999982,0.0011229309784897001,-0.0005120026839835479,-0.000736718589953278
1504198294.85,-1.0,-0.8682513710499999,0.51503545135,-1.3196318572499999,0.097952,0.186922,-0.196468,-0.43060019484999995,-9.793469862399999,-0.27011436759999996,-1.01055,1.51894,2.551908,-0.0023200000000000165,0.009070000000000022,-0.0009259999999999997,0.0015105996374698005,-0.000265127340314697,-0.0003012639884449886
1504198294.86,-1.0,-0.9650430065499999,0.39484514895,-1.2530839303499999,0.12982,0.199397,-0.148402,-0.41417405609999997,-9.794479947349998,-0.25900343314999996,-1.011947,1.520964,2.555285,-0.0022699999999999942,0.009190000000000031,-0.0009590000000000015,0.0014642517479672712,-0.0002747693234481652,-4.281894919355711e-05
1504198294.87,-1.0,-0.9287289816,0.3142639059,-1.1663637244,0.163754,0.208649,-0.091787,-0.40319060809999996,-9.79530370595,-0.24456804434999999,-1.025555,1.522691,2.570963,-0.0022199999999999998,0.009299999999999975,-0.001006,0.001356818071171828,-0.00021608850790810763,0.00019102742865440003
1504198294.88,-1.0,-0.81523662115,0.32614956570000003,-1.1364044086499998,0.200845,0.210419,-0.038356,-0.39757139765,-9.79597055815,-0.22649438839999997,-1.052964,1.524121,2.600502,-0.0021899999999999975,0.009440000000000004,-0.001065,0.001084260502482115,-0.00012182784026215643,0.00028601996175736666
1504198294.89,-1.0,-0.67511920595,0.42870751139999996,-1.1458874391999998,0.224199,0.220841,0.002228,-0.39643382625,-9.7964706973,-0.20579255024999998,-1.091975,1.525233,2.641735,-0.0021899999999999975,0.009589999999999987,-0.001117,0.0006849486364712831,-0.0001920426903845307,0.0003564297993104981
1504198294.9,-1.0,-0.5138488467,0.46378589845,-1.1316089567999998,0.228415,0.23037,0.027836,-0.3981892166,-9.79683354335,-0.1843061801,-1.137301,1.526038,2.689399,-0.0022250000000000048,0.009815000000000018,-0.0011499999999999982,-7.044025781954844e-05,-0.0007431690529153823,0.00032610113171860355
