Time,placement_label,user_acc_x(m/s^2),user_acc_y(m/s^2),user_acc_z(m/s^2),rotation_rate_x(rad/s),rotation_rate_y(rad/s),rotation_rate_z(rad/s),gravity_x(m/s^2),gravity_y(m/s^2),gravity_z(m/s^2),attitude_roll(rad),attitude_pitch(rad),attitude_yaw(rad),target_delta_x,target_delta_y,target_delta_z,target_delta_roll,target_delta_pitch,target_delta_yaw
1504197113.96,-1.0,-0.063547092,-0.050406180999999994,0.012170052649999999,-0.003231,-0.020104,0.003828,-0.33763315285,-9.568603377899999,2.1209234220999997,-2.983727,1.35001,-0.934567,0.0,0.0,0.0,0.0,0.0,0.0
1504197113.97,-1.0,-0.07518758554999999,-0.0291257505,0.0083748791,0.003172,-0.02122,0.001708,-0.3387020777,-9.5684856981,2.1212764615,-2.983258,1.349956,-0.935243,-0.0005437051282051283,-0.00018001923076923078,3.2800000000000004e-05,0.007422293734948071,-0.004181554142681065,-0.004864180872460988
1504197113.98,-1.0,-0.08926993494999999,-0.008257199299999999,0.00944380395,-0.002125,-0.015849,0.002759,-0.34019268849999995,-9.5684072449,2.1213941412999997,-2.982583,1.349919,-0.936074,-0.0005437051282051283,-0.00018001923076923078,3.2800000000000004e-05,0.007476303831796982,-0.004163871591544632,-0.004917326250112541
1504197113.99,-1.0,-0.0899073672,-0.00960071035,0.020505705149999998,-0.008507,-0.011536,0.005945,-0.34194807884999995,-9.5684072449,2.1210999418,-2.981755,1.34992,-0.937013,-0.0005437051282051284,-0.00018001923076923078,3.28e-05,0.00753053176279439,-0.004145284408356487,-0.004970697406169844
1504197114.0,-1.0,-0.10237161935,-0.025722842949999998,0.030155448749999997,-0.009539,-0.007265,0.005939,-0.34415457509999997,-9.56843666485,2.1205899959999996,-2.980705,1.349936,-0.938131,-0.0005437051282051282,-0.00018001923076923078,3.280000000000001e-05,0.007584964571927255,-0.0041257796585003614,-0.005024281401169395
1504197114.01,-1.0,-0.1184251054,-0.023634026499999995,0.02005459925,-0.006273,0.000169,0.004867,-0.34665527085,-9.56843666485,2.1202075366499997,-2.979527,1.349933,-0.939313,-0.0005437051282051282,-0.00018001923076923078,3.280000000000001e-05,0.007639588701851552,-0.00410534461192813,-0.005078064694179263
1504197114.02,-1.0,-0.1180132261,-0.025595356499999996,0.02180018295,0.004476,0.007545,0.000606,-0.34900886685,-9.5682699518,2.12056057605,-2.978473,1.349857,-0.940287,-0.0005437051282051286,-0.00018001923076923078,3.2799999999999984e-05,0.007694389983499139,-0.0040839667631846766,-0.005132033132404956
1504197114.03,-1.0,-0.12229873214999999,-0.0374221764,0.020809711300000002,-0.006122,0.015095,-0.001557,-0.35130362295,-9.56826014515,2.1202075366499997,-2.977389,1.349854,-0.941219,-0.0005437051282051282,-0.00018001923076923078,3.280000000000001e-05,0.007749353626224864,-0.004061633851980773,-0.005186171941336193
1504197114.04,-1.0,-0.1002631896,-0.039648285949999994,0.005668243699999999,-0.003928,0.022537,-0.001563,-0.3532943729,-9.56827975845,2.1197858506999996,-2.976448,1.349864,-0.941936,-0.0005437051282051282,-0.00018001923076923078,3.280000000000001e-05,0.007804464208563844,-0.004038333884298639,-0.00524046571550385
1504197114.05,-1.0,-0.08713208525,-0.0263014353,0.0074138274,-0.003906,0.024669,-0.002632,-0.35504976325,-9.5683091784,2.1193935847,-2.975609,1.349874,-0.942531,-0.0005437051282051282,-0.00018001923076923078,3.2799999999999984e-05,0.00785970566964933,-0.004014055154017537,-0.005294898409896831
1504197114.06,-1.0,-0.0663321806,-0.00940457735,-0.0141804159,-0.004809,0.030024,-0.004766,-0.35639327429999995,-9.5684464715,2.1185305994999997,-2.974925,1.349939,-0.942909,-0.0005437051282051282,-0.00018001923076923078,3.280000000000004e-05,0.007915061301361992,-0.003988786265034072,-0.005349453332109011
1504197114.07,-1.0,-0.05045521425,-0.01515127425,-0.029557243100000002,-0.005852,0.031102,-0.00797,-0.35714838634999996,-9.56869163775,2.11730476825,-2.974483,1.350053,-0.943021,-0.0005437051282051282,-0.00018001923076923056,3.2799999999999984e-05,0.007970513741267893,-0.003962516153867446,-0.0054041131352797755
1504197114.08,-1.0,-0.03013583545,-0.02413416565,-0.027733206199999996,-0.009057,0.030064,-0.009041,-0.35742297255,-9.568985837249999,2.1159220306,-2.97425,1.35019,-0.942938,-0.000543705128205129,-0.000180019230769231,3.2799999999999984e-05,0.00802604496642012,-0.003935234112711239,-0.005458859811892758
1504197114.09,-1.0,-0.00979684335,-0.036755324199999995,-0.008227779349999999,-0.006972,0.024718,-0.00796,-0.35725625949999995,-9.5692310035,2.11483349245,-2.974242,1.350306,-0.942672,-0.0005437051282051282,-0.000180019230769231,3.280000000000004e-05,0.008081636288081673,-0.003906929812920179,-0.005513674688497172
1504197114.1,-1.0,0.00969877685,-0.03792231555,-0.00138273765,-0.004852,0.023634,-0.006887,-0.35685418685,-9.569407523199999,2.114117607,-2.974372,1.350387,-0.942301,-0.0005437051282051282,-0.00018001923076923056,3.2799999999999984e-05,0.008137268347446658,-0.0038775933288925923,-0.005568538421429903
1504197114.11,-1.0,0.0111403544,-0.03515684025,0.00812971285,-0.001663,0.021477,-0.007946,-0.3563540477,-9.569476169749999,2.1138822474,-2.974584,1.35042,-0.941856,-0.0005437051282051273,-0.00018001923076923056,3.2799999999999984e-05,0.008192921112427642,-0.003847215162320561,-0.0056234309936029625
1504197114.12,-1.0,0.0294591766,-0.036098278649999996,0.00552114395,-0.00273,0.021486,-0.007948,-0.35552048245,-9.56959384955,2.11349978805,-2.97494,1.350473,-0.941283,-0.000543705128205129,-0.000180019230769231,3.280000000000004e-05,0.008248573875579757,-0.003815786266768262,-0.005678331712422491
1504197114.13,-1.0,0.026193562150000002,-0.02776262615,0.011454167199999999,-0.004902,0.019368,-0.003679,-0.3550987965,-9.5697017227,2.1130977154,-2.975102,1.350522,-0.940935,-0.000543705128205129,-0.000180019230769231,3.280000000000004e-05,0.008304205253233277,-0.00378329807255251,-0.005733219208925888
1504197114.14,-1.0,0.0353823932,-0.01679879145,0.008786758399999999,-0.009189,0.018335,-0.001551,-0.35455943074999996,-9.569888049049998,2.1123327967,-2.975292,1.350611,-0.940572,-0.0005437051282051273,-0.00018001923076923056,3.279999999999993e-05,0.008359793185907072,-0.0037497425118659944,-0.005788071438193043
1504197114.15,-1.0,0.0341663686,-0.029625889649999997,0.01301342455,-0.009209,0.01514,-0.002614,-0.35408871155,-9.570074375399999,2.11153845805,-2.975447,1.3507,-0.940267,-0.000543705128205129,-0.00018001923076923056,3.280000000000004e-05,0.008415314940078189,-0.003715112044114788,-0.005842865681112697
1504197114.16,-1.0,0.0322442652,-0.0327934376,0.017416610399999997,-0.006089,0.00765,0.001673,-0.35381412534999995,-9.57020186185,2.11102851225,-2.975534,1.350757,-0.940101,-0.0005437051282051273,-0.000180019230769231,3.280000000000004e-05,0.008470747111375743,-0.003679399681415285,-0.00589757854757722
1504197114.17,-1.0,0.048140844849999996,-0.0385009079,0.01372931,-0.005123,-0.003017,0.004895,-0.35340224605,-9.5703293483,2.1105185664499997,-2.975682,1.350817,-0.939961,-0.000543705128205129,-0.000180019230769231,3.279999999999993e-05,0.008526065629270718,-0.003642599014198167,-0.005952185981174196
1504197114.18,-1.0,0.0529951366,-0.04310022674999999,0.01464132845,-0.006219,-0.00727,0.003831,-0.35286288029999996,-9.57051567465,2.1097634544,-2.975874,1.350904,-0.939828,-0.0005437051282051273,-0.00018001923076923013,3.280000000000004e-05,0.00858124576333441,-0.003604704236873646,-0.006006663265440304
1504197114.19,-1.0,0.05174969204999999,-0.048778277099999996,0.02005459925,-0.012673,-0.012547,0.005963,-0.35222544804999995,-9.57067258105,2.1091456354499996,-2.97612,1.350979,-0.939693,-0.000543705128205129,-0.000180019230769231,3.280000000000004e-05,0.008636262131135441,-0.0035657101734907215,-0.006060985031758337
1504197114.2,-1.0,0.058251501,-0.033117057049999996,0.02209438245,-0.012662,-0.012546,0.003827,-0.3513918828,-9.57092755395,2.1081453571499997,-2.97643,1.351096,-0.939516,-0.000543705128205129,-0.000180019230769231,3.279999999999993e-05,0.008691088707835082,-0.0035256123033384767,-0.0061151252689555236
1504197114.21,-1.0,0.04413973164999999,-0.013817569850000001,0.02888058425,-0.008375,-0.011513,0.001696,-0.35059754414999994,-9.57106484705,2.107645218,-2.976756,1.351161,-0.939341,-0.0005437051282051273,-0.000180019230769231,3.280000000000004e-05,0.008745698837554827,-0.003484406786421923,-0.006169057334665773
1504197114.22,-1.0,0.0282235387,0.0026576021499999996,0.035274520049999994,-0.006255,-0.014725,-0.00043,-0.34979339885,-9.57108446035,2.1076844446,-2.977129,1.351171,-0.939128,-0.000543705128205129,-0.000180019230769231,3.280000000000004e-05,0.008800065246572175,-0.0034420904887442205,-0.006222753968526895
1504197114.23,-1.0,0.007384407449999999,-0.0021182363999999996,0.030910560799999997,-0.004067,-0.009413,-0.002571,-0.34930306634999997,-9.571094267,2.10771386455,-2.977358,1.351177,-0.939,-0.0005437051282051273,-0.00018001923076923013,3.280000000000004e-05,0.008854160058403004,-0.00339866100733599,-0.006276187307262537
1504197114.24,-1.0,-0.015367020549999999,-0.014847268099999998,0.031116500449999997,-0.003003,-0.010486,-0.003634,-0.3489990602,-9.571094267,2.1078021243999996,-2.977507,1.351173,-0.93894,-0.000543705128205129,-0.000180019230769231,3.279999999999993e-05,0.00890795481083051,-0.0033541166949448975,-0.006329328901710118
1504197114.25,-1.0,-0.024565658249999997,-0.020564545049999997,0.03605905205,-0.004076,-0.009415,-0.000435,-0.3490775134,-9.5710550404,2.10794922415,-2.97748,1.351156,-0.939068,-0.000543705128205129,-0.000180019230769231,3.280000000000004e-05,0.008961420474919657,-0.003308456684320893,-0.006382149735835618
1504197114.26,-1.0,-0.01987807955,-0.013964669599999998,0.0348920607,0.000198,-0.007321,0.001704,-0.34927364639999997,-9.5709177473,2.10851800985,-2.977433,1.351094,-0.939203,-0.0005437051282051256,-0.00018001923076923013,3.279999999999993e-05,0.009014527476078116,-0.0032616809120189494,-0.006434620247790068
1504197114.27,-1.0,-0.023908612699999998,-0.0253403836,0.030175062049999996,-0.005163,-0.00941,0.003834,-0.34973455895,-9.5709177473,2.1084493632999997,-2.977217,1.351094,-0.939513,-0.000543705128205129,-0.000180019230769231,3.280000000000015e-05,0.009067245717184202,-0.0032137901416358083,-0.00648671035304349
1504197114.28,-1.0,-0.013905829699999999,-0.0383832281,0.0205547384,-0.001987,-0.010505,0.007044,-0.35031315129999996,-9.57088832735,2.1084885899,-2.976952,1.35108,-0.939882,-0.000543705128205129,-0.000180019230769231,3.279999999999993e-05,0.009119544603834129,-0.0031647859864005756,-0.006538389469624262
1504197114.29,-1.0,-0.010904994799999998,-0.0367945508,0.02011343915,-0.00092,-0.010514,0.007046,-0.35092116360000003,-9.570839294099999,2.1086258829999998,-2.976682,1.351055,-0.94027,-0.000543705128205129,-0.000180019230769231,3.279999999999993e-05,0.00917139307171888,-0.0031146709310385656,-0.006589626545502103
1504197114.3,-1.0,-0.0133174307,-0.038147868499999994,0.019985952699999997,-0.001953,-0.008371,0.003839,-0.35134284954999995,-9.570829487449998,2.1086062696999996,-2.976484,1.35105,-0.940565,-0.000543705128205129,-0.000180019230769231,3.280000000000015e-05,0.00922275961616359,-0.0030634483528135803,-0.006640390088120451
1504197114.31,-1.0,-0.0189464478,-0.0354216198,0.0101008495,-0.002986,-0.0041,0.00383,-0.3519998951,-9.570868714049999,2.1083120701999998,-2.976159,1.351068,-0.940949,-0.0005437051282051256,-0.00018001923076923013,3.279999999999993e-05,0.009273612323827507,-0.0030111225416795673,-0.006690648196101989
1504197114.32,-1.0,-0.0192014207,-0.02893942415,0.013964669599999998,-0.002941,0.000165,0.001688,-0.35250003425,-9.570907940649999,2.10804729065,-2.975911,1.351087,-0.941212,-0.000543705128205129,-0.000180019230769231,3.279999999999993e-05,0.00932391890658224,-0.0029576987194293025,-0.006740368593120216
1504197114.33,-1.0,-0.0341075287,-0.02276123465,0.01126784085,-0.003966,0.003373,-0.001521,-0.3530001734,-9.5709569739,2.10775309115,-2.975654,1.351109,-0.941445,-0.000543705128205129,-0.000180019230769231,3.280000000000015e-05,0.009373646737548147,-0.00290318305777415,-0.0067895186639423954
1504197114.34,-1.0,-0.029096330549999997,-0.035372586549999994,0.013778343249999998,-0.008211,0.005541,-0.002598,-0.35338263275,-9.57106484705,2.10718430545,-2.975435,1.351161,-0.941607,-0.000543705128205129,-0.00018001923076923013,3.279999999999993e-05,0.00942276288928734,-0.002847582695256312,-0.0068380654926141204
1504197114.35,-1.0,-0.0159456129,-0.0328915041,0.0315577997,-0.010358,0.004492,-0.001533,-0.3535101192,-9.571153106899999,2.1067626195,-2.975342,1.351203,-0.941658,-0.0005437051282051256,-0.000180019230769231,3.279999999999993e-05,0.009471234174114995,-0.0027909057528980874,-0.00688597590277551
1504197114.36,-1.0,-0.0048444850999999995,-0.030714427799999996,0.03672590425,-0.008246,0.002342,-0.000458,-0.35353953914999997,-9.5712315601,2.10638016015,-2.975302,1.351241,-0.941671,-0.000543705128205129,-0.000180019230769231,3.280000000000015e-05,0.009519027186506324,-0.002733161348517088,-0.006933216500066175
1504197114.37,-1.0,0.0127094184,-0.033126863699999995,0.025026570799999998,-0.008284,0.000207,0.003815,-0.35357876574999997,-9.571359046549999,2.10581137445,-2.975237,1.351299,-0.941736,-0.000543705128205129,-0.000180019230769231,3.279999999999993e-05,0.009566108347542901,-0.0026743596095979427,-0.006979753716571668
1504197114.38,-1.0,0.0155141203,-0.027811659399999997,0.020446865249999998,-0.005103,-0.003015,0.002759,-0.35353953914999997,-9.57143749975,2.10545833505,-2.975227,1.351336,-0.941789,-0.000543705128205129,-0.000180019230769231,3.279999999999993e-05,0.009612443951347638,-0.0026145116846592042,-0.007025553857254341
1504197114.39,-1.0,0.0192406473,-0.0142000292,0.01999575935,-0.002988,-0.0041,0.004899,-0.35352973249999997,-9.57143749975,2.10545833505,-2.975233,1.351336,-0.941839,-0.000543705128205129,-0.00018001923076923013,3.280000000000015e-05,0.009658000213436546,-0.002553629753003328,-0.007070583148310439
1504197114.4,-1.0,0.0216530832,-0.0224376152,0.01564160675,-0.001949,-0.006242,0.007038,-0.35369644555,-9.5714276931,2.1054681417,-2.975157,1.351332,-0.941991,-0.0005437051282051256,-0.00018001923076923013,3.279999999999993e-05,0.009702743320912033,-0.002491727032794877,-0.007114807787357291
1504197114.41,-1.0,0.02625240205,-0.029616082999999998,0.0234182802,-0.003018,-0.007298,0.00597,-0.35365721894999996,-9.5714276931,2.10547794835,-2.975177,1.351332,-0.942056,-0.000543705128205129,-0.00018001923076923186,3.279999999999993e-05,0.0097466394843998,-0.002428817787365478,-0.007158193995373763
1504197114.42,-1.0,0.024497011699999998,-0.02480101785,0.013817569850000001,0.000177,-0.007326,0.007042,-0.35369644555,-9.57145711305,2.1053504618999996,-2.975146,1.351345,-0.942172,-0.000543705128205129,-0.00018001923076923013,3.280000000000015e-05,0.009789654991628538,-0.002364917329683358,-0.007200708070277617
1504197114.43,-1.0,0.011395327299999999,-0.025203090499999997,0.01228773245,-0.010469,-0.005106,0.005952,-0.35391219185,-9.571506146299999,2.10508568235,-2.975027,1.351368,-0.942374,-0.000543705128205129,-0.00018001923076923186,3.279999999999993e-05,0.009831756262543845,-0.002300042024909521,-0.007242316442037655
1504197114.44,-1.0,-0.014317708999999998,-0.01958388005,0.01022833595,-0.006182,-0.004073,0.003824,-0.35453001079999996,-9.57159440615,2.10459534985,-2.974702,1.351408,-0.942744,-0.000543705128205129,-0.00018001923076923013,3.279999999999993e-05,0.009872909905816463,-0.002234209290972844,-0.007282985729185398
1504197114.45,-1.0,-0.02625240205,-0.02191786275,0.0059624432,-0.004021,-0.001957,0.00169,-0.35516744305,-9.57165324605,2.1042325038,-2.97438,1.351435,-0.943096,-0.0005437051282051256,-0.00018001923076923013,3.280000000000015e-05,0.00991308277661851,-0.0021674375971010296,-0.007322682796586211
1504197114.46,-1.0,-0.040472044549999996,-0.0034029075499999997,0.014258869099999998,-0.000778,0.001216,-0.001512,-0.35576564869999994,-9.571604212799999,2.1043109569999996,-2.974112,1.351416,-0.943354,-0.000543705128205129,-0.00018001923076923186,3.279999999999993e-05,0.009952242035511816,-0.0020997464602527938,-0.007361374814329968
1504197114.47,-1.0,-0.044659484099999994,-0.01630845895,0.03303860385,-0.003953,0.00444,-0.001522,-0.35637366099999995,-9.5715649862,2.1043894102,-2.973838,1.351397,-0.94359,-0.000543705128205129,-0.00018001923076923013,3.280000000000015e-05,0.009990355208290058,-0.0020311564393931114,-0.007399029317572303
1504197114.48,-1.0,-0.03660822445,-0.03696126385,0.04374746565,-0.008199,0.00767,-0.000466,-0.35694244669999997,-9.5715649862,2.1042913437,-2.973566,1.351397,-0.943796,-0.000543705128205129,-0.00018001923076923186,3.279999999999993e-05,0.01002739024660082,-0.001961689127571553,-0.007435614267156554
1504197114.49,-1.0,-0.038873560599999996,-0.0443652846,0.0466404274,-0.011376,0.009829,-0.001542,-0.3576681388,-9.57165324605,2.1038010112,-2.973191,1.351435,-0.944072,-0.0005437051282051256,-0.00018001923076923013,3.279999999999993e-05,0.010063315589173338,-0.0018913671417644107,-0.007471098110839236
1504197114.5,-1.0,-0.0346763144,-0.046130481599999995,0.04417895825,-0.006075,0.005523,-0.001524,-0.35826634445,-9.571672859349999,2.10357545825,-2.972897,1.351448,-0.944296,-0.000543705128205129,-0.00018001923076923013,3.280000000000015e-05,0.010098100223452366,-0.0018202141104417535,-0.007505449844924739
1504197114.51,-1.0,-0.014886494699999999,-0.0305182948,0.042080335149999995,-0.00716,0.004464,0.000611,-0.35860957720000003,-9.57173169925,2.1032714521,-2.972715,1.351473,-0.944428,-0.000543705128205129,-0.00018001923076923186,3.279999999999993e-05,0.010131713747449311,-0.0017482546588467596,-0.007538639076117404
1504197114.52,-1.0,-0.007462860649999999,-0.035784465849999995,0.02660544145,-0.000828,-0.000921,0.005969,-0.35914894295,-9.57169247265,2.10334009865,-2.972471,1.351457,-0.94467,-0.000543705128205129,-0.00018001923076923013,3.279999999999993e-05,0.010164126431595144,-0.0016755143919631177,-0.007570636083370275
1504197114.53,-1.0,-0.005295591,-0.04755244585,0.0427766073,-0.002988,-0.003037,0.008104,-0.3599628949,-9.571604212799999,2.1036244914999997,-2.972118,1.351413,-0.945047,-0.000543705128205129,-0.00018001923076923013,3.280000000000015e-05,0.010195309280389253,-0.0016020198751638404,-0.007601411879538222
1504197114.54,-1.0,0.013886216399999998,-0.056466690699999995,0.06467485675,-0.008329,-0.001931,0.011294,-0.36074742689999995,-9.57151595295,2.1038794644,-2.971777,1.351373,-0.945425,-0.000543705128205129,-0.00018001923076923186,3.279999999999993e-05,0.010225234093623192,-0.0015277986125494802,-0.007630938272597421
1504197114.55,-1.0,0.0369906838,-0.04851349755,0.08258179965,-0.014729,-0.004006,0.008083,-0.36080626679999994,-9.57153556625,2.1037813978999997,-2.971742,1.351382,-0.94551,-0.0005437051282051256,-0.00018001923076923013,3.279999999999993e-05,0.010253873526951784,-0.0014528790229744182,-0.007659187926217559
1504197114.56,-1.0,0.023379053599999998,-0.024349911949999997,0.08850501625,-0.018969,-0.000774,0.00807,-0.3611200796,-9.57161401945,2.1033891318999998,-2.971567,1.351417,-0.945728,-0.0005437051282051256,-0.00018001923076923013,3.279999999999993e-05,0.010281201151592756,-0.001377290413790977,-0.007686134419460755
1504197114.57,-1.0,-0.0017848103,-0.0070313680499999994,0.05500549985,-0.013606,0.001315,0.005941,-0.36168886529999994,-9.5717218926,2.10277131295,-2.971254,1.35147,-0.946038,-0.0005437051282051325,-0.00018001923076923186,3.279999999999993e-05,0.01030719151291637,-0.0013010629523380057,-0.007711752305373132
1504197114.58,-1.0,-0.007904159899999999,-0.0036676871,0.01899548105,-0.00398,0.000177,-0.000445,-0.3620026781,-9.57179053915,2.1024182735499997,-2.971082,1.351501,-0.946204,-0.0005437051282051256,-0.00018001923076923013,3.2800000000000364e-05,0.010331820187706453,-0.0012242276352039116,-0.007736017168239462
1504197114.59,-1.0,0.0018828768,0.0312439869,0.0207704847,0.000302,0.001208,-0.001507,-0.36191441825,-9.57169247265,2.1028889927499996,-2.971159,1.351454,-0.946115,-0.0005437051282051325,-0.00018001923076923186,3.279999999999993e-05,0.010355063839850243,-0.001146816255327865,-0.007758905679279948
1504197114.6,-1.0,0.006207609449999999,0.0563293976,0.033028797199999994,-0.006104,-0.000868,-0.003649,-0.36160060545,-9.571633632749998,2.1031929989,-2.971328,1.351428,-0.94594,-0.0005437051282051256,-0.00018001923076923013,3.279999999999993e-05,0.010376900274240985,-0.001068861366974927,-0.007780395650548
1504197114.61,-1.0,0.00116699135,0.03629441165,0.04341403955,-0.010438,-0.007229,-0.000443,-0.36149273229999995,-9.57165324605,2.103134159,-2.971371,1.351436,-0.945951,-0.0005437051282051256,-0.00018001923076923013,3.279999999999993e-05,0.01039730848866327,-0.0009903962486783602,-0.007800466086816282
1504197114.62,-1.0,-0.00665871535,0.0013337044,0.0130624578,-0.010462,-0.008298,0.002761,-0.36160060545,-9.571849379049999,2.1022123339,-2.971252,1.35153,-0.946157,-0.0005437051282051325,-0.00018001923076923186,3.279999999999993e-05,0.010416268723441147,-0.0009114548642006337,-0.007819097235223671
1504197114.63,-1.0,-0.011905273099999999,-0.0272036471,0.00314793465,-0.000891,-0.011575,0.003851,-0.36189480495,-9.5718984123,2.1019573609999997,-2.971096,1.35155,-0.946414,-0.0005437051282051256,-0.00018001923076923013,3.2800000000000364e-05,0.0104337625086377,-0.0008320718216137113,-0.007836270632475939
1504197114.64,-1.0,-0.009914523149999998,-0.0491705431,0.0008041452999999999,-0.000905,-0.012641,0.004921,-0.36223803769999996,-9.57192783225,2.10175142135,-2.970919,1.351565,-0.946721,-0.0005437051282051325,-0.00018001923076923186,3.279999999999993e-05,0.010449772708602034,-0.0007522823305847748,-0.007851969149391902
1504197114.65,-1.0,-0.014523648649999998,-0.06263507355,0.02025073225,-0.005183,-0.012608,0.007048,-0.36285585665,-9.5719376389,2.1016043216,-2.97062,1.351569,-0.947152,-0.0005437051282051256,-0.00018001923076923013,3.279999999999993e-05,0.01046428356365997,-0.0006721221579797376,-0.00786617703259318
1504197114.66,-1.0,-0.01154242705,-0.069627215,0.0467188806,-0.010488,-0.008303,0.008099,-0.3635913554,-9.57196705885,2.1013297354,-2.970259,1.351585,-0.947617,-0.0005437051282051256,-0.00018001923076923013,3.279999999999993e-05,0.010477280728770633,-0.0005916275818835803,-0.007878879943161277
1504197114.67,-1.0,-0.006286062649999999,-0.06777375814999999,0.058947773149999994,-0.012552,0.000239,0.008081,-0.36436608075,-9.572025898749999,2.1009276627499998,-2.969868,1.351613,-0.948027,-0.0005437051282051325,-0.00018001923076923186,3.279999999999993e-05,0.01048875130896848,-0.0005108353441631852,-0.007890064992078782
1504197114.68,-1.0,-0.016337878899999998,-0.05296571665,0.044208378199999995,-0.012478,0.008764,0.006999,-0.36538597235,-9.5721729985,2.10010390415,-2.969331,1.351679,-0.948501,-0.0005437051282051256,-0.00018001923076923013,3.279999999999993e-05,0.01049868389143127,-0.0004297826017014561,-0.00789972077229728
1504197114.69,-1.0,-0.02689964095,-0.02897865075,0.03541181315,-0.013499,0.013038,0.004856,-0.36679812994999994,-9.57222203175,2.09961357165,-2.968642,1.351704,-0.949084,-0.0005437051282051325,-0.00018001923076923013,3.2800000000000364e-05,0.01050706857402528,-0.00034850687642418166,-0.007907837387281846
1504197114.7,-1.0,-0.0259287826,-0.02870406455,0.0368141641,-0.013492,0.015167,0.006987,-0.3677689883,-9.57249661795,2.09822102735,-2.968078,1.35183,-0.949512,-0.0005437051282051256,-0.00018001923076923186,3.279999999999993e-05,0.010513896990197114,-0.00026704600427440717,-0.007914406475903357
1504197114.71,-1.0,-0.0307732677,-0.01215043935,0.018593408399999997,-0.01772,0.019465,0.005905,-0.3692007592,-9.5727417842,2.0968382897,-2.967302,1.351947,-0.950107,-0.0005437051282051256,-0.00018001923076923013,3.279999999999993e-05,0.010519162330094312,-0.00018543808325954814,-0.007919421233557378
1504197114.72,-1.0,-0.0248108245,0.0007256920999999999,0.0054426907500000005,-0.016644,0.020522,0.005906,-0.37068156334999997,-9.57304579035,2.0951711592,-2.966482,1.352091,-0.950732,-0.0005437051282051325,-0.00018001923076923013,3.279999999999993e-05,0.010522859357813885,-0.00010372142074044355,-0.00792287642941547
1504197114.73,-1.0,-0.01893664115,-0.0127682583,0.01197391965,-0.014536,0.017308,0.005916,-0.37191720125,-9.5733105699,2.09372958165,-2.965794,1.352217,-0.951242,-0.0005437051282051256,-0.00018001923076923186,3.279999999999993e-05,0.010524984424704786,-2.1934480093577235e-05,-0.007924768419723005
1504197114.74,-1.0,-0.00722750105,-0.02303582085,0.00530539765,-0.010227,0.020473,0.002716,-0.37285863965,-9.573526316199999,2.09261162355,-2.965265,1.352315,-0.951582,-0.0005437051282051256,-0.00018001923076923013,3.279999999999993e-05,0.01052553547864954,5.988417307611904e-05,-0.007925095157085282
1504197114.75,-1.0,-0.0079237732,-0.021721729749999998,0.0196525266,-0.009174,0.019397,0.003787,-0.37380007805,-9.573643996,2.09188593145,-2.964769,1.352372,-0.951894,-0.0005437051282051325,-0.00018001923076923186,3.2800000000000364e-05,0.01052451206929339,0.0001416959250339911,-0.007923856195690915
1504197114.76,-1.0,-0.00869849855,-0.0331857036,0.02362421985,-0.004928,0.01723,0.004866,-0.3746728698999999,-9.57369302925,2.0915034721,-2.964333,1.352395,-0.952157,-0.0005437051282051256,-0.00018001923076923013,3.279999999999993e-05,0.010521915349185229,0.00022346216814828068,-0.007921052692459352
1504197114.77,-1.0,-0.0041776329,-0.030841914249999994,0.03390158905,-0.001722,0.017205,0.003804,-0.3754574019,-9.57365380265,2.0915525053499997,-2.963975,1.352375,-0.952348,-0.0005437051282051325,-0.00018001923076923013,3.279999999999993e-05,0.010517748070833721,0.0003051443551120858,-0.007916687404090572
1504197114.78,-1.0,0.007178467799999999,-0.0241635856,0.0240459058,-0.001709,0.019335,0.004868,-0.37618309399999994,-9.573594962749999,2.0916799918,-2.963645,1.352349,-0.952497,-0.0005437051282051256,-0.00018001923076923186,3.279999999999993e-05,0.010512014579687423,0.000386704052976361,-0.007910764680048255
1504197114.79,-1.0,0.03188141915,-0.035892338999999995,0.0106696352,-0.005978,0.017242,0.001661,-0.3762027073,-9.5736832226,2.0912877258,-2.963607,1.352389,-0.952372,-0.0005437051282051256,-0.00018001923076923013,3.279999999999993e-05,0.010504720803072187,0.00046810299685806633,-0.007903290451496403
1504197114.8,-1.0,0.05708450965,-0.029674922899999998,0.015376827199999998,-0.012396,0.015163,0.001652,-0.37566334155,-9.573908775549999,2.0903266741,-2.963777,1.352498,-0.952054,-0.0005437051282051325,-0.00018001923076923186,3.279999999999993e-05,0.010495874235142089,0.000549303143138502,-0.007894272216249387
1504197114.81,-1.0,0.0691172692,-0.0234967334,0.01595541955,-0.0178,0.007746,0.003788,-0.37497687604999996,-9.574261814949999,2.0888458699499997,-2.96397,1.352663,-0.951788,-0.0005437051282051256,-0.00018001923076923013,3.2800000000000364e-05,0.010485483917910599,0.0006302667220197122,-0.00788371901980478
1504197114.82,-1.0,0.0697252815,-0.0352843267,-0.01266038515,-0.017883,-0.001845,0.004871,-0.3742413773,-9.574742340799999,2.08678647345,-2.964142,1.352888,-0.95164,-0.0005437051282051325,-0.00018001923076923013,3.279999999999993e-05,0.010473560418456263,0.000710956289276421,-0.00787164143254615
1504197114.83,-1.0,0.07623689709999999,-0.03703971705,-0.03896182045,-0.013658,-0.00508,0.008084,-0.37356471845,-9.575232673299999,2.0846584303999998,-2.964276,1.353119,-0.95157,-0.0005437051282051256,-0.00018001923076923013,3.279999999999993e-05,0.010460115802402248,0.0007913347770531765,-0.007858051523224052
1504197114.84,-1.0,0.0699214145,-0.039216793349999994,-0.023732092999999996,-0.011565,-0.009362,0.00916,-0.3730841926,-9.57559551935,2.0830501397999996,-2.964367,1.353294,-0.95158,-0.0005437051282051256,-0.00018001923076923013,3.279999999999993e-05,0.010445163603803098,0.0008713655435728107,-0.007842962828842892
1504197114.85,-1.0,0.057525808899999996,-0.0390696936,-0.00565843705,-0.011567,-0.008298,0.011291,-0.3729665128,-9.57588971885,2.08172624205,-2.964313,1.353431,-0.951736,-0.0005437051282051325,-0.0001800192307692336,3.279999999999993e-05,0.010428718791568037,0.0009510124216169924,-0.00782639032108412
1504197114.86,-1.0,0.04190381545,-0.02272200805,-0.012395605599999998,-0.014767,-0.006144,0.014483,-0.37334897214999996,-9.5762329516,2.0800885315,-2.963996,1.353593,-0.952144,-0.0005437051282051256,-0.00018001923076923013,3.279999999999993e-05,0.010410797732583021,0.0010302397656356543,-0.007808350369425843
1504197114.87,-1.0,0.009934136449999999,-0.022555295,-0.00983606995,-0.014756,-0.004014,0.015547,-0.3745944167,-9.5765467644,2.07843120765,-2.963275,1.353741,-0.952926,-0.0005437051282051325,-0.00018001923076923013,3.2800000000000364e-05,0.010391418151692422,0.0011090124973816007,-0.007788860701128053
1504197114.88,-1.0,-0.0154160538,-0.0233202137,-0.029312076849999997,-0.009423,-0.004058,0.015556,-0.37633019375,-9.57683115725,2.0768033037499998,-2.96233,1.353875,-0.953926,-0.0005437051282051256,-0.00018001923076923013,3.279999999999993e-05,0.010370599088726729,0.0011872961499388435,-0.0077679403582574524
1504197114.89,-1.0,-0.025556129899999995,-0.014837461449999999,-0.0111207411,-0.005153,-0.003029,0.01663,-0.37832094369999997,-9.57692922375,2.0759697385,-2.961334,1.353923,-0.954966,-0.0005437051282051256,-0.00018001923076923013,3.279999999999993e-05,0.010348360852760252,0.001265056910037643,-0.007745609651945373
1504197114.9,-1.0,-0.02737036015,-0.00946341725,-0.0112776475,0.001262,-0.002015,0.015573,-0.3802430471,-9.5769194171,2.0756755389999997,-2.96041,1.353918,-0.955926,-0.0005437051282051325,-0.0001800192307692336,3.279999999999993e-05,0.010324724973807764,0.0013422616585614389,-0.007721890114085528
1504197114.91,-1.0,-0.02678196115,-0.0172204774,-0.01611232595,-0.000834,0.000139,0.011297,-0.38188075765,-9.5769390304,2.07527346635,-2.959614,1.353929,-0.956739,-0.0005437051282051256,-0.00018001923076923013,3.279999999999993e-05,0.010299714152160244,0.0014188780091486386,-0.00769680444666998
1504197114.92,-1.0,-0.026909447599999997,-0.027252680349999996,-0.0043345393,-0.000824,0.000141,0.009163,-0.3832438819999999,-9.5769390304,2.07501849345,-2.958956,1.353928,-0.957412,-0.0005437051282051325,-0.00018001923076923013,3.279999999999993e-05,0.01027335220558756,0.0014948743448077728,-0.007670376468988049
1504197114.93,-1.0,-0.0070019481,-0.026742734549999998,-0.0091397978,-0.001894,-0.000915,0.008095,-0.38415590045,-9.5769978703,2.0745968075,-2.958496,1.353955,-0.957872,-0.0005437051282051256,-0.00018001923076923013,3.2800000000000364e-05,0.010245664014616018,0.0015702198524720767,-0.007642631062909189
1504197114.94,-1.0,0.0136508568,-0.031293020149999996,-0.0102773692,-0.001883,0.001215,0.009159,-0.38475410609999994,-9.577086130149999,2.0740770550499996,-2.95817,1.353997,-0.958203,-0.0005437051282051256,-0.00018001923076923013,3.279999999999993e-05,0.010216675466119485,0.0016448845554279945,-0.0076135941164696685
1504197114.95,-1.0,0.00858081875,-0.01652420525,-0.01654381855,-0.002945,0.001225,0.008089,-0.38536211839999995,-9.577194003299999,2.0734592361,-2.957834,1.354048,-0.958537,-0.0005437051282051325,-0.0001800192307692336,3.279999999999993e-05,0.010186413395444127,0.0017188393435643157,-0.007583292465999314
1504197114.96,-1.0,0.00805125965,-0.00010787314999999999,-0.019377940399999998,-0.002962,-0.000906,0.008093,-0.3860289706,-9.577301876449999,2.0728512238,-2.957469,1.354098,-0.958904,-0.0005437051282051256,-0.00018001923076923013,3.279999999999993e-05,0.010154905527301694,0.0017920560013979792,-0.007551753837015229
1504197114.97,-1.0,0.007590347099999999,-0.00367749375,-0.0077864801,0.000241,0.000132,0.009164,-0.38677427600000003,-9.5773116831,2.0726354775,-2.957104,1.354106,-0.95929,-0.0005437051282051256,-0.00018001923076923013,3.279999999999993e-05,0.010122180415657267,0.0018645072338312474,-0.007519006784106885
1504197114.98,-1.0,0.00965955025,-0.0029616083000000002,-0.009992976349999998,0.001263,-0.004141,0.011308,-0.38764706784999997,-9.5772920698,2.0725962508999998,-2.956694,1.354093,-0.959743,-0.0005437051282051325,-0.00018001923076923013,3.2800000000000364e-05,0.010088267382841631,0.0019361666896302587,-0.007485080630051377
1504197114.99,-1.0,0.00932612415,-0.01797558945,-0.00152003075,0.001246,-0.006272,0.011311,-0.38851005304999997,-9.57724303655,2.0726550908,-2.956297,1.35407,-0.960212,-0.0005437051282051256,-0.00018001923076923013,3.279999999999993e-05,0.010053196458115754,0.0020070089825918735,-0.007450005404377014
1504197115.0,-1.0,0.015651413399999998,-0.038226321699999996,0.00226533615,0.002299,-0.007347,0.012382,-0.38929458505000003,-9.57718419665,2.07276296395,-2.955941,1.354045,-0.960646,-0.0005437051282051325,-0.0001800192307692336,3.279999999999993e-05,0.01001699831590308,0.002077009710395261,-0.0074138117815936155
1504197115.01,-1.0,0.03762811605,-0.05686876335,0.0101596894,0.003345,-0.010552,0.011321,-0.38956917125,-9.57710574345,2.07309639005,-2.955841,1.354005,-0.960861,-0.0005437051282051256,-0.00018001923076923013,3.279999999999993e-05,0.009979704213912699,0.0021461454711475536,-0.007376531019318788
1504197115.02,-1.0,0.03890298055,-0.06516518924999999,0.01107170785,0.00225,-0.012676,0.013456,-0.38979472419999994,-9.5770370969,2.0733807828999997,-2.95576,1.353972,-0.961094,-0.0005437051282051256,-0.00018001923076923013,3.279999999999993e-05,0.00994134593135887,0.0022143938776229,-0.007338194896496564
1504197115.03,-1.0,0.0272428737,-0.051053419899999994,0.012013146249999999,0.002227,-0.016936,0.011328,-0.390108537,-9.57692922375,2.0737828555499997,-2.95565,1.353924,-0.961386,-0.0005437051282051325,-0.00018001923076923013,3.279999999999993e-05,0.009901955707483312,0.002281733569213351,-0.007298835651917024
1504197115.04,-1.0,0.0266348614,-0.03880491404999999,-0.00196133,0.000107,-0.015852,0.010254,-0.39040273649999996,-9.57690961045,2.0738515020999997,-2.95552,1.353912,-0.961691,-0.0005437051282051256,-0.00018001923076923013,3.2800000000000364e-05,0.00986156618057088,0.0023481442216242154,-0.007258485923235525
1504197115.05,-1.0,0.02882174435,-0.03168528615,-0.02201592925,-0.000944,-0.013713,0.010248,-0.39064790275,-9.5769978703,2.0734003962,-2.955367,1.353953,-0.962002,-0.0005437051282051325,-0.00018001923076923013,3.279999999999993e-05,0.00982021032765068,0.0024136065543411966,-0.007217178686672265
1504197115.06,-1.0,0.024869664399999998,-0.011513007099999998,-0.02197670265,-0.001908,-0.01369,0.011323,-0.3910303621,-9.577115550099998,2.07276296395,-2.955131,1.354011,-0.962392,-0.0005437051282051256,-0.0001800192307692336,3.279999999999993e-05,0.009777921405052958,0.002478102335911503,-0.007174947197569392
1504197115.07,-1.0,0.02211399575,0.00185345685,-0.01267999845,-0.003003,-0.015814,0.013459,-0.39156972785,-9.57716458335,2.0724393445,-2.954851,1.354034,-0.962854,-0.0005437051282051256,-0.00018001923076923013,3.279999999999993e-05,0.00973473288999449,0.002541614387083113,-0.00713182493197595
1504197115.08,-1.0,0.01309187775,0.0051190713,-0.0057074703,0.000165,-0.017975,0.016671,-0.39257000614999993,-9.57714497005,2.07235108465,-2.954378,1.354024,-0.963515,-0.0005437051282051325,-0.00018001923076923013,3.279999999999993e-05,0.009690678423341259,0.0026041265818650405,-0.007087845529412329
1504197115.09,-1.0,-0.00457970555,-0.00901231135,-0.007678606949999999,0.002282,-0.017995,0.019877,-0.39406061695,-9.577076323499998,2.0723805046,-2.953689,1.353992,-0.964397,-0.0005437051282051256,-0.00018001923076923013,3.279999999999993e-05,0.009645791753701172,0.0026656238465507798,-0.007043042736959881
1504197115.1,-1.0,-0.01422944915,-0.02705654735,0.0008041452999999999,0.001213,-0.016923,0.022008,-0.39592388045,-9.576988063649999,2.0724295378499997,-2.952824,1.35395,-0.965445,-0.0005437051282051325,-0.00018001923076923013,3.2800000000000364e-05,0.00960010668297051,0.0027260921567855423,-0.006997450354811363
1504197115.11,-1.0,-0.01230734575,-0.0435219127,0.014043122799999998,0.002277,-0.017996,0.020945,-0.3976988841,-9.57683115725,2.07280219055,-2.95203,1.353877,-0.966443,-0.0005437051282051256,-0.0001800192307692336,3.279999999999993e-05,0.009553657013466,0.0027855185327394505,-0.006951102183399893
1504197115.12,-1.0,-0.006805815099999999,-0.03468612105,0.0065312289,0.003344,-0.018005,0.020947,-0.3994640811,-9.5766840575,2.07312581,-2.951239,1.353809,-0.96743,-0.0005437051282051325,-0.00018001923076923013,3.279999999999993e-05,0.009506476496745075,0.002843891032452417,-0.006904031972220337
1504197115.13,-1.0,-0.02740958675,-0.03590214565,-0.01581812645,0.007684,-0.009515,0.019873,-0.4016019308,-9.57651734445,2.07348865605,-2.950278,1.35373,-0.968521,-0.0005437051282051186,-0.00018001923076923013,3.279999999999993e-05,0.009458598784212957,0.0029011987434428566,-0.006856273370437926
1504197115.14,-1.0,-0.04413973164999999,-0.035588332849999994,-0.033666229449999995,0.009926,0.002192,0.016655,-0.40402417334999996,-9.57638005135,2.0736749824,-2.949168,1.353662,-0.969653,-0.0005437051282051325,-0.00018001923076923013,3.279999999999993e-05,0.009410057379609316,0.0029574317726441812,-0.006807859879373379
1504197115.15,-1.0,-0.05949694555,-0.03337202995,-0.0093359308,0.005719,0.006495,0.011305,-0.40631892945,-9.576203531649998,2.07403782845,-2.948134,1.353579,-0.970639,-0.0005437051282051325,-0.00018001923076923013,3.279999999999993e-05,0.009360885593440949,0.003012581234763445,-0.00675882480693446
1504197115.16,-1.0,-0.0631744393,-0.03554910625,0.029155170449999997,-0.006968,0.018326,0.006994,-0.40848619909999995,-9.576115271799999,2.07399860185,-2.947126,1.353539,-0.971511,-0.0005437051282051186,-0.00018001923076923013,3.279999999999993e-05,0.00931111649942895,0.0030666392391398567,-0.00670920122406804
1504197115.17,-1.0,-0.08003207065,-0.037706569249999995,0.025075604049999995,-0.01121,0.019431,0.003785,-0.41063385545,-9.576213338299999,2.07313561665,-2.946051,1.353584,-0.97239,-0.0005437051282051325,-0.0001800192307692336,3.2800000000000364e-05,0.00926078289302179,0.003119598875189089,-0.006659021923267172
1504197115.18,-1.0,-0.08866192265,-0.03486264075,-0.014778621550000001,-0.003734,0.020435,0.003798,-0.41292861154999994,-9.57636043805,2.07199804525,-2.944882,1.353654,-0.973337,-0.0005437051282051325,-0.00018001923076923013,3.2799999999999496e-05,0.009209917252012811,0.0031714541965284226,-0.006608319379193706
1504197115.19,-1.0,-0.05292649005,-0.044845810449999995,-0.0561528779,0.010099,0.016059,0.003832,-0.41454670879999994,-9.5764094713,2.0714684861499997,-2.944081,1.353675,-0.973952,-0.0005437051282051325,-0.00018001923076923013,3.2800000000000364e-05,0.00915855169929869,0.003222200203860437,-0.006557125711434297
1504197115.2,-1.0,-0.00893385815,-0.0018240368999999999,-0.0408741172,0.016454,0.011742,0.005985,-0.41543911394999994,-9.576174111699999,2.07235108465,-2.943747,1.353567,-0.974161,-0.0005437051282051186,-0.00018001923076923013,3.2800000000000364e-05,0.0091067179677905,0.00327183282671184,-0.006505472649412369
1504197115.21,-1.0,0.0263210486,0.037186816799999994,-0.0066096821,0.014225,0.001102,0.008134,-0.41583137995,-9.575830878949999,2.0738613087499997,-2.943708,1.353404,-0.974178,-0.0005437051282051325,-0.00018001923076923013,3.2799999999999496e-05,0.009054447367498386,0.003320348904111148,-0.0064533914994729935
1504197115.22,-1.0,0.040893730499999996,0.020927391099999998,-0.0033832942499999997,0.007798,-0.002042,0.008128,-0.41588041319999997,-9.57559551935,2.0749596535499997,-2.943785,1.35329,-0.974141,-0.0005437051282051325,-0.0001800192307692336,3.2800000000000364e-05,0.009001770754784366,0.0033677461642973583,-0.006400913114135709
1504197115.23,-1.0,0.0310282406,0.0037853669,-0.0195544601,0.015215,-0.008496,0.008151,-0.41604712624999995,-9.5753503531,2.07601877175,-2.943806,1.353178,-0.974205,-0.0005437051282051186,-0.00018001923076923013,3.2799999999999496e-05,0.008948718503778652,0.0034140232035442253,-0.006348067863510831
1504197115.24,-1.0,0.015249340749999998,0.00630567595,-0.0281450855,0.019433,-0.01386,0.009235,-0.4164295856,-9.5750365403,2.0774309293499997,-2.943761,1.353026,-0.974385,-0.0005437051282051325,-0.00018001923076923013,3.2800000000000364e-05,0.008895320479944568,0.003459179464183837,-0.006294885608866152
1504197115.25,-1.0,-0.00638412915,-0.0037755602499999997,-0.03229329845,0.027964,-0.014995,0.008184,-0.41694933804999995,-9.574536401149999,2.0796374256,-2.943726,1.35279,-0.974581,-0.0005437051282051325,-0.00018001923076923013,3.2800000000000364e-05,0.008841606015770997,0.003503215211921429,-0.006241395678316941
1504197115.26,-1.0,-0.03909911355,-0.0224768418,-0.04576763555,0.025838,-0.013912,0.00818,-0.4181947826,-9.574085295249999,2.08143204255,-2.943316,1.35258,-0.975131,-0.0005437051282051186,-0.00018001923076923013,3.2799999999999496e-05,0.008787603888560147,0.003546131512518036,-0.006187626844615046
1504197115.27,-1.0,-0.055829258449999995,-0.030586941349999997,-0.0292826569,0.023734,-0.010696,0.007105,-0.4195677136,-9.5736047694,2.0833639525999996,-2.942861,1.352354,-0.975695,-0.0005437051282051325,-0.0001800192307692336,3.2800000000000364e-05,0.008733342300272229,0.0035879302079255826,-0.006133607304996014
1504197115.28,-1.0,-0.04606183504999999,-0.021525596749999997,-0.025526709949999997,0.019533,-0.004264,0.003885,-0.42065625175,-9.5732321167,2.08484475675,-2.942497,1.35218,-0.976103,-0.0005437051282051325,-0.00018001923076923013,3.2799999999999496e-05,0.008678848859396293,0.0036286138919494615,-0.006079364663046483
1504197115.29,-1.0,-0.05687856999999999,-0.01636729885,-0.022064962499999997,0.01853,0.003205,0.002805,-0.42196053619999996,-9.572859464,2.0863157542499997,-2.942033,1.352002,-0.976544,-0.0005437051282051186,-0.00018001923076923013,3.2800000000000364e-05,0.008624150564783495,0.0036681858855216465,-0.006024925912539558
1504197115.3,-1.0,-0.059791145049999994,-0.0279881791,-0.026526988249999998,0.023891,0.005295,0.000677,-0.42308830095,-9.57245739135,2.0879338515,-2.941665,1.351814,-0.976842,-0.0005437051282051325,-0.00018001923076923013,3.2800000000000364e-05,0.00856927379140382,0.0037066502116500644,-0.0059703174231932055
1504197115.31,-1.0,-0.057202189449999996,-0.015661220049999997,-0.020407638649999997,0.030328,0.008441,-0.001451,-0.424039546,-9.5719180256,2.0901893809999996,-2.94144,1.351562,-0.976963,-0.0005437051282051325,-0.00018001923076923013,3.2799999999999496e-05,0.008514244277967542,0.003744011570126826,-0.005915564928287598
1504197115.32,-1.0,-0.04884692365,-0.0203193788,-0.0145334553,0.031372,0.0063,-0.000376,-0.42491233785,-9.57130020665,2.0928567898,-2.941287,1.351272,-0.97703,-0.0005437051282051325,-0.0001800192307692336,3.2800000000000364e-05,0.00845908711634169,0.0037802753120455,-0.005860693514088355
1504197115.33,-1.0,-0.05427980775,-0.02893942415,-0.0122386992,0.035603,0.003067,0.001773,-0.42605971589999997,-9.5706039345,2.09578897815,-2.941033,1.350947,-0.977232,-0.0005437051282051186,-0.00018001923076923013,3.2799999999999496e-05,0.008403826742715781,0.0038154474142175765,-0.005805727611005618
1504197115.34,-1.0,-0.0534070159,-0.03725546335,-0.014945334599999999,0.032402,0.003094,0.001769,-0.42722670724999995,-9.569927275649999,2.09865251995,-2.940764,1.35063,-0.977455,-0.0005437051282051325,-0.00018001923076923013,3.2800000000000364e-05,0.00834848693043555,0.0038495344535280918,-0.0057506909864327715
1504197115.35,-1.0,-0.046875787,-0.04109967015,-0.010875574849999998,0.03348,0.005215,0.002836,-0.4283740853,-9.5692310035,2.10161412825,-2.940518,1.350302,-0.977641,-0.0005437051282051325,-0.00018001923076923013,3.2799999999999496e-05,0.008293090784443402,0.003882543581300135,-0.005695606739186454
1504197115.36,-1.0,-0.03066539455,-0.032038325549999996,-0.00089240515,0.030319,0.009505,0.001756,-0.42916842395,-9.568554344649998,2.10449728335,-2.940423,1.34999,-0.97764,-0.0005437051282051186,-0.00018001923076923013,3.2800000000000364e-05,0.008237660737257846,0.003914482497727967,-0.005640497295484326
1504197115.37,-1.0,-0.0363826715,-0.021525596749999997,0.00252030905,0.03142,0.013759,0.001752,-0.43018831555000003,-9.56784826585,2.1075177315499998,-2.940238,1.34966,-0.977696,-0.0005437051282051325,-0.00018001923076923013,3.2800000000000364e-05,0.008182218546417763,0.0039453594264236,-0.005585384406391447
1504197115.38,-1.0,-0.04127618985,-0.022045349199999998,-0.010944221399999999,0.032505,0.014818,-0.000382,-0.43112975394999997,-9.56718141365,2.1103616600499997,-2.940072,1.349349,-0.977708,-0.0005437051282051325,-0.0001800192307692336,3.2799999999999496e-05,0.008126785293318672,0.003975183089129919,-0.00553028914665632
1504197115.39,-1.0,-0.029272850249999996,-0.02395764595,-0.034597861199999996,0.031448,0.014829,-0.002518,-0.43175737954999993,-9.5666224346,2.1127642893,-2.94001,1.34909,-0.977623,-0.0005437051282051186,-0.00018001923076923013,3.2800000000000364e-05,0.008071381383373044,0.004003962680649398,-0.005475231914872536
1504197115.4,-1.0,-0.026164142199999997,-0.0322246519,-0.05162220559999999,0.032441,0.008423,0.001765,-0.432473265,-9.5661321021,2.1148236858,-2.939878,1.348864,-0.977642,-0.0005437051282051325,-0.00018001923076923013,3.2799999999999496e-05,0.008016026547421617,0.004031707844031285,-0.005420232434888095
1504197115.41,-1.0,-0.027350746849999996,-0.024850051099999996,-0.0424824078,0.034587,0.009472,0.000701,-0.4332381837,-9.56557312305,2.11720670175,-2.939752,1.348604,-0.977665,-0.0005437051282051325,-0.00018001923076923013,3.2800000000000364e-05,0.007960739844316445,0.004058428646052548,-0.005365309758389891
1504197115.42,-1.0,-0.029674922899999998,-0.02442836515,-0.0447967772,0.036701,0.008387,0.002842,-0.4341992354,-9.56494549745,2.1198250773,-2.939559,1.348316,-0.977757,-0.0005437051282051325,-0.00018001923076923013,3.2800000000000364e-05,0.00790553966461549,0.004084135553039658,-0.005310482268601646
1504197115.43,-1.0,-0.0373437232,-0.01501398115,-0.030979207349999996,0.040964,0.007288,0.001785,-0.43520932035,-9.56418057875,2.1230612717999997,-2.939401,1.347963,-0.977827,-0.0005437051282051186,-0.0001800192307692336,3.2799999999999496e-05,0.007850443735309076,0.004108839407055198,-0.005255767685004686
1504197115.44,-1.0,-0.02582090945,-0.0020005566,-0.02205515585,0.045247,0.007256,-0.001409,-0.43566042624999995,-9.5632881736,2.12701335175,-2.939564,1.347549,-0.977579,-0.0005437051282051325,-0.00018001923076923013,3.2800000000000364e-05,0.007795469125511323,0.004132551402490581,-0.005201183069035498
1504197115.45,-1.0,-0.0008335652500000001,0.00067665885,-0.019927112799999997,0.046338,0.008316,-0.004611,-0.43551332649999996,-9.5623663485,2.1311615647,-2.940013,1.347127,-0.977032,-0.0005437051282051325,-0.00018001923076923013,3.2799999999999496e-05,0.007740632253049551,0.0041552830630857684,-0.005146744830672345
1504197115.46,-1.0,0.011483587149999998,-0.0052857843499999994,-0.0109638347,0.044237,0.010468,-0.007821,-0.4348072477,-9.56149355665,2.1352215178,-2.940705,1.346725,-0.976208,-0.0005437051282051186,-0.00018001923076923013,3.2800000000000364e-05,0.0076859488918810115,0.004177046219403735,-0.005092468735852562
1504197115.47,-1.0,0.01173856005,-0.01927006725,-0.0081983594,0.041005,0.007297,-0.006754,-0.43402271569999995,-9.560679604699999,2.13903630465,-2.941406,1.346351,-0.97543,-0.0005437051282051325,-0.00018001923076923013,3.2799999999999496e-05,0.007631434180273233,0.004197852986790318,-0.0050383699146553385
1504197115.48,-1.0,0.0244185585,-0.025811102799999996,0.008041452999999999,0.040938,0.0009,-0.003541,-0.43322837705,-9.55982642615,2.14299819125,-2.94212,1.345961,-0.974688,-0.0005437051282051325,-0.00018001923076923013,3.2800000000000364e-05,0.007577102629688026,0.004217715743826123,-0.004984462870184281
1504197115.49,-1.0,0.023124080699999997,-0.041207543299999996,0.011503200449999999,0.040914,-0.000169,-0.000338,-0.43267920465,-9.55894382765,2.1470189177499996,-2.942731,1.34556,-0.974068,-0.0005437051282051186,-0.0001800192307692336,3.2800000000000364e-05,0.007522968134299202,0.00423664711130356,-0.004930761488084023
1504197115.5,-1.0,0.03584330575,-0.0432669398,0.008168939449999999,0.039761,-0.007624,0.005009,-0.43222809875,-9.55808084245,2.1509513844,-2.943286,1.345166,-0.97358,-0.0005437051282051325,-0.00018001923076923013,3.2799999999999496e-05,0.007469043981089607,0.004254659931728133,-0.004877279046642258
1504197115.51,-1.0,0.03421540185,-0.04155077605,0.00467777205,0.03866,-0.011878,0.005014,-0.43179660615,-9.5572472772,2.1547367512999998,-2.943817,1.344786,-0.973144,-0.0005437051282051325,-0.00018001923076923013,3.2800000000000364e-05,0.007415342860470853,0.004271767249381053,-0.004824028227407129
1504197115.52,-1.0,0.03245020485,-0.03831458155,-0.0012748644999999999,0.036501,-0.012929,0.008213,-0.43168873299999994,-9.556452938549999,2.1582965652499997,-2.944185,1.344424,-0.972912,-0.0005437051282051186,-0.00018001923076923013,3.2799999999999496e-05,0.007361876877368445,0.00428798229092342,-0.004771021126271036
1504197115.53,-1.0,0.03982480565,-0.01995653275,0.004726805299999999,0.035387,-0.018249,0.009287,-0.43143376009999995,-9.5556585999,2.1618759924999997,-2.944618,1.344062,-0.972655,-0.0003539999999999932,-0.0007869999999999995,0.00010739999999999968,0.0004540986979042483,0.00037323746553497017,0.003808751840803981
1504197115.54,-1.0,0.038775494099999995,-0.0058055367999999994,-0.00293218835,0.037481,-0.02253,0.010364,-0.4312768537,-9.55484464795,2.1654946463499996,-2.945008,1.343693,-0.972479,-0.00027499999999999747,-0.0007750000000000014,0.00011650000000000028,0.000762904115541474,0.0004066930767565591,0.003651183318553075
1504197115.55,-1.0,0.03915795345,-0.01923084065,-0.0034127142,0.039626,-0.020418,0.01143,-0.43120820715,-9.5539914694,2.1692702066,-2.945371,1.343307,-0.972331,-0.00019500000000000073,-0.0007619999999999988,0.0001282999999999996,0.0011621606893905678,0.0004764517954134462,0.0035042903101210054
1504197115.56,-1.0,0.0546034272,-0.0460716417,-0.0024222425499999998,0.039614,-0.022548,0.010365,-0.43079632785,-9.553177517449999,2.1729084737499997,-2.945874,1.342942,-0.972051,-0.00011600000000000499,-0.0007489999999999997,0.0001410000000000005,0.0016154283722253915,0.0005295753015663873,0.003360762177595733
1504197115.57,-1.0,0.054524974,-0.0624095206,0.029694536199999996,0.038537,-0.022541,0.012496,-0.43056096824999995,-9.55225569235,2.1770174600999996,-2.946335,1.342525,-0.971822,-4.500000000000337e-05,-0.000734000000000002,0.00014809999999999997,0.0019734079951785333,0.0005493688087214732,0.003222431411827431
1504197115.58,-1.0,0.05378947525,-0.056143071249999996,0.0335779696,0.036363,-0.025724,0.015699,-0.43058058155,-9.55133386725,2.1810577998999996,-2.946682,1.34211,-0.971748,2.0000000000006124e-05,-0.0007099999999999954,0.00015079999999999955,0.0022753289330317283,0.0005327229939362521,0.0030524266528509925
1504197115.59,-1.0,0.0478368387,-0.050484634199999996,0.03989345219999999,0.035269,-0.027849,0.017834,-0.43075710124999994,-9.55041204215,2.18506871975,-2.94695,1.341694,-0.97177,7.100000000000162e-05,-0.000677000000000004,0.00015240000000000045,0.0025613833108271145,0.0005026216325818567,0.002866950161164894
1504197115.6,-1.0,0.04638545449999999,-0.024673531399999997,0.00526617105,0.035236,-0.029983,0.021039,-0.43125724039999996,-9.54958828355,2.1885696938,-2.947037,1.341324,-0.971996,0.0001280000000000031,-0.0005469999999999989,4.119999999999992e-05,0.002751583829927462,0.0004604188612045146,0.002635364219871539
1504197115.61,-1.0,0.056692243649999995,-0.011032481249999998,-0.01972117315,0.041569,-0.03856,0.021063,-0.4315318266,-9.5487154917,2.1923158341,-2.947239,1.340934,-0.972179,0.0001709999999999906,-0.0005269999999999997,4.799999999999943e-05,0.0029661486686851646,0.0004280205031357287,0.0024043997709168874
1504197115.62,-1.0,0.05012178815,0.00021574629999999997,-0.035343166599999996,0.050038,-0.046091,0.022157,-0.4318456394,-9.54768579345,2.1967092133,-2.94748,1.340476,-0.972405,0.00021400000000000585,-0.0005080000000000015,5.760000000000053e-05,0.0031436442627814642,0.00034387089087828393,0.0021659400413607255
1504197115.63,-1.0,0.06779337145,0.00797280645,-0.060212830999999994,0.056355,-0.055735,0.023251,-0.43171815295,-9.5466168686,2.2013771787,-2.94794,1.339998,-0.972507,0.00025999999999999635,-0.0004930000000000004,6.71999999999999e-05,0.0033234373846697807,0.00023739486706753077,0.0018738403704652296
1504197115.64,-1.0,0.0847098427,0.0023241760499999996,-0.07182390459999999,0.063787,-0.062186,0.02007,-0.43097284755,-9.545459683899999,2.2065550899,-2.948707,1.339482,-0.972375,0.00031699999999999784,-0.00047699999999999826,7.58e-05,0.003536254566262942,0.0001781114475067902,0.0016587784141369744
1504197115.65,-1.0,0.09972382384999999,-0.01611232595,-0.08346439815,0.069071,-0.067559,0.021154,-0.4298254695,-9.544233852649999,2.21205662055,-2.949674,1.338939,-0.972105,0.00037800000000000333,-0.0004720000000000002,8.229999999999956e-05,0.003869780591301497,0.00011825632367323813,0.0014643539411571815
1504197115.66,-1.0,0.0887305692,-0.04054069109999999,-0.09638956284999999,0.071161,-0.073968,0.019031,-0.42855060500000003,-9.542998214749998,2.21764641105,-2.950699,1.338389,-0.971835,0.00043600000000000583,-0.00046800000000000314,7.94000000000003e-05,0.0041464011981269255,4.592614538445616e-06,0.0012874365990298564
1504197115.67,-1.0,0.07562888479999999,-0.0388539473,-0.08033607679999999,0.071181,-0.071837,0.017958,-0.4274326469,-9.5416939303,2.22345194785,-2.951673,1.337814,-0.971599,0.00048699999999998744,-0.0004539999999999961,6.10999999999997e-05,0.004222816357415837,-0.00014970092646127142,0.0011521074597884429
1504197115.68,-1.0,0.0437572723,-0.01309187775,-0.08033607679999999,0.07012,-0.07289,0.014754,-0.42653043509999994,-9.54037003255,2.2292869046,-2.952545,1.337231,-0.971459,0.0005409999999999998,-0.00043400000000000383,4.100000000000024e-05,0.004219963527455128,-0.00027596940739105236,0.0010384141332875352
1504197115.69,-1.0,0.02505599075,0.00324600115,-0.05455439395,0.062676,-0.069632,0.014735,-0.42593222945,-9.5390461348,2.2350728281,-2.953283,1.336647,-0.97144,0.0005920000000000092,-0.0004009999999999986,2.5200000000000396e-05,0.0041394156428247175,-0.0003218441015608864,0.000811096664548483
1504197115.7,-1.0,0.0045502856,0.0011571847,-0.06860732339999999,0.060518,-0.071747,0.015802,-0.42578512969999993,-9.53785953015,2.2401526728,-2.953765,1.336127,-0.971673,0.0004789999999999933,-0.0005299999999999958,7.629999999999963e-05,0.003989870654199867,-0.00039118881902844294,0.0006770559623174854
1504197115.71,-1.0,-0.0032950343999999998,-0.0121014061,-0.08195417405,0.060497,-0.072814,0.017939,-0.42587338955,-9.536721958749999,2.2449677379499997,-2.954121,1.335629,-0.97205,0.0005249999999999977,-0.0004890000000000033,6.749999999999985e-05,0.00375179636873324,-0.00030484622313253773,0.0005094725975148817
1504197115.72,-1.0,-0.011483587149999998,-0.010600988649999999,-0.0975761675,0.066865,-0.076064,0.019024,-0.42620681564999996,-9.5355353541,2.2499593227999997,-2.954383,1.335108,-0.97254,0.0005650000000000099,-0.00043999999999999595,5.570000000000054e-05,0.0034103571446775227,-0.0002708100282093895,0.0002808308537201043
1504197115.73,-1.0,-0.03677493749999999,0.0077864801,-0.10050835585,0.074316,-0.077192,0.020107,-0.42709922079999996,-9.5341624231,2.2555883398999996,-2.954456,1.33451,-0.973231,0.0005919999999999953,-0.0003860000000000044,3.249999999999954e-05,0.002846669306068028,-0.00024161268048006335,6.931722447556243e-05
1504197115.74,-1.0,-0.05675108354999999,0.011562040349999999,-0.11333545404999999,0.078623,-0.071899,0.020107,-0.4283740853,-9.532701232249998,2.2615311698,-2.954395,1.333873,-0.974014,0.0006150000000000044,-0.0003249999999999989,5.5999999999997024e-06,0.002274159671405318,-0.00018377534457614253,-0.000169301311507164
1504197115.75,-1.0,-0.06886229629999999,-0.0231829206,-0.09722312809999999,0.085072,-0.067686,0.01691,-0.42958030324999996,-9.531034101749999,2.2683173716,-2.954425,1.33315,-0.97466,0.0006349999999999967,-0.0002570000000000003,-1.8799999999999373e-05,0.0018095839122589386,-6.92905326837856e-05,-0.00042267010304164465
1504197115.76,-1.0,-0.0546034272,-0.0593106192,-0.06492982964999999,0.081894,-0.066591,0.013702,-0.43036483524999997,-9.529317938,2.2753781596,-2.95466,1.332407,-0.975078,0.0006519999999999998,-0.00019700000000000273,-3.640000000000067e-05,0.001565253992028115,-1.4285501598765293e-05,-0.0006460507122254544
1504197115.77,-1.0,-0.0379909621,-0.0767860695,-0.0450125235,0.084054,-0.064475,0.011568,-0.43067864804999995,-9.527552741,2.2826939205,-2.955113,1.331647,-0.975262,0.000673999999999994,-0.00015199999999999936,-4.74999999999998e-05,0.001443827380597229,5.360232864015657e-06,-0.0008673025454806194
1504197115.78,-1.0,-0.026330855249999997,-0.05302455655,-0.06396877795,0.091576,-0.058142,0.010503,-0.43081594114999994,-9.52571889745,2.2902842675999997,-2.95566,1.330861,-0.975283,0.0007000000000000062,-0.0001239999999999991,-5.5999999999999626e-05,0.0013512057355256069,-2.0491718502491096e-05,-0.0010367589323885262
1504197115.79,-1.0,0.010924608099999998,-0.03649054465,-0.11405133949999999,0.10118,-0.05822,0.009452,-0.43020792885,-9.52385563395,2.29815900755,-2.956539,1.33006,-0.974963,0.0007280000000000064,-0.00010500000000000093,-6.41000000000001e-05,0.0012707167543661857,-6.228354119564017e-05,-0.001194202007937406
1504197115.8,-1.0,0.047719158899999996,-0.0018240368999999999,-0.1301930854,0.10751,-0.066797,0.009477,-0.42884480449999995,-9.521855077349999,2.30667117975,-2.957776,1.329208,-0.974377,0.0007589999999999958,-9.299999999999586e-05,-7.27000000000002e-05,0.0011647170344408764,-0.00017975329361719083,-0.0013060308706909218
1504197115.81,-1.0,0.04819968475,0.05590771165,-0.14738414285,0.103149,-0.07529,0.013753,-0.4275307134,-9.5198839407,2.3150362521999996,-2.958974,1.328369,-0.973913,0.0002979999999999927,-4.699999999999843e-05,-5.05000000000002e-05,0.0010505689735929025,-0.0002823760046035684,-0.0014378377938668585
1504197115.82,-1.0,0.055495832349999996,0.085121722,-0.13795995219999999,0.098822,-0.081649,0.014822,-0.42614797574999996,-9.517981450599999,2.3231169317999996,-2.960172,1.327561,-0.973524,0.00031899999999999984,-4.300000000000137e-05,-6.549999999999959e-05,0.0009464777313121786,-0.00033789272354134425,-0.0015271009310466876
1504197115.83,-1.0,0.060742390099999995,0.06485137645,-0.1280160091,0.096675,-0.081634,0.016952,-0.4248044647,-9.516118187099998,2.3309720584499996,-2.961326,1.326773,-0.973204,0.00034300000000000996,-4.099999999999937e-05,-8.220000000000015e-05,0.0007846323382658671,-0.0004063801428351166,-0.0016229526894464552
1504197115.84,-1.0,0.035980598849999997,0.009414384,-0.11286473485,0.104147,-0.079567,0.019095,-0.4241376124999999,-9.5140980172,2.3393175176,-2.962231,1.325923,-0.973093,0.00036899999999999433,-4.099999999999937e-05,-9.840000000000022e-05,0.0005932102706454057,-0.0004497135981085254,-0.0016929942863164182
1504197115.85,-1.0,0.013856796449999998,-0.05181833859999999,-0.09458513925,0.112733,-0.072179,0.020164,-0.42401993269999994,-9.5118228744,2.3485749952,-2.962976,1.324968,-0.973092,0.0003969999999999946,-4.800000000000637e-05,-0.00010889999999999945,0.00045668115111308083,-0.00041781819213815297,-0.001753330366156547
1504197115.86,-1.0,0.0032754210999999997,-0.09829205295,-0.0871811185,0.120222,-0.067981,0.022304,-0.42436316544999997,-9.50934179195,2.3585385515999997,-2.963572,1.323931,-0.973185,0.0004250000000000087,-5.7999999999995555e-05,-0.00011220000000000067,0.00041633027037590864,-0.0004134674701450347,-0.0018130942292990948
1504197115.87,-1.0,0.0008041452999999999,-0.12269099815,-0.0850040422,0.120173,-0.069054,0.029777,-0.42532421714999996,-9.50679206295,2.3686295944499998,-2.963919,1.322868,-0.973517,0.0004569999999999991,-7.300000000000362e-05,-0.00010779999999999991,0.000418288050850979,-0.0004211621645600072,-0.001874799460743426
1504197115.88,-1.0,0.007384407449999999,-0.1220535659,-0.0770606557,0.114809,-0.071143,0.031906,-0.4263735287,-9.50428156055,2.37849508435,-2.964216,1.321828,-0.973932,0.0004919999999999924,-9.299999999999586e-05,-9.639999999999996e-05,0.0005290152681656224,-0.00044253444674935416,-0.0019124526144156384
1504197115.89,-1.0,0.01609271265,-0.09250612945,-0.052308671099999995,0.106227,-0.075337,0.034033,-0.42744245355,-9.501810284749999,2.3881448279499997,-2.964483,1.320807,-0.974421,0.00044200000000001183,-6.600000000000356e-05,-5.30999999999995e-05,0.0006587688675883108,-0.0004691155170841732,-0.0019609766403689832
1504197115.9,-1.0,0.04342384619999999,-0.06150730879999999,-0.04494387695,0.108363,-0.07429,0.035101,-0.42829563209999993,-9.4992899757,2.3980005112,-2.96485,1.319771,-0.974831,0.0004799999999999943,-8.99999999999998e-05,-3.950000000000047e-05,0.0007796515668618831,-0.00046752065026800516,-0.0020370207336432022
1504197115.91,-1.0,0.07520719884999999,-0.06204667455,-0.06816602414999999,0.12118,-0.072265,0.035117,-0.42864867149999997,-9.4966617935,2.40834652695,-2.965453,1.318692,-0.974993,0.0005170000000000036,-0.00010699999999999599,-2.8299999999999333e-05,0.0008414346898302227,-0.0005277646406136594,-0.0021501720366570165
1504197115.92,-1.0,0.08944645465,-0.059134099499999995,-0.09254535604999999,0.138244,-0.07347,0.034079,-0.42867809145,-9.49372960515,2.41985953405,-2.966263,1.317497,-0.974937,0.0005549999999999999,-0.00011800000000000005,-2.02000000000006e-05,0.0009127923137750571,-0.0005406055475203342,-0.0022208265690494278
1504197115.93,-1.0,0.0968700887,-0.03474496095,-0.1203275955,0.147783,-0.081008,0.034106,-0.42832505205,-9.4905816705,2.4322257197,-2.967277,1.316221,-0.974739,0.0005970000000000003,-0.0001300000000000051,-1.249999999999949e-05,0.0009671072089478816,-0.0005233718622281724,-0.0023307597254381696
1504197115.94,-1.0,0.10484289515,-0.0024908890999999996,-0.1252505338,0.146595,-0.093789,0.037326,-0.42791317274999996,-9.48737489595,2.4447782317,-2.968316,1.314925,-0.974618,0.0006459999999999938,-0.0001429999999999973,-3.1000000000006717e-06,0.0010459235962529956,-0.0004630030514922723,-0.002401208773132657
1504197115.95,-1.0,0.10011608984999999,0.018858187949999997,-0.1128157016,0.13904,-0.102256,0.040527,-0.4275307134,-9.484187734699999,2.4571934506,-2.969327,1.313643,-0.974657,0.0007000000000000062,-0.00016100000000000142,5.300000000000617e-06,0.0012285684708148725,-0.00044697045038155636,-0.0024789700962017935
1504197115.96,-1.0,0.1119331031,0.026291628649999996,-0.08901496205,0.136927,-0.100106,0.039449,-0.4269227011,-9.4809907668,2.4695988628500003,-2.970412,1.312365,-0.974626,0.0007479999999999987,-0.0001779999999999976,5.299999999999749e-06,0.0013442477366691907,-0.000415895064391103,-0.0025903051099426255
1504197115.97,-1.0,0.12109251419999999,-0.0037951735499999993,-0.09262380925,0.144379,-0.101235,0.040528,-0.42619700899999996,-9.477695732399999,2.4823377012,-2.971558,1.311053,-0.974532,0.000789999999999999,-0.00018699999999999967,-2.3000000000002185e-06,0.0013987373858688201,-0.00044214322031166375,-0.0027043294231950954
1504197115.98,-1.0,0.10148902085,-0.02776262615,-0.08342517155,0.148637,-0.100208,0.043733,-0.42604990924999997,-9.4742241783,2.49558648535,-2.972501,1.309679,-0.974633,0.0008319999999999994,-0.00019399999999999973,-1.370000000000017e-05,0.0013141999258694526,-0.000492475087973121,-0.0028396426177035305
1504197115.99,-1.0,0.06691077295,-0.01579851315,-0.08251315309999999,0.150717,-0.103428,0.049077,-0.42694231439999997,-9.4706349444,2.5090314025000002,-2.973047,1.308263,-0.975153,0.0008719999999999978,-0.0002020000000000008,-2.3099999999999857e-05,0.0012801780322528877,-0.0004781479652591347,-0.0029492913687201305
1504197116.0,-1.0,0.032950344,-0.030057382249999997,-0.1066571254,0.15279,-0.106648,0.05549,-0.42889383775,-9.4669868706,2.5224076731,-2.97317,1.306836,-0.976138,0.0013159999999999977,-0.00024700000000000416,6.599999999999835e-06,0.002437725471214236,-0.0009212937279954314,-0.006079243679502411
1504197116.01,-1.0,0.020976424349999998,-0.0691172692,-0.13210538215,0.155896,-0.11414,0.061912,-0.43143376009999995,-9.4633976367,2.53544071095,-2.973047,1.305434,-0.977431,0.0006980000000000042,-0.00015199999999999936,6.6000000000007025e-06,0.0011665117934402947,-0.000347484425310407,-0.003055837579288734
1504197116.02,-1.0,0.040795663999999995,-0.13347831315,-0.16502630619999997,0.163226,-0.128058,0.066217,-0.43373832284999997,-9.4597887895,2.5484541354999997,-2.973011,1.304037,-0.978764,0.0003625000000000017,-9.05000000000003e-05,8.199999999999874e-06,0.0006285199188855728,-0.0001432448632532335,-0.0014989906903679628
1504197116.03,-1.0,0.0323227184,-0.1620843112,-0.14650154434999998,0.165244,-0.138736,0.071576,-0.43634689174999997,-9.4560230359,2.5619480858999997,-2.972893,1.302584,-0.980307,0.00036249999999999477,-9.05000000000003e-05,8.199999999999874e-06,0.0006287279441010707,-0.0001423013021004671,-0.001499066137025995
1504197116.04,-1.0,0.028507931549999997,-0.12057276175,-0.10739262415,0.170484,-0.149436,0.07267,-0.43895546065,-9.451894436249999,2.5767169007999997,-2.972856,1.300998,-0.981873,0.0015060000000000004,-0.000449999999999999,5.5999999999999626e-05,0.002766240856867608,-0.000464124327989035,-0.005883765771058425
1504197116.05,-1.0,0.0545642006,-0.024212618849999996,-0.07944367165,0.167229,-0.157931,0.069476,-0.44062259114999996,-9.447550090299998,2.59229966765,-2.973228,1.299342,-0.983142,0.0007680000000000048,-0.0002689999999999984,3.230000000000073e-05,0.0015516990546511344,-0.00025059089634060783,-0.002911255035182525
1504197116.06,-1.0,0.08199340064999999,0.06771491824999999,-0.07087265955,0.167357,-0.157913,0.065215,-0.44157383619999996,-9.44310767785,2.60828450715,-2.973887,1.297657,-0.984137,0.0007724999999999954,-0.0003060000000000007,3.239999999999927e-05,0.0018099780161724421,-0.0002725467982420682,-0.0028940932696829846
1504197116.07,-1.0,0.10161650729999999,0.11854278519999999,-0.10332286439999999,0.169557,-0.154725,0.056671,-0.44144634974999997,-9.438724105299999,2.6241124402500002,-2.974928,1.296006,-0.984717,0.0007725000000000024,-0.0003060000000000007,3.240000000000014e-05,0.0018107574912928914,-0.0002673070828782542,-0.0028945790761814583
1504197116.08,-1.0,0.1171306276,0.12726089705,-0.1403527748,0.173879,-0.153686,0.047067,-0.44019109855,-9.43441898595,2.6397442403499998,-2.976357,1.294394,-0.984866,0.0007699999999999999,-0.000341000000000001,3.460000000000008e-05,0.0020373811962040023,-0.0002854388638577898,-0.0028019160494137663
1504197116.09,-1.0,0.10866748865,0.116503002,-0.15589631505,0.177095,-0.154773,0.041735,-0.43846512815,-9.430094253299998,2.655444687,-2.977949,1.292782,-0.984853,0.0006089999999999984,-0.0002999999999999947,7.310000000000042e-05,0.002186021856791287,-0.00031873060268172715,-0.002697275959891665
1504197116.1,-1.0,0.08111080215,0.07279476295,-0.11968035659999998,0.175902,-0.167555,0.046022,-0.43710200379999997,-9.425593000949998,2.6715962395499995,-2.97942,1.291115,-0.985054,0.0005920000000000022,-0.0003394999999999995,7.654999999999988e-05,0.002160347127099893,-0.0003929483095554964,-0.002501842707113733
1504197116.11,-1.0,0.059026226349999995,0.035107807,-0.055417379149999994,0.166107,-0.1856,0.055642,-0.43625863189999997,-9.4209740688,2.6879929583499997,-2.980695,1.289412,-0.985643,0.0005920000000000022,-0.0003394999999999995,7.654999999999988e-05,0.002161317887175107,-0.0003875408027707028,-0.0025026793189456
1504197116.12,-1.0,0.0592125527,-0.008816178349999999,0.027105580599999998,0.157344,-0.206852,0.067404,-0.43585655924999994,-9.41625707015,2.70452697025,-2.981809,1.287686,-0.98662,0.0002854999999999941,-0.00018699999999999967,3.780000000000016e-05,0.001044387558575277,-0.0002424070529087885,-0.0011679862825535459
1504197116.13,-1.0,0.08673981925,-0.041756715699999995,0.08056162975,0.153993,-0.226005,0.06743,-0.43479744105,-9.411442005,2.7214042148999997,-2.983162,1.285934,-0.987568,0.00028550000000000103,-0.0001870000000000066,3.780000000000016e-05,0.0010446628630091936,-0.00024118543007034532,-0.0011682308600355906
1504197116.14,-1.0,0.14238275135,-0.05712373625,0.1287809278,0.149558,-0.249409,0.064258,-0.43177699285,-9.4065582933,2.7387227588,-2.985223,1.284166,-0.988043,0.0010980000000000018,-0.000791,0.00013529999999999966,0.0036097245932324995,-0.0011470569065019642,-0.004505434448684065
1504197116.15,-1.0,0.17325408554999996,-0.05494665995,0.1519050085,0.13766,-0.272751,0.060004,-0.42718748065,-9.401851101299998,2.75556077685,-2.987788,1.282473,-0.988254,0.0005259999999999987,-0.0003959999999999936,4.7399999999999526e-05,0.001283912195660708,-0.000636612555409144,-0.002176024056282533
1504197116.16,-1.0,0.1646928801,-0.0042855060499999995,0.16625213744999998,0.126921,-0.285445,0.054666,-0.42177420984999997,-9.397291009049999,2.7718790424499997,-2.99059,1.280844,-0.988394,0.0002575000000000008,-0.00019500000000000073,1.434999999999978e-05,0.0004882808807831207,-0.00031700064012385454,-0.0010902593008986772
1504197116.17,-1.0,0.18678726255,0.01232695905,0.19851601594999999,0.114093,-0.290666,0.052514,-0.41542930729999994,-9.392956469749999,2.78751084255,-2.993649,1.2793,-0.988334,0.0002575000000000008,-0.00019500000000000073,1.4350000000000647e-05,0.0004886256246143805,-0.00031646768565862793,-0.0010904126650108092
1504197116.18,-1.0,0.16783100809999998,0.023280987099999997,0.17546058180000002,0.10544,-0.303387,0.056786,-0.4093491843,-9.388945549899999,2.8018775848,-2.99652,1.277881,-0.988575,0.0009810000000000027,-0.0007470000000000046,-1.9299999999999873e-05,0.0006867634089597896,-0.0012841887959742504,-0.004147157400558266
1504197116.19,-1.0,-0.03576485255,0.12477000795,0.1901901701,0.101116,-0.309746,0.057857,-0.40611298979999993,-9.385836841849999,2.8127335463499996,-2.9982,1.276785,-0.990048,0.0004055000000000031,-0.0002669999999999964,-2.875000000000013e-05,-0.0005132511539491791,-0.0005377186968946734,-0.0019273235979472836
1504197116.2,-1.0,-0.22546469015,0.2452250899,0.2598566117,0.096861,-0.305453,0.062112,-0.4031709948,-9.3828458136,2.8231187887,-2.999743,1.275734,-0.991636,0.00040549999999999614,-0.00026700000000000335,-2.875000000000013e-05,-0.0005122161891828458,-0.000538708643899044,-0.0019270561977827172
1504197116.21,-1.0,-0.37196623449999994,0.32878755454999997,0.30391789015,0.094873,-0.282002,0.070606,-0.40151367094999996,-9.37991362525,2.8330823451,-3.000807,1.274708,-0.993529,0.00037249999999999783,-0.0002299999999999941,-6.094999999999972e-05,-0.0012957156997157604,-0.0003818113303477588,-0.0018415328071763604
1504197116.22,-1.0,-0.5406013879,0.20551796404999997,0.2902180001,0.104742,-0.251175,0.068451,-0.4103494626,-9.374569001,2.8494790638999996,-2.998568,1.272844,-0.99832,0.00037249999999999783,-0.00023000000000000104,-6.095000000000059e-05,-0.001295013639156517,-0.0003841969671403156,-0.0018410411712578845
1504197116.23,-1.0,-0.7204063156499999,0.0206724182,0.28820763684999995,0.124218,-0.222556,0.059895,-0.4096629971,-9.370930733849999,2.86151182345,-2.999397,1.271583,-0.999855,0.000338999999999999,-0.0002009999999999998,-8.44999999999995e-05,-0.0017330657007534889,-0.0003837497171705895,-0.001875639779641336
1504197116.24,-1.0,-0.7449915871999999,-0.0421097551,0.26663300685,0.138153,-0.218401,0.053508,-0.40856465229999994,-9.3668021342,2.8751528736,-3.000434,1.270158,-1.001034,0.00029900000000000065,-0.0001810000000000006,-0.00010790000000000018,-0.0021550518752397885,-0.00039977062740814695,-0.00195261615499015
1504197116.25,-1.0,-0.8617103355,0.045169429899999995,0.33398507904999997,0.134859,-0.224777,0.062052,-0.4076624405,-9.36265392125,2.88875469715,-3.001398,1.268734,-1.002359,0.00029900000000000065,-0.0001810000000000006,-0.00010790000000000018,-0.00215425029150329,-0.00040397301242722783,-0.0019517348037061955
1504197116.26,-1.0,-1.1679327884,0.2482259248,0.31779429989999997,0.127298,-0.228989,0.073788,-0.40775070034999994,-9.35861358145,2.9018073482999998,-3.001991,1.267351,-1.004117,0.00013649999999999773,-8.850000000000524e-05,-6.075000000000004e-05,-0.0012101235273922484,-0.00017709765945439493,-0.001008286644063272
1504197116.27,-1.0,-1.2223204693,0.13538080325,0.24535257635,0.12404,-0.237484,0.071663,-0.40768205379999994,-9.3547007281,2.9143892802499995,-3.002609,1.266021,-1.005948,0.00013650000000000467,-8.84999999999983e-05,-6.075000000000004e-05,-0.0012099511343668379,-0.00017831843140148074,-0.001008077249793904
1504197116.28,-1.0,-1.1894583851499998,0.08274851269999998,0.10533322765,0.136915,-0.236512,0.058875,-0.40658370899999996,-9.35055251515,2.92782439075,-3.003607,1.264615,-1.0074,0.00025999999999999635,-0.00018299999999999567,-0.0001227999999999993,-0.0025393032401903604,-0.00030958335045672136,-0.0019487697489371514
1504197116.29,-1.0,-1.1754446823,0.039412926349999995,-0.0947518523,0.167909,-0.237819,0.046122,-0.40412223985,-9.3456786101,2.9437013570999997,-3.005161,1.262969,-1.008261,0.00024600000000000316,-0.00019500000000000073,-0.0001207000000000005,-0.002570878522994313,-0.0002425757101509607,-0.0018916590818338075
1504197116.3,-1.0,-1.2332450774,-0.06970566819999999,-0.20925429769999998,0.193637,-0.230559,0.033345,-0.40065068575,-9.339951526499998,2.9622947655,-3.007158,1.261047,-1.008614,0.00016399999999999748,-8.89999999999988e-05,-0.00011429999999999947,-0.0025662656939051676,-0.00022861360688941623,-0.0018517074956475033
1504197116.31,-1.0,-1.1961269071499998,-0.1101090662,-0.10931472755,0.195984,-0.209257,0.024772,-0.39676725235,-9.33396947,2.98160405935,-3.009298,1.259052,-1.008628,0.0001480000000000023,-0.00011700000000000599,-0.00010130000000000035,-0.002452195294441628,-0.00023932698596373925,-0.0018089805914319745
1504197116.32,-1.0,-1.1324327153999998,-0.01538663385,0.08185610755,0.164415,-0.161034,0.013958,-0.39311917854999995,-9.3287327189,2.99843227075,-3.011228,1.257315,-1.008429,0.0002590000000000023,-0.0003589999999999982,-0.00014389999999999976,-0.004034769126887383,-0.0004262606854750217,-0.0035114841590199175
1504197116.33,-1.0,-1.1553214365,0.0997728571,0.21542268055,0.135264,-0.087239,-0.012907,-0.38938284489999997,-9.3244766328,3.0121125474999997,-3.013033,1.255913,-1.007662,0.00011499999999999705,-0.00025999999999999635,-3.310000000000032e-05,-0.0013919748914594798,-0.0001916995571562552,-0.001656317058861212
1504197116.34,-1.0,-1.1762390209499998,0.19438741629999998,0.2079794332,0.12101,-0.028469,-0.055732,-0.38403822065,-9.320936432149999,3.0237432344,-3.015263,1.254749,-1.005734,5.250000000000393e-05,-0.00015549999999999592,-3.249999999999781e-06,-0.0004846669817129001,-0.0001240163308628972,-0.0007865926709601512
1504197116.35,-1.0,-1.1339821661,0.2481278583,0.1097560268,0.109629,-0.000642,-0.082486,-0.37660477994999997,-9.31781791745,3.0342755765,-3.018107,1.253726,-1.002805,5.2499999999996994e-05,-0.00015550000000000286,-3.249999999999781e-06,-0.00048456948861441695,-0.00012439745605496988,-0.0007865328103418556
1504197116.36,-1.0,-1.00611325675,0.28615804699999997,-0.03039080835,0.10841,-0.017685,-0.079256,-0.3686123602,-9.31483669585,3.04438623265,-3.021101,1.252753,-0.999778,9.10000000000008e-05,-0.00035900000000000515,1.4899999999999983e-05,-0.0005878764465572228,-0.00028738848072329404,-0.0014332550099509511
1504197116.37,-1.0,-0.8800879976,0.26835897724999996,-0.1267215313,0.120998,-0.035918,-0.065325,-0.36130640594999996,-9.31156127475,3.0552814207999996,-3.023884,1.251685,-0.997163,7.100000000000162e-05,-0.00040399999999999464,3.059999999999955e-05,-0.0002619476718386249,-0.0003168285714676422,-0.0013222769735256046
1504197116.38,-1.0,-0.87433149405,0.28909023535,-0.09886083864999999,0.142145,-0.053153,-0.054584,-0.35434368445,-9.307599388149999,3.06811832565,-3.026611,1.250402,-0.994834,6.699999999999762e-05,-0.0008480000000000015,0.00010329999999999975,3.1263651860902186e-05,-0.0008707133631931097,-0.002399261565940114
1504197116.39,-1.0,-0.95516771,0.34113412689999995,-0.05310300974999999,0.169925,-0.044863,-0.049214,-0.3481753016,-9.302784323,3.08341669965,-3.029149,1.248844,-0.992665,-4.9999999999980616e-06,-0.00020850000000000035,3.590000000000017e-05,7.47653537986892e-05,-0.00024021462841750107,-0.0005484356467486129
1504197116.4,-1.0,-0.8115493207499999,0.12316171735,-0.10831444924999999,0.193454,-0.041853,-0.055583,-0.34200691875,-9.2971356926,3.1010686696499996,-3.031749,1.247031,-0.990365,-5.0000000000050004e-06,-0.00020850000000000035,3.590000000000017e-05,7.489702784257979e-05,-0.00024017289802302777,-0.0005484531554031391
1504197116.41,-1.0,-0.6830135592,0.03798115545,-0.0101400761,0.205295,-0.036603,-0.068355,-0.35038179784999995,-9.2903691041,3.1203583502,-3.029772,1.244869,-0.992313,-9.899999999999493e-05,-0.0008389999999999995,0.00018099999999999974,0.0003148583579593023,-0.000954613284588568,-0.0022335491882871095
1504197116.42,-1.0,-0.70859910905,0.1288005411,-0.011130547749999999,0.195802,-0.026928,-0.074793,-0.3426051244,-9.284377240949999,3.13900079185,-3.03288,1.242965,-0.989346,-4.200000000000037e-05,-0.00020799999999999985,5.1600000000000604e-05,-8.421872042752021e-05,-0.00024119043493309178,-0.0006002905291833671
1504197116.43,-1.0,-0.6781886873999999,0.13201712229999998,-0.0072176943999999995,0.181889,-0.02895,-0.069476,-0.33515207039999995,-9.27876783715,3.15633894905,-3.035805,1.241194,-0.986539,-4.200000000000037e-05,-0.00020799999999999985,5.1599999999999736e-05,-8.40742344838663e-05,-0.0002412412824486232,-0.0006002725031696854
1504197116.44,-1.0,-0.71564028375,0.1359790089,-0.02746842665,0.16683,-0.03949,-0.062012,-0.32808147574999996,-9.2735997326,3.1722551419999996,-3.038537,1.239568,-0.98404,-0.0002160000000000009,-0.0008080000000000032,0.00020789999999999958,-0.0012864734416586643,-0.0011104768273482168,-0.0027470486297108687
1504197116.45,-1.0,-0.79379928425,0.14356935599999998,-0.1289966741,0.161342,-0.055426,-0.057693,-0.3398592624,-9.26847085465,3.1859452254,-3.035321,1.237966,-0.987312,-5.3999999999998494e-05,-0.00019199999999999773,5.215000000000081e-05,-0.00041960882220171136,-0.00027670801159973557,-0.0008096475207581277
1504197116.46,-1.0,-0.7958096474999999,0.10348957745,-0.26300454635,0.159023,-0.074594,-0.051258,-0.3326023414,-9.263557723,3.2009886264999996,-3.038057,1.236434,-0.985162,-5.3999999999998494e-05,-0.00019199999999999773,5.214999999999994e-05,-0.00041938699198973417,-0.00027704827540553367,-0.000809535884820356
1504197116.47,-1.0,-0.8141284696999999,0.08902476869999999,-0.26390675815,0.155621,-0.093757,-0.041624,-0.3256592332,-9.25866420465,3.21580647465,-3.040669,1.234918,-0.98335,-0.00016200000000000242,-0.0007180000000000034,0.0002033,-0.00157817197540977,-0.0009537094719123118,-0.0037734066669442012
1504197116.48,-1.0,-0.8409496574499999,0.0748443528,-0.2559143384,0.147972,-0.109689,-0.030935,-0.31919665085,-9.25391778605,3.2301045703499995,-3.043094,1.233451,-0.981898,-6.899999999999962e-05,-0.0001789999999999986,5.799999999999989e-05,-0.0008330317944773569,-0.0004176922439171893,-0.002103662738779599
1504197116.49,-1.0,-0.8643189044,-0.01642613875,-0.2371640236,0.131806,-0.121281,-0.019167,-0.33413217879999996,-9.250622751649999,3.2379989235999997,-3.038767,1.23244,-0.986972,-3.0000000000002247e-05,-0.00015700000000000436,3.870000000000002e-05,-0.0009177792674277541,-0.0003759268210761224,-0.0023516647960286075
1504197116.5,-1.0,-0.9245219287499999,-0.12996753244999998,-0.2466176342,0.109204,-0.137093,-0.005303,-0.3289934942,-9.246915837949999,3.2491000513999997,-3.04068,1.231303,-0.986365,-3.0000000000002247e-05,-0.00015699999999999742,3.870000000000002e-05,-0.0009169009085445712,-0.0003780852207233565,-0.002351340077981434
1504197116.51,-1.0,-0.9912954085999999,-0.1699296312,-0.28807034374999996,0.097314,-0.144461,0.010739,-0.34841066119999997,-9.245415420499999,3.25134577425,-3.034841,1.230843,-0.993202,1.7000000000003124e-05,-0.00015599999999999642,2.0499999999999685e-05,-0.0008301627848956716,-0.00035671682997961973,-0.002589872761324663
1504197116.52,-1.0,-1.0204505790499998,-0.11798380615,-0.2884135765,0.10149,-0.148757,0.019331,-0.36923017914999995,-9.243640416849999,3.2540818296,-3.028608,1.230301,-1.000494,5.3999999999998494e-05,-0.00016500000000000542,1.2500000000000358e-05,-0.0007126884867132421,-0.00031220882807891925,-0.0027171186473282094
1504197116.53,-1.0,-1.08921480885,-0.017151830849999997,-0.2780773674,0.117524,-0.144614,0.017258,-0.39174624755000004,-9.24093378145,3.2591616743,-3.021968,1.229474,-1.00815,0.00010349999999999943,-0.0001789999999999986,2.499999999999898e-06,-0.0005031617563757695,-0.00027779998601085154,-0.002887108615815981
1504197116.54,-1.0,-1.1189387649999998,0.08876979579999998,-0.2667997199,0.131588,-0.127655,0.003419,-0.41454670879999994,-9.237315127599999,3.2665853083499994,-3.015362,1.228373,-1.015597,0.00010349999999999943,-0.0001789999999999986,2.499999999999898e-06,-0.0005023590969503999,-0.00027925102123216305,-0.002886977440690275
1504197116.55,-1.0,-1.1478487692,0.14389297545,-0.24251845449999998,0.127692,-0.094554,-0.020085,-0.43681761095,-9.233333627699999,3.27492096085,-3.008993,1.227166,-1.022484,0.00013799999999999923,-0.0001820000000000016,-5.400000000000023e-06,-0.0002929440427119623,-0.00024380741447838084,-0.0030571543518643773
1504197116.56,-1.0,-1.13340357375,0.14628579805,-0.31780410654999997,0.114223,-0.061367,-0.050012,-0.45695066339999996,-9.230332792799999,3.2806284311500002,-3.003197,1.22626,-1.028409,0.00015899999999999942,-0.00017400000000000054,-3.0500000000001012e-06,2.4378394424262595e-05,-0.0002477787407273446,-0.0032047207196869154
1504197116.57,-1.0,-1.09507918555,0.1658892914,-0.37408447089999997,0.097448,-0.039877,-0.07779,-0.47417114079999995,-9.2283910761,3.2836390727,-2.998179,1.225675,-1.033265,0.00015900000000000636,-0.00017400000000000054,-3.0500000000001012e-06,2.5172562428954492e-05,-0.00024769971697069515,-0.003204743992085035
1504197116.58,-1.0,-1.10806319015,0.21050954889999998,-0.3898927907,0.089066,-0.033394,-0.098097,-0.4643252642,-9.225870767049999,3.2921218249499997,-3.001475,1.224916,-1.030129,0.0002109999999999959,-9.899999999999493e-05,1.090000000000032e-05,0.0004905643128483295,-0.00021896390151265877,-0.003231787209892145
1504197116.59,-1.0,-1.1642749079499999,0.21581494654999997,-0.43197312585,0.104114,-0.028175,-0.111956,-0.45330258959999997,-9.2230954851,3.30141852915,-3.00514,1.224082,-1.026549,0.00021800000000000291,-0.00010900000000000493,2.179999999999977e-05,0.0008914602905030211,-0.00023945540004111088,-0.0032249760359070456
1504197116.6,-1.0,-1.2487003578,0.17656873325,-0.45119415985,0.140484,-0.026327,-0.127907,-0.4410050505,-9.21931992485,3.3136180017499997,-3.009281,1.22295,-1.02243,0.00021050000000000235,-0.00011950000000000155,2.9999999999999645e-05,0.0010367254762191358,-0.0001990852338655813,-0.0031986301260140126
1504197116.61,-1.0,-1.262311988,0.0939869336,-0.36775918165,0.184447,-0.017053,-0.159822,-0.4558327053,-9.215289391699999,3.32279702615,-3.005261,1.221747,-1.025806,0.0002104999999999954,-0.00011949999999999461,3.0000000000000512e-05,0.0010373199754734053,-0.00019576088155592863,-0.0031987205144059505
1504197116.62,-1.0,-1.232107506,0.0313616667,-0.28100955575,0.206048,-0.010792,-0.202492,-0.4378473092,-9.2093857884,3.34154734095,-3.011304,1.219989,-1.0195,0.00019100000000000367,-0.0001270000000000021,3.3299999999999996e-05,0.0010812293704167697,-0.00019870744096661674,-0.0030593410220615125
1504197116.63,-1.0,-1.0945398198,0.0180834626,-0.23906651369999998,0.194552,-0.010648,-0.250545,-0.415605827,-9.203737158,3.3599053897499997,-3.018523,1.218317,-1.011918,0.00017199999999999854,-0.00013200000000000017,3.5299999999999394e-05,0.001054377483155955,-0.00016677193058756146,-0.0029877109278257374
1504197116.64,-1.0,-0.9593355362499999,0.020662611549999998,-0.27077141315,0.165808,-0.02742,-0.290059,-0.3890494188,-9.198980932749999,3.3760471356499995,-3.026861,1.216917,-1.003262,0.00014899999999999636,-0.00013900000000000023,3.8200000000000386e-05,0.0009863580740143707,-0.000132129030538497,-0.0028486048085259452
1504197116.65,-1.0,-0.7550728233999999,0.0289688441,-0.2978868004,0.130387,-0.064395,-0.30924,-0.37648710015,-9.196960762849999,3.38297063055,-3.030759,1.216323,-0.999014,0.00012300000000000505,-0.00015300000000000036,4.1099999999999644e-05,0.0009564058626503336,-9.313745196681822e-05,-0.0027165169217855945
1504197116.66,-1.0,-0.6132294378,0.07655070989999999,-0.2996519974,0.116025,-0.127145,-0.311289,-0.34400747535,-9.19411683435,3.39415021155,-3.040585,1.215487,-0.98971,9.399999999999686e-05,-0.0001779999999999976,4.4900000000000495e-05,0.0009076811178032607,-8.440208575466457e-05,-0.0025128810258341905
1504197116.67,-1.0,-0.44352535955,0.15607283474999997,-0.31608794279999997,0.122856,-0.192227,-0.28768,-0.31094925819999997,-9.19103754625,3.4056534119999995,-3.050541,1.214586,-0.98097,3.699999999999537e-05,-0.00017099999999999754,5.680000000000008e-05,0.0009018922503956084,-0.00013827071716643324,-0.0022218437279073466
1504197116.68,-1.0,-0.4758971112,0.152003075,-0.32984667274999996,0.150014,-0.245763,-0.256584,-0.27857750655,-9.1869677865,3.41941214195,-3.060303,1.213397,-0.973051,3.700000000000231e-05,-0.00017100000000000448,5.680000000000008e-05,0.0009022014589754601,-0.00013626705975244846,-0.002221977822482235
1504197116.69,-1.0,-0.5009629085999999,0.07195139105,-0.37502590929999996,0.181692,-0.272678,-0.236182,-0.25874846025,-9.1839865649,3.42898343235,-3.066277,1.212528,-0.969078,-2.4999999999997247e-05,-0.00016399999999999748,6.749999999999985e-05,0.0008647187871340112,-0.00020604331403983878,-0.0018726618362842062
1504197116.7,-1.0,-0.5969896254,-0.09552657764999999,-0.3870292489,0.202953,-0.277125,-0.227598,-0.22811248565,-9.1776710823,3.44800833335,-3.075531,1.210696,-0.962167,-6.300000000000056e-05,-0.00019399999999999973,7.02999999999997e-05,0.0008606783622198133,-0.00024454927738148946,-0.001616463912774313
1504197116.71,-1.0,-0.7414513865499999,-0.30617341964999994,-0.3874411282,0.20198,-0.270714,-0.23615,-0.19722153815,-9.171120240099999,3.4672784005999997,-3.084773,1.208807,-0.955195,-9.900000000000186e-05,-0.00021700000000000191,7.63000000000005e-05,0.0009116405638229796,-0.0002678534088034201,-0.0014035243205669512
1504197116.72,-1.0,-0.9187261985999999,-0.4589708333,-0.34808704175,0.178651,-0.267301,-0.25968,-0.16464384684999997,-9.16512837695,3.4847930775,-3.094381,1.207084,-0.947792,-0.00013099999999999917,-0.0002329999999999971,8.619999999999982e-05,0.0010179587372740606,-0.0002609533348845172,-0.001198956405060514
1504197116.73,-1.0,-1.08662585325,-0.5317361762999999,-0.29554301104999997,0.135026,-0.266902,-0.286407,-0.15102241,-9.163431826499998,3.4898533089,-3.098344,1.206599,-0.94557,-8.000000000000368e-05,-0.0001260000000000011,4.914999999999954e-05,0.0005970828607204659,-0.00011100454343426769,-0.0004975792165750614
1504197116.74,-1.0,-1.24698419405,-0.5648826533,-0.30326084459999997,0.080822,-0.257902,-0.314269,-0.11381597989999999,-9.1605094448,3.49892446015,-3.109075,1.205764,-0.936865,-7.999999999999674e-05,-0.0001260000000000011,4.915000000000041e-05,0.0005971383244744999,-0.00011070728940798524,-0.0004976456637819648
1504197116.75,-1.0,-1.36844936095,-0.6288416245999999,-0.28724658515,0.033056,-0.240437,-0.33573,-0.07495222594999999,-9.1592541936,3.50325899945,-3.1202,1.205405,-0.927577,-0.00038599999999999746,-0.0005819999999999992,0.00023860000000000027,0.0028533204206653284,-0.0003260458319200854,-0.0014527369337064
1504197116.76,-1.0,-1.41042182295,-0.71469884535,-0.26808439105,-0.008403,-0.231554,-0.351829,-0.034921480649999996,-9.15944051995,3.5033962925499997,-3.131624,1.205459,-0.917828,-0.00022400000000000198,-0.000344000000000004,0.00014289999999999962,0.0017752581341559104,-0.00011289770074807137,-0.00047656739863521924
1504197116.77,-1.0,-1.3839438679499998,-0.7046078024999999,-0.27997005085,-0.037305,-0.240893,-0.351821,-0.0201036325,-9.16414771195,3.4911870133,-3.135833,1.206803,-0.914855,-0.00024400000000000116,-0.00038499999999999646,0.00016250000000000032,0.0021306184044207477,-4.590672193538481e-05,-0.0002548455549610251
1504197116.78,-1.0,-1.4076073143999999,-0.6577320155,-0.34732212304999993,-0.04393,-0.256842,-0.332591,0.01972117315,-9.165677549349999,3.4871662868,3.135938,1.207243,-0.905334,-0.00022549999999999654,-0.0003984999999999961,0.00019229999999999942,0.002868662520075116,-0.00024016254700276463,-0.00017335896729714362
1504197116.79,-1.0,-1.46353463935,-0.63812852215,-0.4532829763,-0.0347,-0.281464,-0.297308,0.057535615549999995,-9.16687396065,3.4835966661999995,3.125077,1.207587,-0.896666,-0.00022550000000000348,-0.00039850000000000996,0.00019230000000000115,0.002868761665962838,-0.00023966801037311747,-0.00017405082739113675
1504197116.8,-1.0,-1.5142252131999998,-0.642727841,-0.5409936539,-0.008386,-0.294521,-0.246004,0.09147643119999999,-9.167217193399999,3.48197856895,3.115328,1.207684,-0.889367,-0.00024099999999999816,-0.0004730000000000012,0.00021579999999999863,0.0036499273966248413,-0.00029443257066352757,3.5814299125358495e-05
1504197116.81,-1.0,-1.5648471404999997,-0.6331859705499999,-0.49555944445,0.005267,-0.286144,-0.194706,0.0870242121,-9.1725716243,3.4679648661,3.116504,1.209224,-0.892433,-0.0002529999999999963,-0.0005289999999999878,0.0002270500000000012,0.004152984185798569,-0.0003250787782926867,0.0003813782655734954
1504197116.82,-1.0,-1.6934907752,-0.64293378065,-0.3698872247,-0.016179,-0.268968,-0.145673,0.11107011789999999,-9.172699110749999,3.4669449745,3.109566,1.209261,-0.887945,-0.0002530000000000032,-0.0005290000000000017,0.00022704999999999947,0.004152850524755225,-0.0003266565448112324,0.0003800238008433432
1504197116.83,-1.0,-1.81243563305,-0.67525649905,-0.2860599805,-0.070626,-0.247251,-0.104177,0.13035979844999998,-9.1744937277,3.4615218970499995,3.10395,1.209778,-0.884656,-0.0002590000000000023,-0.0005920000000000092,0.00024240000000000025,0.004802110604841703,-9.620363327811354e-05,0.0006590615256789056
1504197116.84,-1.0,-1.9401378293499998,-0.8084406126999999,-0.23432990174999999,-0.14845,-0.211492,-0.059544,0.1444911811,-9.178828267,3.4494401042499994,3.099729,1.211032,-0.882506,-0.0002539999999999973,-0.0006469999999999948,0.00026419999999999916,0.00544146285881153,-0.00010541840087019416,0.0010328139031021144
1504197116.85,-1.0,-1.9625852512,-1.00020965345,-0.1391759768,-0.22093,-0.166174,-0.006307,0.10707881135,-9.19040992065,3.4198240212499997,3.110292,1.214403,-0.893956,-0.00012199999999999711,-0.0003564999999999957,0.00014745000000000036,0.003152454289900186,-3.0495722034284967e-06,0.000642315910198421
1504197116.86,-1.0,-2.0353898208,-1.2175740507,-0.0879656505,-0.276505,-0.138077,0.057591,0.1082065761,-9.19945165195,3.39540546275,3.109734,1.217054,-0.894898,-0.00012200000000000405,-0.0003565000000000096,0.00014745000000000036,0.0031524306483314835,-5.073937317412458e-06,0.0006422988176387756
1504197116.87,-1.0,-2.0755970858,-1.4515018798,-0.163771055,-0.293811,-0.126282,0.123719,0.10262659225,-9.20943482165,3.3684077553,3.111134,1.220004,-0.897741,-0.00024099999999999816,-0.000788999999999998,0.00033069999999999974,0.007360969053532562,-3.469728792482307e-05,0.0014240605782452898
1504197116.88,-1.0,-2.11034204675,-1.62110789155,-0.27084986634999997,-0.271586,-0.116928,0.174977,0.09173140409999998,-9.218947272149999,3.3426064591499998,3.114158,1.222838,-0.902261,-0.0005269999999999997,-0.001801999999999998,0.0007529000000000008,0.0177596652374461,-0.000618699559747693,0.0032238009531170286
1504197116.89,-1.0,-2.0860509747,-1.68179144175,-0.18733643494999996,-0.2371,-0.069268,0.182424,0.07760982809999999,-9.22724369805,3.3200021309,3.11822,1.225327,-0.90748,-0.00022400000000000198,-0.001010999999999998,0.00041399999999999944,0.010183179059561898,-0.0005584882524691803,0.001750258541460381
1504197116.9,-1.0,-1.8238211537,-1.5988173761,0.15298373999999998,-0.237176,0.032003,0.145954,0.06303714619999999,-9.23508901805,3.2984078875999994,3.122485,1.227699,-0.911978,-0.0002349999999999991,-0.0010620000000000074,0.00040899999999999964,0.010815371451527556,-0.0005586862025328543,0.0018055453960711398
1504197116.91,-1.0,-1.3326452818,-1.32763408365,0.5358647759499999,-0.29223,0.184894,0.091151,0.0486017574,-9.244268042449999,3.27286156435,3.126744,1.23049,-0.91496,-0.0002360000000000001,-0.0011049999999999949,0.0003910000000000007,0.01137314881999929,-0.0004689389080316797,0.00196209873297426
1504197116.92,-1.0,-0.82347420715,-1.10943612115,0.70795187015,-0.367742,0.333659,0.067275,0.0323423317,-9.25566336975,3.2406859456999997,3.131612,1.23399,-0.916939,-0.00021100000000000285,-0.001175499999999996,0.00036950000000000004,0.012504336385765313,-0.00016218539167134338,0.002392411651702453
1504197116.93,-1.0,-0.55392862525,-1.0481935918999998,0.8179726764999999,-0.453655,0.413195,0.092604,0.011944499699999998,-9.2696182327,3.2006944269999997,3.137861,1.238323,-0.919347,-0.0002109999999999959,-0.0011755000000000099,0.00036950000000000004,0.012503926796563869,-0.0001920782645516983,0.00239019883305458
1504197116.94,-1.0,-0.5850255124,-1.0494880697,0.8648288502,-0.563456,0.458798,0.146771,-0.014572681899999999,-9.28657393055,3.1511414245499996,-3.136968,1.243662,-0.923448,-0.0001444999999999988,-0.0013059999999999877,0.0003699999999999988,0.014577758212761971,0.000289690980536772,0.0027552691725589717
1504197116.95,-1.0,-0.56275461025,-1.14246491835,0.7628396901999999,-0.695748,0.500313,0.21158,-0.048062391649999994,-9.307177702199999,3.0894281760999998,-3.126037,1.250263,-0.929812,-0.00014450000000000573,-0.0013060000000000016,0.00037000000000000054,0.014578426456185234,0.00024950634766507385,0.002759186302436545
1504197116.96,-1.0,-0.30487894185,-1.03596469935,0.675285919,-0.824741,0.551395,0.272108,-0.08851482289999998,-9.331233414649999,3.0150741558,-3.112243,1.258143,-0.938635,-5.2499999999996994e-05,-0.0006970000000000032,0.00018400000000000014,0.007803552928625113,0.00018341224942930445,0.0013973631631274408
1504197116.97,-1.0,0.04457122425,-0.75975059545,0.6861713005,-0.932588,0.572477,0.323119,-0.13465511115,-9.35784866275,2.9296680409499998,-3.095662,1.26709,-0.950047,-5.2499999999996994e-05,-0.0006970000000000032,0.00018400000000000014,0.0078037666988790555,0.00017250502796861689,0.0013987459755693266
1504197116.98,-1.0,0.3824789633,-0.5595576423499999,0.6893388484499999,-1.027741,0.562581,0.346455,-0.18315880204999999,-9.386248721149999,2.8346317957999996,-3.077068,1.27693,-0.963586,-9.30000000000028e-05,-0.0014330000000000037,0.0003610000000000002,0.015904850435411788,0.0003106132681922613,0.002822004223004382
1504197116.99,-1.0,0.8988383124,-0.5347958510999999,0.4239218662,-1.092867,0.536511,0.313299,-0.2289068243,-9.415649057849999,2.7319365569999996,-3.057999,1.287464,-0.977794,-8.400000000000074e-05,-0.001444999999999988,0.0003449999999999998,0.015934554440363957,0.0002881152112781393,0.002874912891517978
1504197117.0,-1.0,1.6044463932,-0.5513788962499999,0.04478697055,-1.134455,0.529411,0.297228,-0.2711734858,-9.4450199746,2.62460277275,-3.038639,1.29838,-0.992429,-2.8000000000000247e-05,-0.0014220000000000066,0.00032899999999999943,0.01571686734419253,0.00032605499127491555,0.002898598403938135
1504197117.01,-1.0,2.2025735899999996,-0.41893028135,-0.1828744092,-1.149633,0.503954,0.304718,-0.31325382095,-9.473616166,2.5145231265000003,-3.017655,1.309439,-1.008866,-9.299999999999586e-05,-0.0027729999999999977,0.0005249999999999994,0.029862163050962565,0.0003775116817776869,0.0057103939866463005
1504197117.02,-1.0,2.4208500056999998,-0.4361409521,0.022790654599999998,-1.157493,0.470959,0.330381,-0.35569700214999994,-9.50098652615,2.4031293891499996,-2.994645,1.320469,-1.027695,-6.1000000000005494e-05,-0.001356999999999997,0.00020700000000000059,0.014499769429986653,7.541620955064943e-05,0.0024275073547816994
1504197117.03,-1.0,2.5032258656999997,-0.28368677119999997,0.37988020105,-1.156147,0.382486,0.34655,-0.3975223644,-9.52685646885,2.2915983587,-2.969831,1.331347,-1.049105,-7.199999999999568e-05,-0.0013330000000000009,0.00017900000000000034,0.014299725045639144,2.7772129504333165e-05,0.001992154764404841
1504197117.04,-1.0,2.4647837977,0.06989199454999999,0.56685378995,-1.167786,0.284508,0.384062,-0.43988709239999996,-9.5513829005,2.1789984034,-2.942395,1.342131,-1.07413,-0.00010500000000000093,-0.0013159999999999977,0.00016500000000000022,0.014143684217647667,-0.00022168339249506452,0.0016072798522321907
1504197117.05,-1.0,2.2127136661,0.28187254095,0.56065598715,-1.171073,0.16621,0.425893,-0.48409547059999997,-9.574369688099999,2.0657904358,-2.911405,1.352714,-1.103897,-0.00014300000000000423,-0.0013150000000000106,0.00016099999999999795,0.014242752993095742,-0.0006296818778153135,0.0012104134323990268
1504197117.06,-1.0,2.2514499336,0.48863594955,0.49451993954999995,-1.137997,0.028471,0.440065,-0.5274800902,-9.5952774659,1.9551910370999999,-2.878084,1.362798,-1.137319,-0.00017099999999999754,-0.0013179999999999997,0.00016000000000000042,0.014597917501240287,-0.0009787961512708332,0.0007592912074781966
1504197117.07,-1.0,2.4591057473499998,0.45537179274999995,0.5739243846,-1.071524,-0.071166,0.429682,-0.5681384611,-9.613645321349999,1.8508090545,-2.843755,1.372069,-1.172905,-0.00021050000000000235,-0.0013574999999999976,9.15000000000013e-05,0.016692352092554374,-0.0021499077447157955,-0.0003807099740444908
1504197117.08,-1.0,2.35488067115,-0.009992976349999998,0.89325832855,-1.016302,-0.101461,0.433033,-0.6077181005,-9.6296595808,1.7523404818499997,-2.807769,1.380521,-1.210578,-0.0002104999999999954,-0.0013574999999999976,9.15000000000013e-05,0.01669416187589623,-0.0021432612399527873,-0.00041657852747323254
1504197117.09,-1.0,2.0042439004,-0.24857896419999997,0.90551664105,-0.993878,-0.082493,0.459724,-0.6500239885999999,-9.643810576749999,1.6567354509999999,-2.767696,1.388307,-1.252261,-0.0001999999999999988,-0.001364000000000004,2.999999999999531e-06,0.018312657368459107,-0.0037047045224125608,-0.0023944623174827484
1504197117.1,-1.0,1.4280051463999999,-0.3485871809,0.5726102934999999,-0.981797,-0.047414,0.446874,-0.6928398225,-9.65663767495,1.5619639853999998,-2.7241,1.39566,-1.297137,-0.00027699999999999947,-0.0013779999999999903,6.499999999999562e-06,0.016395914709060433,-0.003257754241184463,-0.0027639768020348843
1504197117.11,-1.0,0.96651400405,-0.61900555465,0.24556832265,-0.966087,0.015384,0.392353,-0.7321841023,-9.6684350749,1.4682320246999998,-2.678999,1.402704,-1.342938,-0.0002770000000000064,-0.0013780000000000042,6.499999999999562e-06,0.016406768106433267,-0.0032120088234413036,-0.0028173755378897436
1504197117.12,-1.0,0.7518072089499999,-0.7999088272,0.1899744238,-0.940752,0.090873,0.353837,-0.7681156679,-9.67921258325,1.3759808681499999,-2.632452,1.409404,-1.389407,-0.0002884999999999971,-0.001229999999999995,0.00011500000000000052,0.011918883942395153,-0.0013024409436226403,-0.0008986341706719303
1504197117.13,-1.0,0.6628903134,-0.61420029615,0.358334991,-0.915427,0.179126,0.337715,-0.80325289485,-9.688803486949999,1.2854360687,-2.583075,1.415609,-1.437813,-0.0002884999999999971,-0.0012300000000000089,0.00011500000000000052,0.011920680022813768,-0.001291646931953938,-0.0009141536466942268
1504197117.14,-1.0,0.44778144565,-0.2653091091,0.5269113045,-0.926451,0.270854,0.341803,-0.8392334937,-9.69741372565,1.1942244170499998,-2.529028,1.421402,-1.489977,-0.0003170000000000048,-0.0009649999999999936,0.0001784999999999981,0.007966402557441299,-0.0007336400943978028,0.0006226158347706345
1504197117.15,-1.0,0.3764772935,0.17216554739999998,0.58456459985,-1.000559,0.371583,0.387396,-0.87925443235,-9.70543556535,1.09631482345,-2.465626,1.426996,-1.550568,-0.00031699999999999784,-0.0009650000000000075,0.00017850000000000157,0.00796617798038457,-0.0007385718712988876,0.0006167649010796472
1504197117.16,-1.0,0.2850204756,0.3403495949,0.4426133411,-1.12062,0.577994,0.617383,-0.9371332806499999,-9.711849114449999,0.9859703976499999,-2.381583,1.431637,-1.630213,-0.00037000000000000227,-0.0008099999999999913,0.00024000000000000063,0.005795151713913871,-0.0006670349706989764,0.0010869213755881901
1504197117.17,-1.0,-0.5224002455,-1.4493640301,0.3814982983,-1.161817,0.56543,0.728343,-1.01197763345,-9.715693321249999,0.8669274732999999,-2.279146,1.434493,-1.72765,-0.0001999999999999988,-0.0003549999999999942,0.00014199999999999977,0.002293184051235464,-0.0003148071747540726,0.000466419362486592
1504197117.18,-1.0,-0.44976238895,-1.44796167915,0.49212711694999994,-1.061682,0.384566,0.684005,-1.08461549,-9.7170956722,0.7562986546499999,-2.179705,1.435551,-1.82362,-0.0001999999999999988,-0.0003550000000000081,0.00014199999999999977,0.0022930577168498445,-0.0003158735481667563,0.00046569981146671324
1504197117.19,-1.0,0.26616228765,0.28873719594999997,0.1484138411,-0.98465,0.37121,0.620118,-1.1485744613,-9.71710547885,0.6549861535,-2.089063,1.435557,-1.911503,-0.0008109999999999992,-0.0011800000000000005,0.0006759999999999995,0.006221453262812204,-0.000888948022092162,0.0012857113272506382
1504197117.2,-1.0,0.81513855465,1.26724473295,0.5109656915999999,-0.942099,0.415737,0.502699,-1.2035995744499999,-9.71653669315,0.5574492125999999,-2.004534,1.435123,-1.99264,-0.0003939999999999985,-0.0004900000000000043,0.00036900000000000127,0.0020272851558078564,-0.00031284440885159803,0.000692756172677278
1504197117.21,-1.0,1.26447925765,1.1119172036,1.38884719295,-0.859182,0.451384,0.406713,-1.2465232815,-9.715928680849998,0.46606104125,-1.928594,1.434672,-2.064854,-0.0003870000000000054,-0.0004200000000000037,0.00037499999999999686,0.0012541028770947094,-0.0001838710718493619,0.0009377537298252969
1504197117.22,-1.0,1.94880690795,1.4320160662499999,1.6164301195,-0.743768,0.431325,0.337567,-1.2827686598999999,-9.7147616895,0.38511695214999997,-1.862461,1.433794,-2.127168,-0.00038299999999999446,-0.0003399999999999931,0.0003720000000000008,0.0003965689103528902,2.6364435241621464e-05,0.0012661489145791016
1504197117.23,-1.0,2.1877067086,0.8478143124499999,1.48544269545,-0.635304,0.35057,0.281325,-1.3127770089000002,-9.713241658749999,0.31618600929999996,-1.807151,1.432664,-2.179235,-0.00039000000000000146,-0.00025999999999999635,0.0003630000000000022,-0.000506714147677112,0.0002317476309972033,0.001606069171790625
1504197117.24,-1.0,2.2815661557499998,0.86022953135,0.95806067175,-0.608051,0.25982,0.2335,-1.3373622804499998,-9.7117412413,0.25295273009999997,-1.757732,1.431556,-2.226292,-0.0004310000000000008,-0.00011000000000001287,0.0003505000000000001,-0.0022948793754837826,0.0004348132032629959,0.001933342831604512
1504197117.25,-1.0,2.41081780275,0.6642044045,0.22919121715,-0.594272,0.201177,0.157841,-1.3549750238499998,-9.710691929749999,0.19188672055,-1.71148,1.430792,-2.270912,-0.0004310000000000008,-0.00010999999999999899,0.00035049999999999665,-0.002293990793637457,0.0004392438558193934,0.0019323028532939324
1504197117.26,-1.0,2.4730802236000002,0.49192117729999996,-0.25053048755,-0.565126,0.227603,0.132228,-1.3687533671,-9.709750491349999,0.13306643385,-1.667708,1.430101,-2.312881,-0.0004950000000000024,1.0000000000010001e-05,0.00035500000000000115,-0.003939941075276732,0.0004800198567764813,0.00208360518908135
1504197117.27,-1.0,2.3180174738,0.46431545755,-0.035372586549999994,-0.512063,0.194129,0.135581,-1.38188447145,-9.70847562685,0.07920831205000001,-1.628056,1.429179,-2.350828,-0.0005369999999999958,4.999999999999449e-05,0.00037399999999999933,-0.004502734132394659,0.0002971702054559433,0.0022637446960721563
1504197117.28,-1.0,1.4911011324999999,0.59892153545,0.1585146906,-0.470891,0.137317,0.13255,-1.3947409895999998,-9.7069163695,0.030175062049999996,-1.592428,1.428055,-2.385285,-0.0005389999999999978,6.0000000000004494e-05,0.0003730000000000018,-0.004550026926396056,0.00019531443493958633,0.002609670001720077
1504197117.29,-1.0,1.04194675585,0.786297197,-0.127290317,-0.462525,0.114873,0.130469,-1.4072150484000001,-9.705151172499999,-0.016514398599999997,-1.559063,1.426794,-2.417839,-0.0005310000000000037,-3.0000000000002247e-05,0.00041199999999999917,-0.004157913890630915,0.00014135687389837948,0.0028759883530399266
1504197117.3,-1.0,0.7254763537,0.8748316331999999,-0.28034270355,-0.460324,0.110613,0.1102,-1.4185907624,-9.70329771565,-0.06292927305,-1.526467,1.425487,-2.449633,-0.0005010000000000014,-3.0000000000002247e-05,0.0004480000000000005,-0.003592253538052592,0.0002707168867781551,0.002964468467015924
1504197117.31,-1.0,0.4327478512,1.00468148585,-0.38058627985,-0.460242,0.104247,0.083526,-1.4272402277,-9.701620778499999,-0.10903033469999998,-1.494552,1.424311,-2.480853,-0.000452000000000001,-0.00011999999999999511,0.0004709999999999992,-0.0028274381847976926,0.00045648858859825836,0.0029059511758341428
1504197117.32,-1.0,0.33591698909999995,1.17563100865,-0.5812205322,-0.44519,0.107338,0.065401,-1.4338106832,-9.70004190785,-0.15424879784999998,-1.463628,1.42321,-2.511034,-0.0003969999999999946,-0.0001799999999999996,0.0004730000000000012,-0.002057414486980491,0.0007274819774707453,0.0026656035314021054
1504197117.33,-1.0,0.25090314025,1.2561141852,-0.5715217553499999,-0.403327,0.120876,0.03663,-1.43797850945,-9.6986591702,-0.1962702931,-1.435145,1.422258,-2.538618,-0.0003670000000000062,-0.00023000000000000798,0.0004620000000000006,-0.0013288691390740404,0.0008651250689442058,0.002355956577421381
1504197117.34,-1.0,-0.05438768089999999,1.31206112345,-0.56434328755,-0.328316,0.133093,-0.00916,-1.4378019897499998,-9.69790405815,-0.23187823924999998,-1.410899,1.421735,-2.561856,-0.0003579999999999972,-0.0002999999999999947,0.0004369999999999999,-0.0005382123980406384,0.000813098368898757,0.0020321610046604155
1504197117.35,-1.0,-0.19434818969999998,1.5060366604499997,-0.512495529,-0.242517,0.173969,-0.032566,-1.43476192825,-9.697639278599999,-0.25993506489999996,-1.391573,1.421557,-2.579761,-0.0003599999999999992,-0.0003999999999999976,0.0004009999999999986,0.0005460689249527917,0.0005793802373936785,0.001690763824995667
1504197117.36,-1.0,-0.28529506179999997,1.3513955966,-0.35015624489999997,-0.169515,0.222399,-0.045334,-1.43015280275,-9.69772753845,-0.28116646214999996,-1.37667,1.421617,-2.592703,-0.00037700000000000233,-0.0005000000000000004,0.0003730000000000018,0.0015792997306074419,0.00023561283768236407,0.0013752252405417886
1504197117.37,-1.0,-0.5049542151499999,1.17567023525,-0.2711538725,-0.099884,0.252736,-0.052738,-1.4244747523999999,-9.698129611099999,-0.29597450365,-1.365934,1.421888,-2.601082,-0.0004149999999999987,-0.0005399999999999988,0.00036199999999999774,0.0018510172461534413,-0.00011890908514478049,0.0012411629565811655
1504197117.38,-1.0,-0.51848739215,1.23021482255,-0.24352853945,-0.035639,0.276723,-0.060141,-1.41797294345,-9.69880626995,-0.3048887485,-1.359003,1.422354,-2.605353,-0.0004659999999999942,-0.0005099999999999966,0.0003620000000000012,0.0014544399570279865,-0.00041000365584142884,0.0013776632829300972
1504197117.39,-1.0,-0.5481230884499999,1.3828357164999998,-0.27270332319999996,0.023425,0.325253,-0.059057,-1.4110788684999997,-9.6996986751,-0.30848778904999996,-1.355565,1.42297,-2.605677,-0.0004699999999999982,-0.0004900000000000043,0.00021799999999999944,0.0006890530690142338,-0.0005148911502799169,0.0016430380699798963
1504197117.4,-1.0,-0.5332267870999999,1.5270817313499998,-0.31142978405,0.074062,0.376003,-0.076137,-1.40308644875,-9.700885279749999,-0.30762480385,-1.354963,1.423794,-2.602604,-0.0004940000000000083,-0.0004200000000000037,0.00022300000000000098,7.918939491657895e-05,-0.0003707875511047565,0.0016975250029322986
1504197117.41,-1.0,-0.42948223674999997,1.4819613347,-0.4526945773,0.10141,0.439748,-0.109292,-1.39190686775,-9.702601443499999,-0.30417286304999996,-1.355649,1.424996,-2.597635,-0.0005000000000000004,-0.00036999999999999533,0.0002249999999999995,-0.00032153370754950394,-0.00014547488842131528,0.0016477250108664077
1504197117.42,-1.0,-0.36073762024999995,1.2744722339999999,-0.7737152650499999,0.102881,0.471735,-0.139233,-1.3775989653999998,-9.704758906499999,-0.3005345959,-1.356003,1.426516,-2.59257,-0.0005124999999999991,-0.0003550000000000081,0.00019199999999999773,-0.0002732009338590746,-0.0003185910798237934,0.0016755143872643208
1504197117.43,-1.0,-0.47522045235,1.02250997555,-1.1436907496,0.099736,0.476028,-0.143515,-1.3621829116,-9.707034049299999,-0.2973180147,-1.355898,1.428139,-2.587862,-0.0005124999999999991,-0.0003549999999999942,0.0001920000000000012,-0.00027373830306931524,-0.0003181332498691791,0.001675622987873271
1504197117.44,-1.0,-0.77414675765,0.8764791503999999,-1.39655521985,0.099849,0.499454,-0.128613,-1.3477082961999998,-9.70914247905,-0.2943564064,-1.355764,1.42966,-2.583019,-0.0005180000000000046,-0.0004100000000000076,0.00014300000000000077,0.0005496329070022732,-0.0006754631942531564,0.0019374804329482798
1504197117.45,-1.0,-0.9857644579999999,0.8240135729,-1.27489391995,0.121299,0.538663,-0.088084,-1.3363129689,-9.7108390295,-0.2903160666,-1.356873,1.430896,-2.576577,-0.0004860000000000003,-0.00043999999999999595,0.0001470000000000013,0.0011050162642707306,-0.0005323217545918357,0.0019930398377270286
1504197117.46,-1.0,-0.94103632735,0.73217429565,-1.031463447,0.163799,0.545723,-0.041057,-1.3300170995999998,-9.71192756765,-0.28280417269999997,-1.361284,1.431692,-2.566569,-0.00039400000000000546,-0.0004299999999999998,0.0001999999999999988,0.0010681524790399077,-0.00020993926785783934,0.002924940971924861
1504197117.47,-1.0,-0.59280218585,0.46797333799999996,-0.93874157125,0.191544,0.531666,-0.064467,-1.3231524445999998,-9.71318281885,-0.27167362494999997,-1.368289,1.432618,-2.554118,-0.0003939999999999916,-0.0004299999999999998,0.0001999999999999988,0.0010675362666894284,-0.00021305852325226304,0.002924722942966418
1504197117.48,-1.0,-0.2705850868,0.41443883564999995,-1.0549405671,0.199175,0.532701,-0.09541,-1.31317908155,-9.714859756,-0.25963105875,-1.375605,1.433869,-2.541328,-0.0004079999999999917,-0.0003999999999999976,0.00026600000000000235,0.0009779929880933125,0.00031007309700514796,0.0020884376443746078
1504197117.49,-1.0,-0.13836202485,0.40325925464999995,-1.05328324325,0.203419,0.50713,-0.131649,-1.29980281095,-9.7169976057,-0.2466176342,-1.383289,1.435476,-2.52838,-0.0005435000000000023,-0.0003449999999999981,0.0002129999999999979,-0.0002875286304391267,4.360856837726246e-05,0.0013391378124553155
1504197117.5,-1.0,0.0750404858,0.1013811477,-1.08876370295,0.212832,0.476162,-0.14332,-1.2848574763499998,-9.71934139505,-0.23238818504999997,-1.391862,1.437255,-2.514834,-0.0005435000000000023,-0.0003449999999999981,0.00021300000000000138,-0.00028747012403584904,4.399334497651175e-05,0.0013391261389843478
1504197117.51,-1.0,0.14075484745,-0.27212473085,-1.40928425155,0.233816,0.429107,-0.14747,-1.2696277488999999,-9.721724411,-0.21578552659999997,-1.402445,1.439094,-2.499711,-0.0007309999999999955,-0.00027000000000000635,0.00022900000000000004,-0.0014255037562165285,-0.0003580496677926259,0.0011013472787272383
1504197117.52,-1.0,0.15841662410000001,-0.82180707665,-1.6770352164999998,0.247337,0.39703,-0.138852,-1.2494260498999998,-9.72404858705,-0.22829881199999996,-1.390069,1.440916,-2.507697,-0.0008190000000000003,-0.0002500000000000002,0.0002239999999999985,-0.0019005866394843363,-0.000462882612607185,0.0012436832367365147
1504197117.53,-1.0,0.07753137489999999,-1.23321565745,-1.9704599911499998,0.258772,0.366022,-0.128103,-1.2358732596,-9.726235469999999,-0.20795981989999998,-1.404087,1.44265,-2.489786,-0.0008800000000000058,-0.00021000000000000185,0.0002149999999999999,-0.0022396658425323235,-0.0004091577476759145,0.001766939236312881
1504197117.54,-1.0,-0.053367789299999996,-1.6244127326,-2.1884324007,0.269025,0.339256,-0.087477,-1.22542917735,-9.728000667,-0.1864636431,-1.41979,1.444059,-2.470483,-0.0008800000000000058,-0.00021000000000000185,0.0002149999999999999,-0.0022404250640628565,-0.0004052022616138906,0.0017678828726095386
1504197117.55,-1.0,-0.2969649753,-2.0153548348499997,-2.4799939118499994,0.287722,0.304954,-0.040418,-1.2200649397999999,-9.729099011799999,-0.16276097005,-1.438177,1.444951,-2.448775,-0.0008769999999999889,-0.00021999999999999797,0.00020000000000000226,-0.0020579722430433822,-0.00024014944904826585,0.002461016731193366
1504197117.56,-1.0,-0.5184579722,-2.4383450693,-2.58227727135,0.278992,0.277326,-0.045722,-1.2155440741499999,-9.730040450199999,-0.13857777114999997,-1.457281,1.445716,-2.426658,-0.0008530000000000065,-0.00028000000000000247,0.00018599999999999867,-0.0015815426774565822,-0.00013931571254977015,0.0028687232381258143
1504197117.57,-1.0,-0.6753055323,-2.3571460073,-2.59834056405,0.262672,0.207181,-0.094727,-1.207590881,-9.731325121349998,-0.11549291704999999,-1.475449,1.446777,-2.406054,-0.0008084999999999898,-0.0003599999999999992,0.00016500000000000195,-0.0007105441264148027,-2.7558523353787834e-05,0.003144563235848441
1504197117.58,-1.0,-0.6636454254499999,-1.7156145775999998,-2.6777057825,0.280472,0.114412,-0.175655,-1.19245922005,-9.733462971049999,-0.09044673295,-1.495094,1.448546,-2.384869,-0.0008085000000000037,-0.0003599999999999992,0.00016499999999999848,-0.0007106227517015284,-2.532597072835152e-05,0.0031445616723924097
1504197117.59,-1.0,-0.46007898475,-1.11431983285,-2.67901006695,0.322146,0.051317,-0.289683,-1.16678541035,-9.73679723205,-0.06100716965,-1.51856,1.451371,-2.360595,-0.0007489999999999997,-0.0004799999999999943,6.300000000000056e-05,-1.4288411181340166e-05,4.982555246169085e-06,0.0031312462073674885
1504197117.6,-1.0,-0.26516200935,-0.7334589667999999,-2.2305323491499998,0.373543,0.021145,-0.374933,-1.13230522895,-9.7410238982,-0.0263014353,-1.547573,1.455044,-2.331074,-0.0007624999999999993,-0.0005100000000000104,7.349999999999718e-05,0.00027048831839726617,5.574306295663689e-06,0.003078506575338036
1504197117.61,-1.0,0.0703136805,-0.86158284905,-1.34314820395,0.426881,-0.059082,-0.50172,-1.08680237295,-9.74623122935,0.014366742249999998,-1.584016,1.459735,-2.294754,-0.0007624999999999993,-0.0005099999999999966,7.350000000000065e-05,0.0002705038498738155,4.742368792998164e-06,0.0030785038334891768
1504197117.62,-1.0,0.60925774455,-1.21348467765,-0.4494976094,0.465317,-0.177477,-0.696779,-1.0239123264999999,-9.75286052475,0.060742390099999995,-1.630051,1.466012,-2.249979,-0.000800000000000009,-0.0005049999999999916,8.750000000000077e-05,0.00010253272637283928,-5.743233605537412e-05,0.0030096296231447717
1504197117.63,-1.0,1.2770415763,-1.15929312975,0.30242727934999997,0.477622,-0.188098,-0.82803,-0.9454493198499999,-9.76035280535,0.1092264677,-1.685815,1.473593,-2.195827,-0.0007999999999999952,-0.0005050000000000054,8.750000000000077e-05,0.00010235926302537557,-5.774023012050655e-05,0.0030096241738443164
1504197117.64,-1.0,2.04073444505,-1.2876719849,1.270353441,0.516817,-0.087193,-0.82387,-0.8635343723999999,-9.767256686949999,0.1594365157,-1.753369,1.481132,-2.12917,-0.0008210000000000023,-0.0004899999999999904,8.89999999999988e-05,-9.525995078329963e-05,-8.617452079584531e-05,0.002904680851403052
1504197117.65,-1.0,2.6810988833999994,-2.4386588821,2.44437615905,0.552335,0.023217,-0.708724,-0.79117110205,-9.7723659516,0.21289256484999997,-1.833654,1.487152,-2.048547,-0.0008220000000000033,-0.0004700000000000121,8.599999999999927e-05,-0.0001670360984968866,-8.653876938957694e-05,0.0027925991449109233
1504197117.66,-1.0,3.5051516829,-3.80571569875,2.94312276475,0.480797,-0.021109,-0.555064,-0.73295882765,-9.77569040595,0.26256324709999995,-1.91478,1.491321,-1.967151,-0.0008149999999999963,-0.0004599999999999882,7.700000000000068e-05,-0.00020295488576249632,-0.00011111939583519082,0.002687895827932829
1504197117.67,-1.0,4.1299137411,-3.8414217113999998,2.2223045698,0.294686,-0.229693,-0.368223,-0.69169244445,-9.777700769199999,0.2975926009,-1.977096,1.493937,-1.90637,-0.0007989999999999942,-0.00045000000000000595,7.000000000000062e-05,-0.0002291889918180079,-9.574164730019596e-05,0.002600224098141868
1504197117.68,-1.0,3.8219849311,-2.9060830476999997,1.0879105244,0.096342,-0.485089,-0.156771,-0.66972554845,-9.778701047499998,0.3144992655,-2.00982,1.495277,-1.877771,-0.0007800000000000029,-0.0004299999999999998,6.199999999999956e-05,-0.00026954649694843624,-8.773073407697396e-05,0.0024744999602286377
1504197117.69,-1.0,2.5328027221,-1.7980983107499997,0.5102792261,-0.024994,-0.708099,0.068634,-0.66876449675,-9.7786225943,0.3190103245,-2.015885,1.495168,-1.878273,-0.0007189999999999974,-0.0004600000000000021,6.500000000000256e-05,-0.00025457333141609695,-7.982253736837919e-05,0.0023542009150532284
1504197117.7,-1.0,1.0399952325,-0.68502392245,0.9656804388,-0.080338,-0.833592,0.268364,-0.6878972709,-9.777337923149998,0.31760797355,-2.003344,1.493457,-1.898967,-0.0007000000000000062,-0.00043999999999999595,6.899999999999962e-05,-0.00018222607712470307,-2.6337390695241325e-05,0.0022126497325466454
1504197117.71,-1.0,0.1084811623,0.5108283985,1.7126039360499998,-0.043334,-0.928869,0.397751,-0.7215536937,-9.7748960673,0.31812772599999994,-1.986052,1.490298,-1.925342,-0.00068,-0.0004299999999999998,7.399999999999768e-05,-8.94318080666423e-05,-7.4433896939396504e-06,0.002067633764396337
1504197117.72,-1.0,-0.15532752935,1.64682092785,2.3772790597499998,0.086129,-0.974761,0.465303,-0.7623983909500001,-9.77139509325,0.33012125894999994,-1.979423,1.485977,-1.941747,-0.0006590000000000068,-0.00043999999999999595,8.000000000000021e-05,1.2809544704062148e-05,-9.962262297991131e-06,0.0019653681076429175
1504197117.73,-1.0,-0.17582342785,2.7684369083,2.8540881894,0.269988,-0.920882,0.482605,-0.8064008294999999,-9.76684480765,0.3590802964,-1.989723,1.48066,-1.940852,-0.0006399999999999878,-0.00043999999999999595,8.700000000000027e-05,0.00016125250686571668,-9.280338492345663e-06,0.0018522741798331355
1504197117.74,-1.0,0.18198200405,3.0785427945999997,3.4740842157,0.506419,-0.766088,0.38881,-0.8444212115499999,-9.7616570898,0.40916285795,-2.022002,1.474966,-1.916572,-0.0006250000000000006,-0.0004300000000000137,9.20000000000018e-05,0.00031806090018582367,-2.666328111344818e-05,0.0017475738614654013
1504197117.75,-1.0,0.6821505739999999,2.8792716666,3.9765769617,0.757945,-0.52393,0.189215,-0.8656133822,-9.756469371949999,0.4821831738499999,-2.079029,1.469585,-1.865212,-0.0006140000000000034,-0.00042999999999998595,9.79999999999974e-05,0.0003848599568365696,-4.680383296173929e-05,0.0016099115457329782
1504197117.76,-1.0,1.154438838,2.5383728993,4.24601467045,0.977077,-0.204769,-0.023381,-0.8668294068,-9.75135030065,0.5745520102,-2.156134,1.46455,-1.790592,-0.0006050000000000083,-0.00040000000000001146,0.0001020000000000014,0.0003828258646749738,-6.004432791595349e-05,0.0014368501935975164
1504197117.77,-1.0,1.3475317765,2.05562093975,4.2491822184,1.202129,-0.076403,-0.231361,-0.8483340649,-9.745642830349999,0.68780901105,-2.252071,1.459198,-1.695144,-0.0005959999999999993,-0.00037999999999999146,0.00010500000000000093,0.00029846881577233475,-4.0170410082307484e-05,0.0013023897023574094
1504197117.78,-1.0,1.1869576894,1.9413636606,3.6911348001499995,1.2081,0.107945,-0.277574,-0.821993403,-9.738827208599998,0.8062243097999999,-2.346508,1.453118,-1.599428,-0.0005579999999999891,-0.0003150000000000097,8.700000000000027e-05,-1.0643340269567148e-05,1.0112296094044737e-05,0.0010965007476377853
1504197117.79,-1.0,1.0585101877,1.6679542586,2.9773773932,1.086059,0.118437,-0.178535,-0.8026350758999999,-9.7308838221,0.9143916593,-2.421194,1.446408,-1.522905,-0.0005580000000000029,-0.0003150000000000097,8.700000000000027e-05,-1.0632248403030786e-05,1.0123966469377521e-05,0.0010965020496974676
1504197117.8,-1.0,0.6825624533,0.952617981,2.5484345221999996,0.938708,-0.059542,-0.01303,-0.7967412792499999,-9.721979383899999,1.0093494512499999,-2.473374,1.439291,-1.470335,-0.0005129999999999996,-0.0002799999999999747,6.300000000000056e-05,-0.00015460878455275662,2.238832318024464e-05,0.0009868961705884471
1504197117.81,-1.0,0.45006639509999996,0.60804171995,1.62385375355,0.811808,-0.324044,0.192158,-0.8076953072999999,-9.7119962142,1.0932649553,-2.5053,1.431742,-1.440675,-0.0004949999999999954,-0.00029000000000001247,5.6000000000000494e-05,-0.00014806053219840187,-5.448932272278384e-06,0.0009531702490156446
1504197117.82,-1.0,0.47141547215,0.57095296965,0.93425012555,0.717116,-0.565365,0.394159,-0.83547754675,-9.700787213249999,1.16919784625,-2.521152,1.42373,-1.429813,-0.0004760000000000042,-0.00029000000000001247,5.3999999999998494e-05,-5.059338568647043e-05,-3.4731466297621694e-05,0.0009869183500594847
