Time,placement_label,user_acc_x(m/s^2),user_acc_y(m/s^2),user_acc_z(m/s^2),rotation_rate_x(rad/s),rotation_rate_y(rad/s),rotation_rate_z(rad/s),gravity_x(m/s^2),gravity_y(m/s^2),gravity_z(m/s^2),attitude_roll(rad),attitude_pitch(rad),attitude_yaw(rad),target_delta_x,target_delta_y,target_delta_z,target_delta_roll,target_delta_pitch,target_delta_yaw
1504282503.3,-1.0,0.052612677249999996,-0.0628802398,0.057221802749999995,-0.081908,-0.065029,0.014215,-1.9688713138499998,-9.56121897045,0.9365154617,-2.014785,1.346598,2.74296,0.0,0.0,0.0,0.0,0.0,0.0
1504282503.31,-1.0,0.06912707585,-0.039216793349999994,0.0519360184,-0.0723,-0.065107,0.013164,-1.9683221414499998,-9.5618367894,0.9313375504999999,-2.012744,1.346883,2.740181,-1.0000000000010001e-05,0.0002600000000000102,-4.000000000000531e-06,-0.00038130468980313026,6.980274215306892e-06,-5.1878953891026924e-05
1504282503.32,-1.0,0.0656849417,-0.030734041099999998,0.0385205212,-0.059504,-0.067342,0.011054,-1.9675768360499999,-9.562385961799999,0.9272383707999999,-2.01119,1.347136,2.737872,-1.0000000000010001e-05,0.00026999999999999247,-9.999999999992654e-07,-0.0004531417043938113,4.241414811767541e-05,-2.339219255520497e-05
1504282503.33,-1.0,0.0564078508,-0.024761791249999998,0.0065508421999999995,-0.033912,-0.071811,0.006836,-1.96667462425,-9.56282726105,0.9246494151999999,-2.010285,1.347337,2.736208,-1.0000000000010001e-05,0.0002600000000000102,4.999999999999796e-06,-0.0004956249706573601,2.6327627610678306e-05,3.445063867191234e-05
1504282503.34,-1.0,0.0408545039,-0.012552512,-0.03384274915,-0.029655,-0.075039,0.003646,-1.96563511935,-9.5632097204,0.9228449915999999,-2.009736,1.347515,2.734886,-4.999999999977245e-06,0.00026999999999999247,9.999999999999593e-06,-0.0005387592721124435,3.927774841949727e-05,3.4362555331513e-05
1504282503.35,-1.0,0.0205743517,-0.02593858925,-0.012572125299999999,-0.022146,-0.074029,-0.002747,-1.9643700614999997,-9.56359217975,0.9216191603499999,-2.009475,1.347689,2.733859,-4.999999999977245e-06,0.00026999999999999247,1.1999999999999858e-05,-0.0005812348934792766,7.720673786670851e-05,-9.754072910150846e-06
1504282503.36,-1.0,0.0170047311,-0.04551266265,0.028027405699999997,-0.017845,-0.07193,-0.005946,-1.9627421575999997,-9.5639157992,0.9217270335,-2.009838,1.347839,2.733481,2.500000000016378e-06,0.00026999999999999247,9.999999999999593e-06,-0.0005656770809279177,2.259965575368561e-05,-5.2555397461850895e-05
1504282503.37,-1.0,0.025526709949999997,-0.05563312545,0.0712355056,-0.017808,-0.068731,-0.008087,-1.9606435345,-9.5642688386,0.9225115654999999,-2.010578,1.348003,2.733488,2.499999999960867e-06,0.00028000000000000247,8.000000000001062e-06,-0.0005651628703553513,-1.9658308519465706e-05,-8.45223824137431e-05
1504282503.38,-1.0,0.028890390899999997,-0.057545422199999995,0.09338872795,-0.018835,-0.064459,-0.009164,-1.9586233646,-9.564592458049999,0.9234039706499999,-2.011349,1.348154,2.733574,2.499999999960867e-06,0.0002700000000000202,4.999999999999796e-06,-0.0005651201150165264,-3.234212515890178e-05,-8.658422988472303e-05
1504282503.39,-1.0,0.0408348906,-0.04666984735,0.0828269659,-0.016663,-0.059151,-0.008103,-1.9563384151499998,-9.564994530699998,0.9240806294999999,-2.012082,1.348339,2.733683,2.500000000016378e-06,0.00026999999999999247,4.999999999999796e-06,-0.0005798949792592545,-2.908520226241329e-05,-9.183452532290914e-05
1504282503.4,-1.0,0.0408741172,-0.026477955,0.0625272004,-0.007068,-0.060295,-0.008085,-1.9542888252999997,-9.565288730199999,0.92538491395,-2.013031,1.348475,2.73402,1.0000000000010001e-05,0.00026999999999999247,4.999999999999796e-06,-0.0006065695085029077,1.1992691458351246e-05,-0.00010205044621147685
1504282503.41,-1.0,0.04494387695,-0.0015396440499999998,0.02395764595,0.005743,-0.059335,-0.008065,-1.95221962215,-9.5655437031,0.9271403042999999,-2.014177,1.348592,2.73458,1.0000000000010001e-05,0.00026999999999999247,8.000000000001062e-06,-0.0006079175365436562,6.243303499631203e-05,-0.00011220293974134599
1504282503.42,-1.0,0.05170065879999999,0.01197391965,-0.0056290171,0.016432,-0.056228,-0.006985,-1.95016022565,-9.565739836099999,0.9294939003,-2.015568,1.348681,2.735412,2.0000000000020002e-05,0.0002600000000000102,1.1999999999999858e-05,-0.000577851055158396,7.888646996501159e-05,-0.0001387718729232157
1504282503.43,-1.0,0.04361997919999999,0.013660663449999999,-0.03605905205,0.032442,-0.055294,-0.00696,-1.9483558020499998,-9.565779062699999,0.93283796795,-2.017327,1.3487,2.736647,1.999999999996449e-05,0.00023999999999999022,-1.4000000000000123e-05,-0.0005230863403253849,6.12498573506759e-05,-0.00011786204597075134
1504282503.44,-1.0,0.049523582499999996,0.02083913125,-0.034931287299999995,0.039924,-0.054289,-0.008017,-1.9463258255,-9.565779062699999,0.9371038607,-2.019511,1.348699,2.738316,1.0000000000010001e-05,0.00023000000000000798,-1.4000000000000123e-05,-0.0004794827201448637,8.549826396953009e-05,-0.00015415342464553117
1504282503.45,-1.0,0.0434042329,0.02878251775,-0.024124358999999998,0.048498,-0.050096,-0.009077,-1.9444037221,-9.5656417696,0.9424484849499999,-2.022127,1.348636,2.740467,2.0000000000020002e-05,0.00023000000000000798,-1.5000000000001124e-05,-0.0004646621325581357,4.541559584048116e-05,-0.00015075863633495779
1504282503.46,-1.0,0.0171616375,0.022702394749999997,-0.009610516999999999,0.054941,-0.046949,-0.012274,-1.94270717165,-9.565396603349999,0.9484403480999999,-2.024964,1.348522,2.742872,1.0000000000010001e-05,0.00023000000000000798,-1.2999999999999123e-05,-0.00045115130557760175,2.030488128590413e-05,-0.00015505348316691148
1504282503.47,-1.0,-0.00279489525,-0.00224572285,0.00032361945,0.055011,-0.039488,-0.014422,-1.9410008145499997,-9.5651318238,0.95451066445,-2.027833,1.348403,2.745385,1.999999999996449e-05,0.00021999999999999797,-1.1999999999999858e-05,-0.0004081589137252539,1.5529294616900557e-05,-0.00014886870432362365
1504282503.48,-1.0,-0.01877973475,-0.019966339399999998,-0.00093163175,0.051843,-0.037327,-0.017633,-1.9392258109,-9.5649160775,0.96025736135,-2.030577,1.348304,2.747812,2.0000000000020002e-05,0.00021999999999999797,-1.3000000000000858e-05,-0.00039482807600266234,2.108078665297164e-05,-0.00014312373214253604
1504282503.49,-1.0,-0.025507096649999998,-0.057221802749999995,0.014886494699999999,0.045526,-0.028747,-0.020861,-1.9372939008499999,-9.5647787844,0.9655431457,-2.033162,1.348239,2.750149,1.999999999996449e-05,0.00021999999999999797,-1.1999999999999858e-05,-0.00045166618850656093,3.1221405975223604e-05,-0.00012195347989074623
1504282503.5,-1.0,-0.02974356945,-0.10205780654999999,0.029184590399999998,0.040252,-0.021244,-0.020883,-1.9352933442499998,-9.5646807179,0.9705445372,-2.035639,1.348192,2.752448,2.0000000000020002e-05,0.00021999999999999797,-1.2999999999999123e-05,-0.0004942308853470578,4.9497686071431346e-05,-6.536193508821508e-05
1504282503.51,-1.0,-0.03379371589999999,-0.11030519919999998,0.025144250599999998,0.038184,-0.013767,-0.021967,-1.9331849145,-9.564661104599999,0.9748790764999999,-2.037868,1.348184,2.754556,2.0000000000020002e-05,0.00021999999999999797,-1.1000000000000593e-05,-0.0005381200568614908,5.974625124882671e-05,-1.1826379426205236e-05
1504282503.52,-1.0,-0.022731814700000002,-0.09511469834999998,0.007060788,0.037178,-0.007363,-0.024115,-1.9309293849999998,-9.5647395578,0.97859579685,-2.03987,1.34822,2.756517,1.999999999996449e-05,0.00023000000000000798,-7.000000000000062e-06,-0.0005673211902070818,7.495174420513173e-05,5.0341750358562365e-05
1504282503.53,-1.0,-0.0187895414,-0.05545660575,-0.012601545249999999,0.034017,-0.003073,-0.025195,-1.92858559565,-9.564896464199999,0.9816554716499999,-2.04162,1.348293,2.758275,4.0000000000040004e-05,0.00021999999999999797,-1.799999999999892e-05,-0.0006116211467963595,0.00010236701263610648,0.0001315788479775426
1504282503.54,-1.0,-0.0487978904,-0.05151433245,-0.0242224255,0.033016,0.001204,-0.031609,-1.9262712262499997,-9.5650925972,0.9842934605,-2.043193,1.348384,2.7599,4.999999999999449e-05,0.00021999999999999797,-9.000000000000327e-06,-0.0006542348828633138,0.00013187219570975905,0.0001915919834382107
1504282503.55,-1.0,-0.051445685899999996,-0.0580161414,-0.0028831550999999997,0.035213,0.006519,-0.035883,-1.9236136241,-9.5653279568,0.9871962289,-2.044948,1.348492,2.761776,3.999999999998449e-05,0.00021999999999999797,-3.0000000000012655e-06,-0.0006548516144553318,0.00014129050028821588,0.0002344338438199367
1504282503.56,-1.0,-0.0519948583,-0.054319034349999996,-0.0081787461,0.022475,0.011956,-0.040184,-1.9206716290999999,-9.56573002945,0.9890594923999999,-2.046335,1.348677,2.763326,3.999999999998449e-05,0.00023000000000000798,-9.999999999992654e-07,-0.0006700445267970867,0.0001484740654962291,0.0002635029711016701
1504282503.57,-1.0,-0.054858400099999996,-0.0421097551,-0.00140235095,0.022536,0.018352,-0.042329,-1.91766098755,-9.56612229545,0.9910992756,-2.047816,1.348859,2.765025,4.999999999999449e-05,0.00020999999999998797,-2.0000000000002655e-06,-0.0006554457497112143,0.00018348397498169078,0.0002772701683189105
1504282503.58,-1.0,-0.058173047799999995,-0.04078585735,-0.00505042475,0.014065,0.023754,-0.046623,-1.9143561464999999,-9.5667008878,0.99191322755,-2.048854,1.349128,2.766328,4.0000000000040004e-05,0.00021999999999999797,-2.0000000000002655e-06,-0.00065545640570841,0.00021043942844634067,0.0002798079732823089
1504282503.59,-1.0,-0.059340039149999996,-0.03690242395,0.00075511205,0.016232,0.025871,-0.049824,-1.9107865258999999,-9.5672892868,0.9931292521499999,-2.05012,1.3494,2.76789,3.999999999998449e-05,0.00020999999999998797,-7.999999999999327e-06,-0.000627115694652014,0.0002121408246811285,0.0002779189792917469
1504282503.6,-1.0,-0.068450417,-0.0336171962,-0.008227779349999999,0.0099,0.031257,-0.055181,-1.9069227058,-9.56802478555,0.99344306495,-2.051077,1.349743,2.769196,4.999999999999449e-05,0.00020000000000000573,-1.1999999999999858e-05,-0.0005990499525381221,0.00021009816065831188,0.00029569185192013236
1504282503.61,-1.0,-0.07452073334999999,-0.0239478393,0.00048052584999999995,-0.00069,0.039871,-0.057348,-1.9029412059,-9.56886815745,0.9929625390999999,-2.051734,1.350135,2.770263,3.999999999998449e-05,0.00020000000000000573,-1.6999999999999654e-05,-0.0005429399561036607,0.00021175489107472245,0.0003289631387146663
1504282503.62,-1.0,-0.06922514234999999,-0.029772989399999998,0.01203275955,0.005732,0.039823,-0.061606,-1.8985086000999998,-9.5697801759,0.992629113,-2.052555,1.350561,2.771515,4.0000000000040004e-05,0.00018000000000001348,-1.899999999999992e-05,-0.0005013140961673823,0.00020130723575206844,0.0003430691839204636
1504282503.63,-1.0,-0.0756877247,-0.0121798593,-0.0041972462,-0.002763,0.044156,-0.062695,-1.8941446408499998,-9.570760840899998,0.9915111549,-2.053036,1.35102,2.772475,2.999999999997449e-05,0.00016999999999997573,-4.900000000000043e-05,-0.00039989569899878674,0.00017853310136084488,0.0003051474409123678
1504282503.64,-1.0,-0.06932320885,0.012042566199999999,0.00656064885,-0.008063,0.048462,-0.06271,-1.88973164835,-9.57179053915,0.9900205441,-2.053378,1.351501,2.773327,3.0000000000030003e-05,0.00017000000000000348,-4.99999999999997e-05,-0.00042994128781814744,0.00019475167849858366,0.00034640658556328585
1504282503.65,-1.0,-0.05341682254999999,0.03272479105,0.007825706699999999,-0.009122,0.049537,-0.062713,-1.88514213615,-9.57286927065,0.9883141869999998,-2.053668,1.352008,2.774139,2.999999999997449e-05,0.00016000000000002124,-5.500000000000123e-05,-0.0004147177677256142,0.0001765983148429573,0.0003174162187489227
1504282503.66,-1.0,-0.055819451799999996,0.0499943017,0.0059918631499999995,-0.011188,0.055951,-0.06593,-1.88049378405,-9.573977422099999,0.9864116968999999,-2.053889,1.352531,2.774936,2.999999999997449e-05,0.00017999999999998573,-5.9000000000000025e-05,-0.00041522180415176635,0.0001542149566080564,0.00026564020686670187
1504282503.67,-1.0,-0.06861713004999999,0.055623318799999995,0.0023339827,-0.014383,0.055978,-0.067002,-1.8759140784999997,-9.5751149935,0.9840777142,-2.053917,1.353067,2.775544,3.0000000000030003e-05,0.00018000000000001348,-6.399999999999982e-05,-0.0004698030552887644,0.000131164958803609,0.0002177503469724673
1504282503.68,-1.0,-0.07844339334999999,0.035362779899999995,0.00795319315,-0.020776,0.057097,-0.067013,-1.8713343729499998,-9.576252564899999,0.9817437314999999,-2.053949,1.353604,2.776157,4.999999999999449e-05,0.00017999999999998573,-6.799999999999862e-05,-0.0005261858581282475,0.00012275803679973052,0.0002091591990052155
1504282503.69,-1.0,-0.0778451877,0.02491869765,0.02529135035,-0.022861,0.062443,-0.068093,-1.8666958274999998,-9.57747839615,0.9786252168,-2.053659,1.354184,2.776489,3.999999999998449e-05,0.00018999999999999573,-7.400000000000115e-05,-0.0006256713088446109,0.00011189000045974673,0.00020710675854374028
1504282503.7,-1.0,-0.07320664225,0.03133224675,0.041756715699999995,-0.028206,0.062485,-0.065966,-1.8622043818,-9.57865519415,0.9756243819,-2.053387,1.354745,2.776838,6.0000000000004494e-05,0.00018999999999999573,-7.699999999999894e-05,-0.000625441542829952,0.00012298663963816736,0.00019236032988267926
1504282503.71,-1.0,-0.0673716855,0.0207704847,0.040677984199999996,-0.033519,0.065725,-0.064913,-1.8575658363499998,-9.579920251999999,0.9720743746,-2.052912,1.355346,2.777013,4.999999999999449e-05,0.00018000000000001348,-7.799999999999994e-05,-0.000611702378179757,0.00012685874757489835,0.0001782258622199384
1504282503.72,-1.0,-0.0694703086,-0.0078649333,0.05186737185,-0.040983,0.066851,-0.063859,-1.8530743906499998,-9.5812147298,0.967916355,-2.052146,1.355962,2.776898,7.00000000000145e-05,0.00017000000000000348,-7.900000000000094e-05,-0.0005820481272731381,0.00010970213791150485,0.00016530854893637148
1504282503.73,-1.0,-0.07873759285,-0.02899826405,0.054309227700000004,-0.043077,0.071131,-0.064937,-1.8487496579999998,-9.58251901425,0.9632287763,-2.051116,1.356589,2.776552,6.0000000000004494e-05,0.00014999999999998348,-8.700000000000027e-05,-0.00045498855515302417,6.184158454369815e-05,0.00012597649914003473
1504282503.74,-1.0,-0.08354285135,-0.045924541949999995,0.0657830082,-0.054836,0.070159,-0.061752,-1.8446897049,-9.583852718649998,0.9577370523,-2.049674,1.357229,2.775777,6.0000000000004494e-05,0.00014000000000000123,-8.299999999999974e-05,-0.00028483361211772973,3.3974734235053816e-05,0.0001706942055150762
1504282503.75,-1.0,-0.0797672911,-0.04508117005,0.06986257459999999,-0.051654,0.069065,-0.059609,-1.84067878505,-9.585147196449999,0.9524610746,-2.048308,1.357854,2.775083,6.0000000000004494e-05,0.00012000000000000899,-8.099999999999948e-05,-0.00015827505967913602,2.2531678176562764e-06,0.00016977177158306045
1504282503.76,-1.0,-0.07200042429999999,-0.031969678999999994,0.052534224049999995,-0.047386,0.06903,-0.059601,-1.8366286386,-9.5864318676,0.9473518099499999,-2.047011,1.358474,2.774458,7.999999999996898e-05,9.999999999998899e-05,-8.100000000000121e-05,-8.703837919754598e-05,1.1115407854145332e-06,0.00017078629464561956
1504282503.77,-1.0,-0.08531785499999998,-0.0017063571,0.028047019,-0.042054,0.067922,-0.060656,-1.83273539855,-9.5876675055,0.9423504184499999,-2.045721,1.359073,2.773846,8.00000000000245e-05,0.00010000000000001674,-8.299999999999974e-05,-3.086687433473401e-05,5.2918127141587945e-05,0.00020280457676069563
1504282503.78,-1.0,-0.09083899895,0.0452674964,0.01448442205,-0.039937,0.065773,-0.060647,-1.8290186782,-9.588854110149999,0.93750593335,-2.044454,1.35965,2.773234,9.999999999998899e-05,9.000000000000674e-05,-8.599999999999927e-05,-4.572346470732569e-05,0.0001245239797715847,0.00022155909569820942
1504282503.79,-1.0,-0.08825004335,0.062958693,0.022104189099999998,-0.033536,0.065721,-0.060635,-1.82545886425,-9.5899426483,0.9333381070999999,-2.043433,1.360178,2.772876,9.999999999998899e-05,8.999999999997899e-05,-8.799999999999954e-05,-0.00011564786607065614,0.00017619760141340812,0.00021971497219186453
1504282503.8,-1.0,-0.0849059757,0.0410898635,0.04919015639999999,-0.033526,0.068914,-0.057437,-1.82192847025,-9.5909625399,0.9297390665499999,-2.042653,1.360677,2.772754,0.00010999999999999899,9.000000000000674e-05,-8.5e-05,-0.0002001705561791578,0.00019102668067638717,0.00020428398195571074
1504282503.81,-1.0,-0.0789827591,0.0097478101,0.06046780389999999,-0.032488,0.067835,-0.053162,-1.8185647892999999,-9.59193339825,0.9262380925,-2.041874,1.361154,2.772652,0.00010999999999999899,9.999999999998899e-05,-8.100000000000121e-05,-0.00028567025678016833,0.00017060640961208406,0.00016776141648500165
1504282503.82,-1.0,-0.07530526535,-0.03743198305,0.061262142549999996,-0.022915,0.066687,-0.048873,-1.81551492115,-9.592796383449999,0.9233549374,-2.041292,1.361575,2.772749,0.00012000000000000899,0.00011000000000002674,-7.699999999999894e-05,-0.00031208920981273813,0.0001425629126965422,0.0001142855211525573
1504282503.83,-1.0,-0.0797672911,-0.0636451585,0.03733391655,-0.017621,0.065571,-0.042457,-1.81300441875,-9.5935122689,0.92079540175,-2.040731,1.361929,2.772847,0.000130000000000019,8.999999999997899e-05,-4.800000000000117e-05,-0.0003123578245580738,0.00011546906034998194,4.000879683974112e-05
1504282503.84,-1.0,-0.08116964204999999,-0.052759777,0.005766310199999999,-0.004879,0.061198,-0.037089,-1.8109940555,-9.594081054599998,0.9188438783999999,-2.040323,1.362207,2.77309,0.00014999999999998348,0.00010000000000001674,-4.89999999999987e-05,-0.0002819609684108215,0.00010114720132459176,-3.751939218454847e-05
1504282503.85,-1.0,-0.07783538104999999,-0.03603943875,0.008629852,0.001506,0.061142,-0.033875,-1.8093955715499999,-9.59448312725,0.9177847602,-2.040212,1.362406,2.773617,0.00014999999999998348,8.999999999997899e-05,-5.199999999999996e-05,-0.00019763319841725746,7.087413110840046e-05,-9.839066069405877e-05
1504282503.86,-1.0,-0.0650573161,-0.02505599075,0.02278084795,0.015332,0.058892,-0.028509,-1.8081109004,-9.5946890669,0.9181476062499999,-2.040659,1.362509,2.774685,0.000160000000000049,8.00000000000245e-05,-5.300000000000096e-05,-8.303243388985138e-05,2.681404384952124e-05,-0.00013529058991856857
1504282503.87,-1.0,-0.0599186315,0.027135000549999996,0.024977537549999998,0.028086,0.056649,-0.022077,-1.8074146282499999,-9.59465964695,0.91983435005,-2.041559,1.362493,2.776203,0.00017000000000000348,7.999999999999674e-05,-5.7999999999999025e-05,-2.59769626620443e-05,1.6989272875189698e-06,-0.00018092995626595165
1504282503.88,-1.0,-0.041560582699999994,0.07335374199999999,0.0027850886,0.039797,0.055483,-0.018852,-1.80690468245,-9.5944929339,0.9225704054,-2.042873,1.36241,2.778119,0.00018999999999996797,6.999999999998674e-05,-6.100000000000029e-05,-1.3817668443216746e-05,1.4393400727952255e-05,-0.00021751029869854221
1504282503.89,-1.0,-0.05020024135,0.10842232239999999,-0.0341075287,0.055744,0.051085,-0.014546,-1.80710081545,-9.5941006679,0.9262478991499998,-2.044442,1.362218,2.78027,0.00019000000000002348,9.000000000000674e-05,-6.300000000000056e-05,-1.4073960532323682e-05,5.019442558373832e-05,-0.00019338279325908925
1504282503.9,-1.0,-0.061791701649999996,0.11350216709999998,-0.041335029749999995,0.06851,0.047781,-0.012382,-1.80778728095,-9.5934926556,0.93122967735,-2.046467,1.361918,2.782847,0.00018999999999996797,7.999999999999674e-05,-6.499999999999909e-05,-2.143354819228449e-05,9.078777289550644e-05,-0.0001431937595107735
1504282503.91,-1.0,-0.06924475564999999,0.08144422825,-0.045365562899999996,0.082247,0.041216,-0.008105,-1.8087091060499998,-9.5927081236,0.9374961266999999,-2.048997,1.361532,2.785897,0.00020000000000003348,9.000000000000674e-05,-6.500000000000082e-05,-0.00011186078422520396,0.00012156891280268312,-8.220386852275663e-05
1504282503.92,-1.0,-0.0817286211,0.05015120809999999,-0.038010575399999996,0.085445,0.042254,-0.005966,-1.80998397055,-9.59179610515,0.9443705883499999,-2.051695,1.361084,2.789112,0.00019999999999997797,9.999999999998899e-05,-6.499999999999909e-05,-0.00012740801553690062,0.00011706529346788841,-1.62714113318696e-05
1504282503.93,-1.0,-0.0964385961,0.017524483549999997,-0.0192406473,0.085398,0.039053,-0.001689,-1.8117393608999999,-9.5907467936,0.95162750935,-2.054445,1.36057,2.792356,0.00020999999999998797,6.0000000000004494e-05,-3.200000000000078e-05,-8.496630552401463e-05,9.436225622527772e-05,2.4322795462716762e-05
1504282503.94,-1.0,-0.09649743599999999,-0.00050013915,0.004344345949999999,0.082168,0.03801,0.002578,-1.8137791441,-9.589619028849999,0.95902172345,-2.057173,1.360023,2.795554,0.00020999999999998797,6.0000000000004494e-05,-2.8000000000000247e-05,-5.714367529807696e-05,8.821350522469906e-05,5.9531560979153575e-05
1504282503.95,-1.0,-0.08695556554999999,0.0195544601,0.014592295199999999,0.079996,0.035892,0.006849,-1.8161327400999998,-9.588432424199999,0.9664355508499999,-2.059823,1.359444,2.798657,0.00021000000000004349,4.999999999999449e-05,-2.199999999999945e-05,-2.921722783089109e-05,9.04256546432336e-05,8.758386554252873e-05
1504282503.96,-1.0,-0.07165719155,0.03435269495,-0.00399130655,0.079987,0.038018,0.012183,-1.8188589888,-9.587216399599999,0.9733394324499999,-2.062158,1.358854,2.801447,0.00020999999999998797,4.000000000001225e-05,-1.899999999999992e-05,2.7241758902452062e-05,0.0001184109482357254,9.695476460591657e-05
1504282503.97,-1.0,-0.06100716965,0.057417935749999996,-0.039844418949999995,0.071405,0.034888,0.016445,-1.8218892436499998,-9.5860396016,0.9792724557,-2.063995,1.358283,2.803707,0.00021999999999999797,3.999999999998449e-05,-1.6999999999999654e-05,9.722769085529492e-05,0.0001422143488241101,0.00010823718150598793
1504282503.98,-1.0,-0.0592910059,0.07738427515,-0.05833976085,0.084151,0.030516,0.020745,-1.82524311795,-9.584764737099999,0.9854898717999999,-2.06587,1.357667,2.805983,0.00023000000000000798,4.000000000001225e-05,-1.600000000000039e-05,0.00014001057475954148,0.00013493626585248109,0.00012430574752031465
1504282503.99,-1.0,-0.0593106192,0.07055884675,-0.07069613984999999,0.07451,0.02846,0.025003,-1.82896964495,-9.5834702593,0.9911090822499999,-2.067398,1.357046,2.807882,0.00023000000000000798,3.0000000000002247e-05,-1.600000000000039e-05,0.00022570487673490014,0.00014265848265782033,0.00014815980981908172
1504282504.0,-1.0,-0.06098755634999999,0.035980598849999997,-0.07354987499999999,0.075526,0.024186,0.028215,-1.8329707581499999,-9.582116941599999,0.9968165525499999,-2.068887,1.356395,2.809693,0.00022999999999995246,1.9999999999992246e-05,-1.8000000000000654e-05,0.0002812358592905184,0.0001359311148299014,0.00013459317996944442
1504282504.01,-1.0,-0.0683915771,0.009502643849999999,-0.08113041545,0.069127,0.025304,0.029271,-1.83724645755,-9.58077343055,1.00185717065,-2.070026,1.355752,2.811168,0.00024000000000001798,1.9999999999992246e-05,-1.899999999999992e-05,0.000296120453036508,0.00010633504684909312,0.00011747363720593373
1504282504.02,-1.0,-0.0555840922,-0.012650578499999999,-0.0705882667,0.062662,0.022153,0.036737,-1.8418163564499999,-9.579420112849999,1.0064172628999999,-2.070891,1.355104,2.812324,0.00024000000000001798,1.9999999999992246e-05,-1.9999999999999185e-05,0.00035291040064766577,8.402086030190326e-05,9.268755786717708e-05
1504282504.03,-1.0,-0.036755324199999995,-0.028988457399999997,-0.062017254599999995,0.063698,0.021075,0.041011,-1.8464352886,-9.57804718185,1.01101658175,-2.071757,1.354451,2.813464,0.00024999999999997247,-9.999999999982245e-06,2.0000000000002655e-06,0.0003102560204486515,6.37819527977701e-05,6.226231155026518e-05
1504282504.04,-1.0,-0.02150598345,-0.0174362237,-0.06610662764999999,0.049786,0.017989,0.044195,-1.8510640273999999,-9.576733090749999,1.01495885505,-2.072341,1.35383,2.814277,0.00024000000000001798,-1.0000000000010001e-05,-5.000000000005e-07,0.00024007661312541728,6.639571266364719e-05,7.28794993243298e-05
1504282504.05,-1.0,-0.012042566199999999,-0.014876688049999998,-0.08417047695,0.047629,0.015875,0.045263,-1.8557319928,-9.5755464861,1.0176066505499999,-2.07238,1.353269,2.814515,0.00025999999999998247,5.0000000000050004e-06,-5.000000000005e-07,0.00014057430897063128,7.432607459789686e-05,7.40843878651587e-05
1504282504.06,-1.0,-0.0214961768,-0.04733669954999999,-0.08236605335,0.034806,0.014913,0.047377,-1.86064512445,-9.574359881449999,1.0198523734,-2.072192,1.352707,2.814506,0.000260000000000038,5.0000000000050004e-06,-2.0000000000002655e-06,7.053495762110451e-05,7.686523563910086e-05,7.335911457562183e-05
1504282504.07,-1.0,-0.03209716545,-0.0896131677,-0.0638609048,0.031592,0.01281,0.046308,-1.8654601896,-9.57324192335,1.0215391172,-2.071801,1.352181,2.814264,0.00025999999999998247,4.999999999977245e-06,-4.999999999999796e-06,5.607189960943337e-05,7.839371758033842e-05,5.162292989457917e-05
1504282504.08,-1.0,-0.017092990949999998,-0.11539485054999998,-0.08060085635,0.016619,0.009735,0.048422,-1.87013796165,-9.57230048495,1.02182351005,-2.070864,1.351738,2.813439,0.00026999999999999247,5.0000000000050004e-06,-5.999999999999062e-06,7.128058887539979e-05,6.44601082655516e-05,8.14756961553531e-06
1504282504.09,-1.0,0.0102577559,-0.117287534,-0.07914947215,0.012309,0.00657,0.051622,-1.8745901807499998,-9.5714473064,1.0215685371499998,-2.069758,1.351342,2.812408,0.00028000000000000247,-5.0000000000050004e-06,-6.000000000000796e-06,0.00012691414573251514,2.8106211350742427e-05,-2.4109089150514684e-05
1504282504.1,-1.0,0.0424431812,-0.08418028359999999,-0.0921628967,0.004794,0.002368,0.053751,-1.87878742695,-9.5707412276,1.0205192256,-2.068387,1.351009,2.811057,0.00029000000000001247,-4.999999999977245e-06,-7.000000000000062e-06,0.00018509100942609713,3.061088421518754e-05,-6.353508378087458e-05
1504282504.11,-1.0,0.04884692365,-0.0410898635,-0.09885103199999999,-0.004812,0.001383,0.052668,-1.8829552532,-9.5701332153,1.01852847565,-2.066642,1.350726,2.809308,0.00030999999999997696,-1.0000000000010001e-05,-9.999999999999593e-06,0.0002706256371203253,2.9122153000216144e-05,-0.00012871271661296646
1504282504.12,-1.0,0.05566254539999999,-0.010954028049999998,-0.10396029664999999,-0.009084,0.000354,0.051594,-1.8870838528499998,-9.56959384955,1.01599835995,-2.064689,1.350472,2.807336,0.00031000000000003247,-9.999999999982245e-06,-9.999999999999593e-06,0.0003556865088425454,4.831651340841958e-05,-0.0001501090355671142
1504282504.13,-1.0,0.0638216782,-0.0032950343999999998,-0.10994235315,-0.019803,-0.004887,0.052651,-1.89104573945,-9.5691721636,1.0125562257999998,-2.062398,1.350277,2.804965,0.00031999999999998696,-6.0000000000004494e-05,9.000000000000327e-06,0.00035651320144203247,5.453662171661655e-05,-0.00022146676224299444
1504282504.14,-1.0,0.0646062102,-0.005452497399999999,-0.08713208525,-0.024069,-0.005915,0.05051,-1.8948212996999998,-9.56880931755,1.00889834535,-2.060064,1.350109,2.802531,0.00030999999999997696,-4.999999999999449e-05,7.999999999999327e-06,0.00032886615552163434,5.782352969063709e-05,-0.00027534988636457314
1504282504.15,-1.0,0.048886150249999996,-0.01987807955,-0.05096516005,-0.035834,-0.010079,0.049429,-1.8987047331,-9.5684464715,1.0050541385499998,-2.057636,1.349939,2.799954,0.00032999999999999696,-6.0000000000004494e-05,7.000000000000062e-06,0.00032951688529103684,7.096510116300081e-05,-0.0003318251306810849
1504282504.16,-1.0,0.03388197575,-0.0371279769,-0.035245100099999996,-0.042256,-0.013222,0.048355,-1.9027058463,-9.568103238749998,1.0007097926,-2.054981,1.349781,2.79712,0.00032999999999999696,-7.00000000000145e-05,4.999999999999796e-06,0.0003013913799549961,5.43711488838472e-05,-0.0003473498457744473
1504282504.17,-1.0,0.024389138549999998,-0.0471111466,-0.02191786275,-0.054013,-0.016321,0.047272,-1.9066775395499997,-9.56784826585,0.9956103345999999,-2.052021,1.349661,2.793934,0.00032000000000004247,-6.0000000000004494e-05,2.999999999999531e-06,0.00025832269184666856,3.377576289564921e-05,-0.00034507166432229397
1504282504.18,-1.0,0.0099047165,-0.05919293939999999,0.012925164699999998,-0.058292,-0.018415,0.046201,-1.9106100062,-9.567593292949999,0.9905501031999999,-2.049092,1.349541,2.790743,0.00032999999999999696,-5.999999999997674e-05,3.0000000000012655e-06,0.00022999607628770846,2.7338745785199237e-05,-0.0003409139990163679
1504282504.19,-1.0,0.0188876079,-0.0456597624,0.0379517355,-0.06257,-0.02051,0.04513,-1.9143463398499998,-9.56735793335,0.985568325,-2.046239,1.349433,2.787594,0.00032999999999999696,-6.0000000000004494e-05,4.999999999999796e-06,0.00020276626367410344,1.2968789373291045e-05,-0.0003249102501873269
1504282504.2,-1.0,0.03958944605,-0.02691925425,0.0327345977,-0.070055,-0.02258,0.04512,-1.9176904074999999,-9.567240253549999,0.9801648608499999,-2.043299,1.34938,2.784331,0.00031999999999998696,-6.0000000000004494e-05,7.999999999999327e-06,0.0001446001058322821,-1.181287666351949e-06,-0.00028950824878826165
1504282504.21,-1.0,0.0428354472,-0.020270345549999996,0.026046462399999998,-0.060497,-0.030115,0.041947,-1.9207893089,-9.567161800349998,0.9748790764999999,-2.040461,1.349341,2.781114,0.00032999999999999696,-6.0000000000004494e-05,1.3000000000000858e-05,8.819985423658139e-05,1.8800341634594986e-06,-0.0002997716652970439
1504282504.22,-1.0,0.04129580315,-0.027164420499999998,0.0073549875,-0.070131,-0.035361,0.039804,-1.9235842041499998,-9.5671519937,0.969485419,-2.037638,1.349335,2.77786,0.00032999999999999696,-6.0000000000004494e-05,1.9999999999999185e-05,4.6573485139145276e-05,3.3703972913690095e-05,-0.0003117654883411092
1504282504.23,-1.0,0.0270271274,-0.02899826405,0.00779628675,-0.059471,-0.038642,0.036625,-1.9263790993999999,-9.5671127671,0.9642486678999999,-2.034883,1.34932,2.774651,0.00034000000000000696,-6.0000000000004494e-05,2.8000000000000247e-05,3.213681030156401e-05,6.469376911977243e-05,-0.00033984244096885163
1504282504.24,-1.0,0.0155729602,-0.0314401199,0.015406247149999998,-0.058409,-0.041843,0.032363,-1.9288405685499999,-9.56706373385,0.95978664215,-2.03252,1.349298,2.771792,0.00034000000000000696,-7.999999999999674e-05,3.099999999999978e-05,4.5601467605349555e-05,9.167851599856114e-05,-0.0003379672048186011
1504282504.25,-1.0,0.007168661149999999,-0.03923640665,0.01583773975,-0.050957,-0.047227,0.027048,-1.9309097716999999,-9.5670539272,0.95576591565,-2.030421,1.349291,2.769161,0.00035999999999997145,-7.999999999999674e-05,3.0000000000000512e-05,6.0264057914594105e-05,0.00012363135533632885,-0.0003338883584439456
1504282504.26,-1.0,0.0024124359,-0.06973508815,0.014268675749999998,-0.049916,-0.052561,0.023857,-1.9325867088499997,-9.56708334715,0.95209822855,-2.028549,1.349303,2.766698,0.00036000000000002697,-7.999999999999674e-05,2.6999999999999247e-05,0.00010272384532350465,0.00013810855680929102,-0.0002891272905782838
1504282504.27,-1.0,0.0072961475999999996,-0.07550139835,0.021349077049999998,-0.043528,-0.056871,0.019606,-1.9337340869,-9.5671519937,0.94905816705,-2.027048,1.349336,2.764585,0.00035999999999997145,-9.000000000000674e-05,2.300000000000045e-05,0.00012954805364429056,0.00014538031867061818,-0.00027564577832284165
1504282504.28,-1.0,0.012993811249999999,-0.10154786075,0.04704250005,-0.045656,-0.056853,0.018534,-1.93448919895,-9.5672892868,0.9461063654,-2.025663,1.349401,2.762576,0.00036000000000002697,-9.999999999998899e-05,1.8000000000000654e-05,0.00015882379806742009,0.00014523632976404244,-0.0002589708123913459
1504282504.29,-1.0,0.0253207703,-0.1231322974,0.0353823932,-0.037141,-0.060119,0.017487,-1.93484223835,-9.56739715995,0.9443019417999999,-2.024838,1.349451,2.761096,0.00035000000000001696,-9.000000000000674e-05,1.4999999999999389e-05,0.0001722084205293406,0.0001084663828101462,-0.0002485417508968357
1504282504.3,-1.0,0.019946726099999996,-0.1248778811,0.023987065899999997,-0.03608,-0.062256,0.015357,-1.9350089513999997,-9.567593292949999,0.9419189258499999,-2.023811,1.349544,2.7594,0.00034999999999996145,-9.999999999998899e-05,1.1999999999999858e-05,0.00015849677174806232,8.005294001045549e-05,-0.0002298156275613028
1504282504.31,-1.0,0.01301342455,-0.11529678404999999,0.029047297299999997,-0.034989,-0.061196,0.012154,-1.9351070178999998,-9.56775019935,0.9401537288499999,-2.023053,1.349615,2.757978,0.00035000000000001696,-0.00010000000000001674,1.1000000000000593e-05,0.00015808710496023615,4.494705082969119e-05,-0.00019058454683607007
1504282504.32,-1.0,0.0112972608,-0.08091466915,0.037686955949999996,-0.029649,-0.061239,0.011096,-1.9351854711,-9.5678580725,0.9388494444,-2.022489,1.349668,2.756752,0.00034000000000000696,-9.999999999998899e-05,1.0999999999998858e-05,0.00014306361036009463,-3.5784200178579084e-06,-0.00016183916475132065
1504282504.33,-1.0,0.020927391099999998,-0.02576206955,0.0480133584,-0.0275,-0.06019,0.01003,-1.9350874046,-9.567956139,0.9380943323499998,-2.022195,1.349711,2.755807,0.00030999999999997696,-0.00012000000000000899,2.599999999999998e-05,0.0001576509550897942,-1.6331028194205288e-05,-0.00014502116999770553
1504282504.34,-1.0,0.0336171962,0.02164327655,0.022545488349999997,-0.024277,-0.058085,0.008964,-1.9349108849,-9.568073818799999,0.9372215405,-2.021867,1.349767,2.754852,0.00032000000000004247,-0.00011999999999998123,2.599999999999998e-05,0.00017059077026715386,-2.2708442690033692e-05,-9.277699382059801e-05
1504282504.35,-1.0,0.039403119699999996,0.06559668184999999,0.00979684335,-0.02216,-0.060233,0.008971,-1.9347147518999999,-9.5681914986,0.9365154617,-2.021609,1.349818,2.753949,0.00031999999999998696,-0.000130000000000019,2.5000000000000716e-05,0.00024163890616302197,-2.155644510137833e-05,-7.214326264692872e-05
1504282504.36,-1.0,0.045365562899999996,0.08723995839999998,0.017681389949999998,-0.01894,-0.059192,0.006839,-1.93439113245,-9.56827975845,0.9362604888,-2.021569,1.34986,2.753275,0.00030999999999997696,-0.00014000000000000123,2.599999999999998e-05,0.0002982290411479571,-2.6861780139553204e-05,-7.810563909449453e-05
1504282504.37,-1.0,0.03966789925,0.06876422979999999,0.0152199208,-0.017847,-0.056004,0.006835,-1.9340871263,-9.56835821165,0.93603493585,-2.021534,1.3499,2.752643,0.00031999999999998696,-0.00012999999999999123,2.6999999999999247e-05,0.00032636406378960814,-4.183185314454718e-05,-6.494012424917983e-05
1504282504.38,-1.0,0.04007977855,0.023339827,0.02693886755,-0.016782,-0.05495,0.00897,-1.93374389355,-9.56841705155,0.93613300235,-2.021644,1.349927,2.752181,0.00032000000000004247,-0.00014000000000000123,2.8000000000000247e-05,0.00032644750295607317,-4.247436568216578e-05,-7.220487109071971e-05
1504282504.39,-1.0,0.040815277299999994,-0.0080022264,0.01589657965,-0.013547,-0.050714,0.008967,-1.9334300807499998,-9.5685053114,0.9359466759999999,-2.021631,1.349965,2.751624,0.00031999999999998696,-0.00014000000000000123,2.599999999999998e-05,0.00038320293173832454,-5.733351657521979e-05,-9.192530517498909e-05
1504282504.4,-1.0,0.03437230825,-0.01830901555,0.02309466075,-0.015671,-0.047503,0.012159,-1.9334202741,-9.56851511805,0.9357897695999999,-2.021567,1.349973,2.751052,0.00032999999999999696,-0.00012999999999999123,2.5000000000000716e-05,0.00029881504383721946,-6.04165807389645e-05,-0.00012569709357346248
1504282504.41,-1.0,0.03003776895,-0.025556129899999995,0.037902702249999996,-0.016717,-0.044299,0.013219,-1.9337242802499999,-9.56845627815,0.9357897695999999,-2.021508,1.349944,2.750492,0.00034000000000000696,-0.00012000000000000899,2.300000000000045e-05,0.00024286151332741923,-5.391146646394063e-05,-0.0001763318265034508
1504282504.42,-1.0,0.027125193899999997,-0.0401484251,0.04288448045,-0.019919,-0.043209,0.015346,-1.9341067396,-9.5683876316,0.93574073635,-2.021409,1.349911,2.749923,0.00035000000000001696,-0.00012000000000000899,1.9999999999999185e-05,0.00017171638752078167,-5.01500149492351e-05,-0.00018867456798055127
1504282504.43,-1.0,0.031950065699999995,-0.054015028199999995,0.046581587499999993,-0.018842,-0.040025,0.018544,-1.9347441718499998,-9.56827975845,0.93548576345,-2.021173,1.349862,2.749232,0.00033999999999995145,-0.00010999999999999899,1.600000000000039e-05,0.00013063097424392822,-5.067941519532049e-05,-0.00024645421229352316
1504282504.44,-1.0,0.0500727549,-0.0342055952,0.0480721983,-0.020957,-0.035749,0.021734,-1.9355090905499999,-9.568181691949999,0.9348973644499999,-2.020772,1.349817,2.748418,0.00035000000000001696,-0.00010999999999999899,1.4999999999999389e-05,0.00010251005470940378,-6.403647650232713e-05,-0.00025511401157396474
1504282504.45,-1.0,0.07004890094999999,0.0032263878499999995,0.04329635974999999,-0.018848,-0.036835,0.024941,-1.9363230424999998,-9.56806401215,0.9344364518999999,-2.020414,1.349761,2.747653,0.00035000000000001696,-9.999999999998899e-05,1.6999999999999654e-05,0.00011613015983003017,-7.945030177869405e-05,-0.0002631828495301969
1504282504.46,-1.0,0.07890430589999999,0.042727574049999995,0.025693422999999996,-0.011362,-0.034766,0.024949,-1.9372546742499999,-9.56790710575,0.93407360585,-2.020076,1.34969,2.746933,0.00034999999999996145,-0.00012000000000000899,2.300000000000045e-05,0.0001312723427751017,-6.541598663223347e-05,-0.0002965793483993284
1504282504.47,-1.0,0.0697841214,0.0740009809,-0.020368412049999996,-0.003882,-0.032697,0.026025,-1.9386079919499999,-9.56761290625,0.93434819205,-2.019917,1.34955,2.746425,0.00035000000000001696,-0.00011999999999998123,3.0000000000000512e-05,0.0001879626141141344,-3.715800693848692e-05,-0.0003163207653706923
1504282504.48,-1.0,0.06596933455,0.0606835502,-0.038755880799999996,0.002496,-0.034882,0.027106,-1.9400299561999998,-9.567308900099999,0.93448548515,-2.019685,1.349411,2.745832,0.00035000000000001696,-0.000130000000000019,3.799999999999984e-05,0.00022977291951997714,-3.070200658483735e-05,-0.0003234168715504637
1504282504.49,-1.0,0.04876847045,0.04680714045,-0.0256149698,0.007849,-0.033858,0.024978,-1.9415303736499998,-9.566897020799999,0.9355642166499999,-2.019832,1.34922,2.745636,0.00035000000000001696,-0.00012999999999999123,4.099999999999937e-05,0.00027317551809380447,-3.577556185807573e-05,-0.00035391239232074323
1504282504.5,-1.0,0.03772618255,0.04361997919999999,0.00473661195,0.012144,-0.03176,0.022847,-1.94306021105,-9.566406688299999,0.9373784468999999,-2.020287,1.348994,2.745757,0.00033999999999995145,-0.00015000000000001124,4.0000000000000105e-05,0.0003585807184254275,-5.776656290468196e-05,-0.000403488835077237
1504282504.51,-1.0,0.033224930199999995,0.020407638649999997,0.0187307015,0.008958,-0.030667,0.021772,-1.9443939154499998,-9.565945775749999,0.9393986167999999,-2.02086,1.348776,2.746023,0.00032999999999999696,-0.00014000000000000123,3.400000000000104e-05,0.00042987546864003967,-8.963909730042019e-05,-0.0003926824742227497
1504282504.52,-1.0,0.0233594403,-0.011571847,0.0250069575,0.021786,-0.027576,0.021788,-1.9457570398,-9.565386796699999,0.94225235195,-2.021772,1.348518,2.746662,0.0003300000000000525,-0.00014999999999998348,2.8999999999999512e-05,0.0004441287066287991,-0.00012187974290411852,-0.00044887756977252113
1504282504.53,-1.0,0.030400614999999995,-0.04435547795,0.02297698095,0.015394,-0.026458,0.021775,-1.9469632577499998,-9.56492588415,0.94442942825,-2.022434,1.348305,2.747056,0.00033999999999995145,-0.00012000000000000899,1.899999999999992e-05,0.00040400094981185575,-0.0001709178146078738,-0.0005673515674284868
1504282504.54,-1.0,0.0328130509,-0.07024503395,0.01846592195,0.017553,-0.023279,0.021772,-1.9480223759499997,-9.5644649716,0.9468418641499999,-2.023226,1.348095,2.747612,0.00034000000000000696,-0.00010999999999999899,1.8000000000000654e-05,0.0003202902396295393,-0.00017729289797907555,-0.0006473264015215419
1504282504.55,-1.0,0.0295180165,-0.09878238545,0.0264583417,0.013308,-0.021112,0.020693,-1.9490716875,-9.5640727056,0.9487247409499999,-2.023795,1.347911,2.74797,0.00034000000000000696,-9.999999999998899e-05,2.3999999999999716e-05,0.0002352354970680537,-0.0001338182871721827,-0.0007425017073388052
1504282504.56,-1.0,0.01793636285,-0.0983214729,0.02138830365,0.015456,-0.020063,0.019627,-1.9502092588999997,-9.563631406349998,0.9508037507499999,-2.024427,1.347708,2.748407,0.00035000000000001696,-9.000000000000674e-05,2.8999999999999512e-05,0.0001232224601306342,-7.265873975081938e-05,-0.0007300744161164996
1504282504.57,-1.0,0.0230456275,-0.05777097515,0.011110934449999998,0.022947,-0.017992,0.018568,-1.95127818375,-9.563180300449998,0.9531475401,-2.025182,1.347501,2.749,0.00035999999999997145,-7.999999999999674e-05,3.5999999999999574e-05,6.568724076760901e-05,-1.9575454017539684e-05,-0.0007747779908244823
1504282504.58,-1.0,0.04394359864999999,-0.01032640245,-0.017622550049999998,0.02937,-0.015913,0.017508,-1.9521215556499998,-9.562739001199999,0.9558443688499999,-2.026126,1.347298,2.749803,0.00036000000000002697,-9.000000000000674e-05,3.900000000000084e-05,3.753281803131614e-05,3.958800480519109e-05,-0.0008094411754875352
1504282504.59,-1.0,0.06361573855,0.020790097999999996,-0.046130481599999995,0.038957,-0.017058,0.018593,-1.95278840785,-9.562278088649999,0.9590707566999999,-2.027319,1.347086,2.750856,0.00035999999999997145,-9.000000000000674e-05,3.699999999999884e-05,3.7528387696550425e-05,6.525712243732329e-05,-0.0008246416855879346
1504282504.6,-1.0,0.07111782579999999,0.036873003999999994,-0.056250944399999996,0.04858,-0.015005,0.017537,-1.9534062267999999,-9.56174852955,0.9630522565999999,-2.028837,1.346844,2.752255,0.00034000000000000696,-8.999999999997899e-05,3.500000000000031e-05,5.24715281764454e-05,4.512566230685522e-05,-0.0008309444332391669
1504282504.61,-1.0,0.052867650149999994,0.01623000575,-0.05920274605,0.052838,-0.016106,0.017546,-1.9541613388499999,-9.56116013055,0.9673573759499999,-2.030454,1.346575,2.753764,0.00034000000000000696,-0.00010000000000001674,3.0000000000000512e-05,0.00010897382516739107,1.1624074989446953e-05,-0.000814229219331053
1504282504.62,-1.0,0.037284883299999995,-0.0358727257,-0.04790548524999999,0.054991,-0.015056,0.015412,-1.9548870309499997,-9.560532504949999,0.97206456795,-2.032241,1.346287,2.755446,0.00031999999999998696,-0.00010999999999999899,2.599999999999998e-05,0.00015069560263847315,-2.7086787659502676e-05,-0.0007924042579495749
1504282504.63,-1.0,0.033028797199999994,-0.0915548844,-0.025673809699999998,0.05074,-0.012889,0.0154,-1.9554263966999998,-9.559914685999999,0.97706595945,-2.034182,1.346004,2.757302,0.00030000000000002247,-7.999999999999674e-05,-2.999999999999531e-06,0.0002230115126653498,-6.682376813715862e-05,-0.0008513147207126481
1504282504.64,-1.0,0.046140288249999994,-0.13294875404999998,-0.03294053735,0.039063,-0.005334,0.015366,-1.9556715629499999,-9.559522419999999,0.9804394470499999,-2.03551,1.345823,2.758591,0.00029000000000001247,-7.999999999999674e-05,-4.000000000000531e-06,0.00023761021749280076,-8.183252428373144e-05,-0.0008189158813807218
1504282504.65,-1.0,0.051445685899999996,-0.137881499,-0.03499993385,0.028397,-0.004181,0.016412,-1.95588730925,-9.55923802715,0.9828028497,-2.03643,1.345692,2.759483,0.00029000000000001247,-7.999999999999674e-05,4.999999999987653e-07,0.00019376857580466478,-5.055978394574723e-05,-0.0007684026907244235
1504282504.66,-1.0,0.06846022365,-0.12967333295,-0.0355981395,0.024151,-0.002014,0.015332,-1.955838276,-9.55906150745,0.98459746665,-2.037173,1.345612,2.760224,0.00028999999999995696,-7.00000000000145e-05,5.000000000005e-07,9.328763111104976e-05,1.4942947448304267e-06,-0.0007258223949954123
1504282504.67,-1.0,0.0721377174,-0.1226811915,-0.056290171,0.017794,0.002303,0.013177,-1.9556225297,-9.55902228085,0.9853918052999999,-2.03754,1.345595,2.760615,0.00029000000000001247,-6.999999999998674e-05,3.0000000000012655e-06,9.446503482557489e-06,4.6812872502632885e-05,-0.0007240254065571383
1504282504.68,-1.0,0.0752366188,-0.10664731874999998,-0.08312116539999999,0.018859,0.002294,0.013177,-1.95543620335,-9.559041894149999,0.9855781316499999,-2.037657,1.345603,2.760774,0.00028000000000000247,-7.00000000000145e-05,4.999999999999796e-06,-9.241032674212057e-05,4.5917850707510866e-05,-0.0006464814192533863
1504282504.69,-1.0,0.0806891162,-0.11241362894999998,-0.1173071473,0.007135,0.003458,0.012086,-1.955053744,-9.5592674471,0.9841561674,-2.037153,1.345706,2.760314,0.00026999999999999247,-6.999999999998674e-05,5.999999999999062e-06,-0.00010615016298576307,3.5883660640223525e-05,-0.0006160554080578695
1504282504.7,-1.0,0.08610238699999999,-0.11784651304999999,-0.13222306195,0.011409,0.004489,0.01209,-1.9544751516499999,-9.55951261335,0.9829205295,-2.036766,1.345818,2.759988,0.00025999999999998247,-7.00000000000145e-05,8.000000000001062e-06,-0.00013466042776300036,1.9031228827737223e-05,-0.0005818398816924697
1504282504.71,-1.0,0.09697796185,-0.12059237505,-0.12977139945,-0.001395,0.004594,0.012066,-1.9538279127499998,-9.559914685999999,0.9803119605999999,-2.035833,1.346001,2.759112,0.000260000000000038,-7.999999999999674e-05,1.1999999999999858e-05,-0.0001070246097900629,-3.2956249262916515e-06,-0.0005103132714063818
1504282504.72,-1.0,0.11408075944999999,-0.11620880249999999,-0.11837607215,-0.012054,0.006812,0.013109,-1.9529845408499997,-9.5604050185,0.9771444126499998,-2.034712,1.346229,2.758054,0.00024999999999997247,-7.999999999999674e-05,1.4000000000000123e-05,-5.127130880966391e-05,-1.367204880131645e-05,-0.00043613601346237374
1504282504.73,-1.0,0.12112193415,-0.1084027091,-0.10478405525,-0.028059,0.006944,0.013078,-1.9520921357,-9.561032644099999,0.9728294866499999,-2.033126,1.346514,2.756514,0.000260000000000038,-0.00010999999999999899,4.799999999999943e-05,4.773829306037314e-05,-1.7699696842621293e-05,-0.0003842517710423987
1504282504.74,-1.0,0.1056568471,-0.11236459569999999,-0.07940444505,-0.041921,0.008124,0.01305,-1.9514448968,-9.56170930295,0.9675044756999999,-2.03107,1.346823,2.754505,0.00026999999999999247,-0.00010999999999999899,4.99999999999997e-05,5.967396226469468e-05,1.2102568336835873e-05,-0.0002813098213664267
1504282504.75,-1.0,0.0786101064,-0.1093637608,-0.04925880294999999,-0.057881,0.010393,0.00768,-1.9508761111,-9.562464414999999,0.9611497665,-2.028568,1.347169,2.75205,0.00025999999999998247,-0.00012000000000000899,4.99999999999997e-05,7.326847667421532e-05,4.3976673712142755e-05,-0.00020787912987496604
1504282504.76,-1.0,0.053936574999999994,-0.1152281375,-0.0336564228,-0.070668,0.010501,0.004455,-1.9502975187499998,-9.5633274002,0.9536280659499999,-2.025577,1.347571,2.74911,0.00025999999999998247,-0.00010999999999999899,4.60000000000009e-05,8.601171145072861e-05,5.864586817483364e-05,-0.0001614452107727704
1504282504.77,-1.0,0.039520799499999995,-0.11518891089999998,-0.027674366299999996,-0.077085,0.00736,0.002313,-1.9496404732000001,-9.5642688386,0.945557193,-2.022363,1.348002,2.745899,0.000260000000000038,-9.999999999998899e-05,4.099999999999937e-05,5.759718611564324e-05,3.95946775741951e-05,-0.00013059037407170404
1504282504.78,-1.0,0.02115294405,-0.06787182465,-0.0473268929,-0.080285,0.006323,0.000174,-1.9492384005499999,-9.56520047035,0.936927341,-2.018855,1.348433,2.742393,0.00026999999999999247,-9.999999999998899e-05,3.400000000000104e-05,2.3859785280855306e-06,1.822967147324661e-05,-0.00010634773213968884
1504282504.79,-1.0,0.0234575068,-0.012160246,-0.0617230551,-0.071798,-0.002267,-0.004066,-1.94855193505,-9.56614190875,0.9287289816,-2.015568,1.348867,2.739052,0.00025999999999998247,-8.00000000000245e-05,2.599999999999998e-05,-5.689664014463247e-05,6.077863052844634e-07,-8.367961306454674e-05
1504282504.8,-1.0,0.01774022985,0.023330020349999998,-0.08955432779999999,-0.065416,-0.006579,-0.00725,-1.9477674030499998,-9.56706373385,0.92079540175,-2.012402,1.349297,2.73578,0.00025999999999998247,-7.999999999999674e-05,2.2999999999998716e-05,-0.00018375463063313724,1.7910408638188713e-05,-6.722247750967636e-05
1504282504.81,-1.0,0.01062060195,0.06400800455,-0.0962620764,-0.054816,-0.018382,-0.012548,-1.94662983165,-9.56794633235,0.91402881325,-2.009785,1.349705,2.732969,0.000270000000000048,-6.999999999998674e-05,2.000000000000092e-05,-0.00026939837300554714,6.727768918080024e-05,-3.9098095596434845e-05
1504282504.82,-1.0,0.00257914895,0.0712551189,-0.07991439084999999,-0.04847,-0.025892,-0.013591,-1.9453255471999997,-9.5687602843,0.9083115362999999,-2.007632,1.350083,2.730553,0.00026999999999999247,-6.0000000000004494e-05,2.1000000000000185e-05,-0.0003261734731772048,8.417370033408922e-05,-3.2842286180612135e-05
1504282504.83,-1.0,-0.015533733599999999,0.0319892923,-0.058173047799999995,-0.038902,-0.031296,-0.015699,-1.9439722294999997,-9.569446749799999,0.9039279637500001,-2.006046,1.350404,2.728657,0.00024999999999997247,-6.0000000000004494e-05,-2.999999999999531e-06,-0.0003259536297752774,7.708312118714922e-05,-4.5355245189115934e-05
1504282504.84,-1.0,-0.012375992300000001,0.010914801449999999,-0.035029353799999996,-0.034683,-0.03666,-0.014615,-1.9424914253499999,-9.57006456875,0.9005348628499998,-2.004902,1.350694,2.72714,0.000260000000000038,-4.999999999999449e-05,1.4999999999997654e-06,-0.0002264681812083058,5.799779022352958e-05,-2.0249209484735076e-05
1504282504.85,-1.0,-0.014337322299999998,-0.0037363336499999997,-0.044522190999999996,-0.03047,-0.044153,-0.015661,-1.9408242948499999,-9.57067258105,0.8976124811499999,-2.003987,1.35098,2.72579,0.00025999999999998247,-7.00000000000145e-05,1.4999999999997654e-06,-0.00015613814941684012,3.441121440306283e-05,-2.82595303913169e-05
1504282504.86,-1.0,-0.03205793885,-0.00027458619999999996,-0.02888058425,-0.017692,-0.048518,-0.017766,-1.9392650375,-9.57114330025,0.8960336105,-2.003623,1.351198,2.724945,0.00025999999999998247,-6.999999999998674e-05,7.999999999999327e-06,-5.571638343515595e-05,9.346112278096896e-06,-7.879958006484777e-05
1504282504.87,-1.0,-0.0283412185,0.0097478101,-0.01993691945,-0.014517,-0.051741,-0.017754,-1.937597907,-9.5715845995,0.89486661915,-2.003458,1.351407,2.724274,0.00025999999999998247,-7.999999999999674e-05,9.999999999999593e-06,3.747261689701631e-05,-2.5685743956893603e-05,-0.00013362689663465321
1504282504.88,-1.0,-0.0367357109,0.01732835055,-0.041315416449999996,-0.006009,-0.057135,-0.020931,-1.9357836767499998,-9.57198667215,0.8945528063499999,-2.003679,1.351592,2.723946,0.000270000000000048,-7.999999999999674e-05,9.000000000000327e-06,3.809992082137725e-05,-2.9265747959028587e-05,-0.00018444797637051646
1504282504.89,-1.0,-0.032361944999999996,0.0067763951499999996,-0.0432669398,0.002491,-0.061468,-0.020909,-1.9337242802499999,-9.57235932485,0.89500391225,-2.004275,1.351768,2.723952,0.00028999999999995696,-7.999999999999674e-05,8.000000000001062e-06,7.271208491688164e-05,-8.47781103829881e-06,-0.000229930791054489
1504282504.9,-1.0,-0.03127340685,-0.024193005549999997,-0.05788865495,0.010977,-0.066866,-0.019817,-1.9316746904,-9.572663331,0.89616109695,-2.005173,1.351912,2.724233,0.00030000000000002247,-7.999999999999674e-05,4.999999999999796e-06,4.578812623834416e-05,2.250070261222703e-05,-0.0002614281741996072
1504282504.91,-1.0,-0.0338525558,-0.07018619405,-0.0517987253,0.017304,-0.066976,-0.016631,-1.9296937471,-9.57290849725,0.8978478407499999,-2.006286,1.352025,2.72471,0.00030999999999997696,-7.00000000000145e-05,2.0000000000002655e-06,3.090395444305116e-05,5.9120976371174194e-05,-0.0002917207357695517
1504282504.92,-1.0,-0.0385793611,-0.09862547904999999,-0.0469934668,0.022598,-0.071283,-0.015547,-1.9278108702999999,-9.57304579035,0.90037795645,-2.007736,1.352091,2.725486,0.00032000000000004247,-6.0000000000004494e-05,9.999999999992654e-07,-3.896113672863244e-05,7.781863558786739e-05,-0.0003225910821494926
1504282504.93,-1.0,-0.04033475145,-0.09275129569999999,-0.03670629095,0.026815,-0.075583,-0.01233,-1.9262025797,-9.57308501695,0.9033984046499999,-2.009344,1.352109,2.726388,0.00028000000000000247,-4.999999999999449e-05,-1.899999999999992e-05,-6.86146266757337e-05,9.692595323818054e-05,-0.000339379030672049
1504282504.94,-1.0,-0.049847201949999996,-0.08328787845,-0.0278901126,0.009782,-0.070116,-0.011301,-1.9250650082999998,-9.573134050199998,0.90535973465,-2.010404,1.35213,2.726772,0.00028000000000000247,-4.000000000001225e-05,-1.600000000000039e-05,-8.22594978708846e-05,0.00011203235682866186,-0.0003426644529880285
1504282504.95,-1.0,-0.0457578289,-0.0499158485,-0.006992141449999999,0.009785,-0.069051,-0.010235,-1.9240745366499998,-9.57312424355,0.9075171976499999,-2.011518,1.352128,2.727204,0.00026999999999999247,-3.999999999998449e-05,-1.2999999999999123e-05,-0.00011055210509303137,9.732767065240289e-05,-0.00032664607550048075
1504282504.96,-1.0,-0.0373241099,-0.03337202995,-0.000196133,0.009766,-0.067991,-0.004899,-1.9233782645,-9.573055597,0.9096942739499999,-2.012583,1.352096,2.727614,0.00028000000000000247,-4.000000000001225e-05,-1.1000000000000593e-05,-5.416657918666523e-05,8.701846432646043e-05,-0.0003064136927859451
1504282504.97,-1.0,-0.02166288985,-0.0284588983,-0.028919810849999995,0.008723,-0.063722,-0.002774,-1.9227212189499998,-9.573035983699999,0.9113319845,-2.01341,1.352085,2.727799,0.00026999999999999247,-4.999999999999449e-05,-9.999999999999593e-06,-5.422463001947264e-05,7.59172931923402e-05,-0.0002909209830616044
1504282504.98,-1.0,-0.0033440676499999996,-0.01315071765,-0.06751878524999999,0.007644,-0.063715,-0.000641,-1.9220445600999998,-9.57308501695,0.91222438965,-2.013925,1.352109,2.727686,0.0005399999999999849,-9.000000000000674e-05,-3.200000000000078e-05,3.13729354344261e-05,0.00013671284051008925,-0.000438067292872768
1504282504.99,-1.0,0.006452775699999999,-0.0024516625,-0.07357929495,0.005512,-0.062633,0.000421,-1.9213679012499998,-9.57316347015,0.91289124185,-2.014349,1.352143,2.727496,0.000130000000000019,-1.9999999999992246e-05,-1.1999999999999858e-05,3.6292878355492775e-05,2.2647240540907276e-05,-8.425731311767493e-05
1504282505.0,-1.0,-0.006541035549999999,-0.0026085689,-0.070019481,0.005552,-0.056242,0.002545,-1.9210933150499998,-9.5731536635,0.9135286740999999,-2.014675,1.35214,2.727257,0.00012999999999996348,-1.9999999999992246e-05,-1.1999999999999858e-05,3.62911168840796e-05,2.265040095461579e-05,-8.425683297030861e-05
1504282505.01,-1.0,-0.0063939358,-0.0259680092,-0.04641487445,0.001329,-0.049814,0.003593,-1.9209364086499998,-9.573134050199998,0.9140091999499999,-2.014909,1.352133,2.726975,0.000270000000000048,-3.0000000000002247e-05,-3.199999999999904e-05,7.232606570051203e-05,3.9463706432041334e-05,-0.0001388557624438791
1504282505.02,-1.0,-0.0050308114499999996,-0.061693635149999995,-0.0389520138,-0.006125,-0.046558,0.005709,-1.9209462152999999,-9.573173276799999,0.913587514,-2.014726,1.352151,2.726319,0.00026999999999999247,-3.0000000000002247e-05,-3.8000000000001574e-05,5.740084017968883e-05,3.152578701071107e-05,-0.0001178038995431896
1504282505.03,-1.0,-0.012474058799999998,-0.07992419749999999,-0.0060997363,-0.01887,-0.03793,0.007807,-1.92128944805,-9.57320269675,0.912606849,-2.014242,1.352163,2.725423,0.00025999999999998247,-1.9999999999992246e-05,-4.099999999999937e-05,4.227710675630547e-05,3.0162236263064912e-05,-8.651419559890794e-05
1504282505.04,-1.0,-0.00718827445,-0.06749917194999999,0.014837461449999999,-0.023116,-0.032572,0.01206,-1.9219366869499999,-9.57320269675,0.9112731446,-2.013543,1.352162,2.724359,0.00043999999999999595,-4.000000000001225e-05,-1.1999999999999858e-05,-4.1916432420130434e-05,5.74733046037057e-05,-0.00011187038531146332
1504282505.05,-1.0,0.014523648649999998,-0.0090613446,0.024791211199999996,-0.036946,-0.025003,0.016292,-1.9228487053999999,-9.57328114995,0.90849786265,-2.012183,1.3522,2.722693,0.00021999999999999797,-3.333333333327415e-06,2.0000000000002655e-06,-4.2817920788973396e-05,5.0295841214520465e-05,-2.1522464924594864e-05
1504282505.06,-1.0,0.011934693049999999,0.024183198899999998,0.04298254694999999,-0.050788,-0.019565,0.01946,-1.9243000896,-9.5733105699,0.90512437505,-2.010455,1.352213,2.72069,0.00010999999999999899,-3.333333333327415e-06,3.500000000000031e-06,-5.7318963860186756e-05,4.640468098937589e-05,1.713635065425656e-05
1504282505.07,-1.0,0.00342252085,0.0302240953,0.05687856999999999,-0.058199,-0.013109,0.018369,-1.9259672201,-9.5733694098,0.9009565487999999,-2.008348,1.35224,2.718355,0.00010999999999999899,-3.333333333327415e-06,3.500000000000031e-06,-5.7318304570230794e-05,4.6405820188555325e-05,1.713373080536318e-05
1504282505.08,-1.0,-0.0111991943,0.027576299799999995,0.07416769395,-0.065629,-0.007721,0.019414,-1.9279579700499998,-9.5734086364,0.8962297435,-2.005939,1.35226,2.71577,0.00023000000000000798,-1.0000000000010001e-05,9.999999999999593e-06,-0.0001020699205205311,0.00013261195756708588,6.870863029118102e-05
1504282505.09,-1.0,-0.0282627653,0.02068222485,0.08962297435,-0.06344,-0.002409,0.017274,-1.9301938862499999,-9.57339882975,0.8915519714499999,-2.003501,1.352254,2.713205,0.00043999999999999595,-1.9999999999992246e-05,2.300000000000045e-05,-0.0002184156829485584,0.0002998274851668814,0.00017314748814867276
1504282505.1,-1.0,-0.022427808549999997,0.014494228699999999,0.055280086049999996,-0.067676,0.000824,0.016194,-1.9321454096,-9.573496896249999,0.88623676715,-2.000846,1.352301,2.710458,0.00010999999999999899,7.499999999993623e-06,3.500000000000031e-06,-4.359503650719354e-05,5.802254057418743e-05,4.1739253177963676e-05
1504282505.11,-1.0,-0.021888442799999998,0.007109821249999999,0.020025179299999998,-0.050598,-0.000379,0.013024,-1.9338713799999998,-9.573594962749999,0.88139228205,-1.998433,1.352347,2.70798,0.00010999999999999899,7.499999999993623e-06,3.500000000000031e-06,-4.359269745135563e-05,5.8024542401557966e-05,4.173680287000714e-05
1504282505.12,-1.0,-0.027958759149999995,0.00344213415,-0.00732556755,-0.040989,-0.001521,0.009841,-1.935440444,-9.5736636093,0.8771656159,-1.99632,1.352381,2.705813,0.00020999999999998797,7.5000000000213785e-06,-2.9500000000000012e-05,-0.00012899695814105883,5.858308760808839e-05,3.864252911411903e-05
1504282505.13,-1.0,-0.024987344199999997,0.00216726965,0.00899269805,-0.036677,0.002709,0.007707,-1.9366172419999998,-9.5737420625,0.8737136751,-1.994612,1.352417,2.704093,0.00037000000000003697,7.499999999993623e-06,-2.9500000000000012e-05,-0.0003528974548412389,-1.6131498287164092e-05,-7.239103249578882e-05
1504282505.14,-1.0,-0.0147295883,-0.03515684025,0.04045243125,-0.035564,0.009092,0.008765,-1.937597907,-9.5738205157,0.8706932269,-1.993125,1.352454,2.702641,0.00019500000000000073,4.000000000001225e-05,-3.900000000000084e-05,-0.0003018172520983242,-3.412639182975852e-05,-0.00017239483509889908
1504282505.15,-1.0,-0.01075789505,-0.0728045696,0.0838076309,-0.037654,0.014437,0.008752,-1.9384216656,-9.573879355599999,0.8681827244999999,-1.991887,1.352482,2.701483,0.00019500000000000073,3.999999999998449e-05,-3.8999999999999105e-05,-0.0003018129017364757,-3.417855926390878e-05,-0.00017238540380182243
1504282505.16,-1.0,0.00705098135,-0.06979392805,0.10493115499999998,-0.03655,0.020818,0.011944,-1.9393238773999997,-9.573898968899998,0.86591738835,-1.990738,1.352493,2.700472,0.00021999999999999797,4.999999999999449e-05,-4.0000000000000105e-05,-0.00038000655094361235,3.3158282512379955e-05,-0.00024197538360715143
1504282505.17,-1.0,0.02234935535,-0.047738772199999994,0.0917706307,-0.038654,0.025096,0.013,-1.9402555091499998,-9.5739578088,0.8632205596,-1.989402,1.352519,2.699321,0.00023499999999998522,4.999999999999449e-05,-3.350000000000054e-05,-0.0003388795457073268,0.00011549983818470722,-0.00022908021395817713
1504282505.18,-1.0,0.021849216199999997,-0.0039128533499999995,0.07051962015,-0.025839,0.027121,0.014086,-1.9414028872,-9.573938195499998,0.8608277369999999,-1.988151,1.352511,2.698285,0.00023499999999998522,4.999999999999449e-05,-3.350000000000054e-05,-0.00033890501638156323,0.00011542216132442995,-0.0002291186841234527
1504282505.19,-1.0,0.011934693049999999,0.0330680238,0.04678752715,-0.018337,0.029193,0.010893,-1.9427169782999998,-9.573810709049999,0.85926847965,-1.987232,1.352451,2.697625,0.000250000000000028,4.999999999999449e-05,-2.499999999999898e-05,-0.000269111723705473,0.00018037614842270067,-0.00023548400861517216
1504282505.2,-1.0,0.0163182656,0.057751361849999995,0.0187895414,-0.004454,0.030146,0.009848,-1.9439526161999998,-9.57365380265,0.8582387813999999,-1.986551,1.352377,2.697233,0.00024999999999997247,4.000000000001225e-05,-2.1000000000000185e-05,-0.0002260152590654041,0.0001757056457296624,-0.00023963378629798804
1504282505.21,-1.0,0.012493672099999999,0.060546257099999994,-0.014523648649999998,0.007301,0.031117,0.007732,-1.9450607676499998,-9.573457669649999,0.85787593535,-1.986186,1.352286,2.697176,0.00012000000000000899,2.4999999999997247e-05,-9.500000000000827e-06,-9.207182861770136e-05,7.939055727024247e-05,-0.00011594889021582233
1504282505.22,-1.0,0.00246146915,0.03798115545,-0.013307624049999998,0.016894,0.029972,0.00775,-1.94610027255,-9.57318308345,0.8586114341000001,-1.986303,1.352155,2.697603,0.00012000000000000899,2.4999999999997247e-05,-9.499999999999093e-06,-9.208054426856904e-05,7.937958953063706e-05,-0.00011595558269505979
1504282505.23,-1.0,-0.01850514855,0.00589379665,-0.007168661149999999,0.023297,0.028856,0.005629,-1.9472770705499998,-9.5728202374,0.85995494515,-1.986656,1.351986,2.698277,0.00047999999999998044,0.00010000000000001674,-9.699999999999986e-05,-0.000465800713044473,0.0002357521525782058,-0.0004360727345059656
1504282505.24,-1.0,-0.0224376152,-0.032146198699999996,-0.0012160246,0.025464,0.030973,0.002427,-1.94814005575,-9.57249661795,0.8616318822999999,-1.987217,1.351833,2.699167,0.00023000000000000798,6.499999999998174e-05,-5.4499999999998994e-05,-0.0003246552638835887,8.16978006572544e-05,-0.00021103465257843457
1504282505.25,-1.0,-0.01748525695,-0.0680777643,0.018858187949999997,0.029723,0.029872,0.002436,-1.94874806805,-9.5721729985,0.86385799185,-1.988053,1.351681,2.700337,0.00023000000000000798,6.50000000000095e-05,-5.450000000000073e-05,-0.00032467140425995744,8.162915389320347e-05,-0.00021106045736374313
1504282505.26,-1.0,-0.0226533615,-0.09789978695,0.0292826569,0.026551,0.03416,0.003491,-1.9494247268999998,-9.57182976575,0.8661429412999999,-1.988909,1.35152,2.701551,0.00024000000000001798,7.999999999999674e-05,-5.6000000000000494e-05,-0.0004246634190698817,0.00010693327665034502,-0.00020457251394367937
1504282505.27,-1.0,-0.025173670549999996,-0.1272510904,0.017034151049999998,0.020117,0.032078,0.006686,-1.9503465519999998,-9.571506146299999,0.8676237454499999,-1.989364,1.351369,2.702361,0.00023999999999996247,7.999999999999674e-05,-5.4999999999999494e-05,-0.00042376378529374037,0.00012992147743928761,-0.00020470760942270516
1504282505.28,-1.0,-0.0181226892,-0.12868286129999998,-0.0021182363999999996,0.016939,0.034237,0.005609,-1.9511114707,-9.5712707867,0.86852595725,-1.989604,1.351258,2.702955,0.00024000000000001798,7.50000000000195e-05,-5.450000000000073e-05,-0.0002979867603898345,0.00015987390808835933,-0.00017439745435932075
1504282505.29,-1.0,-0.011463973849999998,-0.0920648302,-0.01595541955,0.012652,0.033204,0.007738,-1.9519352292999999,-9.57108446035,0.8687417035499999,-1.98954,1.35117,2.703237,0.00024000000000001798,7.499999999999174e-05,-5.450000000000073e-05,-0.00029801310679400395,0.00015982161922067917,-0.00017444419700574088
1504282505.3,-1.0,0.00061781895,-0.061389628999999994,-0.01909354755,0.005181,0.034329,0.009857,-1.9529355075999997,-9.5709373606,0.8681336912500001,-1.98909,1.351099,2.703146,0.00012000000000000899,3.500000000000725e-05,-2.8999999999999512e-05,-9.238206923800618e-05,6.285771055303258e-05,-7.272625914389597e-05
1504282505.31,-1.0,0.01579851315,-0.024232232149999998,-0.025154057249999997,-0.003331,0.03866,0.01197,-1.9540534656999997,-9.570839294099999,0.866711727,-1.988271,1.351054,2.702704,0.00011999999999995348,3.499999999997949e-05,-2.8999999999999512e-05,-9.23862054817981e-05,6.285077332557343e-05,-7.273172378319259e-05
1504282505.32,-1.0,0.032381558299999995,0.022555295,-0.0197702064,-0.012969,0.03554,0.014093,-1.9552204570499998,-9.5707804542,0.86462291055,-1.987154,1.35103,2.701927,0.000250000000000028,7.00000000000145e-05,-6.199999999999956e-05,-0.0001699243650767901,0.00010807119193967374,-0.0001296183478177726
1504282505.33,-1.0,0.049337256149999995,0.0663517939,-0.02395764595,-0.012989,0.034472,0.016229,-1.9564659015999997,-9.570731420949999,0.8623771876999999,-1.985957,1.351006,2.701066,0.00028000000000000247,6.999999999998674e-05,-8.100000000000121e-05,-0.00019856739074697316,0.00011688677182419838,-0.00010533463885842309
1504282505.34,-1.0,0.0491509298,0.07091188614999999,-0.04661100745,-0.015178,0.030224,0.020502,-1.9580741922,-9.57065296775,0.8595920990999999,-1.984462,1.350969,2.699881,0.00029000000000001247,9.000000000000674e-05,-8.599999999999927e-05,-0.0002567220632587741,0.00012787921988710593,-8.253167963290231e-05
1504282505.35,-1.0,0.03519606685,0.04716017985,-0.052083118149999996,-0.015208,0.025963,0.019441,-1.9598393892,-9.5705450946,0.85683643045,-1.982953,1.350916,2.698625,0.00028999999999995696,0.00010999999999999899,-9.200000000000007e-05,-0.00036870609840122803,0.00011840256014727935,-5.076112882085315e-05
1504282505.36,-1.0,0.022104189099999998,0.014239255799999998,-0.0459931885,-0.019543,0.019602,0.022647,-1.96184975245,-9.570388188199999,0.8538846287999999,-1.981311,1.350846,2.697174,0.0005800000000000249,0.0002500000000000002,-0.00019800000000000026,-0.0010085353718838341,0.0002420892903476357,-2.833235928478839e-05
1504282505.37,-1.0,0.0030890947499999997,-0.00559959715,-0.0230848541,-0.022758,0.018562,0.023711,-1.9642425750499999,-9.5701528286,0.8510210869999999,-1.979641,1.350736,2.695661,0.00014500000000000624,7.00000000000145e-05,-5.149999999999946e-05,-0.00030579366877336867,6.106942522166037e-05,1.4721067323475445e-05
1504282505.38,-1.0,0.00977723005,-0.03243059155,-0.0018044235999999999,-0.028132,0.014343,0.024776,-1.96643926465,-9.569956695599998,0.8481575451999999,-1.978003,1.350644,2.694129,0.00014500000000000624,6.999999999998674e-05,-5.149999999999946e-05,-0.00030579015682774546,6.107347088901705e-05,1.4702263183674624e-05
1504282505.39,-1.0,0.019309293849999996,-0.05622152445,0.02395764595,-0.039909,0.011239,0.027963,-1.9686457608999999,-9.56980959585,0.8446859911,-1.976112,1.350576,2.692307,0.0005799999999999694,0.0002999999999999947,-0.00020300000000000006,-0.0013635614491851467,0.00023585297651851356,0.00010570725915470813
1504282505.4,-1.0,0.02240819525,-0.08121867529999999,0.04115851005,-0.046342,0.009158,0.031157,-1.9709895502499999,-9.5696624961,0.8409594640999999,-1.97408,1.350504,2.690306,0.000150000000000039,7.499999999999174e-05,-4.800000000000117e-05,-0.0003553593771834507,6.646296188717038e-05,5.134400174944265e-05
1504282505.41,-1.0,0.04967068225,-0.0755308183,0.052749970349999994,-0.055946,0.0103,0.033272,-1.9731175932999998,-9.5696624961,0.8359482659499999,-1.971538,1.350504,2.687777,0.00014999999999998348,7.50000000000195e-05,-4.799999999999943e-05,-0.0003553562445657299,6.648133345477092e-05,5.1320416854516715e-05
1504282505.42,-1.0,0.0817286211,-0.06900939604999999,0.0490724766,-0.057012,0.010309,0.033269,-1.9747945304499999,-9.56975075595,0.8309468744499999,-1.969086,1.350546,2.685331,0.00029999999999996696,0.00014999999999998348,-9.299999999999933e-05,-0.000654044864224046,0.00014291408236011272,7.203604243832817e-05
1504282505.43,-1.0,0.09572271065,-0.05251461075,0.024173392250000002,-0.058051,0.012451,0.031127,-1.9762164946999998,-9.569927275649999,0.8254649570999999,-1.966467,1.35063,2.682748,0.0007100000000000439,0.0002700000000000202,-0.0001520000000000011,-0.0010245006049705019,0.0002537754566971362,9.621125797965036e-05
1504282505.44,-1.0,0.1154046572,-0.015298373999999998,-0.0108265416,-0.052711,0.012408,0.030067,-1.97734425945,-9.57018224855,0.81976729345,-1.96381,1.350751,2.680129,0.00036999999999998145,0.00012999999999999123,-7.199999999999915e-05,-0.00035504465828650744,9.906896010392074e-05,-3.589410524529324e-05
1504282505.45,-1.0,0.12616255224999998,0.0031283213499999998,-0.0397561591,-0.047379,0.010236,0.026876,-1.9780797581999998,-9.570505868,0.8142755694499999,-1.961305,1.350899,2.677653,0.00037999999999999146,0.00012999999999999123,-7.099999999999988e-05,-0.00038219332688882446,5.824327631542836e-05,-9.367142550276153e-05
1504282505.46,-1.0,0.1288397677,-0.0146511351,-0.04466929075,-0.039918,0.008045,0.024756,-1.9785112507999998,-9.570839294099999,0.80931340455,-1.959084,1.351054,2.675458,0.00040000000000001146,0.00014999999999998348,-7.599999999999968e-05,-0.0004936644725366257,2.76862759722718e-05,-0.00022265687275879742
1504282505.47,-1.0,0.11208020284999999,-0.053259916149999996,-0.012993811249999999,-0.031368,0.007978,0.021566,-1.97865835055,-9.5711334936,0.8054790044,-1.957395,1.351191,2.673788,0.00040000000000001146,0.00015000000000001124,-7.600000000000141e-05,-0.0004936716765167048,2.757644333306608e-05,-0.00022267098943051788
1504282505.48,-1.0,0.1061864062,-0.088063717,0.016073099349999998,-0.039856,0.011249,0.017274,-1.9784524109,-9.571486533,0.8016936375,-1.955789,1.35136,2.672232,0.00041999999999997595,0.00016000000000002124,-8.299999999999974e-05,-0.0007336848714021293,3.3329371286860976e-05,-0.0003259123238088524
1504282505.49,-1.0,0.08545514809999999,-0.11662068179999999,0.027164420499999998,-0.036644,0.011225,0.015143,-1.97822685795,-9.571810152449999,0.7983887964499999,-1.95439,1.351511,2.670877,0.0004450000000000287,0.00017499999999998073,-9.05000000000003e-05,-0.0008970773356331563,8.737817561121908e-05,-0.00035657959510104753
1504282505.5,-1.0,0.07028426054999999,-0.12804542905,0.0415409694,-0.032379,0.010125,0.014084,-1.9781582114,-9.572065125349999,0.7955350613,-1.953162,1.351629,2.669703,0.0004449999999999732,0.00017500000000000848,-9.05000000000003e-05,-0.0008971025614386008,8.705786799767523e-05,-0.00035665551109087534
1504282505.51,-1.0,0.07591327764999999,-0.12486807444999999,0.0357550459,-0.030215,0.011177,0.009815,-1.97765807225,-9.57239855145,0.7927891992999999,-1.952055,1.351784,2.668661,0.00047000000000002595,0.00018999999999999573,-0.00010650000000000069,-0.001003224531124669,0.00013519595010347274,-0.0004038776394511556
1504282505.52,-1.0,0.0995178842,-0.09195695705,0.00608992965,-0.02381,0.008998,0.005558,-1.9765695341,-9.5728398507,0.79013159715,-1.951085,1.351993,2.667761,0.00046999999999997044,0.00018999999999999573,-0.00010649999999999896,-0.0010032814817320101,0.00013479139056804534,-0.0004040140638112977
1504282505.53,-1.0,0.12163187995000001,-0.06551822865,-0.014876688049999998,-0.019538,0.008963,0.004496,-1.97489259695,-9.573389023099999,0.7876112880999999,-1.950276,1.352253,2.667013,0.0004950000000000232,0.00018999999999999573,-0.00010250000000000016,-0.0010835483085780417,0.00025263935101782486,-0.00037107481332565584
1504282505.54,-1.0,0.10786334334999999,-0.07436382695,-0.017063571,-0.016311,0.008942,-0.000837,-1.97295088025,-9.573967615449998,0.7854538251,-1.949675,1.352526,2.666475,0.0004949999999999677,0.00019000000000002348,-0.00010250000000000016,-0.001083638324667735,0.00025223738107738036,-0.00037134712367670186
1504282505.55,-1.0,0.09154507775,-0.11323738755,-0.01211121275,-0.014125,0.012127,-0.006178,-1.9706953507499998,-9.57459524105,0.7834924951000001,-1.949208,1.35282,2.666101,0.0005200000000000204,0.00016999999999997573,-7.799999999999821e-05,-0.0010941543203575321,0.00039660928068241397,-0.0002863104729976529
1504282505.56,-1.0,0.0874949313,-0.13659682785,-0.0047464186,-0.011938,0.014248,-0.013652,-1.9678416156,-9.575330739799998,0.7816684582,-1.948905,1.353167,2.665926,0.0005399999999999849,0.00015000000000001124,-6.600000000000009e-05,-0.001024175856183751,0.00043953207150604356,-0.00023929681304302175
1504282505.57,-1.0,0.0848863624,-0.15148332255,-0.01723028405,-0.011902,0.017446,-0.015794,-1.9646348410499999,-9.5761544984,0.7796384816499999,-1.948572,1.353557,2.665742,0.0005499999999999949,0.00015000000000001124,-6.199999999999956e-05,-0.0009402430899509984,0.0004777616215687619,-0.0002229115943372939
1504282505.58,-1.0,0.07936521845,-0.17141043535,-0.02011343915,-0.01082,0.017441,-0.018996,-1.96120251355,-9.57702729025,0.77757908515,-1.948264,1.353969,2.665591,0.0005700000000000149,0.00012999999999999123,-6.200000000000302e-05,-0.000883440725151452,0.0004695221674408945,-0.00025363395631561314
1504282505.59,-1.0,0.09321220824999998,-0.18112882549999998,-0.005462304049999999,-0.008647,0.021686,-0.020069,-1.9573975333499998,-9.5779393087,0.7759413745999999,-1.948208,1.354402,2.665729,0.0005700000000000149,0.00012999999999999123,-6.399999999999809e-05,-0.0008253165525626827,0.00040858175252722617,-0.00034455503388552966
1504282505.6,-1.0,0.11396307965,-0.17358751165,-0.013876409749999999,-0.002266,0.018438,-0.021122,-1.95316106055,-9.578900360399999,0.7747841899,-1.948437,1.354857,2.666142,0.00030000000000002247,6.999999999998674e-05,-3.200000000000078e-05,-0.0003833038154410495,0.00016536091906238504,-0.00023711039267049205
1504282505.61,-1.0,0.10025338294999998,-0.15713195295,-0.040246491599999996,0.004151,0.020516,-0.021117,-1.9491795606499998,-9.57979276555,0.7737642982999999,-1.94869,1.355283,2.666616,0.00029999999999996696,7.00000000000145e-05,-3.200000000000078e-05,-0.0003833405523849809,0.00016526935230309903,-0.00023717223997865577
1504282505.62,-1.0,0.0862200668,-0.15232669445,-0.02478140455,0.011604,0.019388,-0.020037,-1.9454726469499999,-9.580547877599999,0.7737152650499999,-1.949321,1.355645,2.667458,0.0006099999999999994,0.00014000000000000123,-6.199999999999956e-05,-0.000778261302602612,0.00025628307342917545,-0.0006029544384762442
1504282505.63,-1.0,0.07530526535,-0.1519638484,-0.025203090499999997,0.020149,0.01932,-0.022158,-1.9418834130499998,-9.5812147298,0.7744409571499999,-1.950274,1.355964,2.668629,0.0006599999999999939,0.00017000000000000348,-5.9000000000000025e-05,-0.0007774995298330811,0.00024768399615249237,-0.0007160470918344819
1504282505.64,-1.0,0.0745501533,-0.1517677154,0.0121014061,0.009504,0.023668,-0.020051,-1.93843147225,-9.5818619687,0.7751372293,-1.9512,1.356272,2.669793,0.0007199999999999984,0.00023000000000000798,-5.6999999999998024e-05,-0.0009895576150644736,0.0002516552309852482,-0.000823915586942503
1504282505.65,-1.0,0.07628593035,-0.15052227085,0.01303303785,0.009521,0.025799,-0.020057,-1.9349304982,-9.5825092076,0.77585311475,-1.952142,1.356583,2.671006,0.0016200000000000103,0.0005399999999999849,-0.0001370000000000017,-0.002097871642505744,0.0008584151186330491,-0.0017970305931892527
1504282505.66,-1.0,0.061693635149999995,-0.122190859,0.00208881645,0.005293,0.030097,-0.02114,-1.9317139169999997,-9.5831564465,0.7758727280500001,-1.952726,1.356894,2.671875,0.0008900000000000019,0.0003100000000000047,-9.800000000000086e-05,-0.0012793055665041297,0.000609299183544243,-0.0009750147509148821
1504282505.67,-1.0,0.05129858615,-0.0892601283,0.0156318001,0.005329,0.033296,-0.023282,-1.9286542422,-9.5837644588,0.77595118125,-1.953309,1.357187,2.6728,0.0009600000000000164,0.0003449999999999842,-0.0001360000000000007,-0.0014929181750151788,0.0006627349494785495,-0.0010041883386896489
1504282505.68,-1.0,0.05426019444999999,-0.05322068955,0.0112776475,0.012826,0.037495,-0.02221,-1.925633794,-9.5843332445,0.7764120938,-1.954057,1.357462,2.673928,0.0009599999999999609,0.00034500000000001196,-0.00013599999999999723,-0.0014935716832442658,0.0006612345918117768,-0.0010051690914535394
1504282505.69,-1.0,0.06625372739999999,-0.01171894675,-0.00279489525,0.022419,0.036351,-0.022192,-1.9226525723999999,-9.58483338365,0.77761831175,-1.955132,1.357703,2.675396,0.0009899999999999909,0.0003800000000000192,-0.00016599999999999948,-0.0015072517565688504,0.0006074904743689213,-0.0010051761837828188
1504282505.7,-1.0,0.07465802645,0.04170768245,-0.0345782479,0.027773,0.039502,-0.021122,-1.9198478705,-9.585294296199999,0.7788735629499999,-1.956203,1.357925,2.676897,0.0010100000000000109,0.0003999999999999837,-0.00017600000000000254,-0.0014626541074806987,0.0004899240534996796,-0.0009730690776765805
1504282505.71,-1.0,0.0742363405,0.07582501779999999,-0.0605854837,0.022448,0.04274,-0.017936,-1.9173177547999998,-9.585745402099999,0.7795894483999999,-1.956984,1.358141,2.678128,0.0005100000000000104,0.00021000000000001573,-8.89999999999988e-05,-0.0006594295407726936,0.0001774930308864331,-0.000464941708184341
1504282505.72,-1.0,0.08509230205,0.095909037,-0.03858916775,0.035251,0.044762,-0.014716,-1.91501319205,-9.58606902155,0.7812369655999999,-1.958143,1.358299,2.679762,0.0005100000000000104,0.00020999999999998797,-8.89999999999988e-05,-0.0006595119711843012,0.0001771866732065419,-0.00046505863816037607
1504282505.73,-1.0,0.10269523879999999,0.1177778665,-0.0071000146,0.037383,0.047936,-0.009382,-1.9130126354499999,-9.58624554125,0.78401224755,-1.959751,1.358383,2.681875,0.0021999999999999797,0.0009599999999999886,-0.00032500000000000237,-0.0024566177485429996,0.000125848294821429,-0.0016580607567929784
1504282505.74,-1.0,0.10850077559999999,0.1507282105,-0.0101596894,0.041684,0.055354,-0.004052,-1.9116397044499998,-9.58628476785,0.7869248226,-1.961305,1.3584,2.683997,0.0011649999999999716,0.0005250000000000254,-0.00015100000000000183,-0.0009448068936150911,-1.3398050089374891e-05,-0.0006039170282383655
1504282505.75,-1.0,0.12695689089999998,0.17085145629999998,-0.02842947835,0.052346,0.058456,0.002363,-1.91063942615,-9.586196507999999,0.79038657005,-1.963037,1.358359,2.686358,0.0011650000000000271,0.0005249999999999977,-0.00015099999999999836,-0.0009447947813510105,-1.3968543555620272e-05,-0.0006039016398174946
1504282505.76,-1.0,0.12195549939999999,0.18963119104999998,-0.0673520722,0.064087,0.060489,0.004514,-1.9101196737,-9.58597095505,0.79428961675,-1.964875,1.358252,2.688869,0.0012300000000000089,0.0005699999999999872,-0.0001539999999999979,-0.0008349560856300009,6.696955753504596e-05,-0.00030254683549924
1504282505.77,-1.0,0.09258458265,0.1851691653,-0.09187850385,0.075853,0.065718,0.006659,-1.9103844532499998,-9.5855492691,0.7987614491499999,-1.966823,1.358047,2.691547,0.0012800000000000034,0.0005900000000000072,-0.00016700000000000048,-0.0007827874971151338,0.00021154935532607944,-9.707628670430068e-05
1504282505.78,-1.0,0.07616825055,0.16346704885,-0.0906526726,0.085509,0.075224,0.010928,-1.9111787918999998,-9.5849412568,0.8041256867,-1.969061,1.357755,2.694599,0.0013299999999999979,0.0006249999999999867,-0.00019900000000000126,-0.000698832299828922,0.0004680052181831318,0.00029550887709173246
1504282505.79,-1.0,0.07921811869999999,0.12573105965,-0.07632515695,0.089789,0.081575,0.018395,-1.91258114285,-9.58416653145,0.80999987005,-1.971404,1.357382,2.697835,0.0013299999999999979,0.0006250000000000144,-0.0001989999999999978,-0.0006986942090319026,0.00046821351613512974,0.0002951818391730976
1504282505.8,-1.0,0.09368292745,0.07736466185,-0.0554467991,0.093006,0.088999,0.026925,-1.9144738262999998,-9.58324470635,0.8165016789999999,-1.97393,1.356935,2.701314,0.0013600000000000279,0.0006599999999999939,-0.0002360000000000001,-0.0008695684229953482,0.0007089212058877248,0.0008315086190754384
1504282505.81,-1.0,0.1075201106,0.04364939915,-0.017955976149999997,0.093051,0.10071,0.03651,-1.9169352954499999,-9.5821561682,0.82345459385,-1.97653,1.356413,2.704963,0.0006749999999999812,0.00034000000000000696,-0.00012950000000000114,-0.0005503651913987273,0.0004381680776266439,0.0006405588572322429
1504282505.82,-1.0,0.12888880095,0.07591327764999999,0.0270467407,0.08887,0.11672,0.045012,-1.9202009099,-9.58089111035,0.8305251885,-1.979019,1.355808,2.708632,0.0006749999999999812,0.00034000000000000696,-0.00012950000000000114,-0.0005500829044109423,0.00043852050213510907,0.0006403158617042104
1504282505.83,-1.0,0.147688149,0.1472370431,0.02346731345,0.089959,0.124162,0.05247,-1.9241824097999998,-9.5794887594,0.8373898434999999,-1.98127,1.355141,2.712161,0.0026599999999999957,0.0014299999999999868,-0.0005479999999999999,-0.0030775210405615816,0.0023766889756093867,0.004252016369244327
1504282505.84,-1.0,0.158279331,0.24435229805,-0.006541035549999999,0.096424,0.132632,0.053532,-1.9286444355499999,-9.577998148599999,0.84420546525,-1.983393,1.35443,2.715649,0.0012500000000000289,0.0007099999999999884,-0.0002999999999999982,-0.0017450957526907729,0.0013702490222320396,0.0031047602561591336
1504282505.85,-1.0,0.15764189874999998,0.31969678999999995,-0.06655773355,0.109282,0.138921,0.052474,-1.9333908541499998,-9.576429084599999,0.8510995402,-1.985481,1.353686,2.719193,0.0011400000000000299,0.0006700000000000039,-0.00032049999999999787,-0.001855486099263004,0.0014136482089275315,0.0042199487619203335
1504282505.86,-1.0,0.1328212676,0.2885900962,-0.11701294779999999,0.124241,0.139867,0.049295,-1.93819611265,-9.5748011807,0.85846433435,-1.987748,1.352917,2.722968,0.0011399999999999744,0.0006700000000000039,-0.00032050000000000134,-0.001849491340567555,0.0014214541110260104,0.0042172894293256435
1504282505.87,-1.0,0.08807352364999999,0.17837315685,-0.14156879939999997,0.128609,0.147299,0.04075,-1.9426777516999998,-9.573212503399999,0.86595661495,-1.990115,1.352171,2.726921,0.0010100000000000109,0.0006200000000000094,-0.00035600000000000215,-0.0016873072124747868,0.0015176803095584557,0.005510872339560824
1504282505.88,-1.0,0.036529771249999995,-0.0005295590999999999,-0.1263684919,0.146817,0.150357,0.031169,-1.9466592516,-9.571643439399999,0.8744099472499999,-1.992972,1.351431,2.731428,0.0008399999999999519,0.0005650000000000099,-0.0004175000000000012,-0.0013171533861520146,0.0017346382015177575,0.007163563486535907
1504282505.89,-1.0,0.0033931009,-0.18707165539999998,-0.08186591419999999,0.147934,0.15355,0.025827,-1.9500327391999999,-9.5700547621,0.8842264039,-1.996508,1.350688,2.736645,0.0008400000000000074,0.0005649999999999822,-0.00041749999999999773,-0.001304704751291741,0.0017440291987322887,0.0071613346392478405
1504282505.9,-1.0,-0.0030890947499999997,-0.31077273850000003,-0.05831034089999999,0.155489,0.159889,0.018356,-1.9525236282999998,-9.568603377899999,0.8943370600499999,-2.000317,1.350012,2.742208,0.0003666666666666818,0.0003633333333333266,-0.0003573333333333345,-0.0003390495165149776,0.0014359843848583687,0.006304244167706696
1504282505.91,-1.0,0.02085874455,-0.33331822684999995,-0.061066009549999994,0.154432,0.166241,0.015114,-1.95418095215,-9.567308900099999,0.90457520265,-2.004322,1.349408,2.748022,0.0003666666666666263,0.0003633333333333544,-0.00035733333333333103,-0.0003299954154203366,0.00143810211377704,0.00630386401099392
1504282505.92,-1.0,0.0658810747,-0.3081445563,-0.05842802069999999,0.154465,0.170503,0.015104,-1.95520084375,-9.56614190875,0.91465643885,-2.008357,1.348867,2.753911,0.0003666666666666818,0.0003633333333333266,-0.0003573333333333345,-0.00032092247304804644,0.0014401323733777005,0.006303377119818876
1504282505.93,-1.0,0.1289182209,-0.21457930865,-0.07827668029999998,0.157672,0.176861,0.023635,-1.95614228215,-9.56498472405,0.9246298018999999,-2.012349,1.348334,2.759812,0.00039000000000000146,0.0013299999999999979,-0.0011870000000000006,0.002337713766697558,0.0037636370195854862,0.02057989314765596
1504282505.94,-1.0,0.24643130784999998,-0.12005300929999999,-0.10803986305,0.17785,0.176676,0.041812,-1.9569366207999999,-9.563749086149999,0.9356818964499999,-2.016801,1.347762,2.766184,-2.999999999997449e-05,0.0008799999999999919,-0.0005420000000000008,0.002263028306092041,0.0008364658203625641,0.009621814654168559
1504282505.95,-1.0,0.3985226427,0.03421540185,-0.21295140475000002,0.211846,0.168921,0.057889,-1.9574465665999998,-9.562385961799999,0.9484207348,-2.021982,1.347137,2.77326,-0.000130000000000019,0.0011000000000000176,-0.000448999999999998,0.0019709175047741834,-0.00013780071012736705,0.0085464045131588
1504282505.96,-1.0,0.49216634355,0.24244980794999996,-0.3621988111,0.23626,0.164438,0.076085,-1.9659489321499999,-9.558737888,0.9674848623999999,-2.028119,1.345463,2.781248,-0.00012999999999996348,0.001485000000000014,-0.00024199999999999916,0.0004411495419169853,-0.0008819328503670842,0.006305809996457246
1504282505.97,-1.0,0.515437524,0.42198014949999996,-0.43269881795,0.248949,0.156864,0.086795,-1.97559867575,-9.554658321599998,0.9878532744499999,-2.034465,1.343611,2.789393,-0.000130000000000019,0.0014849999999999863,-0.00024200000000000263,0.0004355753985327837,-0.000884699406820566,0.006305367973482023
1504282505.98,-1.0,0.51148544405,0.5394049766,-0.4147232285,0.254229,0.154681,0.09428,-1.9860133380499998,-9.5502845557,1.0090846717,-2.040898,1.341637,2.797592,8.500000000000174e-05,0.0019550000000000123,-7.000000000000062e-06,-0.0018847134861430526,-0.00025954020537466427,0.003998810961449717
1504282505.99,-1.0,0.4910778054,0.54172915265,-0.29468002584999997,0.243512,0.152633,0.099595,-1.99074014335,-9.547519080399999,1.0258148166,-2.046601,1.340398,2.805042,8.500000000000174e-05,0.0019549999999999845,-7.000000000000062e-06,-0.0018857283292801341,-0.000252001360679488,0.003999276059419521
1504282506.0,-1.0,0.43422865534999994,0.4200188195,-0.16068196025,0.204135,0.165743,0.100571,-2.00197856425,-9.54327280095,1.0432510403,-2.051187,1.338513,2.811418,0.00035000000000001696,0.0021799999999999875,5.8000000000002494e-05,-0.002658383363154826,0.0010098669060529808,0.0034385998358703596
1504282506.01,-1.0,0.34718482994999994,0.1997614605,-0.0336171962,0.133818,0.176981,0.098295,-2.01325621175,-9.53968356705,1.0542933282,-2.053206,1.336929,2.81529,0.0006349999999999967,0.0022850000000000092,2.0999999999996716e-05,-0.001793583915541186,0.002547896313046749,0.0038537913039174976
1504282506.02,-1.0,0.27114406585,-0.11469857839999999,0.0816893945,0.058176,0.189328,0.096007,-2.0244455994,-9.5369278984,1.0578041088999999,-2.052291,1.335719,2.816274,0.0006349999999999967,0.0022849999999999954,2.1000000000000185e-05,-0.0017838212342033977,0.002554777527151053,0.003849367523988123
1504282506.03,-1.0,0.224376152,-0.43456208144999997,0.22113995749999998,-0.016355,0.206993,0.093707,-2.03020210295,-9.535790326999999,1.0570588035,-2.050841,1.335219,2.816735,0.0004250000000000087,0.001229999999999995,1.000000000001e-06,-0.0003596365555131875,0.0019276148945963634,0.002189426190465804
1504282506.04,-1.0,0.16950794525,-0.73646960835,0.33157264315,-0.085546,0.225681,0.091419,-2.0413228440499998,-9.5346527556,1.0458399959,-2.044263,1.334723,2.812258,0.0004249999999999532,0.0012300000000000089,1.000000000001e-06,-0.0003554300179864356,0.0019284041675624586,0.002188828312858604
1504282506.05,-1.0,0.15354271905,-0.8409888840499999,0.3576289122,-0.15154,0.246469,0.093403,-2.0527475913,-9.534142809799999,1.02802131285,-2.035086,1.3345,2.8053,0.0018900000000000028,0.005239999999999995,-0.00017700000000000007,0.0004956828949198577,0.010162921578326767,0.009034999233651364
1504282506.06,-1.0,0.25370784215,-0.7039017236999999,0.28506950885,-0.1995,0.25964,0.103971,-2.0649274506,-9.533995710049998,1.0046520659,-2.023614,1.334439,2.796144,0.0009300000000000419,0.0028500000000000053,-0.00017,-7.4153541727906e-05,0.005097255086045305,0.004044836527708484
1504282506.07,-1.0,0.45558753904999993,-0.3852640519,0.124740588,-0.215592,0.265072,0.130609,-2.07017400835,-9.53540786765,0.9801844741499999,-2.013005,1.335053,2.787826,0.0008699999999999819,0.003049999999999997,-0.0002139999999999989,-0.00031661457672016446,0.004533485369631496,0.0035226755884717464
1504282506.08,-1.0,0.6923102634,0.016190779149999997,-0.071196279,-0.191253,0.257384,0.158417,-2.08708067295,-9.53419184305,0.9558541755,-2.000271,1.334523,2.777391,0.0008000000000000229,0.003250000000000003,-0.0002570000000000003,-0.000941887618258308,0.003821226979427328,0.0029086803743647582
1504282506.09,-1.0,0.8651818895999999,0.43804344219999997,-0.25264872395,-0.153038,0.249582,0.185182,-2.10657629315,-9.53197554015,0.9349954309499999,-1.988521,1.333558,2.767901,0.0007299999999999529,0.0034549999999999997,-0.0003040000000000022,-0.0012588903018926345,0.0032446591187895724,0.002357242991630648
1504282506.1,-1.0,0.94105594065,0.7853557586,-0.38814720699999994,-0.113736,0.241776,0.20768,-2.12813130985,-9.528837412149999,0.9180103131499999,-1.97805,1.3322,2.75964,0.0006600000000000494,0.0037520000000000053,-0.00039699999999999805,-0.0013363843486553506,0.002864042962635205,0.0015355003861099448
1504282506.11,-1.0,0.97014246455,1.01480194865,-0.46295233319999995,-0.077644,0.230802,0.226975,-2.15152997675,-9.52483629895,0.90483017555,-1.968894,1.330483,2.752604,0.0006599999999999939,0.0037519999999999915,-0.0003970000000000015,-0.0013321845044504954,0.002866093024588068,0.0015319025607620773
1504282506.12,-1.0,0.9726627735999999,1.11510436485,-0.4588139269,-0.043601,0.228374,0.243049,-2.1763506079,-9.520099687,0.8953079184,-1.961073,1.32846,2.746915,0.0005799999999999694,0.004048999999999997,-0.0005129999999999996,-0.0010732607105787828,0.002685443279122346,0.0008913395674962077
1504282506.13,-1.0,0.9627972837,1.1302164125,-0.39164818105,-0.021262,0.226049,0.252698,-2.2022401638999995,-9.51485312925,0.88768815135,-1.95396,1.326242,2.741928,0.0005100000000000104,0.004229999999999998,-0.0006460000000000007,-0.0009003366787276867,0.0023825205351621914,0.0005356856720020176
1504282506.14,-1.0,0.91518599795,1.03586663285,-0.29830848635,-0.016978,0.233464,0.261232,-2.2290025117499996,-9.50924372545,0.88100001605,-1.947194,1.32389,2.73734,0.00042999999999998595,0.0044500000000000095,-0.0007460000000000001,-0.0008118523514704101,0.0023671649805221406,0.0006364579654011271
1504282506.15,-1.0,0.8737234817499999,0.8390177473999999,-0.17172424814999998,-0.030813,0.24316,0.26973,-2.2565297783,-9.503487221899999,0.87307624285,-1.939968,1.321498,2.732368,0.00030000000000002247,0.004683999999999994,-0.0008479999999999981,-0.0009596198547181523,0.002179230715056768,0.0007242065273433962
1504282506.16,-1.0,0.8433718999999998,0.57954359505,-0.043688625749999994,-0.049937,0.257163,0.276077,-2.2848317702,-9.4976424585,0.86295578005,-1.931923,1.319095,2.726688,0.00018000000000001348,0.004926,-0.0009499999999999995,-0.0012646486231979726,0.0018030929276846575,0.0006759393877283637
1504282506.17,-1.0,0.82035569245,0.34479200735,0.057133542899999994,-0.066949,0.271144,0.286682,-2.3002772439499997,-9.49482794995,0.85281570395,-1.92583,1.317946,2.722983,-5.500000000002725e-05,0.005277000000000004,-0.0010864999999999972,-0.001622663743557906,0.0010556971823361128,0.0005364517495410892
1504282506.18,-1.0,0.8514427729499999,0.18002067404999997,0.08856385615000001,-0.079677,0.287222,0.297306,-2.3306092123999997,-9.48866937375,0.8388902609499999,-1.916302,1.315448,2.716065,-5.499999999997174e-05,0.005276999999999997,-0.0010865000000000041,-0.0016222151085156788,0.0010565665489239429,0.0005347734576778285
1504282506.19,-1.0,0.9134600275499999,0.06286062649999999,0.0733341287,-0.078613,0.296787,0.313302,-2.3624023717,-9.48209891825,0.8241900925999999,-1.906471,1.312806,2.708955,-0.000270000000000048,0.005606,-0.0011969999999999967,-0.0017403367036352702,0.00030331618398315996,0.0004070953357204754
1504282506.2,-1.0,0.9505585845,-0.01568083335,0.0202801522,-0.080688,0.312774,0.327147,-2.3956076885999997,-9.475077356849999,0.8088622986499999,-1.89642,1.310017,2.701762,-0.00040999999999996595,0.005816999999999996,-0.001246000000000004,-0.0015703997234102207,-0.00015980928444170317,0.00034889774478263913
1504282506.21,-1.0,0.9793509088999999,-0.02399687255,-0.0362649917,-0.06362,0.320079,0.338886,-2.4113865884499996,-9.472311881549999,0.79432884335,-1.88901,1.308923,2.69725,-0.0005200000000000204,0.006024000000000002,-0.0012749999999999984,-0.0012418565881058274,-0.0005533017481524904,0.00025993425642456547
1504282506.22,-1.0,1.02158815045,-0.0022751428,-0.0755700449,-0.04334,0.328425,0.350648,-2.44688666145,-9.464250815249999,0.7817076848,-1.880019,1.305768,2.691331,-0.0006200000000000094,0.006232000000000001,-0.0012790000000000024,-0.0008383642515965573,-0.0008226003133797732,8.189594702889824e-05
1504282506.23,-1.0,1.07342610235,0.02903749065,-0.08419009025,-0.019823,0.339943,0.360275,-2.4834556593,-9.455611156599998,0.7708811431999999,-1.871771,1.302424,2.68627,-0.0006299999999999639,0.006647,-0.0011999999999999997,-0.0005654758812179139,-0.0008991693906357234,-0.00010110776722327408
1504282506.24,-1.0,1.12283200505,0.09405558015,-0.09750752095,0.004735,0.348256,0.369909,-2.520897449,-9.44640271225,0.76220225795,-1.86441,1.298906,2.682227,-0.0006599999999999939,0.006867999999999999,-0.0011629999999999974,-0.00024713581186630584,-0.0009131737476739676,-0.0003155391463852686
1504282506.25,-1.0,1.1372183606,0.16256483705,-0.10699055149999999,0.033582,0.357601,0.376331,-2.54336448415,-9.440999248099999,0.75447461775,-1.859171,1.296862,2.68039,-0.0006800000000000139,0.0070810000000000005,-0.0011150000000000049,2.2145865821610045e-05,-0.0007921267624952932,-0.0005386270378429092
1504282506.26,-1.0,1.16500060005,0.21619740589999997,-0.1128941548,0.059273,0.370173,0.379556,-2.5819242319499995,-9.4308787853,0.7500518185999999,-1.853515,1.293073,2.67833,-0.0006900000000000239,0.0072849,-0.0010649999999999965,0.0003028845191948015,-0.0006948783336218067,-0.0008104144269545088
1504282506.27,-1.0,1.1841431808499998,0.25337441605,-0.11782689974999999,0.088151,0.381653,0.383855,-2.62081740585,-9.420326829899999,0.74780609575,-1.848743,1.289174,2.677306,-0.0006999999999999784,0.007473,-0.001013,0.0005802667773462389,-0.0004548590400539343,-0.0009964811864844325
1504282506.28,-1.0,1.21430843625,0.18955273784999999,-0.09886083864999999,0.111705,0.393178,0.38601,-2.6601126523999996,-9.4093237686,0.7475413162,-1.844749,1.285165,2.677223,-0.0007650000000000157,0.00772855,-0.0009069999999999981,0.001155971100641251,-6.1133990487682865e-06,-0.0010722588005736
1504282506.29,-1.0,1.2399332126999998,0.0439141787,-0.07117666569999999,0.136328,0.407886,0.392416,-2.68483521705,-9.40225317395,0.7481395218499999,-1.842555,1.282617,2.679053,-0.0007650000000000157,0.007728549999999999,-0.000907000000000005,0.0011559749206102587,-4.876340173209925e-06,-0.0010722632323342252
1504282506.3,-1.0,1.2517011927,-0.14649173769999999,-0.04584608875,0.157744,0.421556,0.398833,-2.7253268749,-9.3903577075,0.7510913235,-1.839716,1.27838,2.68046,-0.0008999999999999564,0.007964000000000002,-0.0007419999999999996,0.0021393198464856322,0.0003120231938378293,-0.0009958412396650074
1504282506.31,-1.0,1.26893147675,-0.36395420144999996,-0.03176373935,0.180225,0.43628,0.407385,-2.766652098,-9.377903262,0.75555334925,-1.83739,1.274007,2.68256,-0.0010499999999999954,0.008124,-0.0005799999999999972,0.003093562048475107,0.00034719105301506126,-0.0008931536019403108
1504282506.32,-1.0,1.293301002,-0.5231455508999999,-0.04949416255,0.221858,0.444454,0.415982,-2.8088304996499995,-9.364762351,0.7629671766499999,-1.83603,1.269457,2.68577,-0.001495000000000024,0.008038000000000003,-0.0001964999999999953,0.004568460422018861,2.8597266228613805e-05,-0.0009709977496877853
1504282506.33,-1.0,1.33392995295,-0.62239865555,-0.14359877594999998,0.280518,0.446095,0.422475,-2.8416729705,-9.3539358094,0.7740192711999999,-1.836726,1.265761,2.69114,-0.001495000000000024,0.008037999999999997,-0.00019650000000000223,0.004568445306198932,3.302398229476644e-05,-0.0009708598653299649
1504282506.34,-1.0,1.40440053985,-0.7103544994,-0.27887170605,0.339123,0.439214,0.426858,-2.88506739675,-9.339157187849999,0.7918281475999999,-1.838658,1.26078,2.697809,-0.0019599999999999618,0.008010000000000003,0.00028500000000000053,0.005083211186553305,-0.0007024326930222813,-0.0011451546479975816
1504282506.35,-1.0,1.363908882,-0.9745260371,-0.36111027295,0.388076,0.422828,0.425905,-2.9283637564999996,-9.32368229415,0.8148149351999999,-1.842181,1.255651,2.705997,-0.0023050000000000015,0.008566999999999998,0.0007614999999999983,0.0027494498164333248,-0.0014974624396988379,-0.0010592136006369879
1504282506.36,-1.0,1.24818060535,-1.3470218307,-0.3201871225,0.408319,0.409889,0.411019,-2.9705127382,-9.308079914,0.84032203185,-1.846483,1.250556,2.714884,-0.0023050000000000015,0.008567000000000005,0.0007614999999999983,0.0027507865465048464,-0.0014945490627418234,-0.0010632376126501475
1504282506.37,-1.0,1.0705723672,-1.81206298035,-0.12802581575,0.419009,0.404487,0.398238,-3.0112299489999996,-9.292546180399999,0.8669372799499999,-1.851117,1.245561,2.724033,-0.0029200000000000337,0.009533999999999987,0.0010690000000000005,1.2950230817709851e-05,-0.001062412705902016,-0.0005536033662717488
1504282506.38,-1.0,0.9345933582999999,-2.22998317675,0.09825282634999999,0.391538,0.412215,0.356548,-3.0488286451,-9.2778950453,0.89204230395,-1.855438,1.240918,2.732886,-0.002919999999999978,0.00968200000000001,0.0013760000000000022,-0.0007476156847294746,0.00033107171452417816,1.084815976959419e-05
1504282506.39,-1.0,0.7545628776,-2.8094188986499997,0.3326807946,0.330751,0.403147,0.336178,-3.0842698781999998,-9.2642441885,0.9118517369499999,-1.858253,1.236648,2.740147,-0.002919999999999978,0.009733999999999993,0.0016259999999999955,-0.00026906706199114616,0.0020263060345722117,0.000726859993982365
1504282506.4,-1.0,0.6085418590999999,-3.4327393793,0.5218706864,0.280705,0.395069,0.303016,-3.1172202222,-9.251740709749999,0.92662055185,-1.859737,1.232782,2.745961,-0.0029300000000000437,0.009720000000000006,0.0018210000000000032,0.0009362515018354056,0.003451076295789335,0.0014341462868351362
1504282506.41,-1.0,0.6082868861999999,-3.7663419989999998,0.6246149584499999,0.197848,0.424549,0.277203,-3.1470422448499997,-9.240914168149999,0.93385785955,-1.859263,1.229468,2.749923,-0.0029599999999999627,0.009660000000000002,0.0019519999999999954,0.002242942905811507,0.0043166594737296116,0.0020484865352369264
1504282506.42,-1.0,0.47680912964999994,-4.1771229542,0.8089799784499999,0.11572,0.417783,0.261062,-3.1756776628499996,-9.2311565514,0.933396947,-1.856667,1.226508,2.75161,-0.0037000000000000366,0.008729999999999988,0.001736500000000002,0.0028428141348064706,0.004441194569232643,0.002484086013132325
1504282506.43,-1.0,0.59178229425,-4.02862085325,0.8605923773999999,0.043369,0.43225,0.243832,-3.2025184639,-9.222693412449999,0.9253358807,-1.852076,1.22396,2.751276,-0.003699999999999981,0.008730000000000016,0.001736500000000002,0.002854810747090708,0.004434091261470208,0.0024975607855726167
1504282506.44,-1.0,0.8186591419999999,-3.45414729625,0.80790124695,-0.004542,0.442239,0.239462,-3.2287218326999994,-9.214916739,0.9115869574,-1.845972,1.221636,2.749484,-0.003919999999999979,0.008569999999999994,0.0017020000000000021,0.0014270752637086659,0.004179974552147581,0.00265366666932354
1504282506.45,-1.0,1.06010867165,-2.87345632315,0.5793572686999999,-0.028076,0.433909,0.238369,-3.2546898419,-9.207385231799998,0.8951706253,-1.839199,1.219398,2.74693,-0.004090000000000038,0.00842000000000001,0.0016439999999999962,-7.654475417817608e-05,0.0031941693672890015,0.0021030316671106775
1504282506.46,-1.0,1.2357359665,-2.3286184624499997,0.27673385635,-0.02821,0.415798,0.236266,-3.28023616515,-9.1999125645,0.8786170000999999,-1.832506,1.217191,2.744284,-0.003889999999999949,0.008629999999999999,0.0017000000000000001,-0.0018876676312562513,0.0011063098476857824,0.001204390115534193
1504282506.47,-1.0,1.35401397215,-1.83230390595,0.11101127799999999,-0.009068,0.403925,0.229915,-3.30514505615,-9.19239086395,0.86387760515,-1.826451,1.214983,2.742173,-0.0038900000000000046,0.008629999999999999,0.0017000000000000001,-0.0018865093074760253,0.0011085713550043064,0.0012024068311713432
1504282506.48,-1.0,1.39898726905,-1.35487695735,0.06690096629999999,0.00587,0.397419,0.218183,-3.3016342754499997,-9.1948719464,0.850824954,-1.823007,1.215709,2.742501,-0.0038100000000000356,0.008369999999999989,0.0016229999999999994,-0.0023097761475310286,-0.0006821359600561738,0.0006471179062639276
1504282506.49,-1.0,1.4598669522499998,-0.95341231965,0.04311984005,0.015452,0.383507,0.200078,-3.3237580778499995,-9.18797787145,0.8391452338500001,-1.818097,1.213691,2.741403,-0.0037800000000000056,0.00802,0.0015150000000000025,-0.0015945050785881598,-0.0013748579565329155,0.00046610577135552944
1504282506.5,-1.0,1.5156177574999998,-0.66794073815,0.0396777059,0.0165,0.368601,0.179825,-3.3438911303,-9.18166238885,0.82822062575,-1.813593,1.211853,2.740577,-0.003679999999999961,0.00766,0.001405,-0.0005128787535295665,-0.0017048717454259954,0.00037602298065353423
1504282506.51,-1.0,1.5225314457499999,-0.4288251912,0.08026743025,0.015514,0.360115,0.149951,-3.3612783207499994,-9.1762589247,0.8175607972,-1.809392,1.21029,2.739956,-0.003540000000000043,0.007369999999999988,0.0013199999999999983,0.0004714509111654053,-0.0017375185692032336,0.0005689604146484895
1504282506.52,-1.0,1.46586862205,-0.21493234804999997,0.154160538,0.006035,0.353834,0.11468,-3.3363400098,-9.18589886165,0.81145125425,-1.80938,1.213086,2.743198,-0.0017099999999999893,0.0035650000000000126,0.0006344999999999996,0.0005493198337664928,-0.0008220642798579814,0.0006074232023579595
1504282506.53,-1.0,1.43436966225,-0.07769808795,0.22108111760000002,-0.009836,0.346545,0.076239,-3.34703906495,-9.18307454645,0.7992910082499999,-1.805213,1.212264,2.742468,-0.0017099999999999893,0.0035650000000000126,0.0006344999999999996,0.0005487787741607075,-0.0008223913805116556,0.00060692583966937
1504282506.54,-1.0,1.4173649311499998,-0.048062391649999994,0.26834917059999996,-0.022519,0.334973,0.033541,-3.35382526675,-9.181731035399999,0.78615009725,-1.801042,1.211874,2.741623,-0.006929999999999992,0.012359999999999982,0.001911000000000003,0.002593364663960207,-0.0030668717706978654,0.005403796001144379
1504282506.55,-1.0,1.38561099845,-0.07952212485,0.26092553654999995,-0.024535,0.315865,-0.020866,-3.3557375635,-9.1821429147,0.7730680261499999,-1.797219,1.211994,2.740967,-0.0033500000000000196,0.006019999999999998,0.0009859999999999973,0.0007256307093364001,-0.0010415941601018552,0.004267037652623151
1504282506.56,-1.0,1.2698434952,-0.02680157445,0.23647755809999998,-0.022207,0.302054,-0.081717,-3.31793292775,-9.196254684049999,0.7684883205999999,-1.798401,1.216115,2.744902,-0.0033099999999999796,0.005909999999999999,0.0010089999999999995,0.0006180169584983908,-0.001044477087054796,0.005261589530653699
1504282506.57,-1.0,1.20361918775,0.05842802069999999,0.2306720213,-0.002842,0.279588,-0.149957,-3.3079693713499996,-9.200687289849999,0.7582894045999999,-1.796133,1.217419,2.745525,-0.003310000000000035,0.005780000000000007,0.0010300000000000014,0.0008069972352355848,-0.0013756945430036804,0.006126658623275216
1504282506.58,-1.0,1.1467111978,0.20841092579999998,0.17016499079999997,0.030385,0.252751,-0.223503,-3.2910136734999997,-9.207316585249998,0.7516012692999999,-1.795326,1.219377,2.747439,-0.003349999999999964,0.005659999999999998,0.001046,0.0010202452344700852,-0.002144957566238004,0.006747805866377576
1504282506.59,-1.0,1.07088618,0.36312063619999996,0.06003631129999999,0.071065,0.22053,-0.302364,-3.2666735682,-9.2161327636,0.7497968456999999,-1.796418,1.221997,2.751026,-0.0033600000000000296,0.005619999999999986,0.0010939999999999995,0.0011381218342241262,-0.0031669060368153534,0.007121369004092659
1504282506.6,-1.0,0.9795862685,0.4823793068499999,-0.06363535185,0.11702,0.180806,-0.38229,-3.21517884905,-9.233931833349999,0.7533174330499999,-1.800944,1.227349,2.75771,-0.0032849999999999824,0.005954999999999988,0.0012795000000000011,0.0012520705940661792,-0.004453576164119344,0.007137999674717843
1504282506.61,-1.0,0.9128520152499999,0.50922991455,-0.13169350285,0.158738,0.146443,-0.45901,-3.1756678562,-9.246876611349998,0.7621139981,-1.806327,1.231289,2.765063,-0.0032849999999999824,0.005955000000000044,0.0012794999999999994,0.0012198421680849059,-0.004462355824029318,0.007130407063063227
1504282506.62,-1.0,0.8494912496,0.37219178745,-0.09210405679999999,0.190849,0.117477,-0.526149,-3.1293706615499994,-9.2615571664,0.7751960691999998,-1.813625,1.235814,2.774106,-0.003395000000000037,0.005404999999999993,0.0010457499999999998,0.0018375324102652968,-0.005732586866160627,0.006696040737316666
1504282506.63,-1.0,0.7691355594999999,0.1303892184,0.019377940399999998,0.186745,0.107971,-0.574173,-3.0778955557,-9.2775812325,0.78956281145,-1.821908,1.240821,2.784012,-0.0033949999999999814,0.005404999999999993,0.0010457499999999998,0.0017985201895114322,-0.005744720092137223,0.006683510054185882
1504282506.64,-1.0,0.6238696530500001,-0.15144409595,0.0499158485,0.150807,0.123229,-0.618044,-3.00475756,-9.3004111137,0.8025762359999999,-1.831804,1.248083,2.795518,-0.003280000000000005,0.004964999999999997,0.0007055000000000013,0.0017226219882029437,-0.00566459563661037,0.006154294909356373
1504282506.65,-1.0,0.6389228607999999,-0.276155264,-0.08358207794999999,0.111405,0.117186,-0.642652,-2.94618243955,-9.318455349699999,0.8103725227499999,-1.839218,1.253936,2.804574,-0.003280000000000005,0.004964999999999997,0.0007054999999999995,0.0016873247047126672,-0.005675093546259502,0.006143164734498385
1504282506.66,-1.0,0.6210649511499999,-0.37223101405,-0.18461999289999997,0.07741,0.114305,-0.676863,-2.8846260975,-9.337303730999999,0.8148933884,-1.846119,1.260162,2.813037,-0.0029899999999999927,0.00497000000000003,0.000503,0.0013825735585726306,-0.004931493747063254,0.005788614827305305
1504282506.67,-1.0,0.57632701385,-0.14918856645,-0.1036955171,0.064714,0.114432,-0.698233,-2.8207357727499995,-9.356544378299999,0.8179138366,-1.85302,1.266645,2.821468,-0.00274000000000002,0.005019999999999969,0.00037189999999999966,0.0009810045574152326,-0.004113193967494322,0.005474903627363581
1504282506.68,-1.0,0.4918231108,0.033970235599999996,0.02601704245,0.061549,0.101699,-0.725973,-2.74985330655,-9.37734428295,0.8210813845499999,-1.86096,1.27381,2.830829,-0.0025000000000000022,0.005089999999999983,0.0002482999999999999,0.00039415769600248396,-0.003228948241490448,0.0050914082648289005
1504282506.69,-1.0,0.47639725034999997,0.2539726217,0.0148276548,0.058351,0.090024,-0.745171,-2.6810106235499997,-9.3969870029,0.8241900925999999,-1.869045,1.280732,2.840245,-0.0022599999999999842,0.005190000000000028,0.00012950000000000027,-0.0003522825227908477,-0.0024379543438997064,0.004642003634441227
1504282506.7,-1.0,0.5133389008999999,0.42950185005,-0.07986535759999999,0.04551,0.077356,-0.75798,-2.6105106166999996,-9.416590496249999,0.82671040165,-1.87749,1.287807,2.849883,-0.0020299999999999763,0.005299999999999971,1.620000000000007e-05,-0.0011889601950332285,-0.0017488071355156176,0.004175624827849389
1504282506.71,-1.0,0.5399737622999999,0.6470329603499999,-0.14484422049999998,0.034781,0.067857,-0.761184,-2.5394320175,-9.4358409502,0.8285442451999999,-1.886177,1.294926,2.859649,-0.0018400000000000083,0.005400000000000016,-8.899999999999967e-05,-0.0018856484307026022,-0.0011159975309771308,0.0036928135360106973
1504282506.72,-1.0,0.53508024395,0.8336829298,-0.1318406026,0.037885,0.051854,-0.767555,-2.4675002397499997,-9.454757978049999,0.8303486687999999,-1.895408,1.302095,2.869822,-0.0016800000000000148,0.005489999999999995,-0.00018760000000000044,-0.0022951493106977416,-0.0006289531873104881,0.0032828250712906293
1504282506.73,-1.0,0.5033459245499999,0.9117830903999999,-0.08569050769999999,0.054856,0.039992,-0.766437,-2.3952154225999998,-9.47299834705,0.83402616255,-1.905873,1.309195,2.881119,-0.0016299999999999648,0.005670000000000008,-0.0005231999999999997,-0.0021584007281754136,-0.0006366963760291444,0.0030840786617202243
1504282506.74,-1.0,0.4955692511,0.8555321459999999,-0.0415409694,0.078099,0.009966,-0.768478,-2.32249911285,-9.4905228306,0.8404495182999999,-1.91801,1.316196,2.893864,-0.0015400000000000413,0.005730000000000013,-0.0006044000000000006,-0.0021887657868833177,-0.0003624033286320216,0.0028116003532013822
1504282506.75,-1.0,0.4533222029,0.85265879755,-0.041766522349999995,0.091703,-0.025308,-0.771595,-2.2491159509,-9.50740007525,0.84920685675,-1.931821,1.323122,2.907971,-0.0014899999999999913,0.005799999999999972,-0.0006725000000000004,-0.0021166487101103026,-7.972110623066797e-05,0.0025508672061892446
1504282506.76,-1.0,0.35406909824999994,0.8246313918499999,0.05758464879999999,0.088231,-0.06257,-0.776872,-2.1747030907,-9.52381640735,0.85909195995,-1.94702,1.330043,2.923087,-0.0014799999999999813,0.005830000000000002,-0.0007303999999999991,-0.0018715333546632795,9.992993256613403e-05,0.002219421476343686
1504282506.77,-1.0,0.21175499345,0.73784253935,0.19590744705000002,0.083708,-0.0945,-0.776824,-2.0997312514499997,-9.5396737604,0.8695164288999999,-1.963406,1.336925,2.939035,-0.0015000000000000013,0.005879999999999996,-0.0007822999999999997,-0.0015900286214356463,0.00023144674569341994,0.001782628046216872
1504282506.78,-1.0,0.09413403335,0.6724714104499999,0.30597728664999996,0.071891,-0.109314,-0.78429,-2.0240141067999997,-9.5551094275,0.8795976650999999,-1.980756,1.343813,2.955742,-0.0014250000000000096,0.0062550000000000106,-0.0005795000000000002,-0.0009878702740906409,0.00034611013350205333,0.0008913330826119115
1504282506.79,-1.0,0.018387468749999997,0.5887520394,0.35546164255,0.046224,-0.117626,-0.785388,-1.94796353605,-9.5701528286,0.88772737795,-1.998399,1.350733,2.972629,-0.0014250000000000096,0.0062550000000000106,-0.0005795000000000002,-0.000987562379221929,0.0003469883690545572,0.0008909916249508765
1504282506.8,-1.0,-0.03313667035,0.47321989574999995,0.35177434215,0.010886,-0.131192,-0.781155,-1.8717560589,-9.58495106345,0.8920128839999999,-2.01552,1.357757,2.988864,-0.0014199999999999768,0.006510000000000016,-0.0005090000000000008,-0.00044952121324870475,0.0003014779191530259,-0.00015448779713145289
1504282506.81,-1.0,-0.0936927341,0.36689619645,0.30512410809999996,-0.007433,-0.149164,-0.773683,-1.7959310410999998,-9.5992393525,0.8942193802499999,-2.032773,1.364762,3.00502,-0.0014200000000000323,0.006599999999999995,-0.0005469999999999989,-0.00023264994037797138,3.267268710449578e-05,-0.0007405626319537673
1504282506.82,-1.0,-0.17786321105,0.30257437909999996,0.2755276384,-0.012837,-0.154453,-0.768346,-1.7205865491499999,-9.61288040265,0.8958374775,-2.050833,1.371675,3.02189,-0.0013999999999999568,0.006720000000000004,-0.0005809999999999999,-4.653893187778202e-05,-0.00015811416868971584,-0.0011171196068266998
1504282506.83,-1.0,-0.2917870641,0.2901591602,0.21353980374999998,-0.018239,-0.154423,-0.754478,-1.64766429975,-9.625442721299999,0.8979655205499999,-2.069788,1.378262,3.039616,-0.0015700000000000158,0.00655,-0.00132,0.00018343310390789291,-0.00023579331407086457,-0.0013463506444683082
1504282506.84,-1.0,-0.37100518279999994,0.29729840139999997,0.11276666835,-0.032299,-0.168177,-0.738468,-1.57458514395,-9.6376814205,0.89788706735,-2.089045,1.384893,3.057535,-0.0015100000000000113,0.006679999999999964,-0.001372,0.0003223107829413152,-2.0187692660877943e-05,-0.0014713149726168773
1504282506.85,-1.0,-0.4149193615,0.3458217056,0.06847983695,-0.039852,-0.168132,-0.721402,-1.5028396925499998,-9.649243460849998,0.8966808494,-2.108754,1.391383,3.075872,-0.0014399999999999968,0.006880000000000053,-0.0014665000000000008,0.0006086768433704037,0.00040103327584328774,-0.0013780498479155634
1504282506.86,-1.0,-0.5430824703499999,0.33967293605,0.0974584877,-0.039871,-0.158562,-0.702206,-1.43303595785,-9.660001355899999,0.89508236545,-2.129114,1.397641,3.094919,-0.0014399999999999968,0.006879999999999997,-0.001466499999999999,0.0006081278097602727,0.0004018712263311741,-0.0013778151600420951
1504282506.87,-1.0,-0.6706964067999999,0.3439976687,0.04317867994999999,-0.043106,-0.148968,-0.679807,-1.3711069631,-9.66911173375,0.89370943445,-2.148445,1.403119,3.113029,-0.0014100000000000223,0.007059999999999955,-0.001570000000000002,0.0011541493751470178,0.0007071826661726455,-0.0009809429642249068
1504282506.88,-1.0,-0.6826016799,0.3876568745,-0.017857909649999996,-0.052851,-0.148917,-0.651004,-1.3060888735999998,-9.678359404699998,0.8909929924,-2.169467,1.408867,3.132834,-0.0013199999999999878,0.007340000000000013,-0.0011979999999999977,0.0019285518424345671,0.0005822718380184,-0.00046797387482300223
1504282506.89,-1.0,-0.6617135153999999,0.4035828741,-0.011581653649999999,-0.060447,-0.148881,-0.6254,-1.2434734133499998,-9.686950030099998,0.8872566587499999,-2.190547,1.414391,-3.130522,-0.0012999999999999678,0.007539999999999991,-0.0010180000000000015,0.002695437954884694,0.00012621725068862055,0.00020639679856893078
1504282506.9,-1.0,-0.7001065501499999,0.47459282675,0.03666706435,-0.079704,-0.138095,-0.5977,-1.18353516855,-9.69496206315,0.8816570615999999,-2.211046,1.41973,-3.111203,-0.0013500000000000179,0.00767000000000001,-0.0010879999999999987,0.003344679390287819,-0.0003645705399020205,0.0008826718189512972
1504282506.91,-1.0,-0.70224439985,0.6414333631999999,0.0907703524,-0.105372,-0.121979,-0.568963,-1.1347078582,-9.7013854189,0.875145446,-2.227761,1.424148,-3.095522,-0.0013900000000000023,0.007819999999999994,-0.0011610000000000023,0.003726167905111044,-0.0005600945577066696,0.0013347895687411127
1504282506.92,-1.0,-0.69361454785,0.86991850155,0.1094618273,-0.137504,-0.117485,-0.537004,-1.0806339901,-9.7085638867,0.8639364450499999,-2.245215,1.429243,-3.079085,-0.0014299999999999868,0.008000000000000007,-0.0012309999999999995,0.003823650437039472,-0.0005973668762617734,0.001466934726581659
1504282506.93,-1.0,-0.6986845859,1.0456046362999998,0.10108694819999998,-0.166469,-0.111961,-0.496503,-1.0303749088499998,-9.715310861899999,0.8494127963999999,-2.26022,1.434204,-3.065065,-0.0007500000000000284,0.007740000000000025,-0.001735999999999998,0.003635709896109507,-0.0008508748625692952,0.0014478331815810375
1504282506.94,-1.0,-0.7018031006,1.16749148915,0.0966739557,-0.178374,-0.10977,-0.459168,-0.9838619678999999,-9.721518471349999,0.8333200837499999,-2.27354,1.438938,-3.052728,-0.0007300000000000084,0.007959999999999967,-0.0018130000000000021,0.0035464861108382983,-0.0015742547901955728,0.001330272113508224
1504282506.95,-1.0,-0.73027180555,1.1744345973499999,0.0693526288,-0.175379,-0.110901,-0.419667,-0.9411834271,-9.7271180685,0.81709988465,-2.285743,1.443355,-3.041524,-0.0006799999999999584,0.008209999999999995,-0.0018759999999999992,0.0031522018170244692,-0.002211048575098351,0.0011896087928616739
1504282506.96,-1.0,-0.8115297074499999,1.0278447931499999,0.022290515449999996,-0.168132,-0.115262,-0.382288,-0.9021137335,-9.73210965335,0.8016151842999999,-2.297276,1.447423,-3.03103,-0.0006099999999999994,0.008480000000000043,-0.0019299999999999977,0.002565236509222135,-0.002649094459787449,0.0008795057188805133
1504282506.97,-1.0,-0.9055656742999999,0.7636536421499999,0.0074922806,-0.162894,-0.101496,-0.340675,-0.8670451531,-9.73652264585,0.7866404297499999,-2.307611,1.451132,-3.021689,-0.0005000000000000004,0.00874999999999998,-0.0019850000000000007,0.001918115371721374,-0.0028888667769026988,0.0004849328056826252
1504282506.98,-1.0,-0.9633072294999999,0.47025828745,0.012552512,-0.148275,-0.111256,-0.292599,-0.83653666495,-9.740308012749999,0.7725973069500001,-2.316479,1.454416,-3.013848,-0.001040000000000041,0.009470000000000034,-0.0016649999999999998,0.0013059016288341496,-0.002969418472663854,0.000183903516496553
1504282506.99,-1.0,-0.90863515575,0.20006546664999997,0.014092156049999999,-0.136878,-0.112484,-0.225296,-0.8469121006499999,-9.740357046,0.7605841607,-2.302542,1.454459,-3.028722,-0.0010399999999999854,0.009789999999999965,-0.0016560000000000047,0.0008551635508864397,-0.0030364813087946363,0.0001259195881303521
1504282507.0,-1.0,-0.8794407586999999,-0.023643833149999998,0.035558912899999996,-0.142455,-0.102914,-0.161279,-0.82882863805,-9.742906775,0.7477962891,-2.304846,1.456717,-3.027473,-0.0009799999999999809,0.010020000000000029,-0.001680999999999995,0.0005665181186123025,-0.003194521383711013,0.00040621677857888283
1504282507.01,-1.0,-0.7796875148999999,-0.0664106338,0.07024503395,-0.153535,-0.105036,-0.082307,-0.8179922897999999,-9.744877911649999,0.7339002660499999,-2.302061,1.458497,-3.031328,-0.0009399999999999964,0.010220000000000007,-0.0016719999999999999,0.0005923120872333154,-0.0034475456824427653,0.0009521732654963477
1504282507.02,-1.0,-0.7278397563499999,-0.1234853368,0.14536397294999998,-0.143302,-0.113721,-0.008623,-0.8146188021999999,-9.7461625828,0.7204357356,-2.294915,1.459675,-3.039647,-0.0009200000000000319,0.010399999999999965,-0.0016250000000000014,0.000990933701680241,-0.003779837245589057,0.0015912199800203197
1504282507.03,-1.0,-0.6575260758499999,-0.00440318585,0.16195682474999998,-0.121186,-0.109709,0.057611,-0.8427442743999999,-9.74419144615,0.7147674919,-2.274215,1.457874,-3.061446,0.00018000000000001348,0.01088,-0.0015200000000000005,0.0015933448174101361,-0.004051405465914204,0.0022562241807065897
1504282507.04,-1.0,-0.6601640647,0.16367298849999998,0.14599159855,-0.097977,-0.106764,0.115286,-0.85177619905,-9.74407376635,0.70559827415,-2.262609,1.457768,-3.074191,0.00019999999999997797,0.011029999999999984,-0.0013789999999999983,0.0025765995911428696,-0.004440227441473876,0.0027576416214887267
1504282507.05,-1.0,-0.6712848057999999,0.2859423007,0.09325143485,-0.080144,-0.112293,0.167629,-0.86609390805,-9.743338267599999,0.6983315465,-2.249363,1.457102,-3.088636,-0.00041999999999997595,0.010990000000000055,-0.0011950000000000016,0.003708350238533331,-0.004524457547632421,0.003300815930336598
1504282507.06,-1.0,-0.6738247281499999,0.34167349264999997,0.059467525599999994,-0.060044,-0.107175,0.210351,-0.88480499625,-9.742053596449999,0.6927613692999999,-2.235054,1.455955,-3.10414,-0.0007300000000000084,0.011050000000000004,-0.0009460000000000024,0.005146080137357956,-0.00454386289266262,0.0038998213837394546
1504282507.07,-1.0,-0.65799679505,0.23815449525,0.08123828859999999,-0.035634,-0.098892,0.250966,-0.9338480529,-9.737444470949999,0.6931340220000001,-2.209309,1.451926,-3.130927,-0.0005299999999999749,0.011349999999999971,-0.0005000000000000004,0.007154141095271349,-0.004109327249049555,0.0049708796639763575
1504282507.08,-1.0,-0.6942617867499999,-0.0363826715,0.1242502555,-0.01867,-0.088415,0.289403,-0.9604240743999999,-9.73495358185,0.6918787708,-2.195071,1.449799,3.136994,-0.0005300000000000304,0.011349999999999971,-0.0005000000000000004,0.0071345440645900204,-0.004144726897965745,0.004941983596238542
1504282507.09,-1.0,-0.7439815022499999,-0.45442054769999995,0.12882996105,-0.019882,-0.085244,0.323552,-0.99046184335,-9.73201158685,0.6908882991499999,-2.179869,1.44734,3.120807,-0.00028000000000000247,0.011719999999999953,-7.999999999999674e-05,0.008538319371819814,-0.0031209553596900363,0.006136585243709525
1504282507.1,-1.0,-0.8669274732999999,-0.99420798365,0.17635298694999998,-0.013445,-0.066141,0.347013,-1.02329450755,-9.728677325849999,0.6900449272499999,-2.164093,1.444607,3.104177,-8.999999999997899e-05,0.012010000000000076,0.00013099999999999917,0.008865068823101119,-0.002414164096181226,0.006842685938692972
1504282507.11,-1.0,-1.000866699,-1.5931981656499998,0.31594084305000003,-0.002701,-0.042809,0.369406,-1.0582944414,-9.724940992199999,0.68992724745,-2.148522,1.441615,3.087987,6.0000000000004494e-05,0.012309999999999932,0.00028399999999999953,0.008364445563649348,-0.0020651536047577856,0.0072002764134577735
1504282507.12,-1.0,-1.1747876367499999,-2.0881103712,0.3568639935,0.001617,-0.027941,0.383263,-1.0950693789,-9.7208418125,0.6902999001499999,-2.133251,1.438409,3.072281,0.00018999999999996797,0.012620000000000076,0.00038900000000000046,0.007057169096537308,-0.0021961299050929917,0.006824746563756312
1504282507.13,-1.0,-1.2285967253,-2.3682863616999996,0.36298334309999997,-0.000438,-0.008758,0.398169,-1.13328589395,-9.716448433299998,0.6904666131999999,-2.117998,1.435058,3.056748,0.00026999999999999247,0.012919999999999932,0.0004580000000000001,0.005216653382704717,-0.0027775816122004304,0.005581835066202245
1504282507.14,-1.0,-1.2488964907999998,-2.39691197305,0.3671413627,-0.001422,0.008288,0.408812,-1.1728361133999998,-9.7117608546,0.6903489333999999,-2.102801,1.431571,3.041431,0.000160000000000049,0.014530000000000043,0.0009059999999999971,0.0033110969431473514,-0.00405801372826442,0.003918189737935895
1504282507.15,-1.0,-1.1614603994,-2.1140783803999996,0.30662452555,0.001851,0.019978,0.413066,-1.2129943451499998,-9.7068379163,0.6901135738,-2.088059,1.428004,3.026716,0.00014499999999995072,0.01473000000000002,0.0009354999999999988,-4.3747038623864754e-05,-0.005346629095504429,0.0009061692467032811
1504282507.16,-1.0,-0.95792337865,-1.7663247647499998,0.21995335285,0.017904,0.029431,0.418415,-1.25371155595,-9.7016011652,0.6910353989,-2.074555,1.424295,3.013351,0.00014500000000000624,0.01473000000000002,0.0009355000000000058,-4.8614695633331095e-05,-0.005346614939946814,0.0009066893449076741
