Time,placement_label,user_acc_x(m/s^2),user_acc_y(m/s^2),user_acc_z(m/s^2),rotation_rate_x(rad/s),rotation_rate_y(rad/s),rotation_rate_z(rad/s),gravity_x(m/s^2),gravity_y(m/s^2),gravity_z(m/s^2),attitude_roll(rad),attitude_pitch(rad),attitude_yaw(rad),target_delta_x,target_delta_y,target_delta_z,target_delta_roll,target_delta_pitch,target_delta_yaw
1504199076.36,-1.0,-0.03709855695,-0.0687446165,0.0768056828,-0.0302,-0.027861,-0.015126,-0.50638598605,-9.602632453399998,1.92444718935,-2.884291,1.366459,-3.058456,0.0,0.0,0.0,0.0,0.0,0.0
1504199076.37,-1.0,-0.0051386846,-0.14708013669999997,0.08201301395,-0.046292,-0.030938,-0.00234,-0.5052680279499999,-9.60330911225,1.92132867465,-2.884436,1.366801,-3.058619,-0.00012999999999999123,-0.0002500000000000002,-0.00013099999999999917,-0.00023431422427977466,-4.973175825662146e-05,-0.0001726366361647358
1504199076.38,-1.0,0.020329185450000002,-0.20492956504999998,0.0891424485,-0.062365,-0.029757,0.01364,-0.5051503481499999,-9.6042603573,1.9165920627,-2.883885,1.367281,-3.059512,-0.00014000000000000123,-0.00023999999999999022,-0.00013099999999999917,-0.0001923290923380172,-4.023827204635566e-05,-0.0001852672908957409
1504199076.39,-1.0,0.0614092423,-0.20867570535,0.13106587725,-0.07741,-0.032848,0.030697,-0.5058270069999999,-9.60530966885,1.91118859855,-2.882858,1.367808,-3.060912,-0.000130000000000019,-0.00024000000000001798,-0.00013200000000000017,-0.00020563170462528646,-1.6000840783680914e-05,-0.00017425478303223496
1504199076.4,-1.0,0.11013848614999999,-0.14659961085,0.16327091585,-0.094588,-0.035921,0.047748,-0.5074254909499999,-9.6064766602,1.9048731159499999,-2.881255,1.368401,-3.062946,-0.00012999999999999123,-0.00023999999999999022,-0.00013200000000000017,-0.0001781563014202625,1.860039680701142e-05,-0.0001474056191773654
1504199076.41,-1.0,0.11926847729999998,-0.051141679749999995,0.15234630775,-0.10645,-0.043298,0.061615,-0.5101223197,-9.6078103646,1.897390642,-2.878951,1.36908,-3.065783,-0.00012999999999999123,-0.00023000000000000798,-0.00013399999999999523,-0.00016425841099976246,4.366331357075204e-05,-0.00011196572032701191
1504199076.42,-1.0,0.13306643385,0.0438553388,0.121798593,-0.102257,-0.049732,0.066968,-0.5132996743,-9.609144069,1.88977087495,-2.876374,1.369759,-3.068968,-0.000130000000000019,-0.00022999999999998022,-0.00013500000000000317,-0.0001524722451555771,3.9137218774243365e-05,-8.17680071744098e-05
1504199076.43,-1.0,0.1183466522,0.15713195295,0.07348122844999999,-0.079928,-0.059507,0.067021,-0.5168300683,-9.61019338055,1.8834848123,-2.873785,1.370294,-3.072237,-0.00014999999999998348,-0.00023000000000000798,-0.00013400000000000217,-0.0001407565191111626,1.6395897785903557e-05,-5.4277419317405595e-05
1504199076.44,-1.0,0.08468042275,0.2677803849,0.009502643849999999,-0.054386,-0.070369,0.062813,-0.5205762086,-9.610850426099999,1.8790718198,-2.87133,1.370633,-3.075468,-0.00016000000000002124,-0.00021999999999999797,-0.00013399999999999523,-0.00016836579521961603,-6.87773844987305e-07,-2.5566884388816824e-05
1504199076.45,-1.0,0.03272479105,0.32584555955,-0.09010350019999999,-0.027766,-0.082301,0.054341,-0.5242831223,-9.611301531999999,1.8757277521499998,-2.869038,1.370865,-3.078621,-0.00015499999999998848,-0.00014999999999998348,-0.0001295000000000046,-0.00022608058921980145,-5.4896740497190066e-05,-3.3543423862747446e-05
1504199076.46,-1.0,-0.0221238024,0.33420082534999995,-0.14754104924999997,-0.012807,-0.086674,0.042634,-0.527793903,-9.611585924849999,1.8733055096,-2.866967,1.371009,-3.081585,-0.00015499999999998848,-0.00015000000000001124,-0.00012949999999999767,-0.0002260797874755749,-5.4904295678337434e-05,-3.353112306891948e-05
1504199076.47,-1.0,-0.054132707999999995,0.29007090035,-0.11574788994999999,-0.012746,-0.08347,0.035158,-0.5309516443,-9.61174283125,1.8715991524999998,-2.865166,1.37109,-3.084261,-0.00016000000000002124,-0.00016000000000002124,-0.0001280000000000031,-0.00026876114341356505,-5.9878183451766986e-05,-2.709606260176134e-05
1504199076.48,-1.0,-0.05311281639999999,0.1972117315,-0.01870128155,-0.032952,-0.077971,0.030846,-0.53360924645,-9.611958577549998,1.8697162756999999,-2.863585,1.371203,-3.086666,-0.00015999999999999348,-0.00014999999999998348,-0.00012799999999999617,-0.00024112522939678804,-4.305205158661174e-05,-8.619745594518058e-06
1504199076.49,-1.0,-0.0512103263,0.06997044775,0.11953325684999999,-0.064926,-0.073446,0.031851,-0.5362668486,-9.6123606502,1.8669017671500001,-2.861874,1.371408,-3.089172,-0.00015999999999999348,-0.00017000000000000348,-0.0001290000000000041,-0.00023069779891060627,-3.862306320900899e-05,5.633731421872401e-05
1504199076.5,-1.0,-0.0421882083,-0.05251461075,0.2165504453,-0.096867,-0.063595,0.034981,-0.53900290395,-9.61317460215,1.8619101823,-2.859806,1.371828,-3.091959,-0.00015000000000001124,-0.00018000000000001348,-0.00013099999999999917,-0.00021833344534916144,-2.430274333575788e-05,0.00012511912183377216
1504199076.51,-1.0,-0.004648352099999999,-0.1209944477,0.26586808814999996,-0.124564,-0.054849,0.041322,-0.5416801193999999,-9.61442985335,1.85464345465,-2.857429,1.372476,-3.094978,-0.00014999999999998348,-0.00018999999999999573,-0.00013200000000000017,-0.0002055011194477263,4.720427986493192e-06,0.0001863954151414271
1504199076.52,-1.0,0.017730423199999998,-0.11710120765,0.28338276505,-0.13726,-0.038766,0.046609,-0.54474960085,-9.6159302708,1.8459645693999998,-2.854633,1.373253,-3.098296,-0.00014000000000000123,-0.00018999999999999573,-0.00013399999999999523,-0.00022121331067248562,3.097911714955437e-05,0.00020715103872515073
1504199076.53,-1.0,0.041972461999999995,-0.06339999225,0.24649014775,-0.138278,-0.031302,0.049795,-0.5480446352499999,-9.6175581747,1.8364717321999997,-2.851581,1.374102,-3.101786,-0.00015000000000001124,-0.00019999999999999185,-0.00013500000000000317,-0.0001927229429719013,3.250771467944169e-05,0.0002017842918625723
1504199076.54,-1.0,0.07842378005,0.025752262899999996,0.167693715,-0.125496,-0.030349,0.056218,-0.5514279295,-9.61917627195,1.8269788949999999,-2.84846,1.374946,-3.105325,-0.00014999999999998348,-0.0001900000000000096,-0.00013400000000000217,-0.0002201863081385813,7.648324378939364e-06,0.00017708242357872273
1504199076.55,-1.0,0.09267284249999999,0.08627890669999999,0.080218397,-0.099849,-0.024169,0.058385,-0.55505639,-9.620588429549999,1.81837846295,-2.845329,1.375691,-3.108811,-0.00015000000000001124,-0.00019999999999999185,-0.00013200000000000017,-0.000202948388945412,-2.8597644833983082e-05,0.00011726597121763938
1504199076.56,-1.0,0.09682105545,0.10892246155,0.01632807225,-0.072139,-0.028659,0.057371,-0.5585965906499999,-9.62168677435,1.8114941946499998,-2.84248,1.376267,-3.112029,-0.00014000000000000123,-0.00012000000000000899,-0.00013499999999999623,-0.00023050041746652816,-6.455762810575472e-05,4.460477166168264e-05
1504199076.57,-1.0,0.06804834435,0.0530147499,-0.013886216399999998,-0.05183,-0.026691,0.053132,-0.56230350435,-9.622481113,1.8061005371499999,-2.83977,1.37669,-3.115088,-0.00014000000000000123,-0.00010999999999999899,-0.00013599999999999723,-0.00022612337387517556,-9.249338424877074e-05,-1.9540355801650477e-05
1504199076.58,-1.0,0.0164947853,-0.00293218835,0.0215942433,-0.041104,-0.023576,0.046741,-0.56626539095,-9.622961638849999,1.8023347835499999,-2.837174,1.37694,-3.117987,-0.00014000000000000123,-9.999999999998899e-05,-0.00013900000000000023,-0.000267822776736093,-0.00010274191943659972,-6.121646638734823e-05
1504199076.59,-1.0,-0.022574908299999998,-0.03847148795,0.10646099239999998,-0.034634,-0.01936,0.04034,-0.57028611745,-9.6230302854,1.8006774597,-2.834879,1.376979,-3.120541,-0.00014000000000000123,-0.00012000000000000899,-0.00014200000000000323,-0.00028031924450688805,-7.561589182181194e-05,-0.00011572220100919406
1504199076.6,-1.0,-0.0301848687,-0.049768748749999994,0.17323447225,-0.036692,-0.012945,0.036057,-0.57405187105,-9.6229518322,1.79988312105,-2.832854,1.376938,-3.122767,-0.00012999999999999123,-0.00010999999999999899,-0.0001480000000000023,-0.0002633704415129223,-3.58927759107619e-05,-0.000148948099420676
1504199076.61,-1.0,-0.014121576,0.00024516625,0.19983010704999998,-0.039838,-0.008653,0.032842,-0.5772390323,-9.62284395905,1.7994810484,-2.83118,1.376878,-3.124604,-0.00012000000000000899,-0.00011999999999999511,-0.00015399999999999442,-0.0002509822395522221,-2.1374595465806223e-05,-0.00012737521315508982
1504199076.62,-1.0,0.0359511789,0.07238288365,0.19136696809999998,-0.033373,-0.001247,0.032839,-0.5797299214,-9.62270666595,1.79941240185,-2.829916,1.376805,-3.125963,-0.00011999999999998123,-0.0001300000000000051,-0.00015500000000000236,-0.000235699492555419,-1.6291527596079547e-05,-0.00013031255377227158
1504199076.63,-1.0,0.07929657189999999,0.1483353879,0.15658278054999997,-0.013092,0.000714,0.035004,-0.58177951125,-9.6223438199,1.8006774597,-2.829089,1.376614,-3.126845,-0.00010999999999999899,-0.00012999999999999123,-0.00015400000000000136,-0.00023406952989590835,1.5489413761393678e-05,-0.00016082144939721932
1504199076.64,-1.0,0.10280311194999998,0.16739951549999998,0.10893226819999999,0.015739,0.004737,0.03718,-0.5837310346,-9.62164754775,1.8037371345,-2.828605,1.376249,-3.127341,-0.00011000000000002674,-0.00014000000000000123,-0.0001439999999999983,-0.0003346303444162757,4.515975011587514e-05,-0.00013625587491883362
1504199076.65,-1.0,0.11133489745,0.12787871599999998,0.045404789499999994,0.048814,0.004463,0.037236,-0.5856923646,-9.620588429549999,1.8087581392999998,-2.82844,1.375691,-3.127499,-0.00010999999999999899,-0.0001300000000000051,-0.00013600000000000417,-0.00036354093436119506,9.17236190756121e-05,-0.0001091553937465628
1504199076.66,-1.0,0.10417604294999999,0.062105514449999996,-0.022427808549999997,0.081884,0.005254,0.039424,-0.58780079435,-9.619156658649999,1.81569144085,-2.828504,1.374937,-3.1274,-8.999999999997899e-05,-7.999999999999674e-05,-0.00011299999999999505,-0.0003939780823567496,0.00015123036395103817,-4.283526862391973e-05
1504199076.67,-1.0,0.09632091629999999,-0.011954306349999999,-0.042619700899999995,0.110706,0.009275,0.042667,-0.5902720701499999,-9.6172247486,1.8251058248499998,-2.82879,1.373927,-3.127061,-0.00010000000000001674,-8.000000000001062e-05,-0.00011200000000000099,-0.0004385752722593228,0.00016000799880222516,-1.0806083499015351e-05
1504199076.68,-1.0,0.09346718115,-0.04508117005,-0.0334602898,0.125676,0.013413,0.042684,-0.59295909225,-9.6149299925,1.8362952124999998,-2.829254,1.372734,-3.126495,-0.00010999999999999899,-6.999999999998674e-05,-0.00011599999999999805,-0.0004959183275552448,0.00014669816102186317,6.250222703618746e-06
1504199076.69,-1.0,0.0949087587,-0.0602520576,0.01269961175,0.131042,0.018694,0.044817,-0.5959010872499999,-9.6123214236,1.848945791,-2.829813,1.371388,-3.125783,-0.00010999999999999899,-6.0000000000004494e-05,-0.00012300000000000505,-0.0005500897698849094,0.00011048772512078919,-5.781362744383678e-05
1504199076.7,-1.0,0.0969485419,-0.0918098573,0.04147232285,0.127869,0.024044,0.048002,-0.5991372817499999,-9.60964420815,1.8617728891999998,-2.830249,1.370014,-3.125146,-0.00010999999999999899,-5.000000000000837e-05,-0.00013200000000000017,-0.0007054476595205195,9.041393404007891e-05,-8.548274384967414e-05
1504199076.71,-1.0,0.08099312235,-0.1374107798,0.0742559538,0.122591,0.028354,0.043714,-0.6024813494,-9.60699641265,1.8743254012,-2.830586,1.368663,-3.124558,-0.00012000000000000899,-4.999999999999449e-05,-0.00013900000000000023,-0.0007751293945683635,9.046638065579593e-05,-8.525561107375346e-05
1504199076.72,-1.0,0.06681270645,-0.17095932945,0.08238566665,0.117338,0.035861,0.03942,-0.6058156104,-9.604417263699998,1.88639738735,-2.830849,1.367361,-3.123965,-0.00012999999999999123,-3.999999999999837e-05,-0.0001460000000000003,-0.0007918074517623275,8.587685669469991e-05,-4.823074809801042e-05
1504199076.73,-1.0,0.04800355175,-0.19718231155,0.0706471066,0.113153,0.043358,0.035129,-0.6091400647499999,-9.601985214499999,1.8976848414999998,-2.830988,1.366136,-3.123425,-0.00012999999999999123,-4.999999999999449e-05,-0.00014699999999999436,-0.0007088825714407498,7.661709258877103e-05,-7.002467022232395e-06
1504199076.74,-1.0,0.04255105435,-0.21611895269999998,0.0258699427,0.108946,0.047661,0.029776,-0.6120722530999999,-9.5998081382,1.9077464643999997,-2.831131,1.365045,-3.122831,-0.00012999999999999123,-5.000000000000837e-05,-0.0001470000000000013,-0.000611479806780002,6.577860020207105e-05,4.789848917152728e-05
1504199076.75,-1.0,0.0530735898,-0.20498840495,-0.00120621795,0.106858,0.050879,0.025496,-0.6145141089499999,-9.597768355,1.9171706550499998,-2.831408,1.364032,-3.122056,-0.000130000000000019,-7.000000000000062e-05,-0.0001439999999999983,-0.0005295063132002564,5.514119094218728e-05,0.00011180165339619297
1504199076.76,-1.0,0.0614092423,-0.18587524409999998,-0.04021707164999999,0.10367,0.051971,0.024419,-0.61671079855,-9.595934511449999,1.9256534073,-2.831652,1.36312,-3.121298,-9.999999999998899e-05,-4.999999999991123e-06,-0.00012100000000000305,-0.0004605432869135839,7.22497322824811e-05,0.0001782549225580743
1504199076.77,-1.0,0.08059104969999999,-0.1455699126,-0.0800026507,0.095194,0.058436,0.022257,-0.61853483545,-9.59434583415,1.9329691681999999,-2.831895,1.362337,-3.120487,-0.00010999999999999899,-5.0000000000050004e-06,-0.00011800000000000005,-0.00040471374962414153,5.538367125845767e-05,0.00019038380062164073
1504199076.78,-1.0,0.0935946676,-0.09525199144999999,-0.10111636815,0.093068,0.058455,0.020116,-0.6200156396,-9.5928846433,1.9397161433999999,-2.832214,1.361619,-3.119585,-0.00010999999999999899,-9.999999999996123e-06,-0.00011400000000000299,-0.0004472599169764724,7.594855403469936e-05,0.00022202134463078504
1504199076.79,-1.0,0.09407519345,-0.04392398535,-0.104342756,0.085634,0.061714,0.017961,-0.6213885706,-9.591541132249999,1.9459335594999998,-2.832499,1.360958,-3.118683,-0.00010999999999999899,-2.0000000000006124e-05,-0.00011499999999999705,-0.00045030790455369285,9.067974727661188e-05,0.0002552996658953255
1504199076.8,-1.0,0.09652685594999999,-0.01250347875,-0.0951637316,0.072843,0.062886,0.016867,-0.6226536284499999,-9.59034472095,1.9514252834999999,-2.832726,1.360373,-3.117842,-0.00010999999999999899,-9.999999999996123e-06,-0.00011699999999999905,-0.0004366126516464064,8.660544319050167e-05,0.0002872246271140577
1504199076.81,-1.0,0.09332988804999999,0.00350097405,-0.1082261894,0.061125,0.064049,0.014708,-0.62379119985,-9.5894327025,1.9554950432499998,-2.832801,1.359932,-3.117148,-0.00012000000000000899,-2.0000000000006124e-05,-0.00012200000000000405,-0.00046538529091399994,8.343061661286733e-05,0.00029952014356038337
1504199076.82,-1.0,0.080610663,0.01099325465,-0.110030613,0.044091,0.066325,0.010403,-0.6248405114,-9.5888443035,1.9580545789,-2.832694,1.359645,-3.116611,-0.00010999999999999899,-1.9999999999992246e-05,-0.0001250000000000001,-0.0004927727328034592,8.3737294785724e-05,0.0002793602141839546
1504199076.83,-1.0,0.06294888635,0.00522694445,-0.07689394265,0.030247,0.066444,0.00504,-0.62573291655,-9.58846184415,1.9596432562,-2.832514,1.359459,-3.116134,-0.00012000000000000899,-1.0000000000010001e-05,-0.00012899999999999717,-0.0005915135804333005,9.820472089772103e-05,0.0002586150301584489
1504199076.84,-1.0,0.04925880294999999,-0.01456287525,-0.044100505049999995,0.016394,0.065498,-0.00032,-0.6262624756499999,-9.588285324449998,1.96035914165,-2.832377,1.359371,-3.115616,-0.00011999999999998123,5.0000000000050004e-06,-0.00013099999999999917,-0.0006195336460259604,0.0001198461026059583,0.0002596590747014904
1504199076.85,-1.0,0.04155077605,-0.0649984762,-0.041217349949999996,0.00362,0.064545,-0.007813,-0.6261840224499999,-9.58842261755,1.9597217094000001,-2.832319,1.359437,-3.115019,-0.00010999999999999899,5.0000000000050004e-06,-0.00013099999999999917,-0.0006760874621614121,0.00013443862890794023,0.00026567291216883504
1504199076.86,-1.0,0.029831829299999998,-0.09828224629999999,-0.03782424905,-0.007049,0.061441,-0.013164,-0.62569368995,-9.5888050769,1.9579663190499998,-2.832289,1.359626,-3.114423,-8.00000000000245e-05,7.999999999999674e-05,-0.00011800000000000005,-0.0008598877716001763,0.00015502704468328687,0.0002544133334007048
1504199076.87,-1.0,0.0368141641,-0.11606170275,-0.026291628649999996,-0.018765,0.061542,-0.017455,-0.6245953451499999,-9.5894327025,1.9552694902999999,-2.832397,1.35993,-3.113688,-7.999999999999674e-05,0.00010000000000000286,-0.00011500000000000399,-0.0009576953658598786,0.0001333295811014601,0.00020145997827003548
1504199076.88,-1.0,0.0419920753,-0.12430909539999999,-0.021525596749999997,-0.030478,0.060579,-0.023879,-0.6227418883,-9.59030549435,1.9515429633,-2.832707,1.360358,-3.112768,-6.999999999998674e-05,0.00010000000000000286,-0.00011299999999999505,-0.0009673090970765408,9.658728252515125e-05,0.00010324408805451046
1504199076.89,-1.0,0.039206986699999995,-0.1182093591,0.0070804013,-0.041153,0.058538,-0.02603,-0.6207021051,-9.591325385949999,1.9471888107,-2.833007,1.360856,-3.111871,-7.00000000000145e-05,0.00010999999999999899,-0.00011200000000000099,-0.00102085709155042,0.00011690029531963297,3.711428173047704e-05
1504199076.9,-1.0,0.04361017255,-0.1255447333,0.0265367949,-0.05289,0.056506,-0.02925,-0.618211216,-9.592521797249999,1.9420991593499999,-2.833412,1.36144,-3.110898,-5.999999999997674e-05,9.999999999998899e-05,-0.00011400000000000299,-0.0009917626261619628,0.0001213947528666548,-2.388938618058667e-05
1504199076.91,-1.0,0.0521321514,-0.13177195604999997,0.041648842549999995,-0.052925,0.050116,-0.032442,-0.61522018775,-9.593777048449999,1.9368526016,-2.834032,1.362055,-3.109757,-4.000000000001225e-05,8.000000000001062e-05,-0.00011599999999999805,-0.0009451372481028564,0.00011873138764961766,-6.517303940745123e-05
1504199076.92,-1.0,0.05359334225,-0.14396162199999998,0.0436003659,-0.052876,0.048912,-0.0367,-0.61174863365,-9.59505191295,1.9316158504999998,-2.834885,1.362685,-3.108397,-1.9999999999992246e-05,7.000000000000062e-05,-0.00011699999999999905,-0.0008045426854077498,0.0001683083335672908,-7.559429315173727e-05
1504199076.93,-1.0,0.0378928956,-0.17603917415,0.03743198305,-0.05291,0.044649,-0.036694,-0.60831630615,-9.596346390749998,1.9262614195999999,-2.835703,1.363325,-3.107111,9.999999999982245e-06,4.999999999999449e-05,-0.00011900000000000105,-0.0007325432832914203,0.00023437580003426994,-6.889048592162439e-05
1504199076.94,-1.0,0.024889277699999997,-0.1836197146,0.0274978466,-0.056118,0.040419,-0.04203,-0.6045897791499999,-9.59773893505,1.92048530275,-2.836604,1.364016,-3.105783,3.0000000000002247e-05,3.999999999999837e-05,-0.00011900000000000105,-0.0007319212683105647,0.00026999939195415656,-7.40773936036554e-05
1504199076.95,-1.0,0.01809326925,-0.1245640683,0.0261837555,-0.060378,0.039391,-0.045238,-0.6006376992,-9.599190319249999,1.91446401965,-2.837583,1.364737,-3.10439,4.000000000001225e-05,4.999999999999449e-05,-0.00011900000000000105,-0.0007582068546290177,0.0002897460199995372,-0.00011741363466299948
1504199076.96,-1.0,0.02189824945,-0.0711570524,0.05035714775,-0.058264,0.036178,-0.046297,-0.5963619997999999,-9.600514216999999,1.9091488153499998,-2.838827,1.3654,-3.102756,0.00012000000000000899,0.00010000000000000286,-0.00011599999999999805,-0.0008957447796085205,0.00035224864539351586,-0.0001934939360335175
1504199076.97,-1.0,0.0320873588,-0.0613307891,0.07328509544999999,-0.050827,0.030791,-0.04841,-0.5917332609999999,-9.601671401699999,1.9047750494499998,-2.840385,1.365978,-3.100847,0.00011999999999998123,0.00010999999999999899,-0.00011300000000000199,-0.0009921913477315414,0.00035422525054151777,-0.0002764693606547297
1504199076.98,-1.0,0.043041386849999995,-0.077276402,0.044296638049999996,-0.041249,0.024324,-0.05372,-0.58636902345,-9.60277955315,1.9008425828,-2.842374,1.366534,-3.098571,0.00015000000000001124,0.00010999999999999899,-0.00010899999999999799,-0.0010061554852536236,0.0002836814961133527,-0.0003229782607163667
1504199076.99,-1.0,0.0079237732,-0.1284867283,0.01691647125,-0.031668,0.021049,-0.054765,-0.5813382119999999,-9.603799444749999,1.8972533488999999,-2.844265,1.367045,-3.096414,0.00015999999999999348,0.00010999999999999899,-0.00011099999999999999,-0.0010610417267198358,0.00028073381990356694,-0.0003665682170855833
1504199077.0,-1.0,-0.009080957899999999,-0.17183212129999997,0.0245754649,-0.028475,0.016766,-0.060089,-0.5760033943999999,-9.604740883149999,1.8940759943,-2.846374,1.367524,-3.094073,0.00018999999999999573,0.00010000000000000286,-0.00011599999999999805,-0.0010582449469491717,0.00027959213548944817,-0.00039924056474871517
1504199077.01,-1.0,-0.0253403836,-0.1621431511,0.04147232285,-0.029565,0.012515,-0.062218,-0.57052147705,-9.6055940617,1.89139877885,-2.848633,1.367956,-3.091635,0.00020000000000000573,0.00010000000000000286,-0.00012300000000000505,-0.001002560207395975,0.000293379967395202,-0.0004169188063029017
1504199077.02,-1.0,-0.03329357675,-0.1275256766,0.06820525075,-0.030635,0.009332,-0.066484,-0.5648042001,-9.606398207,1.8890549895,-2.851064,1.368361,-3.089038,0.00021999999999999797,7.999999999999674e-05,-0.00012799999999999617,-0.0009318153667501328,0.00028108885601407785,-0.0004048811439959499
1504199077.03,-1.0,-0.01562199345,-0.06949972855,0.081002929,-0.029578,0.009321,-0.064347,-0.55883195025,-9.607114092449999,1.8871721126999998,-2.853697,1.368725,-3.086253,0.00023000000000000798,9.000000000000674e-05,-0.00012999999999999817,-0.0008768050695961982,0.00026564974417020437,-0.00037269244869697626
1504199077.04,-1.0,0.0014317708999999998,-0.002353596,0.0476799323,-0.025323,0.008219,-0.06327,-0.5528400871,-9.60782017125,1.88533826915,-2.856357,1.369085,-3.083449,0.00023999999999999022,7.000000000000062e-05,-0.0001290000000000041,-0.0008772728356962745,0.00026861186121074354,-0.00032277230987554084
1504199077.05,-1.0,0.0147295883,0.038687234249999994,0.016288845649999998,-0.016812,0.00708,-0.060052,-0.5468384172999999,-9.608467410149998,1.8838084317499997,-2.859072,1.369413,-3.080608,0.0002600000000000102,7.999999999999674e-05,-0.0001260000000000011,-0.0009092971921444981,0.00028776632781424283,-0.0002629533162478159
1504199077.06,-1.0,0.0059036033,0.04093295709999999,-0.0031185146999999996,-0.006171,0.004859,-0.057895,-0.54116036695,-9.608918516049998,1.8831611928499998,-2.861767,1.369642,-3.07781,0.0003399999999999792,0.0001300000000000051,-0.00011199999999999405,-0.0011068173745003573,0.00039051949160207045,-0.0002472177646382079
1504199077.07,-1.0,0.0006472389,0.0186522483,-0.01413138265,0.00447,0.002638,-0.055737,-0.5357470961499999,-9.60923232885,1.88310235295,-2.864414,1.369802,-3.075087,0.00035000000000001696,0.00012999999999999123,-0.00011099999999999999,-0.0011651584358403078,0.00044601777391761743,-0.00022721012476589753
1504199077.08,-1.0,-0.0049621649000000006,0.004344345949999999,-0.0192994872,0.007623,-0.000589,-0.051457,-0.53074570465,-9.60942846185,1.8834848123,-2.866927,1.369906,-3.07252,0.0003700000000000092,0.0001300000000000051,-0.00011400000000000299,-0.0010938278555321368,0.00042191595361118495,-0.00019436324829502638
1504199077.09,-1.0,-0.0085513988,-0.0009414384,-0.0085317855,0.008668,-0.000602,-0.047185,-0.52625425895,-9.609526528349999,1.8842399243499999,-2.869242,1.369957,-3.070161,0.00037999999999999146,0.00014000000000000123,-0.00012000000000000205,-0.0011231610868875919,0.00040828275548099313,-0.00021030620979056724
1504199077.1,-1.0,-0.012729031699999999,-0.021682503149999997,0.0033636809499999996,0.007575,-0.000598,-0.04185,-0.5222237258,-9.60958536825,1.88506368295,-2.871339,1.369986,-3.068023,0.0003999999999999837,0.00014000000000000123,-0.00012899999999999717,-0.0011930574518423942,0.0003635777431962861,-0.00022436296422756463
1504199077.11,-1.0,-0.0185149552,-0.0550153065,0.0319108391,0.003264,-0.002699,-0.036516,-0.5186835251499999,-9.60962459485,1.8858384083,-2.873189,1.370007,-3.06616,0.0004300000000000137,0.00014999999999999736,-0.00013600000000000417,-0.0012912057273162247,0.00035419706954020747,-0.0002684489959052794
1504199077.12,-1.0,-0.032950344,-0.088455983,0.051896791799999994,-0.00423,-0.002643,-0.031192,-0.51591804985,-9.60970304805,1.886211061,-2.874601,1.370046,-3.064741,0.0004599999999999882,0.00015000000000001124,-0.0001419999999999963,-0.0013603158589172715,0.0003635906589865012,-0.00032831059525828543
1504199077.13,-1.0,-0.0457578289,-0.1081673495,0.062144741049999994,-0.012763,-0.000445,-0.028007,-0.5137311669,-9.609899181049999,1.8858384083,-2.875629,1.370143,-3.063698,0.0004900000000000182,0.00015999999999999348,-0.0001490000000000033,-0.0014285020733117992,0.00037819817311945947,-0.00037493763492735255
1504199077.14,-1.0,-0.06277236665,-0.1303696051,0.07212791075,-0.018123,-0.000406,-0.022678,-0.51228958935,-9.610144347299999,1.8849852297499998,-2.876228,1.370268,-3.063082,0.0005199999999999927,0.00014999999999998348,-0.00015300000000000036,-0.001398766180191302,0.0003849947757479377,-0.00041590064616836564
1504199077.15,-1.0,-0.0623114541,-0.13169350285,0.0774136951,-0.02455,-0.000358,-0.017352,-0.51140699085,-9.6104581601,1.8835828787999997,-2.876479,1.370433,-3.062822,0.0005400000000000127,0.00015000000000001124,-0.00015699999999999742,-0.001396936534604265,0.00038545210385954043,-0.000468869585740328
1504199077.16,-1.0,-0.0357354326,-0.10675519189999999,0.07903179234999999,-0.030975,0.001818,-0.008827,-0.5108872384,-9.61086023275,1.8816705820499997,-2.876475,1.370639,-3.062819,0.0005799999999999972,0.00015000000000001124,-0.00016000000000000042,-0.00132358211498107,0.00038776762422298994,-0.0005270798538653532
1504199077.17,-1.0,-0.0135135637,-0.09758597414999999,0.0695683751,-0.034228,0.001834,0.001842,-0.5109656915999999,-9.61135056525,1.87916007965,-2.876098,1.370889,-3.063192,0.0006999999999999784,6.999999999998674e-05,-0.00020399999999999585,-0.0012920691273448082,0.0005197648790704612,-0.0006277519233440776
1504199077.18,-1.0,-0.0024516625,-0.08479810254999999,0.06573397495,-0.037489,0.000784,0.012512,-0.5118580967499999,-9.6118703177,1.8762671179,-2.875267,1.371155,-3.064031,0.0007400000000000184,7.00000000000145e-05,-0.00020700000000000232,-0.0012482237270590169,0.000530615225720954,-0.0006548353598992973
1504199077.19,-1.0,0.013484143749999998,-0.05347566245,0.06098755634999999,-0.04072,0.002932,0.022109,-0.5135742605,-9.61237045685,1.8732270563999998,-2.874005,1.371413,-3.065298,0.0007599999999999829,6.999999999998674e-05,-0.00021200000000000038,-0.0011914709579523564,0.0005328036876472986,-0.0006687309417865439
1504199077.2,-1.0,0.01993691945,-0.018377662099999997,0.054024834849999995,-0.046105,0.005093,0.035972,-0.5164378023,-9.612900015949998,1.8697162756999999,-2.872102,1.371686,-3.067199,0.0007900000000000129,6.0000000000004494e-05,-0.00021700000000000191,-0.0011628364548079695,0.0005300918453665648,-0.00065322112388988
1504199077.21,-1.0,0.0404230113,0.018867994599999997,0.04458103089999999,-0.051466,0.008323,0.04663,-0.5201643293,-9.6134786083,1.86568574255,-2.869693,1.371986,-3.069599,0.0008199999999999874,6.0000000000004494e-05,-0.00022099999999999898,-0.0011102406562348843,0.00044008237206472067,-0.0006031767257674847
1504199077.22,-1.0,0.06473369664999999,0.058486860599999996,0.047532832549999994,-0.055747,0.015801,0.061552,-0.52501862105,-9.614047394,1.8614002365,-2.866679,1.37228,-3.072565,0.0008500000000000174,6.0000000000004494e-05,-0.0002260000000000005,-0.0010678138528850134,0.0004325689161033264,-0.0005940006048859026
1504199077.23,-1.0,0.08485694244999999,0.06026186425,0.057731748549999996,-0.061138,0.017961,0.07648,-0.53107913075,-9.614616179699999,1.8567322710999998,-2.863003,1.372575,-3.076158,0.0008799999999999919,6.999999999998674e-05,-0.0002260000000000005,-0.0009972418814832018,0.0004233957635815244,-0.0005816119156086819
1504199077.24,-1.0,0.09962575735,0.0607031635,0.05659417715,-0.063321,0.016904,0.085016,-0.5377672660499999,-9.615214385349999,1.8517308795999998,-2.858955,1.372881,-3.080135,0.0009000000000000119,7.999999999999674e-05,-0.0002249999999999995,-0.0009412115445108782,0.00044040247446863745,-0.0005705030098737129
1504199077.25,-1.0,0.10719649114999999,0.08286619249999999,0.060624710299999995,-0.055816,0.02536,0.091416,-0.54518109345,-9.61568510455,1.8471021408,-2.854585,1.373127,-3.084378,0.0009299999999999864,9.000000000000674e-05,-0.00022099999999999898,-0.0008857104985886544,0.00047371560324838136,-0.000541689283118707
1504199077.26,-1.0,0.09835089285,0.11246266220000001,0.065116156,-0.040834,0.032692,0.094629,-0.5532519664,-9.6157929777,1.8441111125499998,-2.850128,1.373185,-3.088649,0.0009699999999999986,0.00010999999999999899,-0.00022099999999999898,-0.0008019034004700387,0.0005196546409307334,-0.0005119218836380224
1504199077.27,-1.0,0.07693316924999999,0.1536898188,0.010551955399999998,-0.011986,0.035654,0.091471,-0.56175433195,-9.6155772314,1.8427087615999997,-2.845688,1.373069,-3.092844,0.0010199999999999931,0.00012999999999999123,-0.0002280000000000025,-0.0007432241705687126,0.0005920617451802279,-0.0005708411577904915
1504199077.28,-1.0,0.0643512373,0.20245828924999998,-0.0886128894,0.015826,0.042887,0.088303,-0.5702763108,-9.615106512199999,1.8425224352499998,-2.841437,1.372828,-3.096785,0.0010500000000000231,0.00014000000000000123,-0.0002339999999999981,-0.0006740779059442037,0.00062807525436126,-0.0005125712576726782
1504199077.29,-1.0,0.0576434887,0.20882280509999998,-0.1463740579,0.045817,0.054367,0.082997,-0.5786806098499999,-9.614292560249998,1.84416995245,-2.837533,1.372404,-3.100241,0.0010799999999999976,0.00015999999999999348,-0.00024400000000000116,-0.0006048642102729485,0.000649685550448309,-0.0004918527305141085
1504199077.3,-1.0,0.0537796686,0.174950636,-0.17017479745,0.064071,0.065943,0.07767,-0.5867907094,-9.61319421545,1.8473178871,-2.834028,1.371838,-3.103163,0.0011099999999999999,0.00019000000000002348,-0.0002559999999999993,-0.0005343596577369603,0.0006410301415749053,-0.00047925175041041435
1504199077.31,-1.0,0.0573689025,0.08441564319999999,-0.13791091895,0.07486,0.078646,0.073396,-0.59456738285,-9.61184089775,1.8518583660499999,-2.830921,1.371141,-3.105555,0.0011400000000000021,0.00020999999999998797,-0.0002659999999999989,-0.0005058928890862013,0.0005806959489083052,-0.0005013157525994849
1504199077.32,-1.0,0.0552506661,-0.013582210249999999,-0.0720788775,0.06967,0.093612,0.068022,-0.6020302435,-9.610360093599999,1.8571049238,-2.828106,1.370383,-3.107514,0.0011699999999999766,0.00023000000000000798,-0.00027800000000000047,-0.0005643293331727417,0.0005139477854261276,-0.0004598311273432687
1504199077.33,-1.0,0.0214177236,-0.09084880559999998,0.01640652545,0.050647,0.112955,0.062618,-0.60978730365,-9.608957742649999,1.8618513423999998,-2.825083,1.369664,-3.109497,0.0012100000000000166,0.0002500000000000002,-0.00028699999999999906,-0.000591665933472596,0.0004700953141021369,-0.0005005800977108121
1504199077.34,-1.0,0.010071429549999998,-0.15391537175,0.08083621595,0.025203,0.129155,0.05614,-0.6174462973,-9.607849591199999,1.8650581169499998,-2.821887,1.369097,-3.111495,0.0012500000000000011,0.00026999999999999247,-0.00029100000000000306,-0.0005894387593787798,0.0004374924121763879,-0.0005800548797735283
1504199077.35,-1.0,0.032381558299999995,-0.13957804945,0.11631667564999999,0.00936,0.143149,0.046481,-0.6241932724999999,-9.607065059199998,1.8668331206,-2.818918,1.3687,-3.113119,0.0012800000000000034,0.00028000000000000247,-0.0002929999999999981,-0.0005587483300266705,0.00040499181110198457,-0.0006660660064984336
1504199077.36,-1.0,0.05085728689999999,-0.13329198679999998,0.14536397294999998,-0.000155,0.151755,0.043246,-0.6302537822000001,-9.60646685355,1.8678530121999999,-2.816166,1.368398,-3.114426,0.00134999999999999,0.0002899999999999847,-0.00027699999999999947,-0.0005387428972980501,0.000426313723193239,-0.0008401952379619715
1504199077.37,-1.0,0.09181966394999999,-0.13371367274999998,0.1241325757,-0.001147,0.158161,0.038961,-0.6354611133499999,-9.6060451676,1.8682845047999999,-2.813739,1.368182,-3.115341,0.0014000000000000123,0.0003100000000000047,-0.00027399999999999994,-0.0004943554300096409,0.0004225888666666844,-0.0009311965493479235
1504199077.38,-1.0,0.13593978229999998,-0.11921944404999998,0.0531324297,0.010605,0.158067,0.035776,-0.63961913295,-9.60572154815,1.86851005775,-2.811779,1.36802,-3.115794,0.0014399999999999968,0.0003100000000000047,-0.0002630000000000028,-0.00042086542698571705,0.0003993249290390466,-0.0010166385418431956
1504199077.39,-1.0,0.17437204365,-0.10025338294999998,-0.0172400907,0.027704,0.158995,0.031531,-0.64273764765,-9.60538812205,1.8691474899999998,-2.810394,1.367852,-3.115649,0.0015000000000000013,0.00032999999999999696,-0.00025099999999999775,-0.00030446308702880565,0.0003905107640433947,-0.0011354302711006348
1504199077.4,-1.0,0.16587948474999997,-0.1052645811,-0.06551822865,0.046923,0.157775,0.026226,-0.64546389635,-9.604868369599998,1.8709028803499999,-2.809377,1.367587,-3.115128,0.0015499999999999958,0.00032999999999999696,-0.00024000000000000063,-0.00022905128237638017,0.00039811844331683055,-0.0012848027495516723
1504199077.41,-1.0,0.16538915225,-0.0915352711,-0.08980930069999998,0.055451,0.154512,0.021973,-0.6478174923500001,-9.60423093735,1.87333492955,-2.808655,1.367267,-3.114324,0.0015999999999999903,0.00035000000000001696,-0.00023300000000000057,-0.00011262299419612098,0.00041667759987751296,-0.001409533486461334
1504199077.42,-1.0,0.1623196708,-0.07834532685,-0.07625651039999999,0.057601,0.153433,0.016638,-0.6496905625,-9.603505245249998,1.876404411,-2.80827,1.366902,-3.113195,0.0016500000000000126,0.0003599999999999992,-0.00023199999999999957,9.96338775569594e-05,0.00037478513280708725,-0.0013808111269469903
1504199077.43,-1.0,0.14580527219999997,-0.07217694399999999,-0.036421898099999996,0.048039,0.154583,0.010212,-0.6512792397999999,-9.60279916645,1.8795033123999998,-2.808024,1.366542,-3.111916,0.001689999999999997,0.0003599999999999992,-0.0002360000000000001,0.00016948288401730238,0.0003815154903814566,-0.0014576761133339167
1504199077.44,-1.0,0.12914377385,-0.1107170785,0.013856796449999998,0.03315,0.154715,0.000576,-0.6522795181,-9.602259800699999,1.8818961349999999,-2.807945,1.366273,-3.110444,0.0017299999999999816,0.00037999999999999146,-0.0002459999999999997,0.00038325571356701005,0.0003477913967524504,-0.0014766706441952104
1504199077.45,-1.0,0.12021972235,-0.1637906683,0.05035714775,0.015065,0.155938,-0.007999,-0.6524756510999999,-9.6020048278,1.8831121596,-2.80805,1.366147,-3.108794,0.0017700000000000216,0.00037999999999999146,-0.0002599999999999998,0.0005245293705664622,0.0002939529457586243,-0.0014842457713464263
1504199077.46,-1.0,0.09395751364999999,-0.20575332365,0.09625226975000001,-0.009426,0.157213,-0.015518,-0.65240700455,-9.60209308765,1.8827002803,-2.808017,1.366189,-3.107275,0.0018499999999999905,0.0004300000000000137,-0.00028299999999999853,0.0005007952948852257,0.000318720684515883,-0.0016184348872247956
1504199077.47,-1.0,0.09197657035,-0.21499118795,0.1382541517,-0.036067,0.156374,-0.023037,-0.6514753728,-9.60258342015,1.8805035907,-2.808099,1.366437,-3.105639,0.0018799999999999928,0.00045000000000000595,-0.0002950000000000001,0.00048529821281517727,0.0002967178796957626,-0.0016044873632385936
1504199077.48,-1.0,0.09547754439999999,-0.15494507000000002,0.16505572614999997,-0.062703,0.158728,-0.026292,-0.650180895,-9.60352485855,1.8761494381,-2.807993,1.36691,-3.104186,0.001920000000000005,0.00047999999999998044,-0.0003030000000000012,0.00045572707203245244,0.00028343179012724207,-0.0015742619893437393
1504199077.49,-1.0,0.1304088317,-0.0631940526,0.16568335174999999,-0.084021,0.158907,-0.029534,-0.64815091845,-9.60489778955,1.8698339554999999,-2.807919,1.3676,-3.102695,0.0019500000000000073,0.0005200000000000204,-0.0003070000000000017,0.00046931365558511295,0.0002829576006748713,-0.0015519850592792261
1504199077.5,-1.0,0.1628884565,0.0430708068,0.13882293739999998,-0.096842,0.15688,-0.028489,-0.64562080275,-9.60656492005,1.8621357352499999,-2.807851,1.368445,-3.101222,0.0019899999999999918,0.0005499999999999949,-0.00030699999999999825,0.00048272106329361186,0.00027313955112906463,-0.0015582387272891074
1504199077.51,-1.0,0.18606157045,0.10009647655000001,0.09557561089999998,-0.10649,0.151629,-0.027433,-0.64275726095,-9.6085164434,1.8530057441,-2.807707,1.36944,-3.099877,0.0020100000000000118,0.0005799999999999972,-0.0003049999999999997,0.0005104073138959553,0.00024816412570105584,-0.0015457513067181905
1504199077.52,-1.0,0.1882680667,0.1094814406,0.057653295349999995,-0.11293,0.14529,-0.029572,-0.6397270061,-9.61072293965,1.8425910818,-2.807425,1.370567,-3.098734,0.0020499999999999963,0.0006200000000000094,-0.0003009999999999992,0.0004676175448510289,0.0002459730177286623,-0.001526174013937065
1504199077.53,-1.0,0.17252839345,0.11621860915,0.05663340374999999,-0.126888,0.134747,-0.028514,-0.6368536576499999,-9.6131255689,1.8310388480999997,-2.806872,1.3718,-3.097948,0.0020699999999999885,0.0006599999999999939,-0.00030000000000000165,0.00043630910894632,0.00018963540663885503,-0.0014155734570963086
1504199077.54,-1.0,0.1520619149,0.1230538442,0.09420267989999999,-0.141872,0.130605,-0.025333,-0.6343431552500001,-9.615616457999998,1.8187707289499997,-2.806011,1.373092,-3.097543,0.0020800000000000124,0.0007000000000000062,-0.00030799999999999925,0.0003940209107133885,0.00018871672496101333,-0.0014481801981415243
1504199077.55,-1.0,0.16240793064999998,0.13850912459999998,0.16669343669999998,-0.162209,0.123311,-0.023224,-0.6316659398,-9.6182054136,1.8059730506999998,-2.805127,1.374439,-3.097242,0.002109999999999987,0.0007399999999999907,-0.00032300000000000037,0.0003396252146303791,0.00017633183277587783,-0.0015277434496184794
1504199077.56,-1.0,0.18215852375,0.16134881245,0.20759697384999998,-0.181502,0.114939,-0.01791,-0.6289789176999999,-9.6209905022,1.7920181877499999,-2.804036,1.375901,-3.097242,0.0021200000000000108,0.0007899999999999852,-0.00032100000000000184,0.00010470826734887417,0.00017086595975568386,-0.0017039474462966497
1504199077.57,-1.0,0.20643978915,0.19633893965,0.23939013314999996,-0.197582,0.108671,-0.011527,-0.6263213155499999,-9.6239521105,1.7769747866499999,-2.802722,1.377467,-3.097555,0.002129999999999993,0.0008200000000000152,-0.00034299999999999956,0.00013342263424998002,3.559424224675034e-05,-0.0016691826856908287
1504199077.58,-1.0,0.21644257214999998,0.26765289845,0.22597463595,-0.207268,0.100222,-0.007264,-0.6238990729999999,-9.6270313986,1.7610585936999998,-2.801113,1.37911,-3.098261,0.002119999999999997,0.0008400000000000074,-0.00036599999999999827,5.31368309197866e-06,-6.871052813406386e-05,-0.001650802522918271
1504199077.59,-1.0,0.22495474434999999,0.2951605517,0.20687128174999997,-0.204152,0.089539,-0.006177,-0.621349344,-9.6301499133,1.7448580079,-2.799491,1.380785,-3.099068,0.0021200000000000108,0.0008699999999999819,-0.000390999999999999,-4.833851628216479e-05,-0.00017729280973166617,-0.0016146967491017516
1504199077.6,-1.0,0.21377516334999996,0.2772339955,0.17248916685,-0.194645,0.077737,-0.005077,-0.6188486482499999,-9.63318016815,1.7289516215999998,-2.797871,1.382427,-3.09999,0.0020999999999999908,0.0008900000000000019,-0.0004170000000000007,-0.0003180149688191136,-0.00026749651470692193,-0.001540977201560323
1504199077.61,-1.0,0.17847122334999999,0.24700009355,0.14032335485,-0.179803,0.062701,-0.009298,-0.61631853255,-9.63601429,1.7139866736999998,-2.796408,1.383978,-3.100873,0.0020700000000000024,0.0009200000000000041,-0.000451,-0.0006618532419673251,-0.00030262181836326896,-0.0013917126636220356
1504199077.62,-1.0,0.1561610946,0.19938880779999998,0.1283298219,-0.165968,0.055132,-0.013534,-0.61361189715,-9.63867189215,1.6999435508999998,-2.79519,1.385444,-3.101586,0.0020499999999999963,0.0009500000000000064,-0.0004930000000000004,-0.001264662979507225,-0.00027790364527247036,-0.001123250709861745
1504199077.63,-1.0,0.1489041736,0.16998847109999998,0.1263292653,-0.156455,0.042268,-0.015633,-0.6105424157,-9.641143167949998,1.6869791596000001,-2.794344,1.386817,-3.102032,0.002020000000000008,0.0009599999999999886,-0.0005399999999999988,-0.001958132675936586,-0.00012536693523190756,-0.0007351562147386304
1504199077.64,-1.0,0.14403026855,0.16878225315,0.1446873141,-0.156494,0.03694,-0.015626,-0.6073062211999999,-9.64353599055,1.67445606755,-2.793657,1.388152,-3.102397,0.0019600000000000034,0.0009600000000000164,-0.0005830000000000002,-0.002543945330785613,0.00014540638327020794,-0.00023702586946183768
1504199077.65,-1.0,0.14861978074999999,0.16878225315,0.2001537265,-0.159715,0.03377,-0.01563,-0.60396215355,-9.6457817134,1.6626880875499999,-2.793166,1.389417,-3.10262,0.001889999999999989,0.0009399999999999964,-0.0006030000000000028,-0.002964321575788631,0.00044037619388559435,0.0003612722352344111
1504199077.66,-1.0,0.15471951704999998,0.16419274095,0.2385173413,-0.159768,0.028439,-0.012422,-0.6006376992,-9.647929369749999,1.6514104400499998,-2.792755,1.390634,-3.102814,0.00179,0.0008799999999999919,-0.0005419999999999973,-0.0033417657046428406,0.0009065160466825706,0.0009214209068004742
1504199077.67,-1.0,0.14985541865,0.20180124369999997,0.233006004,-0.149127,0.024089,-0.012399,-0.597421118,-9.649920119699999,1.6409075179,-2.792431,1.391771,-3.102952,0.0016509999999999997,0.0008400000000000074,-0.0004959999999999999,-0.0028945805137543523,0.0007238050888898062,0.0017665911443038862
1504199077.68,-1.0,0.1414315063,0.22310128749999997,0.20109516489999998,-0.12566,0.022831,-0.012359,-0.5943908631499999,-9.65161667015,1.6319638531,-2.792311,1.392749,-3.102894,0.001474000000000003,0.0007800000000000029,-0.0004230000000000015,-0.0020155486490709418,0.0006225897210319076,0.0023452065219013996
1504199077.69,-1.0,0.13933288319999998,0.20428232614999997,0.14966909229999997,-0.09584,0.01619,-0.011231,-0.59139002825,-9.6529994078,1.6248736451499999,-2.792537,1.393545,-3.102534,0.0012940000000000035,0.0007500000000000007,-0.0003409999999999993,-0.0006607849831701262,0.0003728159434230882,0.0026535474236993872
1504199077.7,-1.0,0.1527287671,0.1160911227,0.09029963319999999,-0.069223,0.009576,-0.010109,-0.58801654065,-9.65414678585,1.6193034679499998,-2.793268,1.394207,-3.101732,0.001130000000000006,0.0007199999999999984,-0.00025299999999999975,0.0008458628264091939,2.779994310442291e-05,0.00262147029186377
1504199077.71,-1.0,0.14732530295,-0.046964046849999996,0.08420970354999999,-0.058577,0.008418,-0.00689,-0.5848686059999999,-9.65508822425,1.61477279565,-2.794092,1.39476,-3.100871,0.001008999999999996,0.0007399999999999907,-0.00016600000000000122,0.0020336258981130673,-0.00030816516480647316,0.002322266926825134
1504199077.72,-1.0,0.1313110435,-0.21187267324999998,0.15335639269999998,-0.055415,0.007319,-0.000481,-0.582318877,-9.655823723,1.61132085485,-2.794806,1.395186,-3.100135,0.0009519999999999945,0.0007800000000000029,-8.099999999999948e-05,0.0027562697181722218,-0.00047704352080013557,0.001828491643633412
1504199077.73,-1.0,0.11125644424999999,-0.3377802526,0.25798354155,-0.060765,0.009486,0.006975,-0.58081845955,-9.656372895399999,1.60859460615,-2.795089,1.395504,-3.099818,0.0009610000000000035,0.0008700000000000097,-4.999999999999796e-06,0.0030134197641016325,-0.0003055947626318112,0.0011677817055086859
1504199077.74,-1.0,0.114737805,-0.37046581705,0.34388979555,-0.069305,0.014874,0.017621,-0.5802594805,-9.656755354749999,1.6064861763999998,-2.794976,1.395729,-3.099858,0.0010249999999999981,0.0010000000000000009,5.199999999999996e-05,0.002718781646429136,0.0002296869226223741,0.0004121802682010012
1504199077.75,-1.0,0.14730568965,-0.26664281349999996,0.36452298715,-0.083168,0.023499,0.031454,-0.5806517465,-9.657177040699999,1.60380896095,-2.794225,1.395976,-3.100491,0.001130000000000006,0.0011599999999999944,9.299999999999933e-05,0.001883392021645225,0.0009607043389143755,-0.00035259502986251245
1504199077.76,-1.0,0.20024198634999998,-0.06859751675,0.30770325705,-0.086396,0.029901,0.048511,-0.5819658376,-9.657696793149999,1.60018050045,-2.792776,1.396283,-3.101773,0.0012500000000000011,0.0013100000000000056,0.00012700000000000038,0.0006177403342675358,0.0018878107720423642,-0.0010139961637531947
1504199077.77,-1.0,0.2824903599,0.17001789105,0.23603625884999999,-0.069336,0.037203,0.063466,-0.5837114213,-9.658089059149999,1.5971698589,-2.791209,1.396514,-3.103107,0.001358999999999999,0.001469999999999999,0.00011000000000000072,-0.0004850044069797388,0.0023402031108457066,-0.0013475842247919756
1504199077.78,-1.0,0.33000357915,0.3630814096,0.14932585955,-0.040595,0.036953,0.076325,-0.5914194481999999,-9.65842248525,1.5923057604999997,-2.785964,1.39671,-3.108057,0.0014429999999999998,0.0015999999999999903,6.999999999999888e-05,-0.0013402024884858754,0.0024071628350057495,-0.00126271577180892
1504199077.79,-1.0,0.31534263739999996,0.3625910771,0.07332432205,-0.008625,0.033491,0.078521,-0.5995001278,-9.658226352249999,1.5905013368999998,-2.781132,1.396592,-3.112611,0.0014929999999999943,0.0017199999999999993,1.1000000000000593e-05,-0.0019057338619512532,0.0025562658117233017,-0.0008719439042510491
1504199077.8,-1.0,0.24083171069999998,0.1471585899,0.04262950755,0.024437,0.027897,0.072184,-0.6071493148,-9.65752027345,1.5918546545999999,-2.777216,1.39618,-3.116293,0.0014969999999999983,0.001810000000000006,-6.199999999999956e-05,-0.002289311504086955,0.002722150921390387,-0.00036645162892556815
1504199077.81,-1.0,0.13636146825,-0.19314197175,0.0868673057,0.05009,0.025567,0.05942,-0.6110131349,-9.6564513486,1.59684623945,-2.776142,1.395554,-3.117161,0.001454999999999998,0.0018699999999999828,-0.00014300000000000077,-0.0024127728652323377,0.0028872029658939535,9.93158898554558e-06
1504199077.82,-1.0,0.046463907699999994,-0.5537815254999999,0.17126333559999998,0.069341,0.025418,0.049847,-0.6164264057,-9.6550980309,1.6029852023499997,-2.774475,1.39476,-3.118606,0.001371000000000011,0.0019100000000000228,-0.0002210000000000007,-0.002346089369102078,0.0028707320135432646,0.0002669278161054889
1504199077.83,-1.0,0.01419022255,-0.83220212565,0.24792191865,0.084295,0.024235,0.044538,-0.62112379105,-9.6535093536,1.6107226492,-2.773547,1.393837,-3.119303,0.0012659999999999894,0.0019399999999999973,-0.00027899999999999973,-0.00203422139003151,0.0026198976111893035,0.0004285053559612839
1504199077.84,-1.0,0.039844418949999995,-0.9436939294999999,0.300475756,0.094957,0.027337,0.050956,-0.6262722823,-9.65169512335,1.6195290208999997,-2.772603,1.392795,-3.119989,0.0011639999999999984,0.0019499999999999795,-0.0003109999999999988,-0.0016456773003195035,0.002246333392365907,0.0004124011348224377
1504199077.85,-1.0,0.13512583034999998,-0.8548652938,0.25976835184999997,0.103448,0.029384,0.063771,-0.62922408395,-9.64953766035,1.63120874105,-2.773436,1.391555,-3.118922,0.0010850000000000026,0.0019900000000000195,-0.00032000000000000084,-0.001283757101268268,0.0018948729679966192,0.00019432238459848872
1504199077.86,-1.0,0.2481278583,-0.5821423573,0.18106017894999998,0.115173,0.039923,0.082986,-0.6373341835,-9.6472330976,1.6416822432499998,-2.771281,1.39024,-3.120733,0.0010440000000000033,0.002009999999999984,-0.00030799999999999925,-0.0010351018545140533,0.0016367532747409985,-0.0001320658876625691
1504199077.87,-1.0,0.33393604579999997,-0.22254230845,0.0768056828,0.139652,0.045029,0.1033,-0.6475821327499999,-9.6444087824,1.6542053353,-2.768458,1.388644,-3.12315,0.0010649999999999965,0.0022000000000000075,-0.00032400000000000137,-0.0007449680290005922,0.0015013234465877101,-0.0005135528313611193
1504199077.88,-1.0,0.40690732845,0.1999772068,-0.07057846005,0.171619,0.053268,0.124689,-0.6599483183999999,-9.640917615,1.6696115824499997,-2.765171,1.386688,-3.125972,0.0011000000000000038,0.002260000000000012,-0.0003089999999999985,-0.0005010892695509472,0.0015022633269790031,-0.0008734988002888633
1504199077.89,-1.0,0.44587895554999996,0.49942326454999997,-0.20749890734999998,0.206759,0.055087,0.140748,-0.6658421150499999,-9.6376421939,1.68606714115,-2.765483,1.384875,-3.125218,0.0011570000000000052,0.002339999999999981,-0.000307,-0.00028570331001498417,0.0015742743296833783,-0.001218746424076933
1504199077.9,-1.0,0.48059449654999997,0.7147969118499999,-0.35732490604999995,0.246194,0.057946,0.15362,-0.6814052686,-9.632601575799999,1.7085537895999998,-2.762102,1.38211,-3.128083,0.001227999999999993,0.0024399999999999977,-0.0003210000000000001,-3.065846319216803e-05,0.0016746838252252871,-0.0015450037186737209
1504199077.91,-1.0,0.48453676985,0.8825396601,-0.49622629664999995,0.29628,0.056458,0.163316,-0.6979196671999999,-9.6266195193,1.73537497735,-2.759213,1.378887,-3.130443,0.0012960000000000055,0.0025499999999999967,-0.00034400000000000056,0.00018105157290748686,0.0017451509448580538,-0.001806518021344461
1504199077.92,-1.0,0.45929445274999997,0.93797665255,-0.56961926525,0.338977,0.061286,0.174069,-0.7154735707,-9.6196567978,1.7665699309999998,-2.756776,1.375198,-3.132317,0.001354999999999995,0.0026900000000000257,-0.00036800000000000027,0.00032118154714089187,0.001771704669347729,-0.002041915702649333
1504199077.93,-1.0,0.4383376417,0.88023509735,-0.61922130095,0.365548,0.057855,0.189065,-0.734321952,-9.611889931,1.8007559129,-2.754394,1.371166,-3.13414,0.0013930000000000053,0.0028499999999999914,-0.0003899999999999997,0.0003618847869164554,0.0017942062092433098,-0.0022515995053747906
1504199077.94,-1.0,0.4821929805,0.79119071535,-0.6230655077499999,0.370816,0.058862,0.204016,-0.7545334576499999,-9.60364253835,1.83603043295,-2.751673,1.366971,-3.136321,0.0014119999999999966,0.003039999999999987,-0.0004080000000000004,0.0002745174664351424,0.001793789277811264,-0.0024401031325650413
1504199077.95,-1.0,0.5506826241,0.68463165645,-0.55891040345,0.345158,0.064381,0.223175,-0.7767847465,-9.5953951457,1.8695789826,-2.747808,1.362856,-3.139628,0.0014099999999999946,0.0032100000000000184,-0.0004259999999999993,0.00020239205638805657,0.0017363307043471998,-0.0026496812117624557
1504199077.96,-1.0,0.58252481665,0.5084551892,-0.433650063,0.292861,0.075446,0.244413,-0.8011444650999999,-9.58771653875,1.89845956685,-2.742266,1.359098,3.138629,0.001465000000000001,0.0034099999999999964,-0.00043770000000000094,5.372918093682344e-05,0.0019203147856985403,-0.002804788297015026
1504199077.97,-1.0,0.56536317915,0.31076293185,-0.21332405745,0.233143,0.091895,0.263481,-0.8170508514,-9.5823130746,1.9188868188000001,-2.73905,1.356488,3.136048,0.0014360000000000067,0.003589999999999982,-0.0004549999999999988,6.406145423443199e-05,0.0015194335216512922,-0.00287426075096342
1504199077.98,-1.0,0.5871339421499999,0.16108403289999998,-0.0529951366,0.171304,0.107306,0.279358,-0.8454116832,-9.576429084599999,1.9358915498999998,-2.729849,1.353686,3.127684,0.0014029999999999945,0.0037500000000000033,-0.0004720000000000002,0.00010610976798086647,0.001392330078350712,-0.0028451936465724303
1504199077.99,-1.0,0.6161322061999999,0.006982334799999999,-0.011336487399999998,0.106196,0.117411,0.300575,-0.8759005580499999,-9.57151595295,1.9466004117,-2.718769,1.351372,3.117519,0.0013710000000000042,0.0039000000000000146,-0.0004857999999999998,0.00016707948538874362,0.0013099932493474409,-0.002724542644541472
1504199078.0,-1.0,0.6688135299999999,-0.06365496514999999,-0.05696682985,0.051788,0.127434,0.315407,-0.9082330831,-9.5674658065,1.95167044975,-2.706037,1.349484,3.105751,0.001337999999999999,0.00406999999999999,-0.0004938000000000008,0.00020517912909490121,0.0012952096069669405,-0.002508143690387321
1504199078.01,-1.0,0.6945167596499999,-0.00907115125,-0.12327939715,0.010253,0.144804,0.327027,-0.92705204445,-9.56608306885,1.9496012466,-2.697731,1.348843,3.098398,0.0013039999999999996,0.0042300000000000115,-0.0004977000000000002,0.0002288908843048887,0.0013179528755464798,-0.002234271026077095
1504199078.02,-1.0,0.74782570905,0.0550741464,-0.16498707959999998,-0.019543,0.159959,0.335488,-0.9619539117999999,-9.56319991375,1.94686519125,-2.682673,1.347508,3.084562,0.0012659999999999963,0.004390000000000005,-0.0004970999999999995,0.0002682858750859829,0.0013146930578420424,-0.0019304456247302149
1504199078.03,-1.0,0.7815017451499999,0.0864554264,-0.25206032494999997,-0.044073,0.164418,0.340775,-0.9975814712499999,-9.560610958149999,1.9416186334999999,-2.666975,1.346322,3.070132,0.0012250000000000039,0.0045399999999999885,-0.0004949999999999998,0.0004343626699827574,0.0013104468243736456,-0.0016595488060230368
1504199078.04,-1.0,0.8132850978,0.0774529217,-0.3479595553,-0.055842,0.162381,0.34396,-1.0335522634499998,-9.5581887156,1.9347147518999999,-2.650948,1.345215,3.05537,0.0011779999999999985,0.00470000000000001,-0.0004972000000000006,0.0006885543083390289,0.0012734222903372228,-0.0014800704198654202
1504199078.05,-1.0,0.8371740971999999,0.06230164745,-0.34096741385,-0.050583,0.15912,0.351425,-1.05236141815,-9.55890460105,1.92099524855,-2.640425,1.345542,3.045942,0.001119000000000002,0.0048699999999999855,-0.0005138,0.0009727096686642511,0.0011657469408377086,-0.001352490335238099
1504199078.06,-1.0,0.8854816551,0.0445614176,-0.2812939486,-0.046373,0.155882,0.357842,-1.0894305551499999,-9.55598221935,1.9148857055999997,-2.624332,1.344209,3.031035,0.0010509999999999964,0.005030000000000007,-0.0005531,0.0012139474015135931,0.0011030967534639835,-0.0012900585925559316
1504199078.07,-1.0,0.9454395131999999,0.06130136914999999,-0.27859711984999996,-0.041088,0.151573,0.361061,-1.12679389165,-9.552814671399998,1.90905074885,-2.60838,1.342776,3.016241,0.0009740000000000026,0.005220000000000002,-0.0006064,0.0015168367095554913,0.0008587095726224625,-0.00105413867520332
1504199078.08,-1.0,0.9792332290999999,0.0408348906,-0.3012406747,-0.028314,0.149334,0.363222,-1.16433374785,-9.549254857449998,1.9043141368999998,-2.592818,1.341177,3.001808,0.000895,0.005399999999999988,-0.0006686999999999999,0.0017325250776454304,0.0007390533802875687,-0.0008646850647070492
1504199078.09,-1.0,0.98583310455,0.0291649771,-0.29505267854999995,-0.010294,0.14064,0.370714,-1.1806618200999999,-9.5491077577,1.8949782060999998,-2.584399,1.341112,2.994265,0.0008120000000000002,0.005599999999999994,-0.0007287999999999999,0.001734785901831959,0.0006612280120406044,-0.0006115324070453676
1504199078.1,-1.0,1.0520377987,0.0342448218,-0.28887448904999996,0.004552,0.131988,0.375024,-1.2188881418,-9.54460650535,1.8934385620499998,-2.569629,1.339105,2.980477,0.0007269999999999985,0.005810000000000037,-0.0007802,0.0015367764381271076,0.0006390337085029341,-0.00028819988494344084
1504199078.11,-1.0,1.0944809799,0.011081514499999999,-0.28463801624999996,0.023661,0.1233,0.38041,-1.25743808295,-9.539556080599999,1.8936837282999999,-2.555427,1.336872,2.967172,0.0006369999999999987,0.00602999999999998,-0.0008197,0.0010985634418940737,0.0006363233538360102,4.595684843200498e-05
1504199078.12,-1.0,1.1347470847999999,-0.0459147353,-0.26021945775,0.039633,0.119971,0.381511,-1.2960566706499999,-9.534034936649999,1.89545873195,-2.541844,1.334455,2.954456,0.0005440000000000028,0.006259999999999988,-0.0008525599999999999,0.0005329470005155379,0.0006339129489554285,0.0004024788465868401
1504199078.13,-1.0,1.1591852566,-0.07491299935,-0.24395022539999997,0.057757,0.117678,0.37831,-1.3076285176499998,-9.5328679453,1.8933993354499998,-2.537189,1.333946,2.950425,0.000448999999999998,0.006460000000000021,-0.00088434,-1.7708161572205228e-05,0.0006024800772024275,0.0007918550542993508
1504199078.14,-1.0,1.1692861061,-0.0404622379,-0.23948819965,0.076963,0.116444,0.374043,-1.31921997795,-9.5312596547,1.8934385620499998,-2.533061,1.333249,2.946911,0.00035700000000000315,0.006659999999999999,-0.0009122,-0.0003265174562445683,0.0005558921632731195,0.0012356378209451568
1504199078.15,-1.0,1.17920062925,0.012846711499999998,-0.25036377449999997,0.099378,0.11625,0.36978,-1.33092911805,-9.5292002582,1.8956254449999999,-2.529454,1.332357,2.943952,0.0002710000000000004,0.006830000000000003,-0.000926,-0.00040694595070034367,0.000496487764125586,0.0018158215714694226
1504199078.16,-1.0,1.1718750616999998,0.01083634825,-0.26171006854999995,0.125046,0.119231,0.36018,-1.3423146387,-9.52673878905,1.8999403709999998,-2.526515,1.331299,2.941716,0.00019500000000000073,0.006989999999999996,-0.0009177,-0.0005171855159358252,0.00048624703444910544,0.0025582915915769444
1504199078.17,-1.0,1.1587145373999999,-0.04423779815,-0.26643687385,0.147446,0.112651,0.348457,-1.3526410411499998,-9.52403215365,1.9061675937499998,-2.524443,1.330139,2.940317,3.999999999999837e-05,0.007069999999999965,-0.0008827000000000002,-0.0008375265792293085,0.0004147109645638025,0.0033829603339796677
1504199078.18,-1.0,1.1439947557499999,-0.15287586685,-0.25898381984999996,0.169882,0.109269,0.334594,-1.3614179928999999,-9.521188225149999,1.9141207868999999,-2.523358,1.328924,2.939905,-1.8999999999998185e-05,0.00721000000000005,-0.0008305999999999999,-0.001069981729293401,0.0008189900348971602,0.003931525954631532
1504199078.19,-1.0,1.1227927784499998,-0.3039473101,-0.22642574184999997,0.191322,0.11123,0.315384,-1.3701459114,-9.51781473755,1.9246629356499998,-2.522934,1.32749,2.940186,-7.800000000000168e-05,0.007359999999999978,-0.0007629000000000004,-0.0009444144583898861,0.001084273439836192,0.004243116009606029
1504199078.2,-1.0,1.1068471655499998,-0.4241964524,-0.1745387567,0.208473,0.111096,0.29724,-1.37829523755,-9.51399014405,1.9377253934499998,-2.523327,1.325876,2.941338,-0.0001439999999999983,0.007500000000000007,-0.0006839999999999997,-0.00042990641087081727,0.001135562623613362,0.004245176531361139
1504199078.21,-1.0,1.0997373443,-0.5428176908,-0.1711064292,0.226651,0.10669,0.280172,-1.38539525215,-9.509989030849999,1.9522392354499998,-2.524423,1.324199,2.943196,-0.00021300000000000485,0.00764999999999999,-0.0005947999999999995,0.0003857578016592811,0.0008206377309374346,0.004038843695736372
1504199078.22,-1.0,1.10535655475,-0.6084634058999999,-0.21190209319999997,0.248057,0.104389,0.260973,-1.3908673628500001,-9.50598791765,1.96775335575,-2.526296,1.322535,2.945843,-0.00027299999999999547,0.007840000000000014,-0.0004980000000000002,0.0011360769200929877,9.945279385492611e-05,0.0037458974556102698
1504199078.23,-1.0,1.1011495019,-0.6369517241499999,-0.25404126825,0.265241,0.107452,0.240689,-1.3947409895999998,-9.50204564435,1.9840029747999999,-2.52886,1.320902,2.949246,-0.0003100000000000047,0.008050000000000002,-0.00039880000000000037,0.0016158582047025583,-0.0008921580964620368,0.0033892449546977232
1504199078.24,-1.0,1.10337561145,-0.6534661227499999,-0.27283080964999995,0.28134,0.107339,0.221504,-1.4183554028,-9.4933079192,2.00892167245,-2.526831,1.317326,2.948266,-0.0003130000000000008,0.00824999999999998,-0.00030469999999999976,0.001821755310987827,-0.0018854332220044068,0.002979229458433097
1504199078.25,-1.0,1.12598974635,-0.65250507105,-0.2906887193,0.290012,0.110488,0.199098,-1.44007713255,-9.4845407741,2.03471316195,-2.52568,1.313785,2.948231,-0.00027299999999999547,0.008450000000000013,-0.00021900000000000044,0.0018511399031546638,-0.0025077092225493924,0.002501853189394887
1504199078.26,-1.0,1.1249894680499999,-0.6904469998999999,-0.2936699409,0.291236,0.114766,0.174543,-1.4595825593999998,-9.47594034205,2.0607400110499996,-2.525333,1.310355,2.949048,-0.00018900000000000167,0.008649999999999991,-0.00013870000000000028,0.0019433385467695352,-0.0025288015630140492,0.0018849532043311301
1504199078.27,-1.0,1.09919797855,-0.7198963698499999,-0.2654856288,0.282833,0.119106,0.152076,-1.4542869684,-9.4729689271,2.0780487483,-2.53098,1.309184,2.955741,-0.0003259999999999999,0.008630000000000027,3.449999999999981e-05,0.00206253347649632,-0.002203586994749207,0.0013034570384095057
1504199078.28,-1.0,1.09266674965,-0.7766082268,-0.23996872549999998,0.268096,0.128843,0.127483,-1.4696049557,-9.4653393534,2.1019181344,-2.531422,1.306191,2.957501,-0.00016999999999999654,0.008829999999999949,0.00012610000000000052,0.002249605699228052,-0.0012886080571619107,0.0005454534249882403
1504199078.29,-1.0,1.0875378717,-0.85771902895,-0.22244424194999998,0.250126,0.136473,0.106091,-1.48303025955,-9.4582981787,2.1240419368,-2.532069,1.303461,2.959582,1.9999999999950613e-06,0.009020000000000028,0.0002198000000000009,0.0022246391676374877,-0.00020034659182721626,-0.0002125230623234442
1504199078.3,-1.0,1.0926177164,-0.9099492468499999,-0.20208563655,0.223624,0.145237,0.085749,-1.4946903664,-9.45201211605,2.1437827232499997,-2.532734,1.301043,2.96175,0.00016900000000000248,0.009220000000000006,0.00031020000000000006,0.0015943583722863863,0.0005051977533658825,-0.0007249782677747341
1504199078.31,-1.0,1.08976398125,-0.8838047179499999,-0.1929360321,0.199238,0.156096,0.069645,-1.4804707239,-9.45211018255,2.1531873006,-2.539259,1.301081,2.969665,0.0003140000000000018,0.00936999999999999,0.0003888999999999993,0.0007107532475507661,0.0010214494141169705,-0.0011459574278768203
1504199078.32,-1.0,1.14383784935,-0.7682725743,-0.23100544739999998,0.173756,0.163778,0.056779,-1.4896497483,-9.447334344,2.16776978915,-2.539523,1.29926,2.971622,0.0004139999999999977,0.009479999999999988,0.0004491,-0.0002585197282494178,0.0014789571021736059,-0.0015967801696517014
1504199078.33,-1.0,1.1703844508999999,-0.60317762155,-0.27571396475,0.152548,0.171427,0.042852,-1.49779907445,-9.443195937699999,2.18014578145,-2.539635,1.297691,2.973503,0.000452000000000001,0.009510000000000018,0.0004923000000000002,-0.0010303298042404485,0.0017761792289063827,-0.0021787432107609472
1504199078.34,-1.0,1.1683937009499998,-0.5331091072999999,-0.31608794279999997,0.129171,0.172703,0.025731,-1.5044774030999999,-9.4397832235,2.1902956641999998,-2.539724,1.296404,2.975401,0.00042500000000000177,0.009459999999999968,0.0005322,-0.0014877760357911995,0.001742112886450764,-0.0027323624784071354
1504199078.35,-1.0,1.1138589203,-0.62543871705,-0.3065362657,0.097285,0.176168,0.003221,-1.4828635465,-9.4438235633,2.1876282554,-2.545894,1.297928,2.983175,0.0003439999999999971,0.00932000000000005,0.0005802999999999997,-0.001461944451070618,0.0014961709897902686,-0.0031006468018677236
1504199078.36,-1.0,1.0455261831,-0.85326680985,-0.24602923519999997,0.051523,0.173377,-0.024606,-1.48501120285,-9.44269579855,2.19101154965,-2.545939,1.297503,2.985034,0.00023100000000000204,0.009079999999999977,0.0006478000000000005,-0.0009538608785408798,0.0013313207842708952,-0.0031039990866958966
1504199078.37,-1.0,0.9384375651,-1.0924019701,-0.12775122954999998,0.000452,0.174879,-0.053546,-1.4615635027,-9.44852094865,2.18167561885,-2.551336,1.299711,2.99204,-2.3000000000002185e-05,0.008730000000000016,0.0007006,-0.00023245359838153234,0.0012756966009455084,-0.002722786197999816
1504199078.38,-1.0,0.8860308275,-1.3242704026999998,0.04876847045,-0.058146,0.167932,-0.081387,-1.458248855,-9.45054111855,2.17514438995,-2.551002,1.30048,2.993465,-0.00016200000000000242,0.008399999999999963,0.0007960999999999997,0.0009455139370959653,0.0019278124239427985,-0.001727812679198637
1504199078.39,-1.0,0.8534825561499999,-1.5073801715000001,0.20203660329999998,-0.12318,0.156775,-0.109233,-1.4520314389,-9.4543166788,2.1628370442,-2.550353,1.301928,2.994445,-0.0003060000000000007,0.008069999999999966,0.000879,0.00202783708158516,0.0024387265865009056,-0.0009150950514149603
1504199078.4,-1.0,0.8008894921999999,-1.60941836475,0.33294557415,-0.19353,0.144602,-0.142423,-1.4425287950499999,-9.460024149099999,2.14415537595,-2.549374,1.304128,2.994957,-0.000444999999999994,0.0077600000000001,0.0009273999999999999,0.002915865427701725,0.0026463651706034597,-0.000520318859053126
1504199078.41,-1.0,0.752954587,-1.62057833245,0.43573887944999995,-0.259629,0.13239,-0.172403,-1.42991744315,-9.46756546295,2.1191778384,-2.548015,1.307062,2.994958,-0.000566000000000004,0.007509999999999906,0.00093201,0.0033882708253836213,0.0023218128622919387,-0.0006413037141661526
1504199078.42,-1.0,0.6967624825,-1.50079990935,0.4848996158999999,-0.319244,0.129716,-0.203456,-1.41412873665,-9.47676410065,2.088424184,-2.546383,1.310685,2.994617,-0.0006530000000000008,0.007310000000000039,0.00089802,0.003273688900001126,0.0014630864366156349,-0.0010865891570401853
1504199078.43,-1.0,0.67896341275,-1.2802287375499999,0.47889794609999997,-0.363996,0.120522,-0.230203,-1.39543726175,-9.4872474095,2.0531202439999996,-2.544645,1.314873,2.994088,-0.0006909999999999972,0.007199999999999984,0.00084197,0.0026677560723187277,0.00031512757303353567,-0.0016828500033786442
1504199078.44,-1.0,0.71281596855,-1.0410543506999999,0.43974979929999997,-0.392813,0.107991,-0.248376,-1.3745196773,-9.49851525035,2.0147566292,-2.542897,1.319453,2.993437,-0.000670999999999998,0.007120000000000015,0.0007834999999999999,0.0018220444807162117,-0.000761624539671768,-0.0022592559241213506
1504199078.45,-1.0,0.7577794587999999,-0.8298191097,0.37100518279999994,-0.407813,0.092144,-0.261183,-1.35183689585,-9.51014593725,1.974863177,-2.54133,1.324265,2.99281,-0.0006040000000000004,0.007070000000000021,0.0007341000000000001,0.0008903764188041841,-0.0015322751783215516,-0.0026165163877048814
1504199078.46,-1.0,0.79295591235,-0.6675190522,0.31445023225,-0.408982,0.074048,-0.269692,-1.32790866985,-9.52175701085,1.9347539784999999,-2.540088,1.329164,2.992349,-0.0005110000000000045,0.007039999999999935,0.0007063,5.554884767833279e-05,-0.0019500953875306593,-0.002671909228229463
1504199078.47,-1.0,0.7921419604,-0.56761870865,0.26913370259999997,-0.400571,0.054804,-0.275,-1.288789943,-9.534417395999998,1.8985184067499998,-2.54521,1.334619,2.997908,-0.0005469999999999989,0.006890000000000063,0.0007232000000000002,-0.000626936435383918,-0.0021417054894048437,-0.0024688471513247823
1504199078.48,-1.0,0.79260287295,-0.52295922455,0.24953020924999997,-0.382586,0.034412,-0.277067,-1.2630572934,-9.54525374425,1.8609589372499997,-2.545295,1.339391,2.998421,-0.0004730000000000012,0.006830000000000003,0.0007226999999999997,-0.0007302797552120044,-0.002270951165766144,-0.002349716928806811
1504199078.49,-1.0,0.80127195155,-0.5787394497499999,0.2654856288,-0.360346,0.015046,-0.27486,-1.2370108309999999,-9.555472273549999,1.8257040304999999,-2.546091,1.343977,2.999448,-0.0004159999999999997,0.006739999999999968,0.0007171,-0.0006094248894077392,-0.002294859642349767,-0.0020186791218316236
1504199078.51,-1.0,0.78193323775,-0.6902802868499999,0.29165957765,-0.334911,-0.004348,-0.271579,-1.2109447553,-9.564974917399999,1.7930871125999999,-2.54761,1.348331,3.001018,-0.0003830000000000014,0.006630000000000025,0.0007023000000000003,-0.0002379529104106215,-0.0021891315219524365,-0.0014105560997593747
1504199078.52,-1.0,0.76898845975,-0.7915437547499999,0.325188514,-0.309518,-0.02694,-0.264046,-1.1686682871499998,-9.5750561536,1.76718774995,-2.557304,1.353035,3.010379,-0.0003809999999999994,0.006530000000000036,0.0006761999999999992,0.0003597925706622096,-0.002126242226706987,-0.00048097953443193564
1504199078.53,-1.0,0.7154343441,-0.8685357639,0.31339111405,-0.286186,-0.043119,-0.261842,-1.1429454442,-9.5831956731,1.7396408701,-2.560311,1.356915,3.013065,-0.00041899999999999576,0.006449999999999956,0.0006358000000000006,0.0007926718997017801,-0.0023013822185620203,0.0007278406803234994
1504199078.54,-1.0,0.6270175876999999,-0.8530510635499999,0.33029777865,-0.255385,-0.064678,-0.268155,-1.1163301961,-9.59075660025,1.7150948251499998,-2.564594,1.360577,3.016834,-0.0004900000000000043,0.006399999999999961,0.0005846999999999996,0.000984051509492767,-0.002654348684393737,0.002002463301921553
1504199078.55,-1.0,0.5175557604,-0.7064514527,0.37148570864999997,-0.242638,-0.074369,-0.272385,-1.0890284824999998,-9.5978860348,1.6926081766999999,-2.569873,1.36409,3.021474,-0.0005839999999999942,0.006360000000000032,0.0005307999999999997,0.0008894911306800424,-0.0030549210781734004,0.0030011950116674013
1504199078.56,-1.0,0.3478418755,-0.5216353268,0.31701957455,-0.253318,-0.089173,-0.292672,-1.0500960819999998,-9.6052410223,1.6754073125999998,-2.581723,1.367777,3.032477,-0.000685000000000005,0.006360000000000032,0.0004693000000000006,0.000618209011919113,-0.003382536289411542,0.003562354454591521
1504199078.57,-1.0,0.36950476534999993,-0.15114989645,0.1796970546,-0.24598,-0.114792,-0.307558,-1.01907764805,-9.612556783199999,1.6524597515999997,-2.588982,1.371509,3.038785,-0.000781999999999998,0.006360000000000032,0.0003998999999999999,0.0003126402890702984,-0.003575031788638716,0.003716678583045363
1504199078.58,-1.0,0.28679547925,0.1548862301,0.14559933255,-0.21612,-0.127807,-0.325629,-0.9861959506,-9.6194606648,1.6321011462,-2.598053,1.375098,3.046759,-0.0011000000000000038,0.006249999999999978,0.00039780000000000024,-0.0002626053034728848,-0.003716561806059948,0.003699380896175941
1504199078.59,-1.0,0.22935793019999998,0.44197590884999993,0.14720762315,-0.177742,-0.14515,-0.34688,-0.9509116239,-9.6258349873,1.6153710013,-2.60955,1.37847,3.057038,-0.0011679999999999954,0.006259999999999932,0.0003149999999999993,-0.00044004405516373524,-0.0038512883902881434,0.0033088545804417224
1504199078.6,-1.0,0.18966061099999998,0.6669110398999999,0.006021283099999999,-0.13411,-0.174254,-0.37024,-0.9097138872499999,-9.631405164499999,1.6058781641,-2.626176,1.381463,3.072185,-0.0012059999999999987,0.006280000000000063,0.00023500000000000083,-0.0008148300440975476,-0.004044397420239765,0.0031413480256492488
1504199078.61,-1.0,0.12628023205,0.8329376244,-0.17189096119999997,-0.081996,-0.210887,-0.395703,-0.86893783655,-9.63641636265,1.5983858834999998,-2.643651,1.384197,3.087912,-0.0012069999999999997,0.006309999999999927,0.00016000000000000042,-0.0011611493816103824,-0.004273808411648039,0.0030162744810399156
1504199078.62,-1.0,0.07047058689999999,0.9383394986,-0.23976278584999997,-0.015989,-0.248693,-0.427544,-0.8246411985,-9.64051554235,1.59712082565,-2.664967,1.386465,3.107167,-0.0011640000000000053,0.006340000000000012,8.5e-05,-0.0014657517524740982,-0.0044523850765090245,0.0029106586988945082
1504199078.63,-1.0,0.031626446249999995,1.03427795555,-0.18847400635,0.040403,-0.285359,-0.455134,-0.7769710728499999,-9.64367328365,1.60194569745,-2.690002,1.388231,3.129823,-0.0010789999999999966,0.006350000000000078,1.2999999999999123e-05,-0.0017296210003505674,-0.004509127158150106,0.0027518958033285745
1504199078.64,-1.0,-0.04774857885,1.0214018240999998,-0.0705686534,0.082841,-0.332567,-0.48273,-0.7257313266,-9.646066106249998,1.6115366011499999,-2.71846,1.38958,-3.127691,-0.0009580000000000005,0.006359999999999921,-6.399999999999982e-05,-0.0019228616359472372,-0.00441994883419361,0.002569954848072431
1504199078.65,-1.0,-0.1089714948,0.9562366348499999,0.03672590425,0.094336,-0.377392,-0.506114,-0.6715397786999999,-9.64808627615,1.62291231515,-2.749257,1.390726,-3.100121,-0.0008150000000000032,0.006360000000000032,-0.0001460000000000003,-0.0020189761582494192,-0.0041464407471323295,0.0024098745119877085
1504199078.66,-1.0,-0.23651678469999998,0.8228171616000001,0.13022250535,0.092124,-0.401858,-0.529557,-0.6144650757,-9.649939733,1.6344547422,-2.781991,1.391785,-3.070875,-0.0006659999999999999,0.006349999999999967,-0.00023199999999999957,-0.0019999137638966324,-0.003754138173643229,0.0022413370502130103
1504199078.67,-1.0,-0.32009886265000004,0.63704979065,0.22620999555,0.10262,-0.438151,-0.552958,-0.5546837373,-9.651518603649999,1.6464973083999999,-2.816647,1.392688,-3.039991,-0.0005150000000000016,0.006360000000000032,-0.00032000000000000084,-0.00189629615919773,-0.0033370087271020754,0.002064985545736975
1504199078.68,-1.0,-0.3980715368,0.5205075620499999,0.28373580444999996,0.114196,-0.47232,-0.575291,-0.49332352825,-9.652293328999999,1.6614034164,-2.852956,1.393136,-3.007794,-0.0003569999999999962,0.006440000000000001,-0.0004393999999999995,-0.0019531114607975741,-0.0029603748753466164,0.002248194136775794
1504199078.69,-1.0,-0.51846777885,0.38714692869999995,0.34808704175,0.109793,-0.505291,-0.600859,-0.42754052004999993,-9.6531563142,1.6745639407,-2.89162,1.393636,-2.97357,-0.00022300000000000098,0.006460000000000021,-0.0005153999999999992,-0.0019070227739312884,-0.002437067040232499,0.0017415371696813953
1504199078.7,-1.0,-0.6145337222499999,0.34124200005,0.26150412889999997,0.094864,-0.522187,-0.629674,-0.35870764369999997,-9.6539408462,1.6861750143,-2.931981,1.394088,-2.937835,-8.899999999999186e-05,0.006510000000000016,-0.0005833000000000001,-0.0019676612374674995,-0.002013986410970503,0.0015893174232529672
1504199078.71,-1.0,-0.7049216153,0.34650817109999993,0.18360010129999998,0.070412,-0.52516,-0.652127,-0.28732503834999995,-9.65471557155,1.69540307195,-2.973716,1.394537,-2.900787,3.899999999999737e-05,0.006569999999999965,-0.0006473,-0.0021241264424309847,-0.0016359276272488454,0.0014481186749282227
1504199078.72,-1.0,-0.7490809602499999,0.34647875115,0.19412263675,0.040521,-0.538746,-0.670299,-0.21533442069999997,-9.655431456999999,1.70193430085,-3.015737,1.394959,-2.863521,0.00015899999999999248,0.006639999999999979,-0.0007056000000000007,-0.002237423137868788,-0.0013532892944132513,0.0012830476613916453
1504199078.73,-1.0,-0.7754706553999999,0.395992527,0.18800328715,0.012773,-0.54703,-0.682074,-0.14046064795,-9.6563140555,1.70475861605,-3.059387,1.395474,-2.82475,0.00026600000000000235,0.006720000000000059,-0.0007593000000000001,-0.0022908368899916542,-0.0012065541953629744,0.0010961836637400912
1504199078.74,-1.0,-0.7949466622999999,0.41323261769999997,0.24031195824999999,0.002102,-0.545879,-0.67996,-0.06532209565,-9.6569416811,1.7057294744,-3.103315,1.395842,-2.785688,0.0003620000000000012,0.006809999999999983,-0.0008066999999999996,-0.002317414757188496,-0.0010896121242751633,0.0009792493463923746
1504199078.75,-1.0,-0.77440173055,0.3155191571,0.279097259,-0.010905,-0.560708,-0.662878,0.008708305199999999,-9.657245687249999,1.70524894855,3.136487,1.396018,-2.747289,0.00044500000000000095,0.006909999999999972,-0.0008492999999999999,-0.002219150045425611,-0.0009311051887603838,0.0009613527805052424
1504199078.76,-1.0,-0.7491103802,0.35093097025,0.21669754504999997,-0.032526,-0.580801,-0.638328,0.079629998,-9.657343753749998,1.7028463192999999,3.094865,1.396077,-2.710867,0.0005169999999999966,0.006990000000000052,-0.0008913000000000003,-0.0021233272032070705,-0.0007325986361546022,0.0009938330632265346
1504199078.77,-1.0,-0.7285850617499999,0.5739439979,0.20578274359999998,-0.047569,-0.57538,-0.608476,0.14904146669999999,-9.657392787,1.6979037676999997,3.054038,1.396106,-2.675279,0.00033600000000000296,0.007029999999999981,-0.0009957,-0.002227683351219145,-0.0007206413331997119,0.001150511830139811
1504199078.78,-1.0,-0.80825428635,0.63438238185,0.31241044905000004,-0.055163,-0.573216,-0.579673,0.21554036034999996,-9.6572358806,1.6916863515999998,3.014862,1.396009,-2.641311,0.0003840000000000024,0.00712999999999997,-0.0010539000000000002,-0.00221702152745773,-0.0005013208467641306,0.001200980692189768
1504199078.79,-1.0,-0.8490009170999999,0.64097245065,0.3447037475,-0.055252,-0.568979,-0.555131,0.27947971834999996,-9.656794581349999,1.68483150325,2.97721,1.395751,-2.608858,0.0004239999999999938,0.007229999999999959,-0.00111873,-0.0021324690608366392,-0.0001454927713191445,0.001171651060317691
1504199078.8,-1.0,-0.9169119683499999,0.56844246725,0.25644389749999996,-0.049033,-0.573323,-0.525223,0.3390158905,-9.65593159615,1.6788200268,2.942337,1.395249,-2.579219,0.000455000000000004,0.007330000000000059,-0.00118489,-0.0020648230809685586,-4.6974382986286756e-05,0.00124472906960027
1504199078.81,-1.0,-0.9981600636,0.5037872238,0.12120038735,-0.037329,-0.565979,-0.50707,0.39796366364999997,-9.6547253782,1.6727987437,2.908035,1.394546,-2.550158,0.00047599999999999726,0.007429999999999937,-0.00124508,-0.0018972615754559996,-6.470483419240836e-05,0.0013350761085084706
1504199078.82,-1.0,-1.0742400543,0.5417977991999999,0.0773156286,-0.036208,-0.5447,-0.483622,0.45444016099999995,-9.653234767399999,1.6670128201999999,2.875449,1.393681,-2.522649,0.0004900000000000043,0.007520000000000082,-0.0012935,-0.0015318284565772888,-0.00022100645163125598,0.0014025614722171786
1504199078.83,-1.0,-1.1479664489999999,0.5237339499,0.14040180805,-0.054361,-0.533916,-0.463392,0.5087199687499999,-9.6517833832,1.6597362859,2.844179,1.392841,-2.496341,0.0005019999999999955,0.00761999999999996,-0.0013262999999999999,-0.0010813580231081588,-0.0004992073646989947,0.0014742252869146544
1504199078.84,-1.0,-1.18845810685,0.4515766192,0.16731125565,-0.089512,-0.510209,-0.436802,0.55398746515,-9.65085175145,1.6506357147,2.817783,1.392305,-2.474671,0.0005190000000000056,0.00772000000000006,-0.0013461000000000002,-0.0005762057609555171,-0.0007779204436915155,0.0015824510748689846
1504199078.85,-1.0,-1.2230657746999998,0.5111422113,0.2081363396,-0.1182,-0.476967,-0.407013,0.59428299,-9.6504104522,1.6391423208999998,2.793773,1.392054,-2.455055,0.0005489999999999939,0.007839999999999958,-0.001353,-7.275963484865144e-05,-0.0010175402171108683,0.001721200536326073
1504199078.86,-1.0,-1.21925098785,0.4702680940999999,0.27368398819999995,-0.139387,-0.440587,-0.378278,0.6263899621,-9.65038103225,1.62730569435,2.774152,1.392038,-2.439444,0.0005990000000000023,0.007939999999999947,-0.0013510999999999992,0.0004431253723895523,-0.0011794744630038156,0.001883494137325581
1504199078.87,-1.0,-1.17151221565,0.49219576349999994,0.2679961312,-0.154268,-0.411725,-0.342042,0.6513773062999999,-9.6507634916,1.6151846749499998,2.758262,1.392257,-2.427262,0.000673,0.008070000000000022,-0.0013427000000000005,0.0008446788308580366,-0.0012061428418355113,0.002076502675900649
1504199078.88,-1.0,-1.16119561985,0.5168889082,0.19700579184999997,-0.168072,-0.38074,-0.304736,0.6682839708999999,-9.6518226098,1.6019358907999999,2.746369,1.392862,-2.418757,0.0007250000000000034,0.008160000000000056,-0.0014663999999999996,0.0011809653412930832,-0.001147395723920308,0.002516945781840474
1504199078.89,-1.0,-1.1546251643499998,0.5899092240999999,0.14448137444999998,-0.185057,-0.343343,-0.261038,0.6772864756,-9.653617226749999,1.58727494905,2.738285,1.3939,-2.413728,0.0008269999999999944,0.00829000000000002,-0.0014530000000000012,0.0011558627526337961,-0.0008277733729267212,0.0024123613271095357
1504199078.9,-1.0,-1.13873839135,0.7205239954499999,0.12606448574999998,-0.196694,-0.30173,-0.213065,0.6783063671999999,-9.655990436049999,1.5723296144499999,2.73431,1.395281,-2.4124,0.0009350000000000053,0.008439999999999892,-0.0014359999999999998,0.0010522438169031645,-0.0005373816141045484,0.0025409724924715382
1504199078.91,-1.0,-1.1035815510999998,0.7662327910999999,0.15976013514999998,-0.200959,-0.275091,-0.169318,0.6715790052999999,-9.658599004949998,1.5591298635499997,2.734869,1.396811,-2.415281,0.0010410000000000003,0.008590000000000098,-0.0014079999999999995,0.0007241670622575302,-0.00023129714280023528,0.0026489366883475363
1504199078.92,-1.0,-1.1010122087999998,0.6116015338999999,0.18959196444999998,-0.211605,-0.24733,-0.127716,0.65719264975,-9.6616880997,1.5460575990999998,2.739659,1.398641,-2.422135,0.0011409999999999962,0.00873999999999997,-0.0013659999999999992,0.0003982178346226828,1.3653049644624105e-05,0.002711543223180901
1504199078.93,-1.0,-1.0571764833,0.5631959095,0.21856080855,-0.223259,-0.215424,-0.083969,0.6384913682,-9.66505178065,1.5327892016499998,2.7469,1.400657,-2.431179,0.001229000000000001,0.008909999999999973,-0.0013039999999999996,0.0002022914915156271,0.00012023243278180828,0.0026906462851608026
1504199078.94,-1.0,-1.03955393325,0.4863706134,0.26078824344999996,-0.227484,-0.183457,-0.039162,0.6150338613999999,-9.66858217465,1.5200503633,2.757113,1.402798,-2.442917,0.0013029999999999986,0.009070000000000022,-0.0012270000000000024,0.00026200025536926574,6.378486757818713e-05,0.0025920300440619437
1504199078.95,-1.0,-1.02511854445,0.39986615374999995,0.29065929934999996,-0.223181,-0.155816,0.000331,0.5875850480499999,-9.6721616019,1.50813528355,2.770078,1.404991,-2.457151,0.0013649999999999982,0.00924999999999998,-0.001129999999999999,0.00067244859097082,-9.182816020270046e-05,0.002538860458603742
1504199078.96,-1.0,-1.00197485045,0.26169045525,0.28858028955,-0.213505,-0.123957,0.038756,0.5568019737,-9.67583909565,1.49615155725,2.785319,1.407281,-2.473411,0.0014110000000000025,0.00943000000000005,-0.0010000000000000009,0.001314561792036928,-0.00034257426980355277,0.002682552602013888
1504199078.97,-1.0,-0.9914915416,0.03831458155,0.27247777025,-0.197476,-0.098543,0.076136,0.5226748317,-9.6796146559,1.48397169795,2.802945,1.409665,-2.491833,0.0016540000000000027,0.009629999999999916,-0.0009209999999999982,0.0019726071552963464,-0.0007404097478531657,0.003113012562149464
1504199078.98,-1.0,-1.02133317755,-0.2338297626,0.291061372,-0.187774,-0.063496,0.112382,0.5137605868499999,-9.6829489169,1.4652311898,2.804353,1.411796,-2.49401,0.0016660000000000008,0.009820000000000051,-0.0007230000000000014,0.00234521307203428,-0.001201620078212562,0.0034468940545547833
1504199078.99,-1.0,-1.07344571565,-0.5094750807999999,0.2911594385,-0.173853,-0.04126,0.137985,0.5016787940499999,-9.68623414465,1.4476380596999998,2.807994,1.413923,-2.498163,0.0016629999999999978,0.010009999999999963,-0.0004989999999999994,0.0024387526546596483,-0.001822332219558298,0.003945329076605386
1504199079.0,-1.0,-1.0156943537999998,-0.6451402769,0.33904531044999997,-0.149326,-0.020187,0.174282,0.4859783474,-9.68927420615,1.4325162054,2.814529,1.415925,-2.505036,0.0016479999999999967,0.010180000000000078,-0.0002610000000000008,0.0023273424029304213,-0.0025442136203099874,0.0044105669555017935
1504199079.01,-1.0,-1.0417408162,-0.8556498257999999,0.49285280905,-0.138572,0.008473,0.205242,0.43810228209999996,-9.692157361249999,1.4284954788999997,2.844011,1.417838,-2.534382,0.001466000000000002,0.011039999999999939,0.0001799999999999996,0.002154404316973002,-0.0032830449470193646,0.004853900287071222
1504199079.02,-1.0,-1.0005136596,-0.8879235109499999,0.5981860366999999,-0.135319,0.032925,0.234024,0.41573331345,-9.695050323,1.41548205435,2.855923,1.419787,-2.546154,0.001361000000000001,0.011519999999999975,0.0005090000000000025,0.0019370353215775182,-0.0038305219406402635,0.0052622883959483335
1504199079.03,-1.0,-0.9807630665,-0.8994070981,0.6446695577,-0.128878,0.055221,0.261748,0.39029486334999997,-9.697923671449999,1.4029785756,2.870264,1.421749,-2.560147,0.001361000000000001,0.011580000000000035,0.0006929999999999992,0.0017066510298153759,-0.0040559932932260345,0.005434598619906916
1504199079.04,-1.0,-0.9435370230999999,-0.91757882055,0.7076086373999999,-0.107446,0.079532,0.282023,0.36234591085,-9.70055185365,1.3922501005,2.886984,1.423565,-2.5763,0.0013880000000000003,0.011580000000000035,0.0008289999999999999,0.001207221573164663,-0.0039016950625336833,0.005141135939171537
1504199079.05,-1.0,-0.9387807978499999,-0.98347950855,0.7013127680999999,-0.074288,0.100553,0.299122,0.33229833524999997,-9.702738736599999,1.3844832337,2.906034,1.425094,-2.594599,0.0014389999999999958,0.01152999999999993,0.0009319999999999988,0.00013645599597333913,-0.003561776574035891,0.004263488877586208
1504199079.06,-1.0,-0.95711923335,-1.17249288065,0.6378049026999999,-0.037955,0.113033,0.307702,0.30111318825,-9.704366640499998,1.3802075343,2.926797,1.426241,-2.614475,0.0015110000000000054,0.01144999999999996,0.0010240000000000006,-0.00142159304775058,-0.0034078206306211722,0.0028842436891131085
1504199079.07,-1.0,-1.00642706955,-1.4225526489999998,0.5941751168499999,-0.00048,0.130837,0.309871,0.2693102223,-9.705396338749999,1.3795406820999998,2.948801,1.426971,-2.635423,0.0015939999999999982,0.011300000000000088,0.001118000000000001,-0.0029014282889423537,-0.0035285163382248186,0.0013094774679071053
1504199079.08,-1.0,-1.062060195,-1.6475172,0.6240755927,0.034897,0.146538,0.301365,0.2378504891,-9.70578860475,1.3825611302999998,2.971221,1.42725,-2.656632,0.0016299999999999995,0.010499999999999954,0.002097999999999999,-0.0038118908976751964,-0.003361180022845689,-0.00022235182143526266
1504199079.09,-1.0,-1.1180757798,-1.7958133613,0.6610662764999999,0.064903,0.153766,0.286461,0.20753813395,-9.705631698349999,1.3885235734999999,2.993227,1.42714,-2.677349,0.0017809999999999979,0.010699999999999932,0.0013100000000000004,-0.003659646444148512,-0.003797761904213548,-0.0012311366421653425
1504199079.1,-1.0,-1.1557333157999998,-1.8786697471499998,0.7023718863,0.082143,0.164298,0.269394,0.17860851644999998,-9.7050727193,1.3964473466999998,3.014384,1.426741,-2.697098,0.0018419999999999999,0.010300000000000198,0.0013880000000000003,-0.002637283223382303,-0.0039008883339983758,-0.001957892751607848
1504199079.11,-1.0,-1.16749148915,-1.96922435325,0.7475707361499999,0.099406,0.176962,0.251255,0.15130680284999998,-9.7041508942,1.4060186370999999,3.034393,1.42609,-2.715564,0.0018770000000000002,0.009899999999999798,0.001455999999999999,-0.0012136709106900234,-0.003925575955192384,-0.002193465884765655
1504199079.12,-1.0,-1.14456354145,-2.09221935755,0.7891018988999999,0.125165,0.18742,0.237405,0.12537802025,-9.7028171898,1.4177473905,3.053386,1.425147,-2.73289,0.0018830000000000027,0.009400000000000075,0.001516,0.00027750054670927504,-0.0036438526318613995,-0.0019159553060521528
1504199079.13,-1.0,-1.1078376371999998,-2.19834692385,0.78901363905,0.155162,0.196773,0.227834,0.10033183614999999,-9.70098334625,1.4322023926,3.071656,1.423866,-2.749388,0.001854999999999999,0.009100000000000108,0.0015675000000000012,0.0015798984846677744,-0.002986403260501369,-0.0012024953627698398
1504199079.14,-1.0,-1.02381426,-2.1366140621,0.72017095605,0.179819,0.211489,0.227851,0.07526603875,-9.6986787835,1.4492757702499999,3.089706,1.422267,-2.765534,0.001798000000000001,0.00869999999999993,0.0016093999999999995,0.0024908682089037626,-0.00213014802336442,-0.00030493188758240475
1504199079.15,-1.0,-0.8952490784999999,-1.8110528954,0.57271816665,0.204478,0.23046,0.234265,0.04949416255,-9.695932921499999,1.46863409735,3.107906,1.420386,-2.781654,0.0017129999999999992,0.008499999999999952,0.0016359999999999994,0.002898590449585736,-0.0013152018244695363,0.00040098251936560025
1504199079.16,-1.0,-0.7659778181999999,-1.2732169828,0.3986893557499999,0.234429,0.244059,0.240697,0.022731814700000002,-9.69266730705,1.49064021995,3.126346,1.418184,-2.797869,0.0016179999999999996,0.008199999999999985,0.0016455000000000003,0.002982422779276739,-0.000664142316006755,0.0007414066516997497
1504199079.17,-1.0,-0.6144846889999999,-0.6689704364,0.2417535358,0.269761,0.262947,0.247149,-0.020123245799999998,-9.68819547465,1.5194815776,-3.128349,1.415212,-2.823846,0.0015279999999999998,0.008099999999999996,0.0016380000000000001,0.002998502928559521,-0.00014138123727902574,0.0007526965137469865
1504199079.18,-1.0,-0.5277742897,-0.13816589185,0.1061667929,0.302947,0.275463,0.245049,-0.048180071449999994,-9.6835961558,1.5479306692500001,-3.110479,1.412211,-2.839168,0.0019050000000000004,0.007600000000000051,0.00226232,0.00283010417476115,0.0003341938340810646,0.0005146654247752958
1504199079.19,-1.0,-0.5019926068499999,0.2900610937,-0.03866762095,0.336177,0.286925,0.232278,-0.07560927149999999,-9.6783201781,1.57948846895,-3.093763,1.408842,-2.853213,0.0018487999999999994,0.007600000000000051,0.0021980800000000003,0.002463908418207872,0.0008072404930057342,5.790965011309712e-05
1504199079.2,-1.0,-0.5227336716,0.57465988335,-0.16933142555,0.371561,0.296245,0.212042,-0.10140076099999999,-9.67232831495,1.6143805296499998,-3.078861,1.405094,-2.865333,0.0016493999999999997,0.007600000000000051,0.0018446999999999997,0.0019507408832200035,0.001267522067129434,-0.000581587594274513
1504199079.21,-1.0,-0.5549289035499999,0.7159835165,-0.2141968493,0.407991,0.297045,0.182228,-0.13430207175,-9.66565979295,1.65146927995,-3.060451,1.401023,-2.880833,0.0014434,0.007799999999999807,0.0014044,0.001343962291581846,0.00172454406287037,-0.001327722645487972
1504199079.22,-1.0,-0.6103266693999999,0.7096190006499999,-0.21938456714999996,0.434826,0.29473,0.145987,-0.15432725105,-9.65824596555,1.6925689500999999,-3.050666,1.396607,-2.887771,0.0014998,0.007800000000000029,0.0012887000000000003,0.0006607692848865643,0.0022071539813113272,-0.0020251038819999456
1504199079.23,-1.0,-0.651553826,0.6099147900999999,-0.21328483085,0.447786,0.290401,0.107591,-0.17070435655,-9.65042025885,1.73510039115,-3.043523,1.392061,-2.892058,0.0015783000000000004,0.00770000000000004,0.0011633,6.319774342888884e-05,0.002735852534148986,-0.0025255196525258983
1504199079.24,-1.0,-0.6634983256999999,0.46313865954999994,-0.1783045103,0.451166,0.291474,0.073438,-0.18374720105,-9.64235919255,1.7780829380999998,-3.038618,1.387492,-2.894078,0.00166336,0.00770000000000004,0.0010375000000000002,-0.00028263193102517903,0.0033080027185847793,-0.002765710552222078
1504199079.25,-1.0,-0.6195056938,0.37259386009999995,-0.14632502465,0.449168,0.289396,0.0425,-0.20708702804999998,-9.6341117999,1.819721974,-3.028279,1.382935,-2.901385,0.00174069,0.007600000000000051,0.0009201999999999995,-0.0003031356133214036,0.0038701515888373006,-0.0027961681999794097
1504199079.26,-1.0,-0.5622348577999999,0.38582303095,-0.12042566199999999,0.448218,0.289429,0.019016,-0.21482447489999998,-9.62578595405,1.8623612881999998,-3.026747,1.378445,-2.899989,0.00178815,0.007600000000000051,0.0008064000000000005,9.970549282867225e-06,0.004329637651602214,-0.0027117043295508125
1504199079.27,-1.0,-0.48360513809999994,0.4858410543,-0.15428802445,0.448269,0.285183,0.001945,-0.22073788485,-9.61733262175,1.9049025358999998,-3.026226,1.373982,-2.897617,0.00179,0.00749999999999984,0.0006909999999999989,0.00017780371906206405,0.004559050858062852,-0.002642902289422766
1504199079.28,-1.0,-0.40326906129999995,0.63320558385,-0.23957645949999998,0.444065,0.283104,-0.01407,-0.22519991059999997,-9.6087714163,1.9470907441999998,-3.026442,1.369569,-2.894506,0.0019094000000000003,0.00670000000000015,0.0010410000000000003,0.0005850980868031819,0.004581699222513391,-0.002712245222866283
1504199079.29,-1.0,-0.3429581638,0.7065691325,-0.33322016035,0.446214,0.278837,-0.024725,-0.23464371455,-9.600435763799998,1.9867096101999997,-3.024033,1.365358,-2.89398,0.0018214999999999993,0.006799999999999917,0.0009259999999999997,0.0008460279816822069,0.004412284542145706,-0.0028799935836772983
1504199079.3,-1.0,-0.31488172485,0.7211614277,-0.39015757025,0.436664,0.27999,-0.033283,-0.23728170339999996,-9.59167842535,2.02824077295,-3.025132,1.361028,-2.889988,0.0017079999999999994,0.006699999999999928,0.0008200000000000013,0.0009952424571386675,0.003997863594951578,-0.0031798464663091996
1504199079.31,-1.0,-0.29658251594999996,0.7942601967999999,-0.43770020945,0.419621,0.276945,-0.043981,-0.23912535359999998,-9.5830779933,2.0683009382,-3.026491,1.356855,-2.885752,0.001579200000000001,0.006800000000000139,0.000725,0.000989977467851011,0.0033998079936969905,-0.0035985765571499018
1504199079.32,-1.0,-0.29850461935,0.9499505721999999,-0.46298175315,0.407956,0.279183,-0.054679,-0.23990007894999998,-9.57461485435,2.10704701235,-3.028227,1.352827,-2.881126,0.0014509999999999992,0.006699999999999928,0.0006429999999999995,0.0008157735082865436,0.002823053824057009,-0.004000186012741214
1504199079.33,-1.0,-0.2732721089,1.1053369414499998,-0.48320306544999997,0.395208,0.281427,-0.062177,-0.24013543854999997,-9.566289008499998,2.1444789954,-3.03008,1.348938,-2.876341,0.0012450000000000013,0.007300000000000084,0.0002760000000000002,0.0005032459712273063,0.0023935901508553847,-0.004405736004445493
1504199079.34,-1.0,-0.2278477061,1.25665355095,-0.55681178035,0.393078,0.27719,-0.069645,-0.23962549274999997,-9.55794354935,2.1814304526,-3.032185,1.345103,-2.871337,0.0011129999999999994,0.00749999999999984,8.799999999999954e-05,3.8864253776083046e-05,0.0020923787946096617,-0.004807673010811531
1504199079.35,-1.0,-0.1574163458,1.35411203865,-0.6485039578499999,0.3952,0.275043,-0.070705,-0.23897825384999996,-9.5494607971,2.21835248985,-3.034279,1.341269,-2.866357,0.001044999999999999,0.007600000000000051,1.6999999999999654e-05,-0.00040029066852342865,0.00198278081946901,-0.005086513143540472
1504199079.36,-1.0,-0.12274983804999999,1.3642423080999997,-0.7618197985999999,0.397349,0.275028,-0.073904,-0.23817410854999999,-9.540742685249999,2.25565698645,-3.036391,1.337392,-2.861359,0.0010040000000000014,0.007600000000000051,-5.599999999999876e-05,-0.0006891121047953863,0.002051942466313905,-0.005174518317633159
1504199079.37,-1.0,-0.1145024454,1.3453448935499999,-0.88158841505,0.397365,0.275032,-0.077106,-0.23714441029999997,-9.531867666999998,2.2929712896999996,-3.038538,1.333511,-2.856315,0.0009890000000000003,0.00770000000000004,-0.0001310000000000009,-0.0007896730248182493,0.0022397030260283834,-0.0050076044110194395
1504199079.38,-1.0,-0.13222306195,1.22450735225,-0.9316023300499999,0.38879,0.268711,-0.079244,-0.23588915909999997,-9.52295342215,2.3298148737499997,-3.040688,1.329677,-2.851318,0.0011189999999999985,0.008599999999999941,-0.0002959999999999994,-0.000783800324372308,0.0028099583845557774,-0.004643187369680946
1504199079.39,-1.0,-0.1741072641,1.0246380186,-0.8788915862999999,0.359933,0.262555,-0.079283,-0.23455545469999997,-9.51448047655,2.3643440883999998,-3.042711,1.326082,-2.846505,0.001124,0.008499999999999952,-0.0003549999999999994,-0.0007033448359992089,0.0029037238001250465,-0.003650662373491098
1504199079.4,-1.0,-0.19410302345,0.7717637417,-0.7327626946499999,0.307632,0.259789,-0.079369,-0.23311387714999998,-9.50700780925,2.3943328241,-3.04454,1.322958,-2.841929,0.0011150000000000014,0.00869999999999993,-0.00041000000000000064,-0.0007292822014797196,0.0032487650128878443,-0.0027431444532999283
1504199079.41,-1.0,-0.20100690505,0.5023946794999999,-0.6024715427499999,0.241483,0.25927,-0.08055,-0.23174094615,-9.50100613945,2.41817279025,-3.046051,1.320476,-2.837694,0.0010809999999999986,0.008600000000000163,-0.00046299999999999987,-0.0007761524328044889,0.0035194180185185164,-0.002010165776504369
1504199079.42,-1.0,-0.227906546,0.23654620464999998,-0.44746763285,0.177497,0.26513,-0.08066,-0.23926264669999997,-9.49971166165,2.4225367495,-3.043146,1.319942,-2.837715,0.001011999999999999,0.008799999999999919,-0.0005149999999999998,-0.000950800061098267,0.0036538611454244307,-0.0015869708387478143
1504199079.43,-1.0,-0.25894459325,0.0171812508,-0.34859698755,0.113531,0.277368,-0.071186,-0.23889980065,-9.496720633399999,2.4342458895999997,-3.043766,1.318719,-2.834248,0.0009080000000000026,0.008799999999999919,-0.0005710000000000003,-0.0011427124910536879,0.003535929279852912,-0.0015103602800384808
1504199079.44,-1.0,-0.22254230845,-0.05327952945,-0.3811844855,0.051635,0.284257,-0.057429,-0.2399883388,-9.4952496359,2.4398945199999997,-3.043547,1.318115,-2.831549,0.0007740000000000004,0.00890000000000013,-0.0006309999999999996,-0.001252752646615951,0.003080487264825349,-0.0017305834885263938
1504199079.45,-1.0,-0.1313894967,0.0966543424,-0.49836414635,0.005692,0.286749,-0.040435,-0.24270478085,-9.49494562975,2.4408163451,-3.042481,1.317991,-2.829703,0.0006259999999999981,0.008899999999999908,-0.0006960000000000004,-0.0011039889589286034,0.002307514719400494,-0.002068574618259267
1504199079.46,-1.0,-0.09311414174999999,0.30983130009999993,-0.57466969,-0.026393,0.291262,-0.022347,-0.25120714639999997,-9.499966634549999,2.4202910266499997,-3.038171,1.32005,-2.831012,0.00048000000000000126,0.009100000000000108,-0.0007699999999999999,-0.0007402381846945971,0.0013974287741735925,-0.0024267822880243983
1504199079.47,-1.0,-0.06072277679999999,0.4890184089,-0.62463457175,-0.050962,0.298904,-0.004257,-0.25755204895,-9.5010943993,2.4152013752999997,-3.035356,1.320513,-2.830841,0.00028500000000000053,0.008599999999999941,-0.0008026000000000005,-0.00021861036134707135,0.0005523178699597953,-0.0027747933325950047
1504199079.48,-1.0,-0.01324878415,0.56608887125,-0.68616149385,-0.069207,0.302224,0.02239,-0.26627996745,-9.50259481675,2.40834652695,-3.031475,1.321132,-2.831742,0.0009300000000000003,0.008299999999999974,-0.0012256999999999997,0.0002725050491616532,-8.658583956111521e-05,-0.0030127919803858427
1504199079.49,-1.0,0.052730357049999996,0.6182504426,-0.7610744931999999,-0.087473,0.303411,0.050109,-0.27778316789999996,-9.50447769355,2.3996088018,-3.026342,1.321909,-2.833905,0.0008779999999999968,0.008399999999999963,-0.0013252999999999997,0.0005625557928630176,-0.00041741306971054826,-0.003125157027379477
1504199079.5,-1.0,0.10970699355,0.6216043169,-0.77273460005,-0.101489,0.306697,0.078896,-0.28897255555,-9.512175913799998,2.36757047625,-3.020139,1.325115,-2.837158,0.00019700000000000273,0.008500000000000174,-0.0011142,0.0008354727080934765,-0.0004852409044875383,-0.0031930992858404394
1504199079.51,-1.0,0.1292908736,0.6082084329999999,-0.7156500903999999,-0.115483,0.30785,0.105554,-0.3057125071,-9.514490283199999,2.3561261157,-3.01256,1.326089,-2.841806,5.3999999999998494e-05,0.00869999999999993,-0.0011435999999999998,0.0010196810965759084,-0.00034643345602836106,-0.0031966234074308764
1504199079.52,-1.0,0.1471978165,0.58458421315,-0.6804049902999999,-0.129456,0.312199,0.133275,-0.3251100608,-9.51704981885,2.34317153105,-3.003723,1.327167,-2.847704,3.900000000000084e-05,0.00869999999999993,-0.0012195000000000005,0.0011276836380087474,-0.00011743211514070317,-0.0030797760234163585
1504199079.53,-1.0,0.16862534675,0.55681178035,-0.68992724745,-0.142366,0.315474,0.159932,-0.34714560335,-9.5198054875,2.32875575555,-2.993615,1.328336,-2.854876,1.5999999999998654e-05,0.00890000000000013,-0.0012816,0.0011599985021097936,0.00015594371427640752,-0.002809962343715111
1504199079.54,-1.0,0.2064103692,0.5901641969999999,-0.6604190376,-0.147867,0.313364,0.185537,-0.3659253381,-9.526817242249999,2.2970116294999996,-2.983615,1.331331,-2.862021,-2.8999999999997778e-05,0.008999999999999897,-0.001333,0.0011733018183972543,0.0004431156643929235,-0.002466620242748574
1504199079.55,-1.0,0.25303118329999996,0.6965761561499999,-0.631940526,-0.154376,0.316586,0.212205,-0.39279555909999997,-9.529533684299999,2.2812425362999997,-2.971081,1.332502,-2.871665,-9.699999999999986e-05,0.009100000000000108,-0.00137442,0.0012175627769630548,0.0006763011672508146,-0.0021808373436038586
1504199079.56,-1.0,0.29420930665,0.8161878662,-0.6097186571,-0.154466,0.318696,0.23355,-0.42185266304999997,-9.53213244655,2.2651596303,-2.957469,1.333625,-2.882395,-0.0001930000000000022,0.009199999999999875,-0.00140948,0.0014045805616262896,0.0008810389296776133,-0.0019508868891493503
1504199079.57,-1.0,0.34044766139999993,0.90902742175,-0.6151907677999999,-0.149266,0.316498,0.257045,-0.45297897015,-9.5344370093,2.24938073045,-2.942873,1.334629,-2.894146,-0.00030699999999999825,0.009300000000000086,-0.0014338999999999999,0.00174889564564773,0.0010183395708500687,-0.0017273106198747445
1504199079.58,-1.0,0.3781051974,0.9799295012499999,-0.66109569645,-0.131234,0.313136,0.273094,-0.48569395455,-9.53621201295,2.23498456825,-2.927605,1.335404,-2.90663,-0.0008249999999999993,0.010299999999999976,-0.0017082000000000004,0.0022597745293257976,0.001191717262342129,-0.0014030990174906943
1504199079.59,-1.0,0.40622086295,1.0312084740999998,-0.7022738197999999,-0.108971,0.303349,0.285958,-0.5194974770999999,-9.537359390999999,2.2224418629,-2.911966,1.335907,-2.919567,-0.0009670000000000026,0.010399999999999965,-0.0016945999999999992,0.002430218690866237,0.0010087408715586665,-0.0012807148456767115
1504199079.6,-1.0,0.42804065919999995,1.0197739202,-0.7123452493499999,-0.080263,0.295645,0.293493,-0.55388939865,-9.537741850349999,2.21246849985,-2.896286,1.336076,-2.932613,-0.0011049999999999983,0.010599999999999943,-0.0016465000000000013,0.002680206542949204,0.000977633482427409,-0.0011038049715844656
1504199079.61,-1.0,0.43901430055,0.95678580725,-0.69553665125,-0.059067,0.283739,0.303158,-0.5889481724,-9.5374574575,2.2046329865,-2.880547,1.33595,-2.945849,-0.001131,0.010600000000000165,-0.0014835999999999998,0.002926992831533415,0.0010955612468528386,-0.0009216169297892041
1504199079.62,-1.0,0.46113810295,0.85442399455,-0.6532405698,-0.038926,0.270781,0.308553,-0.62424230575,-9.53654543905,2.198847063,-2.864975,1.335552,-2.959036,-0.000952999999999999,0.010099999999999998,-0.0011468,0.0032859121727126794,0.0013250557984874067,-0.0007462854730866386
1504199079.63,-1.0,0.48246756669999996,0.6588695869,-0.57467949665,-0.018772,0.259952,0.315011,-0.6599385117499998,-9.53507444155,2.1948067232,-2.84951,1.334908,-2.972231,-0.0010310000000000007,0.010399999999999965,-0.0009699999999999986,0.0039023995129432443,0.001548182946812915,-0.0007216797294136157
1504199079.64,-1.0,0.50771969045,0.38090009264999997,-0.4941963201,-0.000759,0.247012,0.319335,-0.69581123745,-9.53303465835,2.1925806136499997,-2.834297,1.334021,-2.985297,-0.001081000000000002,0.010599999999999943,-0.0007710000000000009,0.004784217578155614,0.0016240844691080003,-0.001029106422179571
1504199079.65,-1.0,0.49852105274999997,0.06889171625,-0.41272267189999995,0.012958,0.233041,0.323631,-0.7138554734499999,-9.53511366815,2.17769411895,-2.824828,1.334926,-2.992921,-0.0011070000000000003,0.01079999999999992,-0.0005699999999999993,0.005747119502489184,0.0016285565023308468,-0.0017314453050903955
1504199079.66,-1.0,0.49784439389999996,-0.2408709373,-0.33545607655,0.023517,0.221229,0.326872,-0.7498360722999999,-9.532259932999999,2.1780961916,-2.81004,1.333684,-3.005821,-0.0011179999999999975,0.011200000000000099,-0.00038900000000000046,0.006520896819025346,0.0015124376261062,-0.002831180633364183
1504199079.67,-1.0,0.52342994375,-0.5052189947,-0.23635007165,0.023391,0.209502,0.333297,-0.7860422241,-9.529180644899998,2.1788022704,-2.795356,1.332351,-3.018746,-0.0016240000000000004,0.011800000000000033,-0.0005570000000000002,0.006639283218684788,0.0005909629124272175,-0.004790034959612388
1504199079.68,-1.0,0.55351674595,-0.7423830183,-0.14142169964999998,0.0169,0.201026,0.337571,-0.8225621886999999,-9.52605232355,2.17902782335,-2.780642,1.331001,-3.031798,-0.0016240000000000004,0.011800000000000033,-0.0005570000000000002,0.006636270316987325,0.000622729083739948,-0.004785928295561015
1504199079.69,-1.0,0.56938390565,-0.9872158421999999,-0.030694814499999997,-0.007788,0.188434,0.344999,-0.8412732769,-9.526326909749999,2.1706627508999996,-2.771851,1.33112,-3.039258,-0.0012840000000000004,0.012399999999999967,-0.00020300000000000006,0.004596256132433307,-0.0006109279883372842,-0.0064130954526012696
1504199079.7,-1.0,0.5693937123,-1.2741878411499998,0.07426576045,-0.037755,0.18015,0.350299,-0.8785483535499999,-9.5239635071,2.1662497584,-2.756303,1.330108,-3.053377,-0.001089999999999999,0.012699999999999934,-4.099999999999937e-05,0.0018615439437150716,-0.0010668251887611113,-0.006730188019441141
1504199079.71,-1.0,0.57414993755,-1.5622189583,0.20351740745,-0.076239,0.176196,0.358779,-0.9163726026,-9.52218850345,2.1583652118,-2.740088,1.32935,-3.068249,-0.0010280000000000011,0.0129999999999999,9.000000000000327e-06,-0.0014141337544184562,-0.0007280039226327251,-0.006407431590192414
1504199079.72,-1.0,0.5835250949499999,-1.80770882775,0.3491363533,-0.123285,0.16486,0.360852,-0.9543243381,-9.52120783845,2.1462147724499996,-2.723192,1.328931,-3.08392,-0.0009519999999999997,0.0132000000000001,7.899999999999921e-05,-0.0046510973403055544,0.0005717477953919303,-0.005491024961048585
1504199079.73,-1.0,0.5722376408,-1.9144738262999998,0.46926781579999993,-0.18098,0.151488,0.355438,-0.9916680613,-9.52128629165,2.1288864219,-2.705664,1.328963,-3.100374,-0.0008859999999999996,0.013100000000000112,0.00019500000000000073,-0.007255328342277156,0.0027983321394398075,-0.0039865976994251096
1504199079.74,-1.0,0.52148822705,-1.882680667,0.5762583673,-0.237558,0.137053,0.338287,-1.02741330055,-9.522551349499999,2.10614480055,-2.68774,1.329504,-3.117379,-0.0008645000000000007,0.0129999999999999,0.00035799999999999894,-0.008788526507608196,0.005499595152254733,-0.002033434013576474
1504199079.75,-1.0,0.44808545180000003,-1.9169647154,0.6680976445499999,-0.291958,0.119418,0.30727,-1.060098865,-9.525071658549999,2.0783429478,-2.669922,1.330583,-3.134452,-0.0008882999999999999,0.012499999999999956,0.0005450000000000003,-0.008978964493656871,0.007904694591389427,-3.7851098980579145e-05
1504199079.76,-1.0,0.38141003844999993,-2.0791863197,0.7681548945,-0.328276,0.094176,0.275229,-1.0891951955499999,-9.528651085799998,2.04667727495,-2.652537,1.33212,3.131877,-0.0009462999999999997,0.011900000000000022,0.0007279999999999995,-0.00741620606203508,0.009478983077637393,0.0015957324792046368
1504199079.77,-1.0,0.3411145136,-2.33279609535,0.8689672564999998,-0.341126,0.062357,0.233634,-1.113839307,-9.5328679453,2.013501378,-2.636307,1.333946,3.115913,-0.0010228,0.011200000000000099,0.0009110000000000004,-0.004210508697454873,0.010137605289209484,0.0027953871875495695
1504199079.78,-1.0,0.30634993935,-2.5624286117499997,0.9079094636499999,-0.323081,0.017509,0.180374,-1.13295246785,-9.53727113115,1.9817474453,-2.622246,1.335867,3.101747,-0.0005282000000000004,0.011299999999999866,0.0008470000000000005,-0.0003540286844718743,0.010243339765950266,0.0034811836099053473
1504199079.79,-1.0,0.22660226155,-2.5963890406999997,0.84685326075,-0.29002,-0.022127,0.11966,-1.1456716929,-9.541615477099999,1.9533179669499998,-2.611138,1.337777,3.090211,-0.0006399999999999999,0.010599999999999943,0.0010600000000000002,0.003969890300003609,0.00916380959365215,0.004027605181681104
1504199079.8,-1.0,0.1379011123,-2.4414047440999997,0.6957622041999999,-0.245167,-0.055466,0.057887,-1.15170278265,-9.545763690049998,1.92933090105,-2.603425,1.339619,3.081792,-0.0007323999999999994,0.009800000000000031,0.0012691000000000004,0.00683558637657411,0.007868562058451545,0.003931410986774186
1504199079.81,-1.0,0.1281140756,-2.1208645822,0.52799984265,-0.184379,-0.090014,0.007885,-1.15193814225,-9.54937253725,1.9112376318,-2.599178,1.341231,3.076582,-0.0008024000000000009,0.009300000000000086,0.001446799999999999,0.008063849158139291,0.006335440827731187,0.003442967568924038
1504199079.82,-1.0,0.20448826579999999,-1.5948260695499998,0.39635537305,-0.128956,-0.119205,-0.027192,-1.1479468356999998,-9.55227530565,1.89908719245,-2.59789,1.342536,3.074101,-0.0009732999999999994,0.008899999999999908,0.0016275999999999999,0.007755338928137512,0.0045987129318434405,0.0028331603188046506
1504199079.83,-1.0,0.35929604269999993,-0.81382446355,0.25893478659999997,-0.095939,-0.139701,-0.048446,-1.1411606339,-9.5547171615,1.8909084463499999,-2.598606,1.343637,3.073445,-0.0013674000000000002,0.008199999999999985,0.0018615000000000003,0.006390894386654411,0.0026628398521950647,0.002267056417559532
1504199079.84,-1.0,0.523871243,-0.06535151559999999,0.11942538369999998,-0.078873,-0.148353,-0.06121,-1.1327465282,-9.5569530777,1.8846714169499998,-2.600416,1.34465,3.073802,-0.00143179,0.008099999999999996,0.0019136000000000001,0.0045103209417229895,0.0006110523249436284,0.001745752973080994
1504199079.85,-1.0,0.63202878585,0.41775348334999995,0.034382114899999996,-0.06293,-0.161263,-0.069699,-1.1232929176,-9.55896344095,1.88008190475,-2.603036,1.34557,3.074862,-0.00149541,0.008200000000000207,0.0019196399999999998,0.00264657015905323,-0.0012670400082652744,0.0013237094450972986
1504199079.86,-1.0,0.6242619190500001,0.5418566390999999,0.007374600799999999,-0.039542,-0.18169,-0.084599,-1.0867925663,-9.56261151475,1.8829944797999998,-2.618134,1.347241,3.087977,-0.001554,0.008099999999999996,0.00187296,0.0010113929764541396,-0.002753544480881054,0.001060558127343958
1504199079.87,-1.0,0.5360118757,0.24111610355,0.07514835895,-0.003326,-0.206468,-0.112245,-1.0730632563,-9.56398444575,1.8839064982499998,-2.623829,1.347872,3.091776,-0.0016102,0.008099999999999996,0.0017812,-0.00034836071657795564,-0.0038354080002369617,0.0010903465546437952
1504199079.88,-1.0,0.34480181399999993,-0.33414198544999996,0.19070992254999997,0.028637,-0.238655,-0.154829,-1.05483269395,-9.5651318238,1.88835871735,-2.632173,1.348403,3.097948,-0.0019911,0.007199999999999873,0.0016455999999999997,-0.001092996574828753,-0.004757925738652524,0.0019236854765993794
1504199079.89,-1.0,0.13556712959999997,-0.9712898425999998,0.26177871509999995,0.057425,-0.272938,-0.205954,-1.03129673395,-9.566190942,1.8959882910499999,-2.643416,1.348892,3.106773,-0.0020483999999999997,0.007100000000000106,0.0015264000000000007,-0.002062018698106627,-0.004709774819879664,0.00250207073532005
1504199079.9,-1.0,-0.06714613254999999,-1.5920704008999997,0.37420215069999996,0.064999,-0.291064,-0.256077,-1.00246518295,-9.567455999849999,1.9050790556,-2.657201,1.349477,3.117967,-0.002101500000000001,0.007099999999999884,0.0013986999999999992,-0.002421194999131515,-0.004603914375214346,0.0036013611735785656
1504199079.91,-1.0,-0.21984547969999998,-2.0863844007999996,0.53472720455,0.042654,-0.310016,-0.298778,-0.9690245064499999,-9.569338876649999,1.9128949556500001,-2.672696,1.350354,3.130711,-0.002154999999999999,0.006900000000000128,0.0012592000000000002,-0.00241959698284,-0.004443395108900683,0.0044763231419227
1504199079.92,-1.0,-0.26206310795,-2.3502911589499997,0.69575239755,-0.004293,-0.330907,-0.331912,-0.9317396231499999,-9.572231838399999,1.91691568215,-2.689157,1.351709,-3.138959,-0.0022120000000000004,0.006799999999999917,0.0011047000000000001,-0.002278709820899394,-0.004469931712335118,0.005119642415978398
1504199079.93,-1.0,-0.27765568145,-2.3139477140499998,0.84047893825,-0.06822,-0.337935,-0.354411,-0.8917579110999999,-9.5764094713,1.9150916452499998,-2.705802,1.353675,-3.125375,-0.002269,0.006699999999999928,0.0009440000000000004,-0.002093843015319896,-0.004764663834672556,0.005754690159628706
1504199079.94,-1.0,-0.2197474132,-1.9447567614999997,0.9365252683499999,-0.146981,-0.32129,-0.366318,-0.85075630745,-9.581979648499999,1.9058439742999997,-2.721742,1.35633,-3.112405,-0.002312999999999999,0.006600000000000161,0.0007959999999999998,-0.001971195453531971,-0.005146819051300655,0.006327230766842051
1504199079.95,-1.0,-0.16138803905,-1.42619091615,0.81270650545,-0.210816,-0.302642,-0.372866,-0.80931340455,-9.588785463599999,1.8895943552499999,-2.736932,1.359615,-3.100008,-0.002255,0.006699999999999928,0.0006659999999999999,-0.0018859145263849797,-0.0054161646981556455,0.006669844237770839
1504199079.96,-1.0,-0.12932029355,-0.8075874341499999,0.5923020467,-0.255592,-0.298013,-0.370817,-0.76865503365,-9.594924426499999,1.8753747127499998,-2.752607,1.362621,-3.087073,-0.002047,0.007099999999999884,0.0005500000000000001,-0.0017211282314049114,-0.005463760937123752,0.00684590535787144
1504199079.97,-1.0,-0.1253878269,-0.18306073555,0.42283332805,-0.298247,-0.296594,-0.373028,-0.7273984571,-9.603083559299998,1.8498676160999998,-2.766948,1.366689,-3.075455,-0.001982000000000001,0.007100000000000106,0.00041799999999999997,-0.001503679057240248,-0.005177952442973588,0.00697064894253252
1504199079.98,-1.0,-0.1387052576,0.39625730654999997,0.24829457135,-0.331165,-0.278205,-0.375252,-0.6861026539499999,-9.611683991349999,1.8207418655999998,-2.781225,1.371062,-3.063784,-0.002234,0.007500000000000062,-0.0002610000000000008,-0.0017387901008523166,-0.004858704536550018,0.007190112553873695
1504199079.99,-1.0,-0.20706741474999998,0.67323632915,0.10962854034999998,-0.339531,-0.26108,-0.381701,-0.64481665745,-9.62037268325,1.7897136249999999,-2.795782,1.375575,-3.051625,-0.0021259999999999994,0.007599999999999829,-0.0003699999999999988,-0.0015625664674092654,-0.003964153221444722,0.007370544414545099
1504199080.0,-1.0,-0.14897282015,0.9485776411999999,-0.05810440124999999,-0.312917,-0.269822,-0.383775,-0.60309916835,-9.62845336285,1.7605290345999998,-2.811553,1.379873,-3.038279,-0.0020160000000000004,0.007600000000000051,-0.0004620000000000006,-0.00182929879014182,-0.003299136135713976,0.00758956258978416
1504199080.01,-1.0,-0.15305238654999997,1.2611646099499998,-0.18260962964999997,-0.271373,-0.278687,-0.384754,-0.56116593295,-9.63563183065,1.7349532913999999,-2.828766,1.383768,-3.023577,-0.001917000000000002,0.007500000000000062,-0.0005489999999999991,-0.0021322766986116015,-0.0027182838271755383,0.007610161064578569
1504199080.02,-1.0,-0.15292490009999998,1.5957380879999998,-0.21603069284999998,-0.231987,-0.290732,-0.385732,-0.5189483047,-9.64189828,1.7131531084499998,-2.847461,1.387235,-3.007483,-0.0018269999999999953,0.00770000000000004,-0.0006320000000000006,-0.0024384823505543274,-0.0022861994893055293,0.007287868452032664
1504199080.03,-1.0,-0.1228184846,1.8905946335499997,-0.23880173415,-0.201164,-0.30484,-0.384587,-0.47662280329999995,-9.6473507774,1.6946283466,-2.867417,1.39031,-2.990261,-0.0017479999999999996,0.007599999999999829,-0.0007170000000000006,-0.0026100112482800863,-0.0019627036924498853,0.0067093479566946446
1504199080.04,-1.0,-0.1293889401,2.118040267,-0.2628574466,-0.173558,-0.318925,-0.380244,-0.43459150139999997,-9.65214622925,1.67857486055,-2.88825,1.393051,-2.972289,-0.0016740000000000019,0.007600000000000051,-0.0007969999999999991,-0.0025896623823615794,-0.0016244217138352557,0.006001263703716453
1504199080.05,-1.0,-0.1481392549,2.2894899289499997,-0.25572801204999995,-0.145922,-0.33194,-0.380173,-0.39235425985,-9.656304248849999,1.6650220702499998,-2.91017,1.395464,-2.95337,-0.0016000000000000042,0.00770000000000004,-0.0008599000000000002,-0.0024922227615831183,-0.0012781504917380726,0.00516926491993186
1504199080.06,-1.0,-0.19753535095,2.37549424945,-0.26010177795,-0.097951,-0.33979,-0.384346,-0.3496855257,-9.65956005665,1.6556174929,-2.933441,1.397377,-2.933177,-0.001230999999999996,0.007200000000000095,-0.00043950000000000065,-0.0023930430569230055,-0.0011259211243477285,0.004235702829616272
1504199080.07,-1.0,-0.27381147465,2.2380344364,-0.2587190403,-0.051043,-0.349757,-0.392786,-0.3061832263,-9.661854812749999,1.6507926211,-2.958201,1.398744,-2.911563,-0.0011600000000000013,0.007299999999999862,-0.0004907999999999996,-0.0022019589792763306,-0.0012855059317897766,0.0033606642823695854
1504199080.08,-1.0,-0.38290064925,1.9031373388999997,-0.2113136942,-0.025478,-0.359551,-0.400197,-0.26173948849999995,-9.663492523299999,1.64888032435,-2.984166,1.399719,-2.888835,-0.0013869999999999993,0.007900000000000018,-0.0008989999999999996,-0.0020375470399289775,-0.0018009252078077242,0.002793144558242311
1504199080.09,-1.0,-0.5025319725999999,1.4519529857,-0.11600286284999999,-0.020107,-0.359587,-0.407659,-0.21648179875,-9.66481642105,1.6476937197,-3.010959,1.400513,-2.865305,-0.0012959999999999985,0.008099999999999996,-0.0009341000000000002,-0.0015967851207112638,-0.0016900319856647528,0.0019078860610378667
1504199080.1,-1.0,-0.57954359505,0.9579135719999999,0.077276402,-0.017951,-0.357472,-0.408727,-0.17103778265,-9.6659245725,1.64654634165,-3.038086,1.40118,-2.841416,-0.0011830000000000035,0.008000000000000007,-0.0009691000000000005,-0.0013035811323991453,-0.0016798039018319777,0.0012966418377414746
1504199080.11,-1.0,-0.6055214109,0.49728541484999994,0.27087928629999997,-0.017905,-0.353208,-0.408714,-0.1417649324,-9.6649831341,1.6548133476,-3.056133,1.400614,-2.826443,-0.0010560000000000014,0.008199999999999985,-0.0010063,-0.0010635326215888696,-0.001529687390258605,0.0007803262218823992
1504199080.12,-1.0,-0.6109150684,0.10313653804999999,0.3773795053,-0.015824,-0.353236,-0.398036,-0.09717409484999999,-9.665728439499999,1.65364635625,-3.082897,1.401066,-2.802864,-0.0009199999999999972,0.008199999999999985,-0.0010401999999999998,-0.0009205778093299699,-0.001196284826893601,0.0004373374307542477
1504199080.13,-1.0,-0.62830225885,-0.1979766502,0.40541671765,-0.027557,-0.343565,-0.38313,-0.05404444815,-9.6664345183,1.65150850655,-3.108878,1.401492,-2.780037,-0.000781999999999998,0.008299999999999974,-0.001069,-0.0008064869820512133,-0.0007014613075626563,0.00034798542485448003
1504199080.14,-1.0,-0.66437111755,-0.28464782289999996,0.42385321965,-0.040405,-0.337085,-0.36395,-0.01273883835,-9.667150403749998,1.64817424555,-3.133864,1.401923,-2.758123,-0.0006509999999999988,0.008400000000000185,-0.0010949999999999998,-0.0006536299294646053,-0.00016456624720007085,0.0005037535433225493
1504199080.15,-1.0,-0.63757934975,-0.17567632809999997,0.40483812529999996,-0.052119,-0.323154,-0.342619,0.0038638200999999996,-9.6656892129,1.65672564435,3.139261,1.401043,-2.750848,-0.0004740000000000022,0.008299999999999974,-0.00104466,-0.0003774325847967219,0.0002766358301269367,0.0007483656032493124
1504199080.16,-1.0,-0.6614389291999999,0.08154229475,0.40138618449999997,-0.060636,-0.308187,-0.322379,0.04074663075,-9.66658161805,1.651047594,3.116919,1.401579,-2.73136,-0.00017000000000000348,0.007900000000000018,-0.00082207,-7.798822460003407e-05,0.000516632099185399,0.0009775657044122088
1504199080.17,-1.0,-0.6559275918999999,0.37271153989999994,0.34857737424999996,-0.063866,-0.296464,-0.297855,0.0750404858,-9.667444603249999,1.6447517246999999,3.096002,1.402105,-2.713161,-0.00011899999999999411,0.008000000000000007,-0.00086907,0.00023000742110834693,0.0005231022647869121,0.001192848196344909
1504199080.18,-1.0,-0.6313030937499999,0.6397270061,0.2393018733,-0.063909,-0.287962,-0.275455,0.10697093819999999,-9.6682585552,1.6382008824999998,3.076388,1.402599,-2.69621,-8.700000000000374e-05,0.00749999999999984,-0.0016111,0.0005416825997421881,0.0002953014168738388,0.0015254538069475743
1504199080.19,-1.0,-0.6061588431499999,0.7997028875499999,0.12315191069999999,-0.058631,-0.280569,-0.249811,0.11264898855,-9.6675328631,1.6421235424999998,3.0731,1.402155,-2.695323,-8.59999999999958e-05,0.00770000000000004,-0.0017107,0.0008301324723616332,1.9029197741327053e-05,0.0016145495360336826
1504199080.2,-1.0,-0.66309625305,0.8420381955999999,0.0855532146,-0.052231,-0.266792,-0.227409,0.13966630929999999,-9.66811145545,1.63662201185,3.05646,1.402508,-2.681196,-9.20000000000018e-05,0.007699999999999818,-0.0018365999999999999,0.0009674099892995613,-0.0002745201696312538,0.0013815854159728858
1504199080.21,-1.0,-0.7138554734499999,0.8004089663499999,0.08895612214999998,-0.054349,-0.250814,-0.205025,0.16423196755,-9.66868024115,1.6309733814499998,3.041233,1.402854,-2.668335,-9.50000000000048e-05,0.008000000000000007,-0.001988300000000001,0.0010117290015585478,-0.0007218688423902275,0.001254510645120166
1504199080.22,-1.0,-0.7507284774499999,0.7310073042999999,0.10274427205,-0.061871,-0.242253,-0.180503,0.18629693004999998,-9.6693176734,1.6248246118999998,3.027436,1.403242,-2.656816,-8.79999999999978e-05,0.008000000000000007,-0.0021605999999999986,0.0009142753682935822,-0.001186429322462379,0.0011466018094973274
1504199080.23,-1.0,-0.7471196302499999,0.6779435211499999,0.11280589494999999,-0.086422,-0.227155,-0.15171,0.17146927525,-9.6692196069,1.62703110815,3.036593,1.403183,-2.66785,-5.000000000000143e-05,0.008700000000000152,-0.0018679999999999999,0.0007446741627119557,-0.001613379021784045,0.001043342980479256
1504199080.24,-1.0,-0.7459918655,0.6777571948000001,0.19178865405,-0.109887,-0.205684,-0.118699,0.1872481751,-9.670680797749998,1.6165870259,3.026276,1.404077,-2.659525,6.0000000000060005e-06,0.008999999999999897,-0.0017890000000000007,0.0005762080884892384,-0.001987083517540844,0.0009505792819723968
1504199080.25,-1.0,-0.7062357063999999,0.72946766025,0.26838839719999996,-0.132293,-0.181032,-0.079287,0.19896712185,-9.6725538679,1.6038776074999999,3.018169,1.405237,-2.653201,8.49999999999948e-05,0.009300000000000086,-0.001880999999999999,0.000386066035591659,-0.0022034288517149836,0.0008599577923035229
1504199080.26,-1.0,-0.6430318471500001,0.7910240022999999,0.29223816999999996,-0.141971,-0.163947,-0.036638,0.20623384949999998,-9.6747113309,1.5899031312499998,3.012597,1.406576,-2.649259,0.00019500000000000073,0.009399999999999853,-0.0019130000000000015,0.00017434141747041387,-0.002152273625279255,0.0008211169391191264
1504199080.27,-1.0,-0.5340015124499999,0.8846284765499999,0.22330722714999998,-0.139932,-0.149091,0.010338,0.18355106805,-9.674632877699999,1.5931393257499997,3.026883,1.406529,-2.664833,0.00033099999999999796,0.009600000000000275,-0.0018869999999999998,-1.516115007760277e-05,-0.0018437077363899768,0.0008530073596011434
1504199080.28,-1.0,-0.45794113505,1.00007236035,0.12314210404999999,-0.114473,-0.137629,0.058395,0.1812661186,-9.676662854249999,1.58107714625,3.027445,1.407794,-2.666825,0.0010820000000000066,0.010800000000000143,-0.001954000000000001,-0.00018772329917915442,-0.001415031258596322,0.0008777605346060868
