Time,placement_label,user_acc_x(m/s^2),user_acc_y(m/s^2),user_acc_z(m/s^2),rotation_rate_x(rad/s),rotation_rate_y(rad/s),rotation_rate_z(rad/s),gravity_x(m/s^2),gravity_y(m/s^2),gravity_z(m/s^2),attitude_roll(rad),attitude_pitch(rad),attitude_yaw(rad),target_delta_x,target_delta_y,target_delta_z,target_delta_roll,target_delta_pitch,target_delta_yaw
1504281261.15,-1.0,0.040697597499999995,0.0178284897,-0.045620535799999994,0.009308,-0.004635,-0.006141,0.0646454368,-9.561866209349999,2.1764584810499996,3.1119,1.346895,-2.882791,0.0,0.0,0.0,0.0,0.0,0.0
1504281261.16,-1.0,0.0389520138,0.01932890715,-0.04974913545,0.007145,-0.006751,-0.004007,0.0659399146,-9.561866209349999,2.1763996411499997,3.111302,1.346897,-2.882252,2.0000000000020002e-05,0.00012999999999996348,-3.0000000000002247e-05,5.575888233333437e-05,-8.420610150716712e-06,1.9277621401525558e-05
1504281261.17,-1.0,0.027703786249999997,0.018593408399999997,-0.03904027365,0.00503,-0.005666,-0.006148,0.06716574585,-9.561876016,2.1763113813,3.110741,1.346903,-2.881752,1.999999999990898e-05,0.00012999999999996348,-3.0000000000002247e-05,6.086362635371323e-05,3.3000118997428274e-06,4.085469759673721e-05
1504281261.18,-1.0,0.01256231865,0.0006276255999999999,-0.027693979599999998,0.005022,-0.004603,-0.002948,0.06779337145,-9.561866209349999,2.17634080125,3.110451,1.346898,-2.881519,3.0000000000085514e-05,0.0001100000000000545,-1.9999999999992246e-05,3.458993257687837e-05,2.330014405926839e-05,2.439975708334874e-05
1504281261.19,-1.0,0.00220649625,-0.027850886,-0.0202213123,0.00611,-0.00248,-0.004018,0.0682738973,-9.561826982749999,2.17649770765,3.110233,1.34688,-2.881321,2.999999999997449e-05,0.00010999999999994348,-1.0000000000010001e-05,2.161934444355751e-05,5.297388070624187e-05,5.968199372474725e-05
1504281261.2,-1.0,-0.007423634049999999,-0.06730303894999999,-0.028959037449999996,0.006074,-0.000339,-0.002972,0.06847983695,-9.56188582265,2.17626234805,3.110137,1.346904,-2.881219,2.999999999997449e-05,0.00012000000000000899,-1.0000000000010001e-05,-7.868792657683699e-06,6.0691116044120363e-05,5.373476411141276e-05
1504281261.21,-1.0,-0.0058055367999999994,-0.08672020594999999,-0.0150630144,0.003942,0.000743,-0.00191,0.06865635665,-9.561905435949999,2.1761348615999996,3.110054,1.346917,-2.88113,2.999999999997449e-05,0.00012000000000000899,-9.999999999982245e-06,-2.6782402027469843e-05,6.515196391032596e-05,5.952336285930393e-05
1504281261.22,-1.0,0.0083552658,-0.07544255845,0.0141804159,0.004983,-0.002462,-0.001903,0.06900939604999999,-9.561817176099998,2.17651732095,3.109899,1.346875,-2.880988,3.0000000000085514e-05,0.0001100000000000545,-1.0000000000010001e-05,-5.045155459182382e-05,3.118870932272699e-05,1.2310401991233455e-05
1504281261.23,-1.0,0.0230456275,-0.029400336699999995,0.00522694445,0.010307,-0.002508,0.000241,0.069431082,-9.5616210431,2.1773901128,3.109717,1.346783,-2.880836,2.999999999997449e-05,0.00010999999999994348,-9.999999999982245e-06,3.1619170014707265e-05,1.0687936083941807e-05,9.65706268885036e-06
1504281261.24,-1.0,0.0371279769,-0.00481506515,-0.00452086565,0.012441,-0.002526,0.000244,0.07016658075,-9.561366070199998,2.178449231,3.109395,1.346669,-2.880552,3.999999999992898e-05,0.0001100000000000545,-1.0000000000010001e-05,4.4970345036254855e-05,-1.5389249519159875e-07,-1.5435125356955126e-05
1504281261.25,-1.0,0.0310282406,-0.00089240515,-0.013484143749999998,0.014543,-0.005741,0.00132,0.07072555979999999,-9.561101290649999,2.1796358356499996,3.109156,1.346543,-2.88039,4.0000000000040004e-05,0.00010500000000002174,-1.4999999999987246e-05,7.512030068967945e-05,8.197562278322579e-06,-3.234835929111224e-05
1504281261.26,-1.0,0.0316754795,-0.020495898499999998,-0.03582369245,0.012409,-0.005724,0.001315,0.0712747322,-9.560944384249998,2.1802830745499997,3.108912,1.346474,-2.880217,4.0000000000040004e-05,0.00010499999999991072,-1.5000000000015001e-05,7.512017801802884e-05,8.200008753345145e-06,-3.234780463357012e-05
1504281261.27,-1.0,0.0233202137,-0.03056732805,-0.03419578855,0.008145,-0.005688,0.00024,0.0717062248,-9.56090515765,2.1804497876,3.108719,1.346455,-2.880076,4.999999999999449e-05,0.0001100000000000545,-1.9999999999992246e-05,1.2416287048955255e-05,5.771816674426944e-05,-2.991789718609361e-05
1504281261.28,-1.0,0.031185147,-0.031106693799999998,-0.0340486888,0.002844,-0.001382,0.000222,0.07236327035,-9.56096399755,2.1801555881,3.108414,1.346484,-2.879795,3.999999999992898e-05,8.999999999992347e-05,-1.0000000000010001e-05,-1.726853140482376e-05,4.475687860239219e-05,-4.432016563926666e-05
1504281261.29,-1.0,0.026487761649999997,-0.045787248850000004,-0.0301652554,-0.000364,-0.003484,-0.001915,0.0730203159,-9.561101290649999,2.17955738245,3.108101,1.346544,-2.879522,4.999999999999449e-05,9.00000000000345e-05,-1.0000000000010001e-05,-4.848600280871196e-05,3.684526694902601e-05,-3.082871069581827e-05
1504281261.3,-1.0,0.0253403836,-0.04638545449999999,-0.033244543499999994,0.000657,-0.007758,0.000228,0.0735694883,-9.561238583749999,2.1789003369,3.107842,1.34661,-2.87933,4.0000000000040004e-05,9.999999999998899e-05,-1.9999999999992246e-05,-2.6418819957685358e-05,3.163841545639201e-05,-3.758123000896507e-05
1504281261.31,-1.0,0.030331968449999996,-0.034391921549999996,-0.029812216,0.00701,-0.013139,0.001316,0.07426576045,-9.5612680037,2.17875323715,3.10752,1.346623,-2.879131,4.999999999999449e-05,9.999999999998899e-05,-1.0000000000010001e-05,-1.1672974676191217e-05,2.778127084734905e-05,-3.4606009229887214e-05
1504281261.32,-1.0,0.024987344199999997,-0.02203554255,-0.03831458155,0.012351,-0.012118,0.001322,0.07481493285,-9.56119935715,2.17902782335,3.10727,1.346592,-2.879003,6.0000000000060005e-05,0.0001100000000000545,-9.999999999982245e-06,-1.9112233005103008e-05,-3.7375438823872287e-06,-7.147332759982472e-05
1504281261.33,-1.0,0.02884135765,-0.024281265399999998,-0.0326561445,0.013409,-0.013192,0.001325,0.0754523651,-9.5610522574,2.1796554489499997,3.10699,1.346525,-2.878852,4.999999999999449e-05,9.999999999998899e-05,-1.9999999999992246e-05,-4.089462272172106e-05,3.3455372617119394e-05,-0.00010264602235199316
1504281261.34,-1.0,0.039412926349999995,-0.023124080699999997,-0.022221868899999997,0.012358,-0.011052,0.001319,0.07625651039999999,-9.56086593105,2.1804497876,3.106635,1.346439,-2.878623,5.999999999994898e-05,0.00012000000000000899,-1.0000000000010001e-05,-0.00011596585864714903,6.792998779614479e-05,-0.00011358336017075477
1504281261.35,-1.0,0.03580407915,-0.0189464478,-0.012317152399999998,0.009144,-0.012093,0.002382,0.0770214291,-9.560699218,2.1811558663999997,3.106296,1.346362,-2.87842,6.0000000000060005e-05,0.00012000000000000899,-1.9999999999992246e-05,-0.0002048773136964499,6.104113694771485e-05,-0.00011309017955618561
1504281261.36,-1.0,0.049317642849999996,-0.0281058589,-0.0375594695,0.009112,-0.01529,0.003454,0.07787460765,-9.56066979805,2.18126373955,3.105905,1.346348,-2.878202,6.999999999990347e-05,0.00012999999999996348,-2.0000000000020002e-05,-0.0002743482425633381,7.851579237838635e-05,-0.00011432700090630021
1504281261.37,-1.0,0.05234789769999999,-0.0367160976,-0.05847705395,0.008004,-0.019545,0.004525,0.07873759285,-9.5607384446,2.1809401201,3.105505,1.346379,-2.878003,7.00000000000145e-05,0.00012999999999996348,-1.9999999999992246e-05,-0.00028697342757966204,8.145898016320707e-05,-0.0001104990000639905
1504281261.38,-1.0,0.0603697374,-0.046973853499999996,-0.06067374354999999,0.010122,-0.02063,0.005597,0.07968883789999999,-9.56080709115,2.1805870807,3.105063,1.346412,-2.877791,7.00000000000145e-05,0.00012000000000000899,-1.9999999999992246e-05,-0.0002638497101696835,6.498168135982141e-05,-0.00016031956074957776
1504281261.39,-1.0,0.07474628629999999,-0.0630763728,-0.06620469414999999,0.01115,-0.025965,0.004539,0.08103234894999999,-9.56086593105,2.1802928811999998,3.104444,1.346438,-2.877448,7.999999999996898e-05,0.0001100000000000545,-2.0000000000020002e-05,-0.00023452646559252166,1.68486164087156e-06,-0.00018982723488758513
1504281261.4,-1.0,0.0782962936,-0.077080269,-0.05839860075,0.010022,-0.031288,0.007747,0.08241508659999999,-9.5609345776,2.1799594550999997,3.103804,1.346467,-2.877128,8.000000000008001e-05,0.00012999999999996348,-1.9999999999992246e-05,-0.0002964489696428707,-6.9880308188885465e-06,-0.00025174942322236937
1504281261.41,-1.0,0.08956413445,-0.08441564319999999,-0.06016379775,0.014254,-0.035585,0.007759,0.0838664708,-9.560924770949999,2.17993003515,3.10314,1.346465,-2.876826,8.999999999992347e-05,0.00012999999999996348,-9.999999999982245e-06,-0.0002653730037396329,-5.471649624233521e-05,-0.00030066822484220435
1504281261.42,-1.0,0.09207463684999999,-0.07367736144999999,-0.0725299834,0.016307,-0.04413,0.009911,0.08539630819999999,-9.560885544349999,2.18002810165,3.102442,1.346448,-2.876579,9.00000000000345e-05,0.000140000000000029,-1.0000000000010001e-05,-0.0002644871495547374,-5.268974889860445e-05,-0.00032801798521009395
1504281261.43,-1.0,0.10284233855,-0.0627037201,-0.07527584539999999,0.019471,-0.048419,0.009921,0.0872007318,-9.560787477849999,2.1803713343999997,3.10162,1.346404,-2.876254,0.0001100000000000545,0.00014999999999998348,-1.0000000000010001e-05,-0.0002745028557027407,-3.210847511581072e-05,-0.0003709723475701088
1504281261.44,-1.0,0.09765462069999999,-0.043257133149999995,-0.08989756054999999,0.017317,-0.05266,0.00672,0.08924051499999999,-9.5607776712,2.18034191445,3.100686,1.346399,-2.875859,0.00012999999999996348,0.00017000000000000348,-9.999999999982245e-06,-0.0002629945989645055,1.1980584119664073e-05,-0.00040886746672896823
1504281261.45,-1.0,0.0911822317,-0.02660544145,-0.09648762934999999,0.014116,-0.053698,0.00458,0.09137836469999999,-9.56082670445,2.1800379082999997,3.099702,1.346421,-2.875434,0.00012999999999996348,0.000180000000000069,-1.0000000000010001e-05,-0.000270942617115022,4.306363848316508e-05,-0.00040974151964823236
1504281261.46,-1.0,0.076688003,-0.01101286795,-0.08132654845,0.011972,-0.054746,0.004576,0.09344756784999998,-9.560856124399999,2.1798417753,3.098749,1.346433,-2.875046,0.00014999999999998348,0.00017999999999995797,-3.0000000000002247e-05,-0.00034542826978922747,9.276423085835539e-05,-0.0004324470428080929
1504281261.47,-1.0,0.06028147754999999,0.00814932615,-0.08105196225,0.013093,-0.048361,0.003498,0.09519315155,-9.56086593105,2.1797142888499996,3.097949,1.346438,-2.874758,0.0001500000000000945,0.00019999999999997797,-1.9999999999992246e-05,-0.00040612601937262127,9.230465439191704e-05,-0.0004249035861914052
1504281261.48,-1.0,0.03060655465,0.0120033396,-0.07295166935,0.014164,-0.046241,0.00563,0.09628168969999999,-9.56082670445,2.17985158195,3.097451,1.346419,-2.874751,0.00014999999999998348,0.000180000000000069,-4.000000000001225e-05,-0.00040492951288340073,8.91947233556678e-05,-0.0003907806010825521
1504281261.49,-1.0,-0.0092574776,-0.0031185146999999996,-0.0599970847,0.018456,-0.04308,0.005632,0.09649743599999999,-9.56066979805,2.1805086274999996,3.097368,1.346349,-2.875112,0.00015999999999993797,0.00019999999999997797,-3.0000000000002247e-05,-0.00048032649927920446,0.00013671473983611904,-0.00038618664812917203
1504281261.5,-1.0,-0.042403954599999995,-0.0355785262,-0.055535058949999994,0.017428,-0.03668,0.007755,0.09597768355,-9.560532504949999,2.1811362531,3.097617,1.346286,-2.87575,0.00014999999999998348,0.00019000000000002348,-3.0000000000002247e-05,-0.0004538491168002423,0.00012769620938923865,-0.00035972166255737736
1504281261.51,-1.0,-0.05363256884999999,-0.061909381449999995,-0.05788865495,0.018516,-0.032429,0.009885,0.09492837199999998,-9.5603854052,2.1818423319,3.098111,1.346217,-2.876575,0.000160000000000049,0.00018999999999991246,-3.0000000000002247e-05,-0.00042651226189427405,0.00012077274535160498,-0.00036062165893002707
1504281261.52,-1.0,-0.08136577505,-0.0747070597,-0.06320385925,0.017487,-0.028157,0.00881,0.0933396947,-9.56031675865,2.18222479125,3.098846,1.346184,-2.877603,0.000160000000000049,0.000200000000000089,-2.999999999997449e-05,-0.0004194297922524015,8.738605795999277e-05,-0.0003323897171143564
1504281261.53,-1.0,-0.08721053845,-0.0530932031,-0.07293205605,0.019625,-0.026045,0.010947,0.09139797799999999,-9.560228498799999,2.1826758971499998,3.099744,1.346145,-2.878774,0.00015999999999993797,0.00019999999999997797,-2.0000000000020002e-05,-0.0004072533314412041,7.729019084790067e-05,-0.0002473171788892614
1504281261.54,-1.0,-0.07016658075,-0.0485429175,-0.076099604,0.019612,-0.026047,0.013084,0.0896131677,-9.56014023895,2.18314661635,3.100567,1.346104,-2.879864,0.000160000000000049,0.00020999999999993246,-1.9999999999992246e-05,-0.00036220961530286644,7.931136422967278e-05,-0.00023050701602045365
1504281261.55,-1.0,-0.0731772223,-0.05471130034999999,-0.0683131239,0.022793,-0.028205,0.013095,0.0876910643,-9.5599539126,2.1840390215,3.101463,1.346019,-2.881033,0.00015999999999993797,0.00021000000000004349,-1.9999999999992246e-05,-0.00035926973510669313,9.189495091344035e-05,-0.0002158200438684421
1504281261.56,-1.0,-0.0802772369,-0.04372785235,-0.07930637855,0.027103,-0.023976,0.010962,0.08580818750000001,-9.55970874635,2.1851569796,3.102344,1.34591,-2.882163,0.00017000000000000348,0.00022999999999995246,-2.0000000000020002e-05,-0.0003580771279205752,8.894697151129449e-05,-0.0001817190581637762
1504281261.57,-1.0,-0.06616546755,-0.02625240205,-0.07915927879999998,0.029252,-0.021862,0.010964,0.0841214437,-9.5593851269,2.1866475904,3.103141,1.34576,-2.883192,0.00017000000000000348,0.0002300000000000635,-1.9999999999992246e-05,-0.0003883503554029666,9.44178491666392e-05,-0.00016028309101567828
1504281261.58,-1.0,-0.05225963785,-0.018524761849999998,-0.0804733699,0.030412,-0.013341,0.005615,0.08293483904999999,-9.55902228085,2.1882754943,3.103712,1.345596,-2.883922,0.00017000000000000348,0.00022999999999995246,-1.9999999999992246e-05,-0.00041832509390782313,8.353498092761313e-05,-0.00011268263564667702
1504281261.59,-1.0,-0.0588595133,-0.014288289049999998,-0.07610941064999999,0.031518,-0.01015,0.00241,0.0819051408,-9.55863001485,2.1900406912999997,3.104213,1.345415,-2.884533,0.00017000000000000348,0.0002500000000000835,-3.0000000000002247e-05,-0.00042887968155946865,9.710208183610902e-05,-6.683966316112233e-05
1504281261.6,-1.0,-0.0471111466,-0.0118072066,-0.08041453,0.030499,-0.005876,-0.0008,0.08122848195,-9.558267168799999,2.1916489819,3.104548,1.345249,-2.884931,0.00017000000000000348,0.00025999999999992696,-3.0000000000002247e-05,-0.0005569947973613765,0.00017809811727276248,-1.561786688319966e-05
1504281261.61,-1.0,-0.0476995456,-0.00405014645,-0.084533323,0.028397,-0.001596,-0.00081,0.0804733699,-9.55794354935,2.1930807528,3.104915,1.345103,-2.885306,0.00017000000000000348,0.00026999999999999247,-4.000000000001225e-05,-0.000651843024331189,0.00020127443518180854,-9.500299355980069e-06
1504281261.62,-1.0,-0.03325435015,0.00132389775,-0.08355265799999999,0.029513,0.004788,-0.000819,0.07994381079999999,-9.55762973655,2.1944929103999997,3.105182,1.344957,-2.885546,0.00017000000000000348,0.000280000000000058,-2.999999999997449e-05,-0.0007032551586041436,0.00016690094225313423,3.303595662562664e-05
1504281261.63,-1.0,-0.039844418949999995,-0.010198915999999999,-0.07608979735,0.033756,0.002621,0.000261,0.0791985054,-9.55717863065,2.1964542404,3.105549,1.344755,-2.88587,0.00017000000000000348,0.00029999999999996696,-5.000000000002225e-05,-0.000762821262005442,0.0002265089781834373,8.052311222805919e-05
1504281261.64,-1.0,-0.0260268491,-0.01942697365,-0.07967903125,0.039117,0.006838,0.001331,0.0785512665,-9.5566392649,2.198847063,3.105884,1.344507,-2.886145,0.00017000000000000348,0.00029000000000001247,-3.999999999998449e-05,-0.0007881998926813072,0.00023251687609149307,8.789279451726362e-05
1504281261.65,-1.0,-0.0283608318,-0.04982758864999999,-0.0779236409,0.043394,0.008933,0.002403,0.07774712119999999,-9.5560116393,2.20158311835,3.106294,1.344224,-2.886469,0.00017999999999995797,0.00031000000000003247,-4.000000000001225e-05,-0.000754838730874452,0.00025125702540851336,0.00011628245291128714
1504281261.66,-1.0,-0.035686399349999995,-0.056584370499999995,-0.053357982649999997,0.046602,0.009972,0.002407,0.076688003,-9.555236913949999,2.20499583255,3.106828,1.343871,-2.886906,0.00019000000000002348,0.00030999999999992145,-3.999999999998449e-05,-0.0007420963367819056,0.00024836381923543094,0.00011232474873601461
1504281261.67,-1.0,-0.0033342610000000003,-0.06357651195,-0.05687856999999999,0.041274,0.011082,0.002396,0.07606037739999999,-9.55453083515,2.20807512065,3.107159,1.343551,-2.887143,0.00019999999999997797,0.00031000000000003247,-3.0000000000002247e-05,-0.0007214119827949617,0.00027011308401569956,0.00014447070319034694
1504281261.68,-1.0,0.006246836049999999,-0.06316463265,-0.05769252195,0.038072,0.011108,0.00239,0.07559946484999999,-9.5538934029,2.2108307893,3.107409,1.343265,-2.887277,0.00019000000000002348,0.00029000000000001247,-4.000000000001225e-05,-0.0006977407385018175,0.0002487965492843358,0.00015622529275549635
1504281261.69,-1.0,0.016465365349999997,-0.0519164051,-0.06003631129999999,0.036995,0.010051,0.00239,0.07540333184999999,-9.553314810549999,2.2133216784,3.107536,1.343005,-2.887306,0.00019999999999997797,0.00029999999999996696,-3.0000000000002247e-05,-0.0006586336399345694,0.00022565745719771435,0.00014361392993034183
1504281261.7,-1.0,0.030469261549999998,-0.0537796686,-0.06718535915,0.035895,0.006862,0.00346,0.07547197839999999,-9.55280486475,2.21552817465,3.107542,1.342773,-2.887249,0.00021000000000004349,0.000300000000000078,-3.0000000000002247e-05,-0.0005764276595707774,0.00020547268576076583,0.00014117591972484522
1504281261.71,-1.0,0.027556686499999997,-0.056231331100000004,-0.07505029245,0.03589,0.005798,0.002394,0.07554062495,-9.552304725599999,2.21770525095,3.107543,1.342545,-2.887214,0.00021000000000004349,0.00029999999999996696,-3.0000000000002247e-05,-0.0005238562554175097,0.0001812183072305018,9.749065586306394e-05
1504281261.72,-1.0,0.0479545185,-0.05427980775,-0.07401078755,0.042238,-0.000648,0.002415,0.07608979735,-9.551706519949999,2.2202647865999996,3.107333,1.342276,-2.887009,0.00021999999999999797,0.00029999999999996696,-3.999999999998449e-05,-0.00044166476454998715,0.00016097960758831853,9.512966281322033e-05
1504281261.73,-1.0,0.0621937743,-0.0433846196,-0.06277236665,0.046461,-0.006011,0.002431,0.07711949559999999,-9.5509317946,2.2235402076999997,3.106922,1.341929,-2.886684,0.00021999999999999797,0.00031000000000003247,-3.0000000000002247e-05,-0.00040752976979430144,0.0001257745054923376,6.124397707230056e-05
1504281261.74,-1.0,0.0842979634,-0.02191786275,-0.05224002455,0.045376,-0.008133,0.00243,0.07850223325,-9.550098229349999,2.2270706017,3.106356,1.341555,-2.886222,0.00022999999999995246,0.00031999999999998696,-4.000000000001225e-05,-0.00040300923351299645,0.00014235010456520314,2.1057589110862196e-05
1504281261.75,-1.0,0.08393511735,-0.006648908699999999,-0.052083118149999996,0.047473,-0.014541,-0.000759,0.080218397,-9.54921563085,2.2308069353499995,3.10565,1.341157,-2.885671,0.00024999999999997247,0.0003300000000000525,-2.999999999997449e-05,-0.000402258884276252,0.0001442593271503423,-6.391888311862992e-06
1504281261.76,-1.0,0.08044394995,-0.00459931885,-0.07367736144999999,0.048529,-0.015616,-0.000757,0.08191494744999998,-9.548421292199999,2.23414119635,3.104944,1.340802,-2.88514,0.00024999999999997247,0.00033999999999989594,-5.000000000002225e-05,-0.00045815648737446146,0.00021631813362232855,-4.1864055037033054e-06
1504281261.77,-1.0,0.0751385523,0.00118660465,-0.07746272835,0.04849,-0.020942,-0.001817,0.08377821095,-9.547617146899999,2.237485264,3.104168,1.340445,-2.884578,0.0002550000000000052,0.00036999999999998145,-4.999999999999449e-05,-0.0006212113033350342,0.00026554318793814424,-2.3323364894967114e-05
1504281261.78,-1.0,0.0569766365,0.0062958693,-0.07081381965,0.049542,-0.022018,-0.000748,0.08532766165,-9.546744355049999,2.2411529510999997,3.103538,1.340055,-2.884182,0.0002550000000000052,0.0003700000000000925,-4.999999999999449e-05,-0.0006212145892012799,0.00026552869801954593,-2.3488236901458848e-05
1504281261.79,-1.0,0.03199909895,-0.0046679654,-0.08107157555,0.055941,-0.022071,-0.000737,0.08651426629999999,-9.545802916649999,2.2451344509999998,3.103077,1.339633,-2.883956,0.0002849999999999797,0.00034999999999996145,-1.0000000000010001e-05,-0.0007080192862374268,0.00026614224185217417,6.314837048182476e-05
1504281261.8,-1.0,0.005933023249999999,-0.020976424349999998,-0.07827668029999998,0.061265,-0.02318,-0.000726,0.0872987983,-9.544763411749999,2.24951802355,3.102806,1.339171,-2.883908,0.00028500000000009074,0.00034999999999996145,-9.999999999982245e-06,-0.0007079984716622523,0.0002661866313740102,6.295953464585669e-05
1504281261.81,-1.0,-0.01226811915,-0.036010018799999995,-0.0433846196,0.063423,-0.020001,-0.000728,0.0876910643,-9.543488547249998,2.25487245445,3.102724,1.338609,-2.884037,0.00027999999999994696,0.0003700000000000925,-1.0000000000010001e-05,-0.0007301024171797454,0.00023270556932142306,9.843810440091083e-05
1504281261.82,-1.0,-0.00348136075,-0.06329211909999999,-0.035147033599999995,0.06131,-0.017852,-0.001803,0.08818139679999999,-9.54225290935,2.26010920555,3.102598,1.338058,-2.884101,0.000280000000000058,0.00036999999999998145,-1.0000000000010001e-05,-0.0007680789718813585,0.00026414456707790634,-5.7902393880704395e-06
1504281261.83,-1.0,-0.008629852,-0.0620957078,-0.047817225399999996,0.063446,-0.016805,-0.000733,0.0885344362,-9.5410466914,2.26514982365,3.102528,1.337529,-2.884199,0.00029000000000001247,0.00036999999999998145,-9.999999999982245e-06,-0.000749349125256149,0.00021466154054472497,1.1025389189622814e-05
1504281261.84,-1.0,-0.0049915848499999995,-0.038638201,-0.03965809259999999,0.059227,-0.012504,-0.00395,0.08908360859999999,-9.53982086015,2.27030812155,3.102372,1.336986,-2.884178,0.00028999999999990145,0.00036999999999998145,-1.0000000000010001e-05,-0.000712558534158525,0.00019116543893815674,5.522208289310271e-06
1504281261.85,-1.0,0.00965955025,-0.0146511351,-0.06122291595,0.060289,-0.013578,-0.005014,0.0900054337,-9.53866367545,2.2751035734,3.102054,1.33648,-2.883995,0.000300000000000078,0.00038000000000004697,-1.9999999999992246e-05,-0.0007399483210306368,0.00019794127343764067,6.076498284435239e-06
1504281261.86,-1.0,0.010600988649999999,-0.020662611549999998,-0.07902198569999999,0.05922,-0.013569,-0.005016,0.09100571199999999,-9.53758494395,2.2795950191,3.101691,1.336006,-2.883779,0.00029999999999996696,0.00039000000000000146,-1.9999999999992246e-05,-0.0007426443112878989,0.00018605454687392609,-2.237008208816338e-05
1504281261.87,-1.0,0.0234575068,-0.039530606149999994,-0.0848863624,0.060255,-0.014648,-0.000744,0.09191773044999998,-9.5365356324,2.28395897835,3.101369,1.335545,-2.88361,0.00031000000000003247,0.00041000000000002146,-1.0000000000010001e-05,-0.0007809168551971002,0.0002111332615157835,-3.7675740817255665e-05
1504281261.88,-1.0,0.0292630436,-0.056564757199999996,-0.10066526225,0.064504,-0.014686,0.002465,0.0925355494,-9.535505934149999,2.28821506445,3.101174,1.335096,-2.883562,0.00031999999999998696,0.00041999999999997595,-1.0000000000010001e-05,-0.0009141877100542484,0.0002595572272776625,-4.7278436109521316e-05
1504281261.89,-1.0,0.021182364,-0.087475318,-0.07769808795,0.064477,-0.015755,0.005669,0.0926924558,-9.53436836275,2.2929320631,3.101191,1.334601,-2.883747,0.00031000000000003247,0.00043999999999999595,5.0000000000050004e-06,-0.0009737612565494658,0.0003169891602683439,-3.287915839045308e-05
1504281261.9,-1.0,0.018828768,-0.1023225861,-0.0540542548,0.064475,-0.015755,0.005668,0.09280032894999998,-9.5331425315,2.29802171445,3.101233,1.334067,-2.883955,0.00031999999999998696,0.00044999999999995044,5.0000000000050004e-06,-0.001018072908114842,0.00037247700586839905,-4.2933118339694154e-05
1504281261.91,-1.0,0.00140235095,-0.0729810893,-0.0556821587,0.061273,-0.015729,0.005663,0.09256496934999998,-9.5319657335,2.3029348461,3.101419,1.333553,-2.884305,0.00032999999999994145,0.00045000000000006146,1.9999999999992246e-05,-0.0010393593632429532,0.00040485824387870295,-1.3516212885478218e-05
1504281261.92,-1.0,-0.0012356379,-0.048444851,-0.06006573125,0.064504,-0.013621,0.002462,0.09251593609999999,-9.53075951555,2.30792643095,3.101527,1.33303,-2.884557,0.0003300000000000525,0.00046000000000001595,1.0000000000010001e-05,-0.0009832728290275483,0.0003947629729474933,-7.0018033977437e-05
1504281261.93,-1.0,0.019760399749999998,-0.050916126799999996,-0.07024503395,0.067733,-0.012577,-0.001804,0.09321220824999998,-9.52948465105,2.31316318205,3.101317,1.332479,-2.88448,0.00034999999999996145,0.00044999999999995044,9.999999999982245e-06,-0.0008844373838592379,0.0003226700054848042,-0.00012390005593876374
1504281261.94,-1.0,0.05135742605,-0.0318519992,-0.07859049309999999,0.068749,-0.020043,-0.003925,0.09484011215,-9.528199979899998,2.3183705132,3.100709,1.331925,-2.884061,0.00034999999999996145,0.00046999999999997044,-3.333333333327415e-06,-0.0007857263076878063,0.00031373425397696053,-0.0001426016813210751
1504281261.95,-1.0,0.08931896819999999,-0.0235163467,-0.0849648156,0.066556,-0.02642,-0.002853,0.097281968,-9.526954535349999,2.3233915179999998,3.099746,1.331388,-2.88337,0.00036000000000002697,0.00046999999999997044,-3.333333333327415e-06,-0.0007525787257538497,0.00027335700750308334,-0.00021094931847143172
1504281261.96,-1.0,0.08369975774999999,-0.0234182802,-0.1173267606,0.066498,-0.030686,0.001422,0.09944923765,-9.52585619055,2.32777509055,3.098894,1.330919,-2.882847,0.00036999999999998145,0.00048000000000003595,-3.333333333327415e-06,-0.0007686246358356019,0.00020722857166899367,-0.00025649972875174676
1504281261.97,-1.0,0.06275275335,-0.03190103245,-0.13530235005,0.066411,-0.037086,0.007836,0.1007927487,-9.52485591225,2.331825237,3.098393,1.330488,-2.882721,0.0003700000000000925,0.000500000000000056,-1.0000000000010001e-05,-0.0007686768068488892,0.00020703167507574172,-0.00025665862673318607
1504281261.98,-1.0,0.0448752304,-0.01750487025,-0.1476293091,0.068467,-0.042438,0.014252,0.10132230779999998,-9.523845827299999,2.3359244166999997,3.098245,1.330056,-2.883016,0.00039000000000000146,0.0004899999999999904,-9.999999999982245e-06,-0.0008029477009039443,0.00012996829705191892,-0.00029233097953640375
1504281261.99,-1.0,0.017955976149999997,-0.009296704199999999,-0.15950516225,0.073737,-0.044622,0.022804,0.10070448885,-9.522767095799999,2.3403177959,3.09859,1.329597,-2.883825,0.00039999999999995595,0.0005100000000000104,-1.0000000000010001e-05,-0.0007303754633796178,0.00018724277263881817,-0.0003305814621673564
1504281262.0,-1.0,-0.00784532,-0.019917306149999998,-0.17070435655,0.073676,-0.045697,0.032413,0.09883141869999999,-9.5217275909,2.3446425285499997,3.099468,1.329152,-2.885199,0.00043000000000004146,0.0005299999999999194,5.0000000000050004e-06,-0.0006236513121322673,0.0003214174328753927,-0.00033341063878655763
1504281262.01,-1.0,-0.01256231865,-0.05088670685,-0.17818683049999998,0.077864,-0.051067,0.038834,0.09620323649999998,-9.520688086,2.34897706785,3.100658,1.328709,-2.88692,0.00044999999999995044,0.0005300000000000304,5.0000000000050004e-06,-0.000566309819865829,0.0003807417459729123,-0.00034744015118970406
1504281262.02,-1.0,0.0024712758,-0.08843636969999999,-0.17607840074999997,0.077824,-0.052138,0.044173,0.09330046809999999,-9.519648581099998,2.3533116071499998,3.101968,1.328266,-2.888805,0.00046999999999997044,0.0005500000000000504,9.999999999982245e-06,-0.0005249641053954868,0.00043027591870559156,-0.0003723524776169107
1504281262.03,-1.0,0.0021770762999999997,-0.09152546444999998,-0.1562787744,0.078867,-0.053214,0.046312,0.09015253344999999,-9.518501203049999,2.3580482191,3.10338,1.327782,-2.890804,0.000500000000000056,0.0005499999999999394,1.9999999999992246e-05,-0.00044701176078154603,0.00045546631082515887,-0.0003886089010466387
1504281262.04,-1.0,0.00463854545,-0.0622918408,-0.13556712959999997,0.080975,-0.055364,0.047386,0.08693595224999999,-9.51720672525,2.3633732300499997,3.104825,1.327235,-2.892855,0.0004999999999999449,0.0005700000000000705,3.0000000000002247e-05,-0.00042283350397820385,0.0004919483573422312,-0.0003695532816299085
1504281262.05,-1.0,0.0254776767,-0.0416782625,-0.1117761967,0.07885,-0.053217,0.048446,0.08390569739999999,-9.5158239876,2.3690610870499995,3.106191,1.32665,-2.894823,0.000520000000000076,0.0005799999999999139,3.0000000000002247e-05,-0.00040800440489441314,0.0004908154806357867,-0.0003344066687299696
1504281262.06,-1.0,0.02076067805,-0.02352615335,-0.10379358359999999,0.078855,-0.052152,0.048444,0.0808460226,-9.514372603399998,2.3749941103,3.107565,1.326038,-2.896796,0.0005299999999999194,0.0005900000000000905,3.0000000000002247e-05,-0.00036622035686617593,0.0004803227463450188,-0.000332055138793641
1504281262.07,-1.0,0.025909169299999996,-0.014808041499999999,-0.1152281375,0.082058,-0.052177,0.047381,0.07794325419999999,-9.512921219199999,2.38088790695,3.108869,1.325429,-2.89868,0.0005399999999999849,0.0006099999999999994,1.9999999999992246e-05,-0.0003260626989778359,0.0004703934202487936,-0.00033639358502712824
1504281262.08,-1.0,0.0274193934,-0.0181226892,-0.16058389374999998,0.086291,-0.05541,0.048461,0.07508951905,-9.5115482882,2.3864482775,3.11014,1.324854,-2.900563,0.0005500000000000504,0.0006299999999999084,1.0000000000010001e-05,-0.000254263441422653,0.00040713985334628333,-0.0003865368595119545
1504281262.09,-1.0,0.0314793465,-0.045698988999999995,-0.19120025505,0.0937,-0.060802,0.050617,0.07222597724999999,-9.51016555055,2.39206748795,3.11141,1.324273,-2.902503,0.0005699999999999594,0.0006400000000000849,1.0000000000010001e-05,-0.00022080526951229196,0.0003698134648597584,-0.0003923989492632396
1504281262.1,-1.0,0.05290687674999999,-0.0920844435,-0.21038206245,0.104301,-0.067285,0.052781,0.06964682829999999,-9.5086651331,2.3980789644,3.11256,1.323648,-2.904386,0.0005800000000000249,0.0006799999999999029,9.999999999982245e-06,-0.0002736551017590294,0.00032791379410590515,-0.0004464451385818302
1504281262.11,-1.0,0.07987516424999999,-0.11141335064999999,-0.20061463905,0.116053,-0.06525,0.051728,0.06751878524999999,-9.506841096199999,2.4053751119999998,3.113529,1.322889,-2.906094,0.0005899999999999794,0.0007100000000000994,1.0000000000010001e-05,-0.0002920414405855887,0.00037857276136277207,-0.0004914446274543183
1504281262.12,-1.0,0.109638347,-0.10090062184999998,-0.2072537411,0.124541,-0.06852,0.054948,0.06589088135,-9.50479150635,2.4135146315,3.1143,1.322037,-2.907645,0.0006099999999999994,0.0007299999999998974,1.0000000000010001e-05,-0.0003818201725782622,0.0003748053086418679,-0.0005532155527359084
1504281262.13,-1.0,0.11129567084999999,-0.07240249694999999,-0.2396549127,0.13415,-0.067533,0.053893,0.06422375085,-9.502614430049999,2.42211506355,3.115083,1.321137,-2.9092,0.0006300000000000194,0.0007700000000000484,9.999999999982245e-06,-0.0004187766069603249,0.0003988894888784511,-0.0005621791379051277
1504281262.14,-1.0,0.1004004827,-0.061674021849999996,-0.26767251175,0.141625,-0.066528,0.052834,0.06239971394999999,-9.500319673949999,2.4311273748999995,3.115931,1.320193,-2.910803,0.0006599999999999939,0.0007800000000000029,-9.999999999982245e-06,-0.00045428202740760426,0.00043634903854239404,-0.0005633521981489586
1504281262.15,-1.0,0.09582077715,-0.04542440279999999,-0.28510873545,0.14377,-0.065479,0.050698,0.0607031635,-9.49800530455,2.4401887194999996,3.116721,1.319245,-2.91234,0.0006800000000000139,0.0008099999999999774,-2.0000000000020002e-05,-0.0004375563299259255,0.0004491167659570472,-0.0006074747872063524
1504281262.16,-1.0,0.10012589649999999,-0.0136900834,-0.25637525094999997,0.137351,-0.067556,0.049621,0.05924197265,-9.495632095249999,2.44945600375,3.117413,1.318273,-2.913793,0.0007000000000000339,0.0008400000000000629,-1.9999999999992246e-05,-0.00047152362270885817,0.0004860416630390052,-0.0006020332573569709
1504281262.17,-1.0,0.11680700814999999,0.0187895414,-0.2240231126,0.132025,-0.066446,0.048539,0.058271114299999996,-9.493249079299998,2.4587134813500002,3.117898,1.317301,-2.915036,0.0007300000000000084,0.0008500000000000174,-3.0000000000002247e-05,-0.0005236046567107522,0.0005119918537217494,-0.0005868283442352906
1504281262.18,-1.0,0.1160518961,0.025752262899999996,-0.23099564074999998,0.137366,-0.06436,0.049609,0.057231609399999994,-9.4907778035,2.4682357385,3.11841,1.316301,-2.9163,0.0007599999999999829,0.0008799999999999919,-3.999999999998449e-05,-0.0005965371718814616,0.000452408513228697,-0.000521552447598328
1504281262.19,-1.0,0.0996747906,-0.010395048999999998,-0.25249181755,0.150146,-0.064469,0.052831,0.05565273875,-9.4881496213,2.4783562013,3.119142,1.315238,-2.917764,0.0007800000000000029,0.0008899999999999464,-5.000000000002225e-05,-0.0005534802798168315,0.0005681075325272289,-0.00044300162286659006
1504281262.2,-1.0,0.06851906355,-0.0478956786,-0.25237413775,0.164995,-0.065652,0.058178,0.05298532994999999,-9.48521743295,2.4896142354999995,3.120314,1.314058,-2.919675,0.0008099999999999774,0.0009099999999999664,-3.999999999998449e-05,-0.0005079547771287274,0.0005670424684491859,-0.0003646005165158783
1504281262.21,-1.0,0.05206350485,-0.06308617945,-0.2549532867,0.181968,-0.071131,0.067822,0.04938628939999999,-9.48184394535,2.5025099802499997,3.121859,1.312706,-2.922015,0.0008299999999999974,0.0009200000000000319,-6.0000000000004494e-05,-0.0004164106896731301,0.0005293531857368805,-0.0003567469721433847
1504281262.22,-1.0,0.0311459204,-0.07546217174999999,-0.27202666435,0.191474,-0.077611,0.075321,0.04486542375,-9.4783037447,2.515994124,3.123762,1.311293,-2.924795,0.0008599999999999719,0.0009299999999999864,-4.999999999999449e-05,-0.00030221429976506897,0.0005085266142910161,-0.00022105967636498747
1504281262.23,-1.0,0.0009610516999999999,-0.0968112488,-0.2775478083,0.206434,-0.072409,0.077473,0.039295246549999996,-9.4744595379,2.53049815935,3.126065,1.309773,-2.927944,0.0008799999999999919,0.0009299999999999864,-4.999999999999449e-05,-0.00019965853622294638,0.0005093802650133483,-0.00016285918632630292
1504281262.24,-1.0,0.00463854545,-0.16757603519999997,-0.2750176926,0.234362,-0.051323,0.072147,0.033666229449999995,-9.4699877055,2.54726753085,3.128376,1.30801,-2.930929,0.0009000000000000119,0.0009400000000000519,-5.000000000002225e-05,-0.00011693683375657571,0.00042792424688431474,-0.00010928075441862806
1504281262.25,-1.0,0.042904093750000004,-0.2264159352,-0.2087051253,0.27398,-0.038852,0.062586,0.029223817,-9.46427042855,2.56848912145,3.130217,1.305775,-2.933267,0.0009200000000000319,0.0009500000000000064,-3.999999999998449e-05,-0.00013257275416744818,0.0003565409181103263,-6.544612878156553e-05
1504281262.26,-1.0,0.08850501625,-0.2069791549,-0.19256337939999998,0.29737,-0.049699,0.060508,0.0259680092,-9.45766074645,2.5927507735499997,3.131577,1.303215,-2.935176,0.0009400000000000519,0.0009599999999999609,-4.000000000001225e-05,-0.0001611372011462997,0.0003020144418930393,-1.684275863533813e-05
1504281262.27,-1.0,0.10711803795,-0.08560224785000001,-0.17193999445,0.292992,-0.060323,0.064787,0.023222147199999998,-9.4506489917,2.6182186435999997,3.132725,1.300523,-2.93701,0.0009499999999998954,0.0009600000000000719,-6.0000000000004494e-05,-0.0001810955463144026,0.00027611499860036304,1.2500937788817446e-05
1504281262.28,-1.0,0.11408075944999999,0.06394916465,-0.08887766894999999,0.256665,-0.065354,0.066864,0.0204370586,-9.44383336995,2.6427352686,3.133858,1.297931,-2.938897,0.0009700000000000264,0.0009699999999999154,-6.999999999998674e-05,-0.00012900456360354084,0.0003079413113937779,3.8105087162287887e-06
1504281262.29,-1.0,0.16539895889999998,0.11109953785,-0.09396732029999999,0.223605,-0.069333,0.057203,0.01925045395,-9.4378611201,2.6639862791499995,3.134366,1.29568,-2.940205,0.0010100000000000664,0.0009799999999999809,-9.000000000000674e-05,-8.241677054110497e-05,0.0003307074591158976,-8.752175053894362e-05
1504281262.3,-1.0,0.284785116,0.09878238545,-0.10823599604999999,0.203339,-0.074483,0.047564,0.0215157901,-9.4325851424,2.6825993008499998,3.133571,1.293706,-2.940272,0.0010299999999999754,0.0010000000000000009,-9.999999999998899e-05,-2.7013658665309137e-05,0.0004401264586366693,-0.0001914676885046429
1504281262.31,-1.0,0.33987887569999997,0.0886913426,-0.0741775006,0.195889,-0.0808,0.033677,0.025987622499999998,-9.4274268445,2.7006141169,3.131972,1.291791,-2.939609,0.0010499999999999954,0.0010200000000000209,-0.00010999999999999899,-4.491147031848719e-05,0.0004937644680447217,-0.00029147196669021547
1504281262.32,-1.0,0.3880687538,0.07297128265,-0.07950251154999999,0.203059,-0.112834,0.042275,0.0318127726,-9.422180286749999,2.71880545265,3.129891,1.289855,-2.938709,0.0010799999999999699,0.0010499999999999954,-0.00010000000000001674,-0.0001593504394048484,0.0005158089086254591,-0.0004550787942732004
1504281262.33,-1.0,0.43032560865,0.1051469013,-0.07093149944999999,0.218484,-0.165209,0.074416,0.029665116249999998,-9.41634533,2.73896792505,3.130763,1.287717,-2.941182,0.0011200000000000099,0.001080000000000081,-0.00010999999999999899,-0.0003208362118851671,0.0005698918852272694,-0.0004660255366047972
1504281262.34,-1.0,0.39715951834999996,-0.037284883299999995,-0.10394068335000001,0.21474,-0.218483,0.097987,0.026615248099999995,-9.410382886799999,2.7594049836499996,3.131949,1.28555,-2.944568,0.0011499999999999844,0.0011199999999998989,-9.999999999998899e-05,-0.000565888127156633,0.0005890751860349042,-0.0005442375696977919
1504281262.35,-1.0,0.34767516244999996,-0.1390975236,-0.06026186425,0.175049,-0.242669,0.10223,0.0235751866,-9.40523439555,2.77693927385,3.133102,1.283689,-2.948253,0.0011800000000000699,0.0011700000000000044,-0.00010999999999999899,-0.0008448365824857973,0.0006451696863063461,-0.0006173435489820189
1504281262.36,-1.0,0.3674944021,-0.13261532795,-0.044316251349999995,0.119524,-0.250731,0.097869,0.0273997801,-9.40184129465,2.78837382775,3.131768,1.28247,-2.949639,0.0012199999999999989,0.0011900000000000244,-0.00010999999999999899,-0.0011617186195107543,0.0006640078626292123,-0.0006515913584091981
1504281262.37,-1.0,0.3719270079,-0.0872987983,-0.045287109699999994,0.079912,-0.27171,0.091433,0.026105302299999997,-9.3994190521,2.7965231538999995,3.132256,1.281604,-2.952919,0.0012399999999999078,0.0012100000000000444,-0.00014000000000000123,-0.001409633985750336,0.0007209229088915858,-0.00062223357887492
1504281262.38,-1.0,0.38052743994999993,-0.06625372739999999,0.00246146915,0.071113,-0.304671,0.091476,0.025889555999999998,-9.397418495499998,2.8032407091500002,3.132357,1.280889,-2.956111,0.0012600000000000389,0.0012199999999999989,-0.00015999999999999348,-0.001567668817126,0.0007821600865622891,-0.000531100663155315
1504281262.39,-1.0,0.21698193789999998,0.054642653799999996,0.040815277299999994,0.094307,-0.336835,0.095842,0.0261837555,-9.395015866249999,2.81128216215,3.132279,1.280033,-2.95947,0.0012900000000000134,0.0012099999999999334,-0.00021000000000001573,-0.001471723701228056,0.0006895162469926497,-0.0003374823943083083
1504281262.4,-1.0,-0.038765687449999996,0.24158682274999999,0.03223445855,0.139069,-0.34466,0.0938,0.0263406619,-9.39087745995,2.825099732,3.132269,1.278562,-2.963033,0.0012799999999999478,0.0011900000000000244,-0.00023999999999999022,-0.0014071820176044803,0.0008801790526022923,-0.00010519456018853734
1504281262.41,-1.0,-0.2705458602,0.36940669885,0.10143018094999999,0.186198,-0.323733,0.090643,0.0270859673,-9.3859643283,2.8413395444,3.132062,1.276831,-2.966266,0.0012400000000000189,0.0011400000000000299,-0.00028000000000000247,-0.0012254306655556935,0.0009517539063315095,0.00020370154859372658
1504281262.42,-1.0,-0.5576257323,0.36632741074999997,0.24715699994999998,0.214181,-0.302636,0.07571,0.0283608318,-9.38005091835,2.8608155512999995,3.131681,1.274755,-2.969089,0.0011900000000000244,0.0011200000000000099,-0.00031999999999998696,-0.0011388411764818862,0.0010453044985485604,0.0005442283921586188
1504281262.43,-1.0,-0.8512760598999999,0.31421487265,0.33988868235,0.206115,-0.259918,0.050003,0.030812494299999996,-9.374029635249999,2.8804680779,3.130895,1.272657,-2.971111,0.0010999999999999899,0.0010799999999999699,-0.00035000000000001696,-0.000999285384734483,0.0010607388735501821,0.0007537740126978276
1504281262.44,-1.0,-1.07544627225,0.2526977572,0.3847933327,0.181013,-0.212799,0.024259,0.034411534849999995,-9.368616364449998,2.8979631414999996,3.129718,1.270786,-2.972225,0.0009799999999999809,0.0010499999999999954,-0.00039000000000000146,-0.0007252781317055312,0.0009168679174202943,0.0008808055434302853
1504281262.45,-1.0,-1.31372825395,0.21625624579999997,0.39224638669999995,0.156967,-0.171009,-0.007878,0.039716932499999996,-9.3638993658,2.91309480245,3.127959,1.269163,-2.972282,0.0008200000000000429,0.0010200000000000209,-0.0004099999999999937,-0.00033370649463471125,0.0005452565223025285,0.0009084152896350339
1504281262.46,-1.0,-1.41118674165,0.14565817244999998,0.42216647584999994,0.159511,-0.139029,-0.038885,0.04694443354999999,-9.359290240299998,2.92776555085,3.12556,1.267584,-2.971288,0.0006500000000000394,0.0010200000000000209,-0.0004300000000000137,-1.2723159539040907e-05,4.8035092261589085e-06,0.0008588111528020637
1504281262.47,-1.0,-1.4207089988,0.1403527748,0.4054265242999999,0.185423,-0.12003,-0.069828,0.056466690699999995,-9.35398484265,2.94451530905,3.122418,1.265777,-2.96931,0.00044999999999995044,0.0010299999999999754,-0.00042999999999998595,0.0001019314207357791,-0.0006579651020468535,0.0007402576333859212
1504281262.48,-1.0,-1.3745883238499998,0.10743185074999999,0.33909434369999997,0.212317,-0.103184,-0.08689,0.0673520722,-9.34784587975,2.9637069230999997,3.11887,1.2637,-2.966727,0.00027999999999994696,0.0010700000000000154,-0.0004300000000000137,7.492107434980966e-05,-0.0012481655981653184,0.0007241400024997624
1504281262.49,-1.0,-1.3221129396999998,0.06002650464999999,0.2884135765,0.218902,-0.086179,-0.096515,0.0789239192,-9.34129503755,2.9840066885999996,3.115151,1.261498,-2.963773,0.0001300000000000745,0.0011499999999999844,-0.0003999999999999837,-0.00016539360487954902,-0.0015014055490414346,0.0005318449117062141
1504281262.5,-1.0,-1.3332827140499999,-0.09411442005,0.34252667119999997,0.215846,-0.068038,-0.096552,0.0902407933,-9.3346951621,3.0042672274999997,3.111563,1.259295,-2.96076,-3.500000000000725e-05,0.0012499999999999734,-0.0003599999999999992,-0.0005594180988091058,-0.001366964968808393,0.0003281501881147175
1504281262.51,-1.0,-1.3912105955999998,-0.1268392111,0.32547290685,0.214758,-0.062714,-0.083755,0.10043970929999999,-9.3281639332,3.02416492035,3.108392,1.257129,-2.958082,-3.500000000000725e-05,0.0013699999999999823,-0.00029000000000001247,-0.0010930616504525315,-0.000787305322775822,6.084183925836317e-05
1504281262.52,-1.0,-1.3621142650499998,-0.1913081282,0.2325352848,0.208168,-0.066955,-0.052804,0.10800063644999999,-9.3217503841,3.0436311205999997,3.106124,1.255015,-2.956384,-0.00012000000000000899,0.0014700000000000824,-0.00019999999999997797,-0.0014687113675431185,-0.00010784138283437272,-5.384463200974743e-05
1504281262.53,-1.0,-1.07660345695,-0.40394572014999997,0.0709609194,0.200502,-0.079699,-0.033582,0.1138355932,-9.31546432145,3.0625971817,3.10444,1.252958,-2.955407,-0.00014999999999998348,0.0015699999999999603,-0.00014000000000000123,-0.0016865457448027588,0.0005566210696559271,8.774492667484868e-05
1504281262.54,-1.0,-1.02194118985,-0.2903160666,0.21146079394999998,0.175705,-0.096569,-0.009045,0.11813090589999999,-9.309835304349999,3.0795234596,3.103251,1.251125,-2.955117,-0.000140000000000029,0.0016399999999999748,-7.00000000000145e-05,-0.0018189405770956402,0.0007259385726900991,-2.2905198857836595e-05
1504281262.55,-1.0,-0.8758319115,-0.11060920535,0.20834227924999998,0.146708,-0.112328,0.003742,0.121210194,-9.305039852499998,3.0938607818999997,3.102436,1.249573,-2.955393,-0.00014999999999998348,0.0017000000000000348,-3.999999999998449e-05,-0.001682395746166243,0.0010975555183894148,0.0002029338947825421
1504281262.56,-1.0,-0.6995573777499999,-0.029723956149999998,0.0330484105,0.120885,-0.138756,0.004811,0.12479942789999998,-9.3010779659,3.1055993419499996,3.101429,1.248296,-2.955722,-0.00012999999999996348,0.0017500000000000293,-2.0000000000020002e-05,-0.0014810727335050622,0.0013195138544408458,0.0003425674106971588
1504281262.57,-1.0,-0.592713926,0.1746760498,-0.0490724766,0.096102,-0.165199,0.011219,0.12882996105,-9.297930031249999,3.1148470129,3.100255,1.247285,-2.956155,-0.00012000000000000899,0.0017999999999999128,-1.9999999999992246e-05,-0.0012510457045884493,0.0015982065655810729,0.00037806290791786434
1504281262.58,-1.0,-0.49603016364999997,0.16705628275,-0.0693330155,0.071312,-0.190579,0.020828,0.13286049419999998,-9.295547015299999,3.1217901211,3.099059,1.246521,-2.956844,-0.0001100000000000545,0.0018500000000000183,-4.000000000001225e-05,-0.0009975134019626353,0.0017369687801505052,0.0004696839582859491
1504281262.59,-1.0,-0.41421328269999996,0.047523025899999995,-0.034607667849999996,0.053914,-0.223482,0.033664,0.1367831542,-9.2937818183,3.1268699658,3.097876,1.245957,-2.957877,-0.00012999999999996348,0.0019200000000000328,-4.999999999999449e-05,-0.0011112860006905478,0.002130161332991376,0.00010654290247280596
1504281262.6,-1.0,-0.4420053288,-0.0192406473,-0.03778502245,0.049448,-0.241572,0.044363,0.14034296815,-9.2922519809,3.1312437317,3.096804,1.24547,-2.959269,-0.00017999999999995797,0.0019900000000000473,-6.999999999998674e-05,-0.0012920620236847036,0.002240747950124966,-9.857629714538074e-05
1504281262.61,-1.0,-0.5703057307499999,0.018740508149999998,0.010247949249999999,0.05793,-0.246972,0.046522,0.14369684244999997,-9.2905848504,3.1360293769,3.095805,1.244939,-2.960818,-0.0002300000000000635,0.0020599999999999508,-7.00000000000145e-05,-0.0014649381715181597,0.002259385591321106,-0.0002466104135045999
1504281262.62,-1.0,-0.7315074434500001,0.0646454368,0.0027850886,0.0815,-0.240762,0.036945,0.14761950245,-9.2883097076,3.1425998324,3.094652,1.244212,-2.962178,-0.00029999999999996696,0.0021299999999999653,-9.000000000000674e-05,-0.0015451677145055243,0.0021805011106732497,-0.0003570249058804098
1504281262.63,-1.0,-0.89929922495,0.11337468064999999,0.00031381279999999996,0.105251,-0.218559,0.016666,0.15261108729999998,-9.28525983945,3.1513473642,3.093203,1.243246,-2.963008,-0.00038000000000004697,0.0021900000000000253,-9.999999999998899e-05,-0.001528540096740194,0.0021314841801451934,-0.0003484174037271526
1504281262.64,-1.0,-1.0724356306999998,0.21220609934999998,0.0300671889,0.133405,-0.176152,0.001697,0.1580047448,-9.281297952849998,3.1627524981499997,3.091676,1.241991,-2.963369,-0.00046999999999997044,0.0022300000000000653,-0.00012000000000000899,-0.0013083172192822623,0.002076476894461887,-0.00031682467244820156
1504281262.65,-1.0,-1.2256449236499998,0.21848235535,-0.02185902285,0.164735,-0.134839,-0.010063,0.16322188259999998,-9.276345594599999,3.176962334,3.090261,1.240432,-2.963401,-0.0005600000000000049,0.0022699999999999942,-0.00011999999999998123,-0.001070867690676991,0.002086202582741503,-0.0001853417105571742
1504281262.66,-1.0,-1.3267809051,0.16322188259999998,-0.027066353999999997,0.183256,-0.09555,-0.023977,0.16842921374999997,-9.27060870435,3.1933982793999998,3.088898,1.238634,-2.963065,-0.0006599999999999939,0.0023099999999999232,-0.00015000000000001124,-0.0008353651047667832,0.002084347169487133,-8.82438362015403e-05
1504281262.67,-1.0,-1.4212385579,0.24549967609999998,0.010012589649999999,0.179297,-0.065666,-0.037913,0.17400919759999997,-9.264754134299999,3.2100401644499996,3.087438,1.236808,-2.962284,-0.0007800000000000029,0.0023400000000000087,-0.00015999999999999348,-0.0006102871435016421,0.002038415369243207,6.985597702457991e-05
1504281262.68,-1.0,-1.43688016465,0.33650538809999997,-0.0157494799,0.17314,-0.042158,-0.049648,0.1413138265,-9.25864459135,3.2292121652,3.097859,1.234913,-2.972464,-0.0008799999999999919,0.0023800000000000487,-0.00017000000000000348,-0.0003477659609025796,0.00201141013705719,0.0002983934708578051
1504281262.69,-1.0,-1.42169947045,0.31862786514999997,-0.10927550094999999,0.17553,-0.020848,-0.06676,0.14798234849999997,-9.2528880878,3.2453833310499998,3.096025,1.233136,-2.97081,-0.0010999999999999899,0.0023999999999999577,-0.00020999999999998797,2.9541445439207337e-05,0.0019077753549308074,0.0006473712556464006
1504281262.7,-1.0,-1.4445783848999998,0.19386766384999998,-0.14483441384999998,0.180032,-0.002751,-0.08493,0.15560211554999998,-9.2469452579,3.26193695625,3.093928,1.23131,-2.968649,-0.0012199999999999989,0.0024500000000000632,-0.00021999999999999797,0.0002200811520385315,0.0018279845167596953,0.000798881122061279
1504281262.71,-1.0,-1.3913871153,0.03384274915,-0.15087531024999998,0.186567,0.007861,-0.094544,0.1639083481,-9.2407474551,3.2790495605,3.091648,1.229416,-2.966169,-0.0013300000000000534,0.0024999999999999467,-0.00023000000000000798,0.0002805061812076737,0.0017439471538476248,0.0007334812865781304
1504281262.72,-1.0,-1.3014993613999999,-0.05928119925,-0.16716415589999997,0.176986,0.010077,-0.097716,0.13791091895,-9.2366482754,3.29174917225,3.09972,1.228173,-2.973386,-0.0014600000000000168,0.0025500000000000522,-0.0002500000000000002,0.00029108148754763974,0.0015495342346856233,0.0007545482550748162
1504281262.73,-1.0,-1.25751653615,-0.09838031279999998,-0.20034005284999998,0.159798,-0.002572,-0.094521,0.14675651725,-9.2310780982,3.3069690930499998,3.097243,1.226485,-2.970743,-0.0015899999999999803,0.00262999999999991,-0.0002600000000000102,0.00028735336380592,0.001318192119849737,0.000750893127573149
1504281262.74,-1.0,-1.2422671954,-0.1128353149,-0.25035396784999997,0.138307,-0.016257,-0.085995,0.15544520914999999,-9.2261943865,3.32016884395,3.094807,1.225013,-2.9683,-0.0017199999999999438,0.0027200000000000557,-0.00026999999999999247,0.00023758473265900193,0.0011127848604695068,0.0007283811728423517
1504281262.75,-1.0,-1.28554394185,-0.09797824014999999,-0.3168136349,0.115794,-0.025668,-0.079613,0.1637122151,-9.222055980199999,3.3312601651,3.092488,1.223768,-2.966079,-0.0018500000000000183,0.0028000000000000247,-0.00028000000000000247,0.00017640757683645703,0.000924990022892036,0.0006890428716713748
1504281262.76,-1.0,-1.26253754095,-0.099243298,-0.34736134965,0.092369,-0.010565,-0.068956,0.1366654744,-9.2224286329,3.33142687815,3.100592,1.223882,-2.973645,-0.0019700000000000273,0.002889999999999948,-0.0003100000000000047,0.000192985860268724,0.0007619581007529685,0.0006351881856798691
1504281262.77,-1.0,-1.2698827218,-0.09668376235,-0.41325223099999997,0.08596,-0.00945,-0.065767,0.14281424394999997,-9.21945721795,3.33940949125,3.098854,1.22299,-2.971835,-0.0020900000000000363,0.0030000000000000027,-0.0003100000000000047,0.00020461280901540313,0.0006290328224620723,0.0006199664014732154
1504281262.78,-1.0,-1.2802679641499999,-0.060938523099999996,-0.36391497485,0.087945,-0.030774,-0.069995,0.15005155165,-9.2164465764,3.34739210435,3.096796,1.22209,-2.969911,-0.0022199999999999998,0.0030999999999999917,-0.00032999999999999696,0.00013642981791339714,0.000527929053356857,0.0006386435224295939
1504281262.79,-1.0,-1.41397183025,-0.09051537949999999,-0.373829498,0.102934,-0.020248,-0.063583,0.15701427315,-9.213053475499999,3.3564044156999997,3.094845,1.221079,-2.968107,-0.0024199999999999777,0.003290000000000015,-0.00031999999999998696,7.582551623830369e-05,0.00045592475907985097,0.0006378122699408628
1504281262.8,-1.0,-1.5038791974499999,-0.0381086419,-0.4720529044,0.120207,0.006258,-0.066741,0.12122980729999999,-9.2138380075,3.3557179502,3.105481,1.221314,-2.977904,-0.002529999999999921,0.003410000000000024,-0.00034000000000000696,4.7275368546984e-05,0.0003470500923283826,0.0005986054666979879
1504281262.81,-1.0,-1.5913250954999998,-0.08353304469999999,-0.43063942145,0.13645,0.029578,-0.077428,0.1272707037,-9.2092681086,3.36802529595,3.103821,1.219954,-2.975884,-0.002650000000000041,0.0035399999999999876,-0.0003499999999999892,0.00016393561437277882,0.0002319867175124557,0.0005693324756392837
1504281262.82,-1.0,-1.6195388275499998,-0.0907703524,-0.45229250465,0.158045,0.049667,-0.096639,0.1342334252,-9.2039725176,3.3822057118499997,3.101924,1.218387,-2.97339,-0.00277000000000005,0.003650000000000042,-0.0003700000000000092,0.00025663747829129946,0.00013672604340198014,0.0005540424948784484
1504281262.83,-1.0,-1.57844896405,-0.08730860495,-0.41367391694999994,0.167742,0.048552,-0.122174,0.09958653075,-9.20249171345,3.3874228496499996,3.112203,1.21795,-2.982195,-0.002909999999999968,0.0037799999999998946,-0.00037999999999999146,0.00035849286859246376,6.541142548499579e-05,0.0006291703543155336
1504281262.84,-1.0,-1.5700152450499998,-0.11287454149999998,-0.36813183435,0.165701,0.047533,-0.146663,0.0685484835,-9.2004225103,3.3938069788,3.121397,1.21734,-2.989891,-0.003070000000000017,0.0039000000000000146,-0.00041000000000002146,0.000451426160135604,-3.1299626326974916e-05,0.0006412757120278778
1504281262.85,-1.0,-1.4860605143999999,-0.07547197839999999,-0.3698283848,0.152991,0.049794,-0.165844,0.04206072185,-9.198461180299999,3.39954386905,3.129221,1.216764,-2.996219,-0.0032200000000000006,0.0040200000000000236,-0.00041999999999997595,0.0004468812622038243,-0.00021830944471723512,0.000588950640485808
1504281262.86,-1.0,-1.3847480132499999,-0.050376761049999996,-0.35197047514999996,0.13279,0.045727,-0.190369,0.020947004399999997,-9.196784243149999,3.404280481,3.13544,1.21627,-3.000973,-0.0033999999999999586,0.0041400000000000325,-0.00045000000000000595,0.0003790931922409424,-0.00047488095910930284,0.00047379822249060677
1504281262.87,-1.0,-1.2460917889,0.040020938650000004,-0.358531124,0.110503,0.04488,-0.219178,0.0064920023,-9.195597638499999,3.4075559021,3.139687,1.21592,-3.0038,-0.003550000000000053,0.004269999999999996,-0.0004699999999999982,0.0001988221418105507,-0.0007601809610937593,0.00028958028611303366
1504281262.88,-1.0,-1.1347372781499998,0.14958083244999998,-0.37368239825,0.085986,0.037646,-0.238378,-0.0025105023999999997,-9.1950288528,3.4090857394999996,-3.140857,1.215754,-3.005082,-0.0036999999999999256,0.004410000000000025,-0.0005000000000000004,-8.889246614929291e-05,-0.0008439551730470285,0.00014896532828068132
1504281262.89,-1.0,-1.0995608246,0.23746802975,-0.36049245399999996,0.076396,0.030287,-0.255419,-0.00850236555,-9.194479680399999,3.4105567369999994,-3.139099,1.215593,-3.00556,-0.0038400000000000656,0.004610000000000003,-0.0005400000000000127,-0.0002908535789889477,-0.0007618661034236585,5.520103718326119e-05
1504281262.9,-1.0,-0.9993172483,0.15712214630000002,-0.381674818,0.080687,0.027073,-0.268178,-0.009983169699999999,-9.194332580649998,3.4109391963499998,-3.138666,1.215551,-3.00478,-0.003969999999999918,0.004749999999999921,-0.0005499999999999949,-0.00047564467512195563,-0.0007055695868234402,-0.00023821826536285506
1504281262.91,-1.0,-0.9431055305,0.04631680795,-0.30533004775,0.090224,0.015286,-0.276646,-0.00828661925,-9.19350882205,3.4131554992499997,-3.139165,1.21531,-3.003187,-0.0040600000000000636,0.004910000000000081,-0.0005799999999999972,-0.0005387188643735108,-0.0005804895950358713,-0.0004539545642633369
1504281262.92,-1.0,-0.9178926333499999,-0.06553784195,-0.26750579869999996,0.097419,-0.016738,-0.275477,-0.00448163905,-9.19239086395,3.4161857541,-3.140282,1.214982,-3.001254,-0.0041799999999999615,0.005059999999999953,-0.0005999999999999894,-0.0006550174958759314,-0.00044288750499532625,-0.0006360841930262984
1504281262.93,-1.0,-0.9534613529,-0.2100192164,-0.3018094604,0.085289,-0.061391,-0.271118,0.0005687857,-9.19215550435,3.4168133796999998,3.141427,1.214913,-2.999399,-0.004290000000000016,0.005229999999999957,-0.0006000000000000172,-0.0007813334976876085,-0.00040818964236399857,-0.0007572239348383469
1504281262.94,-1.0,-1.0283547389499998,-0.39618865999999997,-0.38699002229999996,0.070003,-0.099635,-0.262537,0.028027405699999997,-9.189595968699999,3.42358977485,3.133405,1.214164,-2.991813,-0.0043999999999999595,0.005380000000000051,-0.0005900000000000072,-0.0008511773437129833,-0.0003882817370628455,-0.000843426003601988
1504281262.95,-1.0,-1.1249208215,-0.5784746702,-0.4547343605,0.05597,-0.118703,-0.260393,0.05590771165,-9.1874777323,3.4289343991,3.12529,1.213545,-2.984391,-0.004530000000000034,0.005539999999999989,-0.0005699999999999872,-0.0008727529295349257,-0.00047039831060735615,-0.0008809388010834196
1504281262.96,-1.0,-1.2358536462999998,-0.65746723595,-0.44525132994999994,0.048574,-0.112244,-0.264687,0.08394492399999999,-9.185545822249999,3.43351410465,3.11715,1.212984,-2.976929,-0.004670000000000063,0.005689999999999973,-0.0005400000000000127,-0.0008547496872797211,-0.0005754146836192131,-0.0009219793608650217
1504281262.97,-1.0,-1.3620161985500001,-0.60847321255,-0.42561841665,0.055318,-0.071785,-0.273241,0.08156190804999999,-9.1885956904,3.4254040051,3.117785,1.213873,-2.977363,-0.004809999999999981,0.005840000000000067,-0.00047999999999998044,-0.0007241577655305864,-0.000580551832511933,-0.0008948782866814442
1504281262.98,-1.0,-1.5458124328499998,-0.5007863888999999,-0.41692972474999995,0.066482,-0.013263,-0.278662,0.10794179654999998,-9.18615383455,3.4312291551999996,3.110144,1.21316,-2.969519,-0.0049399999999999444,0.005979999999999985,-0.0004300000000000137,-0.0003388242106121542,-0.000442452068076582,-0.0008747966282361963
1504281262.99,-1.0,-1.8110627020499999,-0.4718175448,-0.34087915399999996,0.063825,0.05283,-0.281985,0.13242900159999998,-9.183555072299999,3.4373288914999995,3.103085,1.212403,-2.961583,-0.005079999999999973,0.006129999999999969,-0.0003599999999999992,0.00043067302925248185,-0.00022335069325563062,-0.00084101544857762
1504281263.0,-1.0,-1.97936442935,-0.5299121393999999,-0.3008484087,0.051517,0.120055,-0.273586,0.15438609095,-9.18127012285,3.4424969960499996,3.096776,1.211742,-2.95375,-0.005210000000000048,0.006310000000000038,-0.00025999999999998247,0.0013221530540068471,0.0002204339523503851,-0.000985168732883901
1504281263.01,-1.0,-1.9703128914,-0.6349413609,-0.26794709795,0.019095,0.21834,-0.251335,0.12767277635,-9.18397675825,3.4363776464499995,3.104456,1.212527,-2.958332,-0.005340000000000011,0.00649999999999995,-0.00015000000000001124,0.001876530660667397,0.0007959843171254644,-0.0012637293101019909
1504281263.02,-1.0,-1.8916243318,-0.8014386646,-0.11859181844999998,-0.045071,0.218836,-0.220492,0.1408627206,-9.18462399715,3.4341123102999997,3.100597,1.212716,-2.951783,-0.005489999999999995,0.006720000000000059,-1.0000000000010001e-05,0.0021581785452842173,0.0011073653163591324,-0.0016320259652513602
1504281263.03,-1.0,-1.4847660366,-0.9559914686,-0.014513841999999999,-0.116561,0.105371,-0.187327,0.15433705769999997,-9.1877915451,3.4250509657,3.096563,1.213638,-2.945988,-0.005630000000000024,0.006950000000000012,0.00014000000000000123,0.0018045011012430834,0.0013441808655350052,-0.0021116849466401577
1504281263.04,-1.0,-1.5609048671999999,-1.3033920448499998,-0.3197948565,-0.149958,-0.013792,-0.099647,0.1653793456,-9.192488930449999,3.4119100547,3.093159,1.215012,-2.942207,-0.005759999999999987,0.007179999999999964,0.00029000000000001247,0.0009086526314643351,0.0015640763484763287,-0.0025459501708724463
1504281263.05,-1.0,-1.7371990142499998,-1.64256484175,-0.40208245665000003,-0.162802,-0.074555,0.025323,0.16825269404999998,-9.197931621199999,3.3970823999,3.092106,1.216607,-2.941788,-0.005850000000000022,0.007369999999999988,0.00045000000000000595,8.135938760478467e-05,0.001894088199553945,-0.0029652938777752214
1504281263.07,-1.0,-1.77593528175,-1.9903871039499998,-0.08696537219999999,-0.183475,-0.046809,0.150125,0.15910308959999997,-9.204149037299999,3.38063664785,3.094564,1.21844,-2.945015,-0.005869999999999931,0.007519999999999971,0.0006400000000000017,-0.00020849276024703656,0.0023952675303413606,-0.003284573382391631
1504281263.08,-1.0,-1.44868737125,-2.1227866856,0.21811950930000001,-0.234765,-0.000658,0.239616,0.1393524965,-9.21196493735,3.3601701693,3.100144,1.220755,-2.951074,-0.005850000000000022,0.007610000000000006,0.0008499999999999897,4.385075290724849e-05,0.0030231428594451604,-0.0034316522464858945
1504281263.09,-1.0,-1.0409562842,-1.9641052819499998,0.32929750034999994,-0.276505,0.028381,0.312076,0.111403544,-9.2213106748,3.3354770246,3.108205,1.223545,-2.959417,-0.005809999999999982,0.007670000000000066,0.0010799999999999976,0.0006789761056913424,0.003580598951927083,-0.003278151681508912
1504281263.1,-1.0,-0.9738395716,-1.68643979385,0.31018433949999996,-0.297938,0.049814,0.365371,0.07735485519999999,-9.231421330949999,3.3083518307,3.118214,1.226589,-2.969595,-0.005750000000000033,0.007709999999999995,0.0012900000000000134,0.0013026727294946916,0.003988087501794135,-0.00322421197832079
1504281263.11,-1.0,-1.1015613811999998,-1.44682410775,0.43496415409999994,-0.2945,0.10941,0.413305,0.037186816799999994,-9.2414927605,3.2808343708,3.130258,1.229644,-2.981399,-0.005689999999999973,0.007699999999999929,0.001459999999999989,0.0017396439931456342,0.004569019013506814,-0.001923438483306339
1504281263.12,-1.0,-1.04108377065,-1.19928464845,0.6792870322,-0.285386,0.211583,0.461174,-0.010414662299999999,-9.25095617775,3.25422892935,-3.138392,1.232542,-2.994864,-0.005650000000000044,0.007650000000000046,0.0016200000000000103,0.0019839354735275982,0.005275185452923825,-0.001224131997195066
1504281263.13,-1.0,-0.7446091278499999,-1.10690600545,0.90539896125,-0.31901,0.316222,0.524975,-0.0667244466,-9.260733407799998,3.2256425446,-3.12091,1.235558,-3.010327,-0.005619999999999958,0.007580000000000031,0.0017399999999999916,0.0018612486336060385,0.006024401290779524,-0.0006079111762549161
1504281263.14,-1.0,-0.424039546,-0.98814747395,1.00203369035,-0.426326,0.415069,0.593996,-0.1327624277,-9.2727955873,3.18872050735,-3.099981,1.239318,-3.028342,-0.005620000000000069,0.007429999999999937,0.0018199999999999883,0.0014374398931524812,0.00653991012838695,-9.226493045022544e-05
1504281263.15,-1.0,-0.28042115674999996,-0.84989332225,1.07811368105,-0.58805,0.505854,0.649061,-0.2072537411,-9.288947139849999,3.1373238546999995,-3.075629,1.244417,-3.048954,-0.005639999999999978,0.00723000000000007,0.0018700000000000105,0.0010244211174017526,0.006572729579572112,0.00043986765660186666
1504281263.16,-1.0,-0.08890708889999999,-0.6105031890999999,1.0322872055999999,-0.765903,0.569087,0.684933,-0.28758001125,-9.30971762455,3.06868711135,-3.048152,1.251088,-3.072062,-0.005669999999999953,0.006939999999999946,0.0018900000000000028,0.0010564469677465382,0.00606907085371855,0.0009332569387177081
1504281263.17,-1.0,0.21269643184999998,-0.2073714209,0.9314944569,-0.917416,0.579905,0.703864,-0.37040697715,-9.33411656975,2.9845166344,-3.018114,1.259103,-3.097544,-0.005689999999999973,0.006619999999999959,0.0018600000000000005,0.0016341578123726386,0.00509149033168943,0.001400151483913814
1504281263.18,-1.0,0.6901429937499999,0.12979101275,0.7440109222,-1.03303,0.53184,0.703749,-0.45237095785000003,-9.36079065775,2.88814668485,-2.986226,1.268096,-3.125276,-0.005690000000000084,0.006260000000000043,0.001799999999999996,0.0026388345350127906,0.0037927670309376715,0.001951041013691479
1504281263.19,-1.0,1.3411182273999998,0.25123656634999997,0.6166715719499999,-1.127058,0.503861,0.686557,-0.5317361762999999,-9.3887101903,2.7820485385,-2.95274,1.277797,3.12821,-0.005699999999999927,0.005909999999999971,0.001689999999999997,0.0036679687997993593,0.0024425560125194146,0.002395138164241195
1504281263.2,-1.0,2.05056070835,0.24866722405,0.6184465755999999,-1.193062,0.49486,0.642695,-0.6068551152999999,-9.417120055349999,2.6683404317499995,-2.917968,1.287999,3.097126,-0.005659999999999998,0.005700000000000038,0.001569999999999988,0.0041105306211923764,0.0015060933028097079,0.0019695203741868506
1504281263.21,-1.0,2.5920741147,0.1514539026,0.688034564,-1.232384,0.498424,0.609501,-0.6779141012,-9.4451376544,2.549532867,-2.881708,1.298428,3.064592,-0.005600000000000049,0.005489999999999995,0.0014500000000000068,0.003864639353648336,0.0004709469820753931,0.0021232278170590924
1504281263.22,-1.0,2.9457803669,-0.1031855713,0.8560224785,-1.242128,0.470816,0.593522,-0.74641355145,-9.4718313557,2.428518806,-2.843405,1.308734,3.029882,-0.005539999999999989,0.005340000000000011,0.00136,0.003160969895702026,-0.00010407488688435329,0.0018830530186487726
1504281263.23,-1.0,2.9721602554,-0.42129368399999995,0.9837050614999999,-1.215073,0.381089,0.587322,-0.8119906199999999,-9.49624010755,2.3092111021,-2.803466,1.318521,2.992811,-0.00544,0.005229999999999957,0.0012800000000000034,0.0023876306308829864,-0.0005837036885834035,0.0018384685058541184
1504281263.24,-1.0,2.9064753136999997,-0.6758547046999999,0.92412966275,-1.150047,0.229257,0.569557,-0.8727526234,-9.51775589765,2.19565990175,-2.763254,1.327468,2.954131,-0.005329999999999946,0.005140000000000033,0.0012500000000000011,0.0016023989290592233,-0.0010366406633690595,0.0019722731006717176
1504281263.25,-1.0,2.9649817875999998,-0.859258673,0.88668787305,-1.045337,0.120759,0.579536,-0.9305137918999999,-9.53562361395,2.0920036112499996,-2.723075,1.335146,2.914222,-0.005190000000000028,0.005070000000000019,0.0012300000000000089,0.000951087070756973,-0.0014369312327964234,0.0022055814562739195
1504281263.26,-1.0,3.0510939812499998,-0.81125512125,1.0217940901,-0.935804,0.09957,0.61819,-0.9904324233999999,-9.549509830349999,1.9990856025,-2.681597,1.341289,2.872607,-0.0050600000000000644,0.0049799999999999844,0.0012299999999999811,0.0005088237649750749,-0.0017561733809965396,0.002472283089049676
1504281263.27,-1.0,3.2411664715499997,-0.6773257022,1.3293306341,-0.850451,0.126527,0.662054,-1.0552641865499999,-9.55982642615,1.9148072524,-2.637902,1.345963,2.828985,-0.0049199999999999244,0.004850000000000021,0.0012600000000000111,0.00037469394223133,-0.0019614478705058946,0.002813482307257975
1504281263.28,-1.0,3.2046759269,-0.78766032135,1.47159570565,-0.825607,0.159365,0.6535,-1.1211256479499998,-9.56816207865,1.8340396829999999,-2.592917,1.349807,2.784392,-0.0047800000000000065,0.0047199999999999465,0.0012999999999999956,0.0005726085268888959,-0.002190095658706648,0.0032075134098428215
1504281263.29,-1.0,2.7640435291,-1.02500086465,1.33983355625,-0.876176,0.204596,0.59676,-1.183270389,-9.57651734445,1.7494377134499999,-2.546902,1.353729,2.739188,-0.0046599999999999975,0.0045600000000000085,0.0013299999999999979,0.0009085844955603051,-0.0025400700517430597,0.0035382365158721507
1504281263.3,-1.0,2.4810236101,-0.9891575588999999,0.8871487856,-0.94829,0.318268,0.476886,-1.2370892842,-9.5861768947,1.6568433241499998,-2.500236,1.358352,2.694349,-0.0045600000000000085,0.0044000000000000705,0.0013500000000000179,0.0013237790046882747,-0.0030547291331466386,0.0034961249256240112
1504281263.31,-1.0,2.21662651945,-0.84838309815,0.5806517465,-1.013286,0.500115,0.322746,-1.2790029063000001,-9.5976702885,1.5554229498499998,-2.45341,1.36398,2.651084,-0.0044800000000000395,0.004249999999999976,0.00134999999999999,0.0014894505465272712,-0.003698495006698943,0.003999454845861172
1504281263.32,-1.0,1.8013639251999998,-0.7733720323,0.5928806390499999,-1.076157,0.683007,0.171811,-1.3087562823999999,-9.61087984605,1.4451863971999999,-2.405694,1.370647,2.608893,-0.004429999999999934,0.0041399999999999215,0.0013100000000000056,0.001657653242688184,-0.004365969429038996,0.0040139277612765145
1504281263.33,-1.0,1.6313362274999998,-0.5799456677,0.60378563385,-1.138319,0.824329,0.026288,-1.3256237203999999,-9.6256388543,1.3266926452499999,-2.356596,1.378366,2.566889,-0.0044000000000000705,0.004030000000000089,0.0012599999999999972,0.0016442065063542177,-0.005026183115212968,0.003922383345926206
1504281263.34,-1.0,1.51294054205,-0.3022997929,0.57228667405,-1.182843,0.916467,-0.097771,-1.3302328459,-9.64141775415,1.20165785775,-2.305457,1.386965,2.523978,-0.004390000000000005,0.003969999999999918,0.0011800000000000005,0.0015180609661842315,-0.005602167171815831,0.0038545674815749775
1504281263.35,-1.0,1.40432208665,-0.061585761999999995,0.5840252341,-1.220741,0.939225,-0.164055,-1.3262121193999998,-9.65722607395,1.0721610444999998,-2.250664,1.396006,2.477839,-0.004379999999999995,0.003929999999999989,0.0010999999999999899,0.0012594911240617623,-0.005956414930135656,0.003841030933474543
1504281263.36,-1.0,1.2614686161,0.26106282965,0.70412727665,-1.262316,0.941702,-0.167334,-1.3192297846,-9.672073342049998,0.9385944715,-2.189179,1.404939,2.425004,-0.004379999999999995,0.00391000000000008,0.001020000000000007,0.0010522484508648233,-0.006121889595102736,0.0039050761846759485
1504281263.37,-1.0,0.9545891176499999,0.5247930680999999,0.7670565496999999,-1.279554,0.946065,-0.12681,-1.31415974655,-9.6850083134,0.8024977828,-2.11901,1.413127,2.363507,-0.004359999999999975,0.0039199999999999235,0.0009499999999999925,0.0008400854325032459,-0.006141019535288228,0.004011298464914992
1504281263.38,-1.0,0.8179922897999999,0.7240543894499999,0.7992812015999999,-1.253291,0.928742,-0.072297,-1.3126985557,-9.6954229757,0.6677740251,-2.04138,1.420044,2.294434,-0.0043500000000000205,0.003920000000000035,0.0008800000000000058,0.0007126100179855044,-0.006006380877559003,0.004135431945043511
1504281263.39,-1.0,0.84089081755,0.8278185531,0.80701864845,-1.178325,0.871579,-0.005887,-1.3158464903499998,-9.702974096199998,0.53957168965,-1.959943,1.425262,2.221112,-0.0043400000000000105,0.003950000000000009,0.0008100000000000052,0.0006518954328309512,-0.005885663972124977,0.004203083091541604
1504281263.4,-1.0,0.83663473145,0.9201873894499999,0.9093902677999999,-1.070385,0.804549,0.064867,-1.3242998226499998,-9.70765186825,0.42193111624999996,-1.879237,1.428588,2.147822,-0.0021700000000000053,0.0019450000000000855,0.00036999999999999533,0.000352197232137863,-0.0029539440356474156,0.002118931498628074
1504281263.41,-1.0,0.6723831506,0.9509214305499999,0.8722720975499999,-0.907429,0.809533,0.130252,-1.3384213986499998,-9.7096622315,0.31869651169999996,-1.804556,1.430035,2.080522,-0.0021699999999999497,0.0019449999999999745,0.00036999999999999533,0.00034589115620886624,-0.0029546862815423847,0.0021176411693881736
1504281263.42,-1.0,0.5203996889,0.7204357356,0.8207185385,-0.735655,0.832588,0.167868,-1.35642640805,-9.709613198249999,0.23213321215,-1.740291,1.430004,2.02396,-0.004290000000000016,0.0039799999999999836,0.00068,0.0005202200465630469,-0.005597204348994467,0.004105899262467072
1504281263.43,-1.0,0.40125869805,0.5404248681999999,1.12940246055,-0.607422,0.854979,0.163781,-1.3743529642499999,-9.7085638867,0.15897560314999998,-1.68596,1.429245,1.977652,-0.008379999999999999,0.007900000000000018,0.0012100000000000027,0.0009623284935371679,-0.010194215339191404,0.007738323822605975
1504281263.44,-1.0,0.77255808035,0.3002011698,0.9568152272,-0.562417,0.870607,0.149955,-1.3902691571999999,-9.707171342399999,0.0916921775,-1.636656,1.428238,1.936627,-0.004049999999999998,0.0040999999999999925,0.0005600000000000049,0.000578800521764844,-0.004607687235961722,0.003692617309315138
1504281263.45,-1.0,1.3024604130999997,0.16099577305,0.47529890555,-0.580831,0.833467,0.145719,-1.4048124191499998,-9.70547479195,0.024193005549999997,-1.588017,1.42703,1.896026,-0.003960000000000019,0.0041999999999999815,0.0005199999999999927,0.0006821208815250834,-0.004321096878841413,0.003494011956372889
1504281263.46,-1.0,1.5844016006000001,0.21024476934999997,0.05257345065,-0.625217,0.759231,0.15538,-1.4195027808499998,-9.70325848905,-0.046434487749999996,-1.538094,1.425459,1.85346,-0.00385000000000002,0.0041999999999999815,0.0005000000000000004,0.0008437229995803541,-0.004044443331481684,0.003212814119678331
1504281263.47,-1.0,1.5754187092,0.39423713665,-0.057525808899999996,-0.653675,0.677401,0.168284,-1.4350561277499998,-9.700345914,-0.11949403025,-1.487717,1.423422,1.809601,-0.0037299999999999556,0.0041999999999999815,0.0004699999999999982,0.0012851458761315993,-0.003866038087546153,0.002777199499383376
1504281263.48,-1.0,1.4578958156,0.66397885155,0.11253130875,-0.636218,0.596265,0.174861,-1.4508644475499999,-9.6968547466,-0.19078837575,-1.440046,1.421016,1.767622,-0.003620000000000012,0.0042999999999999705,0.00044000000000000983,0.0019168346187588003,-0.0037451617145838334,0.002177879955315598
1504281263.49,-1.0,1.4308294616,1.00676049565,0.4684244439,-0.580267,0.524404,0.179355,-1.4668983203,-9.69292227995,-0.25653215735,-1.397663,1.418355,1.730234,-0.003510000000000013,0.0043999999999999595,0.0003999999999999976,0.0026316975362941086,-0.0035592926796066404,0.0015878042901564804
1504281263.5,-1.0,1.40034058675,1.364889547,0.7323508153499999,-0.503942,0.461972,0.17853,-1.4829419996999997,-9.688774066999999,-0.31442081229999996,-1.361869,1.415594,1.698849,-0.0034199999999999786,0.0044000000000001815,0.00036999999999999533,0.003498917593203199,-0.003166500005267636,0.001208203615389647
1504281263.51,-1.0,1.31972992375,1.5504411716499997,0.6814052686,-0.444555,0.406089,0.161653,-1.4976421680499998,-9.6847337272,-0.36507215955,-1.331697,1.412952,1.672564,-0.0033700000000000396,0.0043999999999999595,0.0003100000000000047,0.003592112781497958,-0.0031085578658769375,0.0006033922762466171
1504281263.52,-1.0,1.1907038296999999,1.5584335913999998,0.3917952808,-0.40763,0.333358,0.128755,-1.5095768610999998,-9.681056233449999,-0.41065346875000003,-1.305193,1.410584,1.649301,-0.003339999999999954,0.0045999999999999375,0.0002400000000000041,0.003663767448650379,-0.00274098947439394,0.0003184011103036788
1504281263.53,-1.0,0.97957646185,1.4563757848499999,-0.007600153749999999,-0.400428,0.269414,0.07978,-1.5173731478499999,-9.677918105449999,-0.45373408219999994,-1.280232,1.408588,1.62689,-0.0033500000000000196,0.0046999999999999265,0.00015999999999999348,0.003484653871169252,-0.002327308246274251,0.00019026327961690903
1504281263.54,-1.0,0.6499161154499999,1.38461072015,-0.21816854254999998,-0.410852,0.264232,0.022132,-1.51960906405,-9.675437023,-0.49709908849999995,-1.254644,1.407028,1.603616,-0.003379999999999994,0.0049000000000001265,7.999999999999674e-05,0.0031602345763772632,-0.0019640355820684796,0.00012032063781430846
1504281263.55,-1.0,0.35204892834999996,1.2780222412999998,-0.15074782379999999,-0.427289,0.304925,-0.039878,-1.51578447055,-9.673583566149999,-0.5426705910499999,-1.227001,1.405876,1.578558,-0.0034399999999999986,0.004999999999999893,-9.999999999996123e-06,0.0027775626899775308,-0.0017484136321035404,7.840542299708542e-05
1504281263.56,-1.0,0.05111225979999999,1.1729537932,0.0987137389,-0.442512,0.35734,-0.11258,-1.5046931493999998,-9.672524447949998,-0.5904191699,-1.196872,1.405216,1.551503,-0.003530000000000033,0.0051000000000001044,-0.00010999999999999899,0.002375596843734451,-0.0016629837776613865,8.039796808045896e-05
1504281263.57,-1.0,-0.06834254384999999,1.21825070955,0.33241601504999996,-0.443913,0.411759,-0.172453,-1.48683523975,-9.67217140855,-0.6393151267999999,-1.16471,1.405001,1.522938,-0.0036499999999999866,0.00529999999999986,-0.00021000000000000185,0.0019510015536319258,-0.0016513366390893403,-1.1965743458963729e-05
1504281263.58,-1.0,-0.05469168705,1.3677727020999997,0.42092103129999997,-0.422022,0.454247,-0.215186,-1.46398574525,-9.6723577349,-0.6874265516999999,-1.131795,1.405116,1.494083,-0.0037699999999999956,0.005400000000000071,-0.00032999999999999696,0.0013691349551527843,-0.0017084758006722378,-0.0001543019379380839
1504281263.59,-1.0,-0.07078439969999999,1.56262103095,0.31908877769999994,-0.384506,0.459294,-0.241815,-1.43786082965,-9.67297555385,-0.7323900419499999,-1.099689,1.405499,1.466215,-0.0039000000000000146,0.005700000000000038,-0.00045000000000000595,0.0007509378913659326,-0.0017476204310742371,-0.00037125715843189244
1504281263.6,-1.0,-0.005942829899999999,1.7679820886,0.0738440745,-0.31959,0.425747,-0.261924,-1.4097745840499998,-9.67409351195,-0.7713028291499999,-1.070172,1.406188,1.440726,-0.0039799999999999836,0.005600000000000049,-0.0005700000000000011,0.00036903842652913355,-0.0016331798145172716,-0.0005862118161079621
1504281263.61,-1.0,0.07111782579999999,1.93215521625,-0.3214423737,-0.232484,0.368568,-0.276616,-1.3802957941499998,-9.67589793555,-0.80129156485,-1.044823,1.40732,1.418892,-0.004060000000000008,0.005900000000000016,-0.0006999999999999923,-9.704382355724128e-05,-0.0016116086551256625,-0.0006490539652027616
1504281263.62,-1.0,0.0753935252,1.9551812304499998,-0.72687870465,-0.130526,0.310186,-0.276336,-1.35075816435,-9.6784182446,-0.8209637047499999,-1.024672,1.408906,1.401743,-0.0041100000000000025,0.006000000000000005,-0.0008299999999999974,-0.0005079587509297934,-0.0015072091738088655,-0.0004977911862261708
1504281263.63,-1.0,-0.03798115545,1.8860639612499999,-1.0517141792499998,-0.03172,0.273116,-0.25155,-1.3232701244,-9.681438692799999,-0.83012311585,-1.010525,1.410825,1.390268,-0.004119999999999957,0.006199999999999983,-0.000910000000000008,-0.0008473784592726297,-0.0012105370622830236,-0.00025048345591827115
1504281263.64,-1.0,-0.23295697074999996,1.61881313545,-1.1934496917,0.035094,0.253334,-0.202298,-1.30023430355,-9.68442972105,-0.83159411335,-1.001783,1.412754,1.384026,-0.0041200000000000125,0.00649999999999995,-0.0009900000000000048,-0.001219612941250503,-0.0006536618535397665,-5.960272521865484e-06
1504281263.65,-1.0,-0.45224347139999993,1.1540269587,-1.19214540725,0.065695,0.248756,-0.141395,-1.2829549862499998,-9.686959836749999,-0.8290051577499999,-0.997118,1.414399,1.381825,-0.004090000000000038,0.006599999999999939,-0.001009999999999997,-0.0012549574120122031,4.6824599539307954e-05,0.00019804316169924618
1504281263.66,-1.0,-0.6661265078999999,0.68733829185,-1.1173500877,0.06762,0.257207,-0.085902,-1.27122623285,-9.68878387365,-0.8256905100499999,-0.994757,1.415601,1.382008,-0.0040599999999999525,0.006800000000000139,-0.0010199999999999931,-0.001153763828747767,0.0006076509657253482,0.00037349648891937814
1504281263.67,-1.0,-0.73839171175,0.24146914294999997,-1.02519699765,0.065357,0.276348,-0.029367,-1.2648028771,-9.68988221845,-0.8226798685,-0.994112,1.416326,1.384095,-0.004070000000000018,0.006899999999999906,-0.0010000000000000009,-0.0009520745617277449,0.000835571875852148,0.0004900446634790168
1504281263.68,-1.0,-0.6596148923,-0.19380882395,-1.0178322034999998,0.078972,0.278311,0.02509,-1.2636751123499999,-9.6903627443,-0.8188258550499999,-0.995851,1.416641,1.388653,-0.0040899999999999825,0.007099999999999884,-0.0009800000000000086,-0.0008456000507555128,0.0005945584572450979,0.000707709298774728
1504281263.69,-1.0,-0.5477504357499999,-0.56175433195,-0.99054029655,0.107473,0.270566,0.074254,-1.26749970585,-9.690372550949998,-0.8127359254000001,-1.000623,1.416649,1.396256,-0.0041300000000000225,0.007200000000000095,-0.0009599999999999886,-0.0007783410687534076,0.00040068138985138724,0.0005209746871582821
1504281263.7,-1.0,-0.44940934954999995,-0.841018304,-0.60272651565,0.145709,0.270215,0.108478,-1.27516850615,-9.69017641795,-0.8029685019999999,-1.008827,1.416522,1.40729,-0.004149999999999987,0.007200000000000095,-0.0010100000000000109,-0.0009578208255227594,-0.00047165392633918835,0.00045424805343941
1504281263.71,-1.0,-0.4400439988,-0.8412144369999999,-0.61535748085,0.174644,0.295536,0.123427,-1.2845338568999998,-9.68998028495,-0.7903375368,-1.019221,1.41639,1.420722,-0.0042300000000000115,0.007399999999999851,-0.0010199999999999931,-0.001071735238472371,-0.001293270602257035,0.00061824227960805
1504281263.72,-1.0,-0.38866695945,-0.66535178255,-0.4024060761,0.186793,0.344458,0.119092,-1.2937128813,-9.6898724118,-0.7765886135,-1.030172,1.416318,1.435138,-0.0043400000000000105,0.007400000000000073,-0.0010700000000000015,-0.0013365546784682714,-0.002111314495107708,0.0007297948851002767
1504281263.73,-1.0,-0.2642499909,-0.37025007074999994,-0.27009475429999996,0.172442,0.406407,0.098692,-1.30904067525,-9.6880876015,-0.7731758992999999,-1.037283,1.415139,1.446354,-0.0044299999999999895,0.007600000000000051,-0.001119999999999996,-0.001810767255305823,-0.0025757357928581914,0.0008713315846425873
1504281263.74,-1.0,-0.07861991304999999,-0.14701149015,-0.27172265819999997,0.159268,0.471554,0.06333,-1.31270836235,-9.68837199435,-0.76332021605,-1.044101,1.415326,1.457875,-0.0045399999999999885,0.00770000000000004,-0.0011800000000000144,-0.002547306674168359,-0.0026684163295151997,0.001018389390093355
1504281263.75,-1.0,0.021358883699999998,-0.05824169435,-0.44483945064999997,0.138573,0.526113,0.021569,-1.3121297699999999,-9.68899961995,-0.7562986546499999,-1.047916,1.415741,1.466952,-0.004620000000000013,0.007799999999999807,-0.0012199999999999989,-0.00344684789803118,-0.00249562306672213,0.0012249586936983192
1504281263.76,-1.0,0.0224572285,-0.10799082979999998,-0.77828516395,0.161279,0.516415,-0.05416,-1.30500033545,-9.6905784906,-0.74831604155,-1.050149,1.41679,1.474523,-0.004709999999999992,0.008000000000000007,-0.0012199999999999989,-0.0041593046061927375,-0.0023484132138613667,0.0014751039854346004
1504281263.77,-1.0,-0.09650724265,-0.11455147865,-1.2087578723499999,0.212564,0.491577,-0.118058,-1.2916829047499998,-9.69074520365,-0.7689982663999999,-1.033804,1.4169,1.463444,-0.0047900000000000165,0.008099999999999996,-0.0011599999999999944,-0.004345880710444838,-0.002409290908129691,0.0018932138724001568
1504281263.78,-1.0,-0.34244821799999997,0.021711923099999995,-1.7669229704,0.24414,0.551024,-0.15013,-1.2734817623499999,-9.694432504049999,-0.7526701941499999,-1.036996,1.419373,1.472055,-0.004840000000000011,0.008099999999999996,-0.0010399999999999854,-0.0038539844683633806,-0.002466703484919952,0.0025951920699245346
1504281263.79,-1.0,-0.8054986177,-0.24656860094999997,-1.9779816916999997,0.241723,0.646951,-0.153505,-1.2539567222,-9.698198257649999,-0.7368912943,-1.039506,1.421934,1.480888,-0.0048799999999999955,0.008199999999999985,-0.0008700000000000097,-0.002995653439666235,-0.00232299236448541,0.0035188888665831364
1504281263.8,-1.0,-1.4363506055500002,-0.82102254465,-1.6960306975499997,0.226303,0.720604,-0.152595,-1.2339413495499998,-9.701797298199999,-0.7231619843,-1.04069,1.424431,1.489235,-0.0048599999999999755,0.008300000000000196,-0.0007199999999999984,-0.0020599980671538454,-0.002110671462778102,0.0041865021479027265
1504281263.81,-1.0,-1.8195650675999997,-1.16213705825,-1.51709856165,0.225424,0.730225,-0.175029,-1.21254323925,-9.705445372,-0.7102564329,-1.040915,1.427006,1.496838,-0.004840000000000011,0.008299999999999974,-0.0004800000000000082,-0.0009543527250113204,-0.0014696441816179906,0.005305403753233517
1504281263.82,-1.0,-1.73109927795,-1.08635126705,-1.7646576342499998,0.22145,0.724999,-0.242273,-1.18563379165,-9.7097014581,-0.6973312682,-1.039135,1.43007,1.502402,-0.0048000000000000265,0.008499999999999952,-0.0002500000000000002,0.00025922061536065577,-0.0010363437630653838,0.006099150702772227
1504281263.83,-1.0,-1.1767979999999998,-0.8103234894999999,-2.1849804599,0.212068,0.702782,-0.322305,-1.1512614834,-9.71473226955,-0.68476894955,-1.034213,1.433775,1.504603,-0.0047499999999999765,0.008599999999999941,-1.9999999999992246e-05,0.0014133877843525156,-0.000677675732033256,0.006802967924161463
1504281263.84,-1.0,-0.6109150684,-0.6385305948,-2.6195621546499996,0.206632,0.642168,-0.39906,-1.10976954725,-9.720429933199998,-0.67231450405,-1.026114,1.438095,1.503115,-0.004699999999999982,0.00890000000000013,0.00017999999999998573,0.0023347284155168513,-0.0004727751554187698,0.0073956010296653
1504281263.85,-1.0,-0.20193853679999998,-0.66588134165,-2.6924353708,0.285581,0.465764,-0.466926,-1.0624916876,-9.72704942195,-0.6527110107,-1.019912,1.443296,1.502079,-0.0046700000000000075,0.008999999999999897,0.00034000000000000696,0.0028493464579215644,-0.0005502074871439611,0.00777403374806418
1504281263.86,-1.0,0.3580604048,-0.92946448035,-2.3336688872,0.438906,0.254642,-0.528197,-1.010477216,-9.7349045486,-0.61718151775,-1.022488,1.449761,1.507773,-0.004699999999999982,0.009200000000000097,0.0004800000000000082,0.002683024267936762,-0.000901404301454134,0.007699574843060275
1504281263.87,-1.0,1.0807418632499999,-1.26159610255,-1.9634286231,0.592127,0.031797,-0.587314,-0.9543047248,-9.743799180149999,-0.56395102155,-1.037054,1.457521,1.523331,-0.004730000000000012,0.009499999999999842,0.0005900000000000072,0.0019820717287575285,-0.0014783140523202398,0.007053148811269061
1504281263.88,-1.0,1.77972064865,-1.4237098337,-1.7117115309,0.692315,-0.161823,-0.662584,-0.8920717239,-9.753321437299999,-0.49724618825,-1.062287,1.466464,1.547554,-0.0047800000000000065,0.009800000000000031,0.0006799999999999862,0.0010983448697530207,-0.002091003090449295,0.005857498758012336
1504281263.89,-1.0,2.4921933844499997,-1.4395181535,-1.5796944086,0.735016,-0.334731,-0.730519,-0.8237389867,-9.7627946612,-0.42380418639999995,-1.095625,1.476192,1.578098,-0.0048000000000000265,0.00990000000000002,0.0007600000000000107,0.0003417330666821705,-0.002581127858833465,0.004587183206686163
1504281263.9,-1.0,3.08167111595,-1.5010450756,-1.2679508117499998,0.784433,-0.465076,-0.79318,-0.7491201868499999,-9.771905039049999,-0.34514504674999996,-1.139049,1.48659,1.617323,-0.0048699999999999855,0.010199999999999987,0.0008399999999999797,-5.439359487713347e-06,-0.0031758506367876027,0.003553983962019225
1504281263.91,-1.0,3.3186291998999997,-1.88512252285,-0.56952119875,0.863652,-0.571213,-0.802462,-0.6719908846,-9.78018185165,-0.25872884695,-1.203275,1.497303,1.676256,-0.004830000000000001,0.010299999999999976,0.0009300000000000141,-0.000709147510805419,-0.00368789763175581,0.0020964005364473293
1504281263.92,-1.0,3.3503242927,-2.7537857731999997,0.49365695435,0.888177,-0.665257,-0.736075,-0.5992353482499999,-9.78688960025,-0.1675956485,-1.298083,1.507303,1.764835,-0.0047599999999999865,0.010399999999999965,0.0010300000000000031,-0.0019467725465505126,-0.004039691271991774,0.0001804824082902723
1504281263.93,-1.0,3.30622378765,-3.85645530585,1.5757325219999998,0.768553,-0.729415,-0.599542,-0.5376299729499999,-9.79153795235,-0.08444506315,-1.414999,1.515272,1.874786,-0.0046599999999999975,0.010500000000000176,0.0011499999999999844,-0.003189148084294491,-0.004488571491415794,-0.0016393476118963246
1504281263.94,-1.0,3.2849727770999997,-4.46937093085,2.13625121605,0.539106,-0.75223,-0.410969,-0.49288222899999995,-9.7942347811,-0.021721729749999998,-1.526758,1.520466,1.979201,-0.004519999999999996,0.010399999999999965,0.0012800000000000034,-0.004546872420637005,-0.004870080345943162,-0.0031698511191553536
1504281263.95,-1.0,3.0710995472500002,-3.8947306607999996,2.19071735015,0.319708,-0.841214,-0.204116,-0.46785565819999997,-9.795470418999999,0.018534568499999998,-1.610385,1.523033,2.054783,-0.004320000000000018,0.010299999999999976,0.0014300000000000007,-0.005370335666218917,-0.00501988029114675,-0.004354735948500554
1504281263.96,-1.0,2.3994028621499996,-2.20105355925,2.22335388135,0.18286,-1.026761,-0.017231,-0.46130481599999995,-9.79569597195,0.043659205799999996,-1.665158,1.523529,2.099847,-0.0040999999999999925,0.010000000000000009,0.0015300000000000036,-0.005139409054793376,-0.004973443887082318,-0.005169476341219781
1504281263.97,-1.0,1.5880889009999999,-0.31968698335,2.2854397825,0.147399,-1.212072,0.164493,-0.47223923075,-9.79506834635,0.06371380505,-1.704915,1.522186,2.127938,-0.0038499999999999923,0.009600000000000053,0.0016000000000000042,-0.004042508916222598,-0.004750238716408894,-0.005376825530795104
1504281263.98,-1.0,0.9484501547499999,1.0716510986999999,2.41221034705,0.251141,-1.334593,0.346347,-0.5008844554,-9.79342082915,0.09123126495,-1.750956,1.518857,2.160939,-0.00360000000000002,0.009099999999999886,0.0016299999999999926,-0.0023103473618937276,-0.004403201058589934,-0.004713157252784206
1504281263.99,-1.0,0.42308830095,1.8866425536,2.67904929355,0.50175,-1.387965,0.499514,-0.5447397942,-9.79049844745,0.1407254275,-1.823607,1.513393,2.219878,-0.003369999999999984,0.00869999999999993,0.0016000000000000042,-0.00022361288873784524,-0.0038967502465083736,-0.003353852099576171
1504281264.0,-1.0,-0.015984839499999997,2.3673645366,3.1139251877999996,0.837329,-1.386575,0.603631,-0.5993236081,-9.78579125545,0.22224810894999997,-1.92591,1.505569,2.308426,-0.0032000000000000084,0.008300000000000196,0.0015499999999999958,0.0016562446409134068,-0.0029480623016029384,-0.0017896049372363443
1504281264.01,-1.0,-0.3002992363,2.58700407665,3.6396204677,1.183728,-1.29885,0.601942,-0.65529015965,-9.778887373849999,0.33820193854999997,-2.047245,1.49553,2.416736,-0.003129999999999994,0.007900000000000018,0.0014300000000000007,0.0029193649871923633,-0.0014580392930425567,-0.0006558015070736722
1504281264.02,-1.0,-0.32299182439999996,2.5463162857999997,3.8741072758499997,1.427488,-1.051371,0.470638,-0.70083224225,-9.769776996,0.48034933029999993,-2.171657,1.484048,2.530239,-0.0031100000000000017,0.007599999999999829,0.0014200000000000046,0.0034239446623101077,-9.303960847950599e-05,0.0009160994934569455
1504281264.03,-1.0,0.13255648804999998,2.1918058883,3.91349078225,1.476672,-0.650866,0.235188,-0.7258686196999999,-9.759430980249999,0.63010668245,-2.285689,1.472623,2.637151,-0.003150000000000014,0.007400000000000073,0.0013999999999999985,0.0033847689961428173,0.0009158879366035766,0.0017744764672449342
1504281264.04,-1.0,0.8138440768499999,1.79868670975,3.5158703513499994,1.329654,-0.250852,-0.024083,-0.7272023241,-9.7495360704,0.7669094499499999,-2.382764,1.462816,2.731268,-0.003229999999999983,0.007300000000000084,0.00136,0.002857085627600897,0.0015400664783271623,0.0021405111194908732
1504281264.05,-1.0,1.4333301573500001,1.51007700025,2.7753015632999998,1.127702,0.015242,-0.179676,-0.7123746692999999,-9.74089641175,0.8819904877,-2.462181,1.454927,2.810818,-0.003360000000000002,0.007299999999999862,0.0012899999999999995,0.002030745807901857,0.0020826970081888607,0.0017999542113230627
1504281264.06,-1.0,1.54267430485,1.2394723001499999,2.24994951615,0.976287,0.032463,-0.170362,-0.6949776722,-9.7327470856,0.9802727339999999,-2.524879,1.447955,2.874392,-0.003459999999999991,0.007200000000000095,0.0012199999999999989,0.001013305360885619,0.0026233465071567874,0.000839614699256308
1504281264.07,-1.0,1.003808694,1.215240068,2.2623549284,0.903567,-0.161034,-0.018576,-0.6877795911,-9.7237838075,1.0702193278,-2.570404,1.440705,2.919242,-0.0035500000000000254,0.007299999999999862,0.0011099999999999999,-9.435045304373446e-06,0.0031922725603332758,-0.0004040923877041136
1504281264.08,-1.0,0.5294120002499999,1.1950579822999998,2.0036751147,0.905691,-0.425549,0.201779,-0.6979098605499999,-9.71273171295,1.1602639880999999,-2.600065,1.432286,2.945536,-0.003599999999999992,0.007200000000000095,0.0010300000000000031,-0.0009368667272584563,0.0036121106389801483,-0.0015193135846557349
1504281264.09,-1.0,0.41488994155,1.0052796915,1.2995380313999998,0.940323,-0.6381,0.405021,-0.7255450002499999,-9.698923949749998,1.25492758055,-2.617391,1.422438,2.95708,-0.0036299999999999943,0.007300000000000084,0.0009500000000000064,-0.0017695004105715562,0.0039018816310476545,-0.0022223231469447047
1504281264.1,-1.0,0.4974913544999999,0.7808839262,0.6459248088999999,0.966573,-0.754583,0.517349,-0.7639968749,-9.6826743307,1.3536805460499999,-2.627772,1.411621,2.960186,-0.00356999999999999,0.007199999999999873,0.0009699999999999986,-0.0020451097321196876,0.0035976388006173643,-0.0024293673920853243
1504281264.11,-1.0,0.57218860755,0.5557232422,0.23107409395,0.931874,-0.812924,0.535537,-0.8045767926,-9.665208687049999,1.4514528465499998,-2.635433,1.400753,2.959811,-0.003510000000000013,0.007300000000000084,0.0009199999999999903,-0.002290018021404938,0.0037006069978682277,-0.00228869947529442
1504281264.12,-1.0,0.6649497099,0.38511695214999997,0.26334777909999996,0.810596,-0.800151,0.485137,-0.8409202375,-9.64843931555,1.5397813430999998,-2.641725,1.390924,2.95799,-0.0034099999999999964,0.007199999999999873,0.0008700000000000097,-0.0021265821098814808,0.0038828178236607336,-0.0019598184263551754
1504281264.13,-1.0,0.8240724127999999,0.3932270517,0.26408327785,0.630436,-0.712246,0.381131,-0.8688103501,-9.634249093,1.6114679546,-2.647125,1.383009,2.955978,-0.0033100000000000074,0.007100000000000106,0.0007999999999999952,-0.001659045566636319,0.004369673762249837,-0.0016012842230224145
1504281264.14,-1.0,0.816697812,0.6050703049999999,0.372260434,0.435806,-0.587954,0.241813,-0.8853835886,-9.623873657299999,1.6635608794,-2.652501,1.377428,2.955119,-0.003229999999999983,0.007099999999999884,0.0007400000000000045,-0.0007515408164080473,0.004610036617525237,-0.0011377445474141101
1504281264.15,-1.0,0.70094992205,0.8537669489999999,0.5356686429499999,0.297725,-0.464127,0.101525,-0.8900907805999999,-9.6171462954,1.6996101247999997,-2.659165,1.373886,2.95687,-0.0031899999999999984,0.007100000000000106,0.0006400000000000017,0.00013701798521270625,0.004866280398444722,-0.0007750120683195361
1504281264.16,-1.0,0.53888522415,0.9877061747,0.53127526375,0.251984,-0.374139,0.004154,-0.885736628,-9.612517556599999,1.72780424355,-2.667884,1.371491,2.961742,-0.0032100000000000184,0.006899999999999906,0.0005519999999999969,0.0008342297965757695,0.005029570953024587,-0.000521728864869675
1504281264.17,-1.0,0.34653759105,1.02529506415,0.47585788459999995,0.318812,-0.313909,-0.03533,-0.877302909,-9.6076142316,1.75912668365,-2.678973,1.368978,2.969719,-0.003269999999999995,0.006900000000000128,0.00044299999999999895,0.0011152661924209717,0.005027003285161369,-0.0004773967403995938
1504281264.18,-1.0,0.12187704619999999,1.0771232094,0.56959965195,0.456654,-0.290531,-0.039402,-0.86827098435,-9.60048479705,1.8020013574499998,-2.692582,1.365384,2.980605,-0.0034099999999999964,0.006899999999999906,0.00033600000000000296,0.0009447266148832068,0.004873390591349835,-0.00048559982784490696
1504281264.19,-1.0,-0.18082481935,1.12428338925,0.85964113235,0.595303,-0.29381,-0.033819,-0.8596117123999999,-9.590482014049998,1.8585268880499999,-2.708375,1.360442,2.993754,-0.00356999999999999,0.006800000000000139,0.0002339999999999981,0.00037492680888928653,0.0046172225029830205,-0.0004391117879126716
1504281264.2,-1.0,-0.32257013845,1.1400426758,0.859650939,0.688217,-0.28179,-0.032612,-0.8510407002999999,-9.57810602175,1.9251042349,-2.72535,1.354481,3.008178,-0.0036900000000000266,0.006799999999999917,0.00017100000000000448,-0.0007837571775652918,0.003995250314279941,-0.0006034605759841494
1504281264.21,-1.0,-0.32751269005,1.03612160575,0.6149161816,0.718588,-0.222346,-0.044435,-0.8423520083999999,-9.564425745,1.9956630816499998,-2.742186,1.348073,3.022952,-0.003889999999999977,0.006899999999999906,7.599999999999274e-05,-0.0017356455932446835,0.0038483231431751808,-0.00022411726340632043
1504281264.22,-1.0,-0.29641580289999997,0.8140402098499999,0.40457334575,0.707441,-0.162557,-0.066975,-0.8328983977999999,-9.5504806887,2.06519223015,-2.758241,1.341725,3.037625,-0.004060000000000008,0.006900000000000128,-1.7000000000003124e-05,-0.0025020886246300833,0.003623868444185163,2.5279165255187586e-05
1504281264.23,-1.0,-0.2933561281,0.5477602424,0.22844591174999998,0.688679,-0.121885,-0.090562,-0.82204243625,-9.53664350555,2.13238739595,-2.773644,1.335592,3.052122,-0.004200000000000009,0.006799999999999917,-0.00011099999999999999,-0.002930999965363057,0.0033849999556105903,0.0002691528016387501
1504281264.24,-1.0,-0.5106126522,0.46343285905,0.127682583,0.68475,-0.088804,-0.105571,-0.8102352296499999,-9.522649416,2.19842537705,-2.788485,1.329545,3.066398,-0.0043099999999999805,0.006900000000000128,-0.00020799999999999985,-0.0028417120108845673,0.003136319244270158,0.0004892391280605368
1504281264.25,-1.0,-0.73133092375,0.57885712955,0.10588240004999999,0.702307,-0.039911,-0.12484,-0.7976631043499999,-9.508027700849999,2.2652773101,-2.803024,1.323384,3.080827,-0.004400000000000015,0.006799999999999917,-0.0003019999999999967,-0.002270305301040665,0.0029092742732930166,0.000830706586166019
1504281264.26,-1.0,-0.9500290254,0.7978003974499999,0.13158562969999998,0.728566,0.016392,-0.165455,-0.78307080915,-9.49265087365,2.3338454069,-2.817867,1.317057,3.096181,-0.004479999999999984,0.006699999999999928,-0.00038900000000000046,-0.0015175911083731286,0.0027398290795679348,0.0012618878684479418
1504281264.27,-1.0,-1.04455532475,1.02298069475,0.14181396564999998,0.746215,0.054665,-0.219929,-0.7645656606,-9.476607194249999,2.4041198608,-2.833686,1.31062,3.112992,-0.004540000000000016,0.00670000000000015,-0.0004709999999999992,-0.0006906529720809296,0.002604067905084273,0.0017416135056684823
1504281264.28,-1.0,-0.9917759344499999,1.1561648084,0.008227779349999999,0.739555,0.121909,-0.274497,-0.7423830183,-9.4604556417,2.47365881595,-2.850032,1.304295,3.130986,-0.004639999999999991,0.006599999999999939,-0.0005539999999999989,-2.6416497390435723e-05,0.002475263410550932,0.0021920243994146826
1504281264.29,-1.0,-0.7510030636499999,1.0969130291,-0.1388033241,0.700867,0.187285,-0.328049,-0.71693476155,-9.444902294799999,2.53973602365,-2.866463,1.298336,-3.133342,-0.004740000000000008,0.006599999999999939,-0.0006400000000000017,0.0003823808663840911,0.002372400698053223,0.0025403899721220258
1504281264.3,-1.0,-0.60496243185,0.9736140186499999,-0.19961436075,0.632074,0.228392,-0.374139,-0.68820127705,-9.4306826523,2.5998017549,-2.882814,1.293,-3.114072,-0.004739999999999994,0.006699999999999928,-0.0007599999999999968,5.229044746002387e-05,0.0022479988068555556,0.00265809109848103
1504281264.31,-1.0,-0.4858998942,0.8272301540999999,-0.2892569484,0.550184,0.240823,-0.407393,-0.6567317372,-9.418375306549999,2.6520417794499997,-2.898843,1.288459,-3.094898,-0.004909999999999998,0.006600000000000161,-0.0008700000000000097,-0.00034374551120341934,0.001955404288813911,0.002737823900117231
1504281264.32,-1.0,-0.34845969445,0.6371086305499999,-0.37414331079999996,0.470086,0.222317,-0.421375,-0.62328125405,-9.4079704509,2.69666203695,-2.91445,1.284675,-3.076245,-0.005100000000000007,0.006799999999999917,-0.000999999999999987,-0.0010154891376490394,0.001565969272492529,0.002683634690039738
1504281264.33,-1.0,-0.34201672539999994,0.45596019174999997,-0.42349037359999997,0.407635,0.154627,-0.416027,-0.5887324261,-9.39905620605,2.73524139805,-2.929588,1.281472,-3.058634,-0.005291999999999991,0.006799999999999917,-0.0011200000000000099,-0.001640109823168423,0.0011435956297507488,0.0024643626471516633
1504281264.34,-1.0,-0.37139744880000003,0.3455471194,-0.42835447199999993,0.363046,0.056946,-0.403123,-0.55261453415,-9.391142239499999,2.7697313861,-2.94466,1.278658,-3.042051,-0.005470000000000003,0.006900000000000128,-0.0012500000000000011,-0.001875876773774099,0.000645776241353202,0.0021719312995374107
1504281264.35,-1.0,-0.27047721365,0.27014378754999996,-0.50130614135,0.336547,-0.033447,-0.368853,-0.5166143219999999,-9.3836695722,2.8018383582,-2.959257,1.276022,-3.026929,-0.005625000000000005,0.006899999999999906,-0.00134999999999999,-0.0020345518046105404,0.0001775667452075247,0.0016763137682154206
1504281264.36,-1.0,-0.15598457489999998,0.15045362429999998,-0.5892815985,0.320825,-0.101566,-0.320727,-0.4828206061,-9.3762165182,2.8326508524999996,-2.972767,1.273417,-3.013706,-0.005751999999999993,0.007000000000000117,-0.0014400000000000107,-0.0018971570832340134,-0.0002521755037132589,0.0011555026247624944
1504281264.37,-1.0,-0.11914099084999999,0.10875574849999999,-0.5211842208999999,0.304174,-0.146223,-0.269432,-0.4574115759499999,-9.375363339649999,2.83966260725,-2.981885,1.273122,-3.005326,-0.005849000000000007,0.007099999999999884,-0.0015099999999999975,-0.001542482459904182,-0.0006009455087663262,0.0005452044333028594
1504281264.38,-1.0,-0.13306643385,0.16410448109999998,-0.40746630749999996,0.278107,-0.175892,-0.224594,-0.43046290175,-9.368165258549999,2.86751349325,-2.992586,1.270628,-2.995898,-0.005915000000000004,0.007100000000000106,-0.0015499999999999958,-0.001112351303277137,-0.0007164527167322632,-0.0001830423560260641
1504281264.39,-1.0,-0.2130200513,0.2360852921,-0.3181669526,0.241528,-0.185229,-0.178743,-0.40722114125,-9.3617419028,2.8917849519999996,-3.001691,1.268421,-2.988306,-0.005952999999999993,0.007199999999999873,-0.0015600000000000058,-0.0006126282102303371,-0.0005318858179093056,-0.0008341436590989515
1504281264.4,-1.0,-0.37144648204999997,0.27408606085,-0.16115267944999997,0.212595,-0.169059,-0.127586,-0.3890101922,-9.35588733275,2.9131438356999997,-3.008841,1.266424,-2.982643,-0.0059050000000000005,0.007300000000000084,-0.0015299999999999897,-0.0001023499571466413,-0.00017080417647852286,-0.0015170049567981847
1504281264.41,-1.0,-0.5655887321,0.21854119525,0.1406665876,0.193325,-0.152975,-0.084904,-0.40944725079999994,-9.344943111349998,2.9453096477,-3.003461,1.26272,-2.988891,-0.0059080000000000035,0.007400000000000073,-0.0014900000000000052,0.0007008681320321841,0.00048714530296889436,-0.001972242810015512
1504281264.42,-1.0,-0.75712241325,0.1836197146,0.41487032825,0.187701,-0.178521,-0.067791,-0.3977773373,-9.339647520349999,2.9636480831999994,-3.00817,1.260944,-2.985734,-0.005918,0.00749999999999984,-0.0014200000000000046,0.0015605748369715844,0.001237003740686804,-0.0022245036202205304
1504281264.43,-1.0,-0.9653666259999999,0.16410448109999998,0.50432658955,0.205241,-0.242619,-0.050569,-0.3857151578,-9.33390082345,2.9832809964999996,-3.013015,1.259028,-2.983026,-0.005953,0.007600000000000051,-0.001339999999999994,0.002003458269523861,0.0018085339824684965,-0.0024410022137701937
1504281264.44,-1.0,-1.1389541376499999,0.06736187885,0.4948631723,0.235666,-0.289785,-0.02268,-0.37462383665,-9.32723230145,3.0054636388000002,-3.017583,1.25682,-2.981143,-0.006027999999999999,0.00770000000000004,-0.0012700000000000072,0.002046092701767366,0.0022994530386732936,-0.0026353478131825314
1504281264.45,-1.0,-1.1675209090999998,-0.0827288994,0.5700997911,0.250184,-0.322971,0.008358,-0.36520945265,-9.319749827499999,3.02973509755,-3.021628,1.254358,-2.980216,-0.00614,0.007800000000000029,-0.0011999999999999927,0.0018416104431218105,0.002767053552863663,-0.002869588327629957
1504281264.46,-1.0,-1.1114955176499999,-0.27410567415,0.6504947078,0.221221,-0.329148,0.029667,-0.35763871885,-9.31258116635,3.05258459205,-3.024964,1.252018,-2.980145,-0.006288000000000002,0.007900000000000018,-0.001119999999999996,0.00150515662973838,0.0031614897765628314,-0.003201381583101015
1504281264.47,-1.0,-1.08352695185,-0.55181038885,0.63791277585,0.153004,-0.314743,0.03913,-0.35134284954999995,-9.307207122149999,3.0696579697,-3.027631,1.250274,-2.980689,-0.006462999999999998,0.008000000000000007,-0.001020000000000007,0.0013122848155768807,0.0033629183907739613,-0.003571354524176451
1504281264.48,-1.0,-1.1117210706,-0.9401831488,0.49659894935,0.067809,-0.289541,0.047477,-0.34649836445,-9.30430435375,3.0789939005,-3.029529,1.249337,-2.981817,-0.0066499,0.008099999999999996,-0.0009099999999999941,0.0015201648274341117,0.003379923506708682,-0.003938167087940148
1504281264.49,-1.0,-1.3262709593,-1.37205820815,0.3187945782,-0.010064,-0.282515,0.055869,-0.34279145075,-9.3038434412,3.0808179373999995,-3.030783,1.249186,-2.983477,-0.00684427,0.008199999999999985,-0.0007800000000000029,0.00219334117662906,0.0032395693291900063,-0.004301216795631002
1504281264.5,-1.0,-1.5378788529999998,-1.62128441125,0.2374778364,-0.116031,-0.312565,0.076019,-0.33977100255,-9.306304910349999,3.0736983094999997,-3.031499,1.249982,-2.985943,-0.0070585299999999995,0.008499999999999952,-0.0005300000000000027,0.0026045248090267314,0.002654386490199334,-0.004963765941930376
1504281264.51,-1.0,-1.64723280715,-1.7015224215499998,0.09334950134999999,-0.230127,-0.26906,0.132317,-0.34130083995,-9.312100640499999,3.0559286596999997,-3.030369,1.251862,-2.990197,-0.0072523,0.008599999999999941,-0.0003599999999999992,0.0033450913443855423,0.002453447145711607,-0.00542770296844497
1504281264.52,-1.0,-1.4147073289999998,-1.90404935735,-0.08167958784999999,-0.337633,-0.1894,0.208843,-0.35281384705,-9.32101488535,3.0272932416999994,-3.025572,1.254775,-2.997227,-0.007444000000000001,0.008800000000000141,-0.00015999999999999348,0.004083947787093312,0.002592197488582748,-0.005743093995636994
1504281264.53,-1.0,-0.48408566394999997,-2.2227458690499997,0.25004015505,-0.405839,-0.30713,0.218539,-0.3652584859,-9.33197872005,2.9918520086,-3.020109,1.25839,-3.005801,-0.007633999999999998,0.008999999999999897,4.999999999999449e-05,0.004000381969354816,0.0028352777057418788,-0.006316603017236133
1504281264.54,-1.0,-0.40616202305,-2.6455203572,0.1822467836,-0.451632,-0.421851,0.231471,-0.37420215069999996,-9.344187999299999,2.95236062905,-3.015519,1.262469,-3.014877,-0.007809,0.009300000000000086,0.00028000000000000247,0.0028595056547102704,0.003023169454011043,-0.006970795313316236
1504281264.55,-1.0,-1.06911117635,-2.7881090482,-0.14150015285,-0.530897,-0.443604,0.259124,-0.38492081915,-9.35812324895,2.90650473365,-3.009925,1.267185,-3.025373,-0.007947000000000003,0.009399999999999853,0.0005100000000000104,0.0010870946486327693,0.0032877644709505827,-0.007299757569311116
1504281264.56,-1.0,-1.3352342374,-2.8170876989499996,-0.0203782187,-0.655516,-0.401046,0.284451,-0.39891490869999996,-9.374941653699999,2.8498713298999996,-3.002521,1.272974,-3.037481,-0.008025999999999998,0.009700000000000042,0.0007299999999999807,-0.0007002763721186689,0.003591686475794331,-0.00710801262601124
1504281264.57,-1.0,-1.423729447,-2.8289635521,0.0342644351,-0.802098,-0.282683,0.342695,-0.420705285,-9.395084512799999,2.77952822945,-2.991375,1.280057,-3.052448,-0.008032999999999998,0.009800000000000031,0.0009500000000000064,-0.001998229273727281,0.0038551622604181546,-0.006161776726660517
1504281264.58,-1.0,-1.35605375535,-2.7390561849,0.31243006235,-0.966478,-0.120486,0.402966,-0.45292013024999994,-9.418698926,2.69319048285,-2.974981,1.288579,-3.071261,-0.007987000000000008,0.009800000000000031,0.0011499999999999982,-0.0028036372676554233,0.0044779805571009135,-0.004758845122662558
1504281264.59,-1.0,-1.369204473,-2.44170875025,0.9172355878,-1.120524,0.138586,0.471624,-0.49752077445,-9.4451964943,2.5905736972499995,-2.951852,1.29845,-3.094601,-0.007918999999999995,0.009600000000000053,0.00136,-0.003340039103981063,0.005683846680669458,-0.0032844702567605966
1504281264.6,-1.0,-1.3092564215499998,-2.0859234882499997,1.4592883599,-1.252984,0.42732,0.538131,-0.5561253148499999,-9.473429839649999,2.4728840906,-2.920382,1.309366,-3.123507,-0.007837999999999998,0.009299999999999864,0.0015600000000000058,-0.0037221194567149674,0.006905993999271498,-0.0019313658088708774
1504281264.61,-1.0,-1.2144751493,-1.72845148245,2.103722558,-1.361156,0.665801,0.574882,-0.6247228316,-9.502300617249999,2.34230854585,-2.880947,1.321008,3.125237,-0.007745000000000002,0.009100000000000108,0.00179,-0.0038505363194136777,0.007446103803325332,-0.0013710732564788941
1504281264.62,-1.0,-0.5939397572499999,-1.00026849335,2.550905798,-1.422988,0.826116,0.607582,-0.6996750575499999,-9.530475122699999,2.2024755235,-2.834,1.332908,3.085022,-0.007613999999999996,0.008499999999999952,0.0019499999999999934,-0.0026319291593828176,0.007903038127939688,0.0003991773430209733
1504281264.63,-1.0,0.32068726165,-0.40478909204999997,2.86519912385,-1.453533,0.900918,0.647959,-0.779628675,-9.556580425,2.0577293694999996,-2.779426,1.344484,3.038079,-0.0074800000000000005,0.007900000000000018,0.0020499999999999963,-0.0007423538387758555,0.007504982197702459,0.0017268063723274718
1504281264.64,-1.0,1.1560569352499999,-0.34900886685,3.0111907224,-1.435653,0.882632,0.670437,-0.86126903625,-9.57975353895,1.91232616995,-2.718425,1.355263,2.984696,-0.007349999999999995,0.007300000000000084,0.002140000000000003,0.0015011729809666363,0.006289039821781195,0.002435109093109511
1504281264.65,-1.0,2.035272141,-0.85681681715,2.8017893249499997,-1.380626,0.814,0.65144,-0.9399281759,-9.599562971949998,1.77067891735,-2.653589,1.364924,2.926929,-0.00723,0.006799999999999917,0.0021899999999999975,0.0036340911794452424,0.004499180784024892,0.0026720415220974347
1504281264.66,-1.0,2.8727208243999995,-1.365281813,2.40877801955,-1.27553,0.707707,0.587766,-1.0107812221499999,-9.61588123755,1.63817146255,-2.588757,1.373227,2.868298,-0.007130000000000011,0.006299999999999972,0.0022199999999999998,0.0051793937850468375,0.0023123961504178947,0.002393973585427478
1504281264.67,-1.0,3.5424365661999997,-1.7676780824499998,1.9508270778499999,-1.137745,0.560639,0.535961,-1.0729651897999999,-9.628727949049999,1.5188245320499998,-2.526554,1.380016,2.81104,-0.007059999999999983,0.005900000000000016,0.0022300000000000098,0.005678646802554255,0.00013579844528344154,0.0017157886192431526
1504281264.68,-1.0,4.01220452115,-2.1337799402499997,1.4373214639,-0.972903,0.360014,0.535533,-1.1303340923,-9.6377598737,1.4164136861,-2.468058,1.38494,2.75569,-0.0070199999999999985,0.005700000000000038,0.0022099999999999898,0.005135105635505788,-0.0018499655206993815,0.0010195762270196473
1504281264.69,-1.0,4.041026265499999,-2.12485588875,1.0444474516,-0.806798,0.073029,0.571551,-1.1862319973,-9.64294759155,1.3329983211999998,-2.414385,1.38782,2.702572,-0.007000000000000006,0.005600000000000049,0.0021900000000000114,0.003907338415249484,-0.003462379686184125,0.0005040144117965939
1504281264.7,-1.0,4.06378750015,-1.7049057158,0.8865603865999999,-0.684552,-0.208301,0.639506,-1.24431678525,-9.64465394865,1.2659796750999999,-2.364823,1.388781,2.65074,-0.006980000000000014,0.005599999999999827,0.002139999999999989,0.0023361142461690854,-0.004631766905217161,0.00022093873563577837
1504281264.71,-1.0,4.0641601528499995,-1.1477114761,0.68894658245,-0.628493,-0.338873,0.742304,-1.3094819745,-9.643408504099998,1.20846367285,-2.316097,1.38808,2.597979,-0.006989999999999996,0.006099999999999994,0.002142000000000005,0.0003921887180322603,-0.005789799472239343,4.113339645150926e-05
1504281264.72,-1.0,3.71065003365,-0.59776435075,0.5534088728,-0.644031,-0.360147,0.828774,-1.3836300551499998,-9.6399957899,1.1517125893,-2.264972,1.386176,2.54234,-0.006929999999999992,0.006000000000000005,0.002032999999999993,-0.0008900431395519881,-0.006155054161445683,4.2672693305156884e-05
1504281264.73,-1.0,3.12960602115,0.03505877375,0.39060867614999994,-0.707924,-0.352149,0.816908,-1.4595041061999998,-9.635955450099999,1.0902052805,-2.212355,1.383947,2.485161,-0.006840000000000013,0.006199999999999983,0.0018950000000000078,-0.0016468795669213332,-0.00609278031643945,0.00011518132842336382
1504281264.74,-1.0,2.52857605595,0.62985170955,0.20507666479999997,-0.764736,-0.184272,0.71084,-1.5285429222,-9.6327977088,1.02135279085,-2.159849,1.382219,2.429327,-0.006720000000000004,0.006100000000000216,0.0017339999999999994,-0.0015692181169455477,-0.005422387601997425,0.00038940467814374546
1504281264.75,-1.0,2.0907483600499996,1.1793085023999998,0.33571104944999997,-0.797684,0.118819,0.52879,-1.5846761868,-9.631591490849999,0.9442823284999999,-2.108184,1.381563,2.37711,-0.0065599999999999825,0.006099999999999994,0.001561999999999994,-0.0012335304973676298,-0.0047558582050193365,0.0007454460579657818
1504281264.76,-1.0,1.37878557005,1.6241479530499998,0.7463547115499999,-0.83891,0.424159,0.298689,-1.6222454629499998,-9.6333468812,0.8586506607,-2.057607,1.382519,2.329199,-0.006400000000000017,0.006099999999999994,0.0013950000000000073,-0.0007856354217115058,-0.004181975094676771,0.0011233633841502
1504281264.77,-1.0,0.98744139515,1.7801423345999998,0.8777049816499999,-0.886138,0.656005,0.084718,-1.6403093122499999,-9.638220786249999,0.7645656606,-2.006966,1.38519,2.283803,-0.0062399999999999956,0.006000000000000005,0.0012449999999999961,-0.0001776645562698853,-0.0036983317287020423,0.0015222264793175455
1504281264.78,-1.0,1.05471501415,1.7063963265999997,0.69024106025,-0.96194,0.818764,-0.072609,-1.6421921890499998,-9.64557577375,0.66068381715,-1.953301,1.389301,2.237189,-0.006089999999999984,0.005899999999999794,0.0011040000000000078,0.0005240225428118084,-0.0033985548922106368,0.0020085502825717416
1504281264.79,-1.0,1.2570262036499997,1.5621208917999998,0.43306166399999996,-1.059095,0.912325,-0.124177,-1.63605322615,-9.65377413315,0.5461617584499999,-1.892995,1.393995,2.184979,-0.005960000000000021,0.005900000000000238,0.0009689999999999976,0.0011403179747375702,-0.0032997743789184852,0.00252495806497699
1504281264.8,-1.0,1.4067051025999997,1.4307804283499999,0.24564677584999997,-1.163773,0.933374,-0.066756,-1.6322090193499998,-9.66069762805,0.4208425781,-1.823136,1.398056,2.123503,-0.005879999999999996,0.005799999999999805,0.0008259999999999934,0.0017921067614192765,-0.0035857496289082302,0.0026172402579736076
1504281264.81,-1.0,1.1984805031499999,1.2716283055,0.21925708069999997,-1.236049,0.892314,0.026055,-1.6358767064499997,-9.664953714149998,0.28802131049999996,-1.745073,1.400597,2.053445,-0.005809999999999982,0.005700000000000038,0.0007080000000000003,0.0017940689415802957,-0.0036773282352862147,0.0032141797595769406
1504281264.82,-1.0,0.94801866215,1.02221577605,0.33753508634999996,-1.233486,0.867692,0.114697,-1.6466738281,-9.666189352049999,0.15387614515,-1.663971,1.401341,1.980015,-0.005750000000000005,0.005799999999999805,0.0005949999999999983,0.0015413138132869264,-0.003705412884578374,0.003701189678604222
1504281264.83,-1.0,0.82578857655,0.7625258774,0.57591513455,-1.120568,0.89545,0.194899,-1.6645121244499999,-9.6643162819,0.0274193934,-1.587268,1.400214,1.911174,-0.005730000000000013,0.005800000000000249,0.0004860000000000003,0.0011817967613487745,-0.0037528984791213027,0.0038500716407730007
1504281264.84,-1.0,0.6628707000999999,0.70740269775,0.9268461048,-0.940314,0.919488,0.245337,-1.6871360659999999,-9.660070002449999,-0.0833369117,-1.521442,1.397683,1.853655,-0.005690000000000001,0.005799999999999805,0.00039400000000000546,0.0006390158045961325,-0.0036465404395720213,0.0038542723935056644
1504281264.85,-1.0,0.44209358865,0.7885527264999999,1.5204034027,-0.76407,0.93191,0.22534,-1.70862243615,-9.65502938435,-0.1769511926,-1.4676,1.394725,1.808391,-0.005669999999999981,0.006000000000000227,0.00031799999999999884,-3.7113377577835394e-06,-0.003326344732671238,0.00381759718002328
1504281264.86,-1.0,0.6585165475,0.7168563083499999,1.6226279223,-0.599959,1.004146,0.16679,-1.7240875232,-9.65051832535,-0.25568878544999996,-1.423568,1.392116,1.773648,-0.005620000000000014,0.005900000000000016,0.00025699999999999334,-0.0006110972373232215,-0.0028904747263247543,0.0037380786057514825
1504281264.87,-1.0,1.3093839079999998,0.51946805715,1.5203053361999999,-0.504071,1.083338,0.107042,-1.73270756855,-9.646909478149999,-0.324403982,-1.385716,1.390057,1.74604,-0.005579999999999974,0.006099999999999994,0.00021500000000000685,-0.001051277105262205,-0.002485334434044306,0.003637518739390666
1504281264.88,-1.0,1.7083674632499999,0.4242062590499999,1.56860308745,-0.52509,1.086769,0.048292,-1.73484541825,-9.643977289799999,-0.39290343225,-1.348076,1.388401,1.718877,-0.005520000000000025,0.006099999999999994,0.00018799999999999373,-0.00121498534955089,-0.0021979646954986,0.003439530336762475
1504281264.89,-1.0,1.9424914253499999,0.33554433640000003,0.9936686178999999,-0.617061,1.022587,-0.011529,-1.7307560452,-9.64135891425,-0.46799295129999996,-1.306715,1.386936,1.687414,-0.00545000000000001,0.006099999999999994,0.00017400000000000748,-0.0011800681144258363,-0.0020840553749248425,0.003171581148378344
1504281264.9,-1.0,2.16667144435,0.06494944295,0.21443220889999998,-0.691212,0.918831,-0.071249,-1.7204590627,-9.638917058399999,-0.5493194997499999,-1.26174,1.385576,1.651302,-0.005379999999999996,0.005999999999999783,0.00016900000000000248,-0.000608393678135144,-0.002386246690596172,0.0026812339433885946
1504281264.91,-1.0,2.3148205058999998,-0.18692455565,-0.018005009399999997,-0.71847,0.826381,-0.102087,-1.7061021270999999,-9.636337909449999,-0.632921191,-1.215559,1.384155,1.612965,-0.005299999999999971,0.006099999999999994,0.0001719999999999916,-0.0001432797967710897,-0.0027448000988319343,0.0021500350543754987
1504281264.92,-1.0,2.2423493623999997,-0.36697464965,0.03631402495,-0.675526,0.734372,-0.089042,-1.69183345135,-9.6333076546,-0.7123746692999999,-1.172263,1.382497,1.576623,-0.005230000000000012,0.006099999999999994,0.0001830000000000026,0.00010792221069011454,-0.0031313863259323504,0.0016697462812572672
1504281264.93,-1.0,1.87315840985,-0.5477700490499999,0.10513709464999998,-0.543636,0.588299,-0.026646,-1.68282114,-9.6296791941,-0.7795502217999999,-1.136987,1.380533,1.547166,-0.005180000000000018,0.006099999999999994,0.00019800000000000373,0.0005517160854329184,-0.003805557356026501,0.0010549421124070868
1504281264.94,-1.0,1.2703828609499999,-0.7349299642999999,0.02768417295,-0.31796,0.296532,0.037236,-1.68218370775,-9.626276286549999,-0.82180707665,-1.116361,1.378706,1.529934,-0.005170000000000008,0.006200000000000205,0.00021599999999999397,0.000735041724752028,-0.004559924351241307,0.0004110710153646391
1504281264.95,-1.0,0.727457297,-0.59674445915,-0.6691861826999999,-0.202886,0.188948,0.110208,-1.68918565585,-9.62290279895,-0.8466375144499999,-1.106179,1.37691,1.521586,-0.005199999999999982,0.006299999999999972,0.00023000000000000798,0.0008309259760757026,-0.005428216234613759,-0.0001035552952657337
1504281264.96,-1.0,0.4027395022,-0.2169623246,-1.3442367420999999,-0.241475,0.213696,0.185883,-1.7036896912,-9.61811715375,-0.8715954386999999,-1.097917,1.374393,1.51524,-0.005240000000000022,0.006299999999999972,0.00022500000000000298,0.0009936573132585114,-0.006150772729481613,-0.00024259273981530605
1504281264.97,-1.0,-0.02285930115,-0.2812939486,-0.7822862771499999,-0.343473,0.283773,0.212268,-1.7216162473999999,-9.611693798,-0.9065267259999998,-1.086132,1.371065,1.505919,-0.005269999999999997,0.006400000000000183,0.00019099999999999673,0.0011291849924781605,-0.006301121646175467,-0.00017702939440478183
1504281264.98,-1.0,-0.24289110719999996,-0.1055980072,-0.19600551355,-0.412969,0.361132,0.151169,-1.7350219379499998,-9.604986049399999,-0.9509704637999999,-1.06941,1.367646,1.492359,-0.005269999999999997,0.00649999999999995,0.00013299999999999423,0.001091021126221392,-0.0057575259211315455,-0.000144211964181018
1504281264.99,-1.0,0.014808041499999999,0.74660968445,0.1028717585,-0.396181,0.392008,0.043336,-1.7381894858999998,-9.5997689116,-0.9968067459,-1.050111,1.365024,1.476597,-0.005289999999999961,0.006599999999999717,5.8000000000002494e-05,0.000830544742198347,-0.0048276672978257995,-0.00018495113448835365
1504281265.0,-1.0,0.40611298979999993,1.9891220460999997,0.25821890115,-0.311329,0.391428,-0.070728,-1.72996170655,-9.5971407294,-1.03559204665,-1.031392,1.363721,1.461487,-0.005300000000000027,0.00649999999999995,-6.699999999999762e-05,0.0007486065412745102,-0.004040993190626674,-0.00042579740687831436
1504281265.01,-1.0,0.7542686780999999,2.92066553625,0.24193986214999996,-0.210752,0.372575,-0.158047,-1.71270200255,-9.5970426629,-1.06479625035,-1.014567,1.363671,1.448155,-0.005330000000000001,0.006600000000000161,-0.00017000000000000348,0.0005305645130881942,-0.0034442864652612926,-0.00017239803402224751
1504281265.02,-1.0,0.9890594923999999,3.2384892561000003,0.26520123595,-0.103954,0.339804,-0.231455,-1.68845996375,-9.59928838575,-1.0831248792,-1.000431,1.364787,1.43727,-0.005319999999999991,0.006699999999999928,-0.0002940000000000026,0.0004156111331214962,-0.0030000954627977805,0.00027856111385238247
1504281265.03,-1.0,1.0586572874499998,3.07372772945,0.2712715523,0.001914,0.326218,-0.301696,-1.6576474694499999,-9.6037700248,-1.0909800058499999,-0.988713,1.367031,1.428643,-0.005309999999999981,0.006899999999999906,-0.00043899999999999495,0.00020994148016617586,-0.002498307554953838,0.0007244350259285603
1504281265.04,-1.0,1.0023180831999998,2.72182590085,0.21297101805,0.094014,0.331915,-0.361321,-1.6206273656999999,-9.610242413799998,-1.0895482349499999,-0.978904,1.370323,1.422017,-0.005269999999999997,0.007000000000000117,-0.0005929999999999963,-0.00024074906407478558,-0.0019320619801357353,0.0009492510979397517
1504281265.05,-1.0,1.2058649106,2.3709145439,-0.00075511205,0.19774,0.333238,-0.405975,-1.5789098766,-9.618460386499999,-1.0782803940999999,-0.971619,1.374572,1.417996,-0.005240000000000022,0.007300000000000306,-0.0007440000000000085,-0.0008041789311306058,-0.0013309305067175092,0.0011910790067720667
