Time,placement_label,user_acc_x(m/s^2),user_acc_y(m/s^2),user_acc_z(m/s^2),rotation_rate_x(rad/s),rotation_rate_y(rad/s),rotation_rate_z(rad/s),gravity_x(m/s^2),gravity_y(m/s^2),gravity_z(m/s^2),attitude_roll(rad),attitude_pitch(rad),attitude_yaw(rad),target_delta_x,target_delta_y,target_delta_z,target_delta_roll,target_delta_pitch,target_delta_yaw
1504196532.4,-1.0,0.022359162,0.01003220295,0.060193217699999996,0.009734,-0.03427,-0.050992,0.027321326899999998,-3.5518019169499997,-9.14080788495,0.002989,0.370609,1.527881,0.0,0.0,0.0,0.0,0.0,0.0
1504196532.41,-1.0,0.0393050532,0.0255169033,0.02666428135,0.014041,-0.030041,-0.05206,0.0269879008,-3.5526158688999994,-9.1404842655,0.002953,0.370698,1.527295,-3.0000000000002247e-05,-0.00014799999999999536,7.999999999999327e-06,0.0003019817093750099,2.24897287042225e-05,-0.00013503941798997943
1504196532.42,-1.0,0.03180296595,0.03866762095,0.038442067999999996,0.024804,-0.01628,-0.048864,0.027448813349999997,-3.5542535794499996,-9.1398566399,0.003003,0.370877,1.526748,-9.999999999996123e-06,-3.200000000000425e-05,4.499999999999296e-06,7.992265326683956e-05,1.849056403280258e-05,-4.5923769806610615e-05
1504196532.43,-1.0,0.017897136249999997,0.06493963629999999,0.0883579165,0.034415,-0.011037,-0.042452,0.028184312099999997,-3.5567346618999998,-9.13888578155,0.003084,0.371148,1.526261,-9.999999999996123e-06,-3.199999999999731e-05,4.500000000001031e-06,7.992250986532667e-05,1.8494408332792034e-05,-4.592269665915083e-05
1504196532.44,-1.0,0.0170243444,0.06897997609999999,0.11827800565,0.030146,-0.00781,-0.037128,0.0290669106,-3.5594314906499998,-9.13783647,0.003181,0.371443,1.525831,-2.0000000000006124e-05,-6.400000000000156e-05,9.000000000000327e-06,0.00012381216182055788,2.177845513617882e-05,-6.816246514040891e-05
1504196532.45,-1.0,0.0208685512,0.033440676499999995,0.1062648594,0.016296,-0.003437,-0.033958,0.030312355149999998,-3.56145166055,-9.137042131349999,0.003317,0.371665,1.525445,-1.9999999999992246e-05,-6.899999999999962e-05,9.999999999999593e-06,0.00017418305857175298,4.093202061494772e-05,-5.964934711200076e-05
1504196532.46,-1.0,0.05681973009999999,-0.00869849855,0.12039624204999999,-0.004011,-0.008595,-0.035052,0.0319108391,-3.5624029055999995,-9.13666947865,0.003493,0.371769,1.525046,-3.0000000000002247e-05,-7.100000000000162e-05,-2.999999999999531e-06,0.00023823833063052469,6.595125243924471e-06,-4.507574510193013e-05
1504196532.47,-1.0,0.07156893169999999,-0.039089306899999995,0.13000675904999998,-0.02318,-0.008429,-0.041491,0.0337741026,-3.56194199305,-9.1368361917,0.003696,0.371718,1.524568,-2.0000000000006124e-05,-0.00016499999999999848,-8.000000000001062e-06,0.0007614407388676359,2.8763205655257806e-05,-1.4983335665297304e-05
1504196532.48,-1.0,0.08566108774999999,-0.04531652965,0.1093637608,-0.033743,0.001256,-0.046864,0.036745517549999995,-3.56035331575,-9.137444204,0.004021,0.371544,1.524017,-9.999999999996123e-06,-8.79999999999978e-05,-2.999999999999531e-06,0.0004689274522431397,3.790442270434902e-05,3.197522807518727e-05
1504196532.49,-1.0,0.07952212485,-0.05215176469999999,0.12186723954999999,-0.041103,0.015171,-0.045835,0.04094276375,-3.5581566261499997,-9.1382875759,0.00448,0.371304,1.523458,-2.000000000002e-06,-4.499999999999643e-05,-1.4999999999997654e-06,0.0002295724620879902,2.8244877704697302e-05,7.78619320995766e-06
1504196532.5,-1.0,0.06377264495,-0.042727574049999995,0.11837607215,-0.036726,0.033244,-0.038388,0.0462089348,-3.5559109032999996,-9.1391309478,0.005056,0.371058,1.522967,-2.000000000002e-06,-4.500000000000337e-05,-1.4999999999997654e-06,0.0002295724813903277,2.8243096989566396e-05,7.79267529804617e-06
1504196532.51,-1.0,0.03131263345,-0.0293611101,0.08487655574999999,-0.031379,0.043841,-0.023455,0.05159278565,-3.55386131345,-9.1398958665,0.005644,0.370834,1.522646,-1.9999999999881224e-06,-0.0001799999999999996,-1.3000000000000858e-05,0.0008882899821618384,9.236658231603911e-06,-6.315808733137196e-05
1504196532.52,-1.0,-0.0013631243499999997,-0.031616639599999996,0.11135451075,-0.033596,0.038523,-0.01491,0.0558390651,-3.5519097901,-9.14063136525,0.006108,0.370621,1.522474,-2.000000000002e-06,-4.300000000000137e-05,-5.999999999999062e-06,0.00018696418761732225,-1.6366885726926128e-05,-2.487812749996099e-05
1504196532.53,-1.0,-0.0087671451,-0.0391677601,0.10831444924999999,-0.031561,0.024655,-0.017017,0.05904583965,-3.5500465265999996,-9.14133744405,0.006459,0.370416,1.522314,-2.000000000002e-06,-4.300000000000137e-05,-6.000000000000796e-06,0.0001869639313460958,-1.636216915423816e-05,-2.4881101047480314e-05
1504196532.54,-1.0,0.015102240999999999,-0.021201977299999997,0.060624710299999995,-0.027342,0.009717,-0.03086,0.06150730879999999,-3.5479577101499995,-9.1421317827,0.006728,0.370188,1.522007,-7.500000000007501e-06,-8.199999999999874e-05,-1.4000000000000123e-05,0.0003179150742944614,-2.3412826100521755e-05,-5.498806875214868e-05
1504196532.55,-1.0,0.03870684755,-0.0270467407,0.07891411255,-0.025284,-0.005209,-0.03937,0.06334115235,-3.54629057965,-9.142769214949999,0.006928,0.370006,1.521581,-7.499999999993623e-06,-0.0001490000000000033,-2.8999999999999512e-05,0.000498404577651268,-1.3848010143258094e-05,-0.00011237258417662321
1504196532.56,-1.0,0.0385401345,-0.0166320784,0.08317019865,-0.014638,-0.011683,-0.044677,0.06455717695,-3.5453393346,-9.143132061,0.007061,0.369902,1.521087,-7.499999999993623e-06,-6.149999999999906e-05,-7.500000000000562e-06,0.00028431690902319673,-1.3755839731066644e-05,-5.1848718710334474e-05
1504196532.57,-1.0,0.018966061099999997,-0.01032640245,0.06704806605,-0.010345,-0.00533,-0.039345,0.0661752742,-3.54521184815,-9.143161480949999,0.007238,0.369888,1.520612,-7.500000000007501e-06,-6.149999999999906e-05,-7.499999999998827e-06,0.00028431928462024914,-1.3741181721371731e-05,-5.1852933730556217e-05
1504196532.58,-1.0,0.017955976149999997,-0.01144436055,0.067469752,-0.014614,0.001088,-0.028689,0.0671951658,-3.54409389005,-9.14359297355,0.007348,0.369766,1.520277,-9.999999999996123e-06,-5.8999999999996555e-05,-5.000000000001531e-06,0.0003625515897671683,2.9485820468577728e-05,-4.6252915441025166e-05
1504196532.59,-1.0,0.0014513841999999999,-0.02495792425,0.06710690595,-0.026319,0.007574,-0.024451,0.0687250032,-3.54270134575,-9.14412253265,0.007516,0.369613,1.520008,-1.0000000000010001e-05,-3.0500000000002747e-05,-2.999999999999531e-06,0.00020858973405069037,5.749137358623813e-06,-6.563273264204028e-06
1504196532.6,-1.0,0.0066096821,-0.04951377585,0.05365218215,-0.040179,0.006626,-0.027676,0.0704509736,-3.5402987164999997,-9.145034551099998,0.007704,0.36935,1.519725,-9.999999999996123e-06,-3.0500000000002747e-05,-2.999999999999531e-06,0.00020859058755862137,5.750531092640898e-06,-6.562101045881619e-06
1504196532.61,-1.0,0.0023045627499999996,-0.05877125345,0.0684308037,-0.051914,0.002467,-0.034094,0.0720592642,-3.5368761956499997,-9.1463486422,0.007879,0.368976,1.519372,-3.999999999999837e-05,-0.0001239999999999991,-2.1000000000000185e-05,0.0008315086763541757,1.9064154031411817e-05,5.51776451787056e-05
1504196532.62,-1.0,0.02852754485,-0.06919572239999999,0.0897308475,-0.049898,-0.014595,-0.037263,0.07293205605,-3.53362038785,-9.14759408675,0.007972,0.368621,1.518962,-2.0000000000006124e-05,-6.300000000000056e-05,-1.4000000000000123e-05,0.0003881375072403159,1.6727845908670602e-05,4.2118787726419527e-05
1504196532.63,-1.0,0.02791953255,-0.06059529034999999,0.07009793419999999,-0.038266,-0.028542,-0.038286,0.0723338504,-3.53101181895,-9.14861397835,0.007907,0.368335,1.518536,-1.5000000000001124e-05,-6.550000000000306e-05,-8.499999999999827e-06,0.00031810065717952085,-2.177188915286621e-05,4.138214135795959e-05
1504196532.64,-1.0,0.01228773245,-0.03753004955,0.07834532685,-0.028819,-0.043546,-0.030771,0.070019481,-3.5290799089,-9.14937889705,0.007652,0.368124,1.518184,-1.5000000000001124e-05,-6.549999999999612e-05,-8.499999999999827e-06,0.0003180992203046795,-2.1784986828254915e-05,4.1375138845056725e-05
1504196532.65,-1.0,0.010904994799999998,-0.0235555733,0.0541719346,-0.019239,-0.040438,-0.021154,0.06720497245,-3.52779523775,-9.14988884285,0.007344,0.367984,1.517925,-1.9999999999992246e-05,-7.100000000000162e-05,-9.999999999992654e-07,0.0002136965489956122,-2.894099696137964e-05,5.378367489072833e-05
1504196532.66,-1.0,-0.0068842683,-0.0218688295,0.02021150565,-0.016983,-0.021282,-0.014779,0.0650965427,-3.52663805305,-9.150349755399999,0.007114,0.367858,1.517756,-9.999999999996123e-06,-7.599999999999274e-05,1.9999999999985307e-06,0.0002063833023462358,1.2446853867587038e-06,7.879100600594047e-05
1504196532.67,-1.0,-0.029468983249999997,-0.026036655749999995,0.027576299799999995,-0.026438,-0.000962,-0.011629,0.0644885304,-3.5250199558,-9.150977380999999,0.007047,0.36768,1.517648,4.000000000004e-06,-8.500000000000174e-05,3.500000000000031e-06,0.00023421540709445132,1.9823607328328663e-05,8.353067634581102e-05
1504196532.68,-1.0,-0.04361017255,-0.04033475145,0.0203193788,-0.043386,0.016223,-0.008486,0.065312289,-3.52208776745,-9.15210514575,0.007136,0.36736,1.517571,3.9999999999901226e-06,-8.500000000000174e-05,3.500000000000031e-06,0.00023421662940292798,1.9804035764625638e-05,8.353516574544084e-05
1504196532.69,-1.0,-0.03394081565,-0.04551266265,-0.02209438245,-0.050793,0.025871,-0.005313,0.06716574585,-3.5179591678,-9.1536840164,0.007337,0.366909,1.517528,4.000000000004e-06,-9.499999999999786e-05,-4.666666666666708e-06,0.000282039716867466,5.75401045477264e-06,8.382585008659404e-05
1504196532.7,-1.0,-0.0070019481,-0.053357982649999997,-0.0449340703,-0.047612,0.020473,-0.006333,0.06940166205,-3.5138599881,-9.1552334671,0.00758,0.366461,1.517473,3.9999999999901226e-06,-0.00010000000000000286,-4.666666666666708e-06,0.0003097185938840674,1.3788185404539632e-06,6.320458148523223e-05
1504196532.71,-1.0,0.0168478247,-0.058182854449999995,-0.009453610599999999,-0.040256,0.005496,-0.007361,0.0708432396,-3.5106728268499996,-9.1564494917,0.007737,0.366113,1.517391,4.000000000004e-06,-0.00010000000000000286,-4.666666666666708e-06,0.00030971622121978015,1.3592468670609037e-06,6.320450395103094e-05
1504196532.72,-1.0,0.04474774395,-0.042492214449999996,0.0047464186,-0.03608,-0.00945,-0.012665,0.07137279869999999,-3.50796619145,-9.15747918995,0.007794,0.365817,1.517246,-2.5000000000025002e-06,-8.750000000000424e-05,-8.499999999999827e-06,0.00030376043481972204,-2.3054502319874715e-05,7.578560719867511e-06
1504196532.73,-1.0,0.041531162749999996,-0.0394423463,-0.0089044382,-0.033998,-0.017988,-0.015849,0.071000146,-3.50531839595,-9.15849908155,0.007752,0.365529,1.517057,-2.5000000000025002e-06,-8.749999999999036e-05,-8.499999999999827e-06,0.0003037629039641665,-2.3056981686808697e-05,7.5716179435136866e-06
1504196532.74,-1.0,0.0381086419,-0.05282842355,-0.028762904449999998,-0.033951,-0.011595,-0.014793,0.0708236263,-3.5028667334499994,-9.15944051995,0.007732,0.365261,1.516883,-2.4999999999886224e-06,-3.649999999999487e-05,-2.0000000000002655e-06,0.00012787566995808852,-1.7325632019948856e-05,-2.7249101245074847e-05
1504196532.75,-1.0,0.008335652499999999,-0.0657633949,-0.029410143349999997,-0.038188,-0.007299,-0.013741,0.0706667199,-3.50025816455,-9.160440798249999,0.007714,0.364976,1.516733,-2.5000000000025002e-06,-3.650000000000875e-05,-2.0000000000002655e-06,0.00012787616141696212,-1.732214092697859e-05,-2.725132227365812e-05
1504196532.76,-1.0,-0.02501676415,-0.060860069899999994,-0.0469150136,-0.036028,-0.00412,-0.013743,0.07036271375,-3.4975221092,-9.16148030315,0.00768,0.364678,1.5166,3.333333333327415e-06,-8.099999999999774e-05,1.1000000000000593e-05,0.00020235185382211363,-1.565694195626577e-05,-4.9003609762232614e-05
1504196532.77,-1.0,-0.0023045627499999996,-0.04963145565,-0.07308896245,-0.025346,5e-05,-0.009462,0.07069613984999999,-3.4951292865999997,-9.1623923216,0.007715,0.364416,1.516491,3.333333333341293e-06,-7.999999999999674e-05,1.5000000000001124e-05,0.0001707913739437128,-2.2010364117308612e-05,-3.515452842306477e-05
1504196532.78,-1.0,-0.026654474699999996,-0.0302633219,-0.05282842355,0.000203,-0.004428,-0.00514,0.0701960007,-3.4945997275,-9.162598261249999,0.007661,0.364359,1.516443,3.333333333327415e-06,-0.00016800000000000148,3.799999999999984e-05,0.00028713539014368905,-2.958282987286509e-05,-0.00016478370934402964
1504196532.79,-1.0,-0.02205515585,-0.010198915999999999,-0.02489908435,0.031046,-0.015341,-0.002932,0.0687446165,-3.49670815725,-9.161803922599999,0.007503,0.364589,1.516425,5.0000000000050004e-06,-4.500000000000337e-05,8.999999999998592e-06,7.841722411949803e-05,1.5232291246336516e-05,-2.10630063238737e-05
1504196532.8,-1.0,-0.02778223945,0.0025105023999999997,-0.0023830159499999997,0.050109,-0.030421,0.001398,0.06579281484999999,-3.5008955967999995,-9.160234858599999,0.007182,0.365045,1.516439,4.999999999991123e-06,-4.500000000000337e-05,9.000000000000327e-06,7.841700113297989e-05,1.5233969731021091e-05,-2.1061837233604663e-05
1504196532.81,-1.0,-0.013023231199999999,0.0116306869,0.03447037475,0.054184,-0.0539,0.002514,0.0608992965,-3.5059754415,-9.15832256185,0.00665,0.3656,1.516474,2.0000000000006124e-05,-9.699999999999986e-05,1.4000000000000123e-05,0.00016355529425249316,6.342089690303254e-06,-4.080002919493175e-05
1504196532.82,-1.0,-0.0047856452,-0.06683231975,0.10703958474999999,0.048846,-0.065559,-0.014553,0.05535853925,-3.5130950694,-9.1556257331,0.006047,0.366378,1.516373,3.999999999999837e-05,-0.00021499999999999297,1.4000000000000123e-05,0.0004668587790987999,-1.9822985217299305e-05,-9.8597896246444e-05
1504196532.83,-1.0,-0.0017455836999999998,-0.06289004645,0.10554897395,0.042803,-0.039903,-0.045564,0.05231847775,-3.5170373427,-9.154125315649999,0.005716,0.366808,1.515974,3.0000000000002247e-05,-0.00011800000000000699,4.000000000000531e-06,0.0003133176246110647,6.636448089292202e-06,-7.879648871667033e-05
1504196532.84,-1.0,-0.036745517549999995,-0.10188128685,0.17256762005,0.044356,-0.003646,-0.084051,0.053063783149999995,-3.5236862514,-9.15156578,0.005798,0.367535,1.515202,3.499999999999337e-05,-0.0001229999999999981,1.0999999999998858e-05,0.0003466839428039048,-2.603834444858677e-05,-6.489898664241434e-05
1504196532.85,-1.0,-0.0989883251,-0.1052645811,0.23394744239999998,0.046808,0.015546,-0.116102,0.05633920425,-3.5309333657499997,-9.1487610781,0.006159,0.368326,1.514098,3.500000000000725e-05,-0.0001229999999999981,1.1000000000000593e-05,0.0003466846945365809,-2.6015763625597543e-05,-6.490784088164503e-05
1504196532.86,-1.0,-0.14542281285,-0.08291522575,0.24079248409999998,0.052201,0.01019,-0.135295,0.059977471399999996,-3.5383177732,-9.145877922999999,0.006558,0.369134,1.512767,3.0000000000002247e-05,-0.00011999999999999511,1.600000000000039e-05,0.00033735109302401867,-8.254304740829e-06,-3.027296491608933e-05
1504196532.87,-1.0,-0.14883552705,-0.04151154945,0.17042977034999998,0.055231,-0.013282,-0.13738,0.059349845799999995,-3.5476929305999994,-9.142249462499999,0.006492,0.37016,1.511475,3.0000000000002247e-05,-0.00011900000000000799,1.2999999999999123e-05,0.00027520923281887377,-1.9618905727769587e-05,-2.9718257130162407e-05
1504196532.88,-1.0,-0.14960044574999998,-0.0373437232,0.16880186644999998,0.042058,-0.051549,-0.124527,0.060114764499999994,-3.5518705635,-9.1406215586,0.006577,0.370616,1.510094,1.4999999999987246e-05,-0.00010249999999999149,1.849999999999942e-05,0.0001773221983660811,1.2907312896270895e-06,-2.3785219312011385e-05
1504196532.89,-1.0,-0.1480019618,-0.00522694445,0.11058959205,0.017224,-0.075877,-0.104245,0.05492704665,-3.5546556521,-9.13957224705,0.00601,0.370921,1.50902,1.5000000000001124e-05,-0.00010250000000000536,1.8500000000001154e-05,0.00017732140787329875,1.2949402299344825e-06,-2.3784887985600633e-05
1504196532.9,-1.0,-0.11698352784999999,0.024820631149999998,-0.00114737805,7.1e-05,-0.07682,-0.089327,0.048895956899999996,-3.5546262321499995,-9.1396212803,0.00535,0.370918,1.50811,-9.999999999996123e-06,-8.900000000000574e-05,2.3999999999999716e-05,7.697088297287102e-05,1.0761857943686337e-05,-5.925223933467283e-05
1504196532.91,-1.0,-0.11821916575,0.0283216052,-0.0067862018,-0.015891,-0.066044,-0.080833,0.04339442625,-3.5530375548499995,-9.140258712549999,0.004748,0.370744,1.507303,-9.999999999996123e-06,-9.299999999999586e-05,2.700000000000098e-05,9.967502348784407e-05,-1.1364638910826841e-05,-4.737756861117326e-05
1504196532.92,-1.0,-0.026791767799999998,0.0664694737,0.0661948875,-0.025488,-0.058519,-0.070188,0.03861858769999999,-3.5497327138,-9.14157280365,0.004224,0.370382,1.506598,-9.999999999996123e-06,-0.00010649999999999549,2.650000000000048e-05,0.00016305466056065754,-5.0790010188928036e-05,-6.732208981341525e-05
1504196532.93,-1.0,-0.0233006004,0.0634686388,0.0673716855,-0.034128,-0.064853,-0.059518,0.0351274203,-3.5467318788999997,-9.14274960165,0.003842,0.370055,1.505921,-1.0000000000010001e-05,-0.00010650000000000936,2.6499999999998747e-05,0.00016305962295826149,-5.077941972642108e-05,-6.733101304867706e-05
1504196532.94,-1.0,0.0488763436,0.05504472645,0.08558263455,-0.041748,-0.074395,-0.044571,0.031185147,-3.5426523125,-9.144348085599999,0.00341,0.369608,1.505378,5.0000000000050004e-06,-5.6000000000000494e-05,1.1500000000001093e-05,0.00012125341591850969,-1.512278236037723e-05,-1.0330010411729873e-05
1504196532.95,-1.0,0.07543275179999999,0.042492214449999996,0.05494665995,-0.043893,-0.074378,-0.042441,0.027066353999999997,-3.5383177732,-9.1460348294,0.002959,0.369135,1.504876,5.0000000000050004e-06,-5.5999999999986616e-05,1.1499999999999358e-05,0.00012125390023065563,-1.5121562620734608e-05,-1.0331873371294265e-05
1504196532.96,-1.0,0.0758446311,0.0629390797,0.06119349599999999,-0.051235,-0.06046,-0.045681,0.023967452599999998,-3.53303198885,-9.148084419249999,0.00262,0.368556,1.504338,9.999999999996123e-06,-0.00012100000000000999,2.199999999999945e-05,0.0003271966319240427,-4.38423102793184e-05,-4.125601248661237e-05
1504196532.97,-1.0,0.08211108045,0.0813363551,0.06418452424999999,-0.066019,-0.041155,-0.045741,0.022790654599999998,-3.52644192005,-9.150634148249999,0.00249,0.367836,1.503788,6.0000000000004494e-05,-0.00026299999999999935,4.0000000000000105e-05,0.0007294498766210467,2.519429773339965e-05,-3.605127352990234e-05
1504196532.98,-1.0,0.0487586638,0.0637824516,0.0680385377,-0.078697,-0.024002,-0.043659,0.0226141349,-3.5187731197499996,-9.153585949899998,0.002471,0.366998,1.503278,2.999999999998837e-05,-0.00013900000000000023,1.4999999999999389e-05,0.00036738313643613907,4.1660784637187476e-05,-2.399241891537507e-05
1504196532.99,-1.0,0.02470295135,0.036323831599999995,0.031008627299999997,-0.082849,-0.004794,-0.036229,0.0234771201,-3.5107610866999996,-9.15665543135,0.002564,0.366123,1.502851,2.0000000000006124e-05,-0.00013950000000000073,1.5000000000001124e-05,0.0002776657795766635,1.6226992523460382e-05,-2.289069502847685e-05
1504196533.0,-1.0,-0.0017259703999999998,0.029733762799999997,0.015406247149999998,-0.071015,0.008959,-0.034098,0.025369803549999997,-3.50341590585,-9.1594699399,0.00277,0.365321,1.502482,2.0000000000006124e-05,-0.00013950000000000073,1.4999999999999389e-05,0.00027766431550024784,1.623328942845781e-05,-2.2886095012775165e-05
1504196533.01,-1.0,-0.011964112999999998,0.035686399349999995,0.0026870221,-0.052939,0.00667,-0.025523,0.0269290609,-3.49755152915,-9.1617058561,0.002939,0.36468,1.502195,1.9999999999992246e-05,-0.00013799999999999923,1.6999999999999654e-05,0.00014796622933710424,2.0879018802766325e-06,-1.637174279922604e-05
1504196533.02,-1.0,0.0010002783,0.0469150136,-0.0011964113,-0.032846,-0.011617,-0.019051,0.027125193899999997,-3.4932169898499996,-9.1633533733,0.002961,0.364208,1.501979,2.0000000000006124e-05,-0.00013799999999999923,1.700000000000139e-05,0.000101565848680929,4.4924773138887986e-05,-1.2922984290342221e-05
1504196533.03,-1.0,0.022359162,0.04831736455,-0.01974078645,-0.017011,-0.029867,-0.014722,0.025673809699999998,-3.4904319012499996,-9.164422298149999,0.002801,0.363904,1.501803,1.9999999999992246e-05,-0.00014000000000000123,1.799999999999892e-05,8.620575147566534e-05,4.311124487133e-05,-5.206339455443576e-05
1504196533.04,-1.0,0.0414036763,0.041943042050000004,-0.051465299199999995,-0.013923,-0.043744,-0.014693,0.02309466075,-3.4880979185499994,-9.1653147033,0.00252,0.363649,1.501614,2.0000000000006124e-05,-0.00010699999999999599,3.5999999999999574e-05,6.893395058060747e-05,3.2263429965206925e-05,-3.479029937702993e-05
1504196533.05,-1.0,0.0370887503,0.026997707449999995,-0.07383426785,-0.01926,-0.045827,-0.017901,0.0200644059,-3.48556780285,-9.16628556165,0.002189,0.363373,1.501407,1.9999999999992246e-05,-0.00010100000000000386,4.0000000000000105e-05,6.45025466452509e-05,1.7981190772786704e-05,-2.1950346119625763e-05
1504196533.06,-1.0,0.03090075415,0.0134939504,-0.12000397604999999,-0.027742,-0.038299,-0.016862,0.0174362237,-3.4822433485,-9.167560426149999,0.001902,0.36301,1.501203,1.9999999999992246e-05,-9.750000000000036e-05,4.849999999999993e-05,0.00010026980344557401,1.5550348021253768e-05,-3.157935797892808e-05
1504196533.07,-1.0,-0.011689526799999999,-0.01862282835,-0.12926145365,-0.032935,-0.019077,-0.01477,0.0157298666,-3.4782618486,-9.16907065025,0.001715,0.362576,1.501039,2.0000000000006124e-05,-9.750000000000036e-05,4.849999999999993e-05,0.00010026883952196641,1.555344810966197e-05,-3.1577648633152045e-05
1504196533.08,-1.0,-0.01154242705,-0.0214373369,-0.12819252879999998,-0.028558,-0.002069,-0.009455,0.015582766849999999,-3.4754375333999996,-9.170139575099999,0.001699,0.362268,1.500921,2.0000000000006124e-05,-9.899999999998799e-05,5.10000000000007e-05,0.00016225995261898163,-2.319412841789159e-06,-1.2924143768966445e-05
1504196533.09,-1.0,0.006325289249999999,-0.025654196399999996,-0.11062881864999999,-0.015738,0.002084,-0.006238,0.0161221326,-3.47332910365,-9.1709437204,0.001758,0.362038,1.500844,2.0000000000006124e-05,-0.00010100000000000386,4.700000000000017e-05,0.0001419945557872282,3.119021487263396e-05,1.6671151206848478e-05
1504196533.1,-1.0,-0.00306948145,-0.0315381864,-0.08805391034999999,-0.000825,-0.000171,-0.005141,0.016239812399999998,-3.4729760642499996,-9.17107120685,0.00177,0.361999,1.500791,1.9999999999992246e-05,-0.00010200000000000486,4.4000000000000636e-05,0.00013413058337197192,4.075115154877906e-06,1.5208885532635996e-05
1504196533.11,-1.0,-0.016131939249999998,-0.0152199208,-0.0956148375,0.013126,0.003986,-0.01473,0.0167301449,-3.4735742699,-9.1708456539,0.001824,0.362065,1.500667,2.0000000000006124e-05,-0.00010299999999999199,3.999999999999837e-05,0.00013756419977184464,1.6895700417629556e-05,2.951019489083606e-05
1504196533.12,-1.0,-0.006717555249999999,-0.021908056099999997,-0.0815717147,0.015396,0.015698,-0.023286,0.01854437515,-3.4748197144499997,-9.17036512805,0.002022,0.362201,1.500438,9.999999999996123e-06,-0.00010400000000000686,4.0000000000000105e-05,7.691084577898799e-05,1.0261407828782154e-05,2.5761863406414953e-05
1504196533.13,-1.0,-0.015396440499999999,-0.0459931885,-0.0839841506,0.00914,0.028545,-0.031859,0.021682503149999997,-3.4760259324,-9.169904215499999,0.002364,0.362333,1.500116,2.4999999999997247e-05,-0.00010650000000000936,2.750000000000148e-05,5.4477357505966495e-05,9.992811903947185e-06,1.7394299022921444e-05
1504196533.14,-1.0,-0.0358531124,-0.0811009955,-0.0653907422,-0.005748,0.037188,-0.02763,0.025526709949999997,-3.4766829779499995,-9.169649242599998,0.002784,0.362404,1.499819,2.4999999999997247e-05,-0.00010649999999999549,2.7499999999999747e-05,5.4477460997848226e-05,9.991855953295214e-06,1.739482129314851e-05
1504196533.15,-1.0,-0.039971905399999993,-0.1066767387,-0.04374746565,-0.020748,0.033041,-0.021244,0.02890019755,-3.4763985850999997,-9.1697473091,0.003152,0.362373,1.499593,3.999999999999837e-05,-0.00010699999999999599,1.6999999999999654e-05,6.999621265846301e-05,3.850480042411064e-05,9.46824341374608e-07
1504196533.16,-1.0,-0.0130624578,-0.13340966659999998,-0.027252680349999996,-0.019865,0.01491,-0.012671,0.031018433949999997,-3.4763005186,-9.16977672905,0.003383,0.362362,1.499448,5.000000000000837e-05,-0.00011099999999999999,2.1000000000000185e-05,7.442756925324368e-05,5.2796758888140616e-05,-1.1879944855075486e-05
1504196533.17,-1.0,0.01846592195,-0.1258585461,-0.0014317708999999998,-0.005186,-0.015052,-0.008323,0.031057660549999998,-3.4772615703,-9.16940407635,0.003388,0.362467,1.499336,5.9999999999990616e-05,-0.00011799999999999311,2.199999999999945e-05,0.0001432098304696705,6.123959792203593e-05,2.8875641084891157e-06
1504196533.18,-1.0,0.0395992527,-0.1107563051,0.044335864649999994,0.015934,-0.046122,-0.01357,0.028635417999999996,-3.48009569215,-9.16834495815,0.003123,0.362776,1.499194,6.0000000000004494e-05,-0.00011800000000000699,2.199999999999945e-05,0.00014320958102320702,6.123914642253148e-05,2.8963320993780073e-06
1504196533.19,-1.0,0.0365788045,-0.09625226975000001,0.0627821733,0.040145,-0.094262,-0.024117,0.022525875049999998,-3.4851657301999994,-9.1664326614,0.002458,0.36333,1.498942,6.0000000000004494e-05,-0.0001260000000000011,2.2000000000001185e-05,0.00018738451236122167,3.565711695685536e-05,-2.867817351293045e-05
1504196533.2,-1.0,0.054122901349999995,-0.0618407349,0.0987137389,0.053722,-0.135923,-0.031493,0.0127682583,-3.4914517928499995,-9.1640594521,0.001393,0.364015,1.498586,5.4999999999999494e-05,-0.00011999999999999511,2.199999999999945e-05,0.00021108126453595055,1.4989040767465767e-05,-4.397675413048141e-05
1504196533.21,-1.0,0.06651850695,-0.03986403225,0.09935117114999999,0.073772,-0.165921,-0.034608,7.845319999999999e-05,-3.49921865965,-9.161107650449999,8e-06,0.364863,1.498195,5.4999999999999494e-05,-0.00011999999999999511,2.199999999999945e-05,0.0002110803761725677,1.4998308628166868e-05,-4.397353929908032e-05
1504196533.22,-1.0,0.0514064593,-0.08223856689999999,0.08938761475,0.074878,-0.164858,-0.039945,-0.013101684399999999,-3.5080152247,-9.15773416285,-0.001431,0.365824,1.497748,3.999999999999837e-05,-0.00010800000000001087,2.300000000000045e-05,0.0002337801119884908,-7.1496042093333045e-06,-3.214851791089046e-05
1504196533.23,-1.0,0.07783538104999999,-0.04647371435,0.09119203834999999,0.061063,-0.156221,-0.036783,-0.025310963649999997,-3.5153505989,-9.154890234349999,-0.002765,0.366624,1.4973,2.0000000000006124e-05,-5.1499999999995993e-05,1.1499999999999358e-05,0.00010356925422305707,-8.880545510070448e-07,1.9224983128784956e-06
1504196533.24,-1.0,0.0370299104,0.00328522775,0.04361017255,0.041935,-0.14009,-0.026171,-0.03717701015,-3.5199204977999994,-9.153095617399998,-0.004062,0.367123,1.496971,1.9999999999992246e-05,-5.1499999999995993e-05,1.1500000000001093e-05,0.00010357001349881045,-8.882600073256697e-07,1.9224203842149734e-06
1504196533.25,-1.0,-0.02986124925,-0.011836626549999998,-0.02986124925,0.029312,-0.104843,-0.005974,-0.047944711849999995,-3.5229017193999996,-9.1518992061,-0.005239,0.367449,1.496878,7.999999999999674e-05,-0.00019500000000000073,2.3999999999999716e-05,0.00034421229110903617,1.75892972762437e-05,-1.600912126198395e-06
1504196533.26,-1.0,-0.047856451999999994,0.01169933345,-0.0402268783,0.015704,-0.062125,0.009939,-0.05599597149999999,-3.52444136345,-9.151261773849999,-0.006118,0.367617,1.496989,5.000000000000837e-05,-9.100000000000774e-05,2.999999999999531e-06,0.00014199642323364792,3.1172324592043665e-05,1.673514691857836e-05
1504196533.27,-1.0,-0.07303992919999999,0.035362779899999995,-0.030989014,0.005363,-0.016228,0.017313,-0.06043838395,-3.52446097675,-9.151222547249999,-0.006604,0.367619,1.497215,4.999999999999449e-05,-9.099999999999386e-05,2.0000000000002655e-06,0.0001419969998450732,3.1169999014757366e-05,1.6739582815117338e-05
1504196533.28,-1.0,-0.08207185384999999,0.04192342875,-0.06897997609999999,-0.003926,0.023274,0.017228,-0.0611346561,-3.5232449521499998,-9.1516834598,-0.00668,0.367487,1.497454,5.000000000000837e-05,-9.199999999999486e-05,1.000000000001e-06,0.0001454283477646534,4.3972018036075866e-05,3.106104278582933e-05
1504196533.29,-1.0,-0.07817861379999999,0.046767913849999995,-0.050818060299999995,-0.014337,0.051071,0.00969,-0.058584927099999996,-3.5211953623,-9.1524876051,-0.006401,0.367263,1.49763,4.999999999999449e-05,-9.400000000001074e-05,-1.000000000001e-06,0.00013704933757896498,6.17034719319065e-05,2.2687530167764258e-05
1504196533.3,-1.0,-0.052092924799999996,0.0432669398,-0.039403119699999996,-0.020569,0.063923,-0.004219,-0.053701215399999995,-3.5184495002999996,-9.15357614325,-0.005867,0.366963,1.497655,6.0000000000004494e-05,-9.699999999999986e-05,-4.000000000000531e-06,0.00015229432961150202,6.956782592792976e-05,5.97128583333939e-05
1504196533.31,-1.0,-0.059114486200000003,0.02297698095,-0.02217283565,-0.019552,0.051138,-0.014868,-0.0490724766,-3.5161155175999994,-9.154507774999999,-0.00536,0.366707,1.497559,5.4999999999999494e-05,-0.00010699999999999599,-6.499999999999562e-06,0.00016218305146842305,5.081857640276688e-05,7.596466439108163e-05
1504196533.32,-1.0,-0.020025179299999998,-0.00418743955,-0.00932612415,-0.001638,0.021156,-0.017986,-0.04596376855,-3.5154388587499996,-9.1547823612,-0.005021,0.366634,1.497382,5.4999999999999494e-05,-0.00010699999999999599,-6.499999999999562e-06,0.000162186332352654,5.080618065478326e-05,7.59726387377091e-05
1504196533.33,-1.0,-0.012140632699999999,-0.0136312435,-0.017730423199999998,0.024861,0.000689,-0.015769,-0.04502233014999999,-3.5170765693,-9.154154735599999,-0.004918,0.366812,1.497215,5.9999999999990616e-05,-0.00011900000000000799,-7.000000000000062e-06,0.00018588531154550836,3.0134449214180847e-05,6.0657376107497996e-05
1504196533.34,-1.0,-0.0006276255999999999,-0.021201977299999997,0.031430313249999994,0.053412,-0.026195,-0.007133,-0.04651294095,-3.5219112477499994,-9.15228166545,-0.005082,0.367341,1.497126,3.0000000000002247e-05,-5.7999999999988616e-05,9.999999999992654e-07,9.294329301945403e-05,1.5063004379589628e-05,3.0330774032472085e-05
1504196533.35,-1.0,0.016661498349999998,-0.039834612299999995,0.07631535029999999,0.066048,-0.043355,-0.000677,-0.049739328799999996,-3.5288641625999997,-9.14959464335,-0.005436,0.368101,1.497096,3.0000000000002247e-05,-5.8000000000002494e-05,1.000000000001e-06,9.294371718548966e-05,1.5060190602156354e-05,3.0332164154711627e-05
1504196533.36,-1.0,0.018426695349999998,-0.0326953711,0.0606835502,0.059626,-0.045434,0.000383,-0.05388754175,-3.53556210455,-9.14698607445,-0.005891,0.368833,1.4971,0.00014000000000000123,-0.0002460000000000101,9.999999999999593e-06,0.00043047031517318146,5.8800144580928304e-05,0.00010653472249178009
1504196533.37,-1.0,0.0095712904,-0.032607111249999994,0.04474774395,0.04382,-0.028242,-0.011416,-0.056554950550000004,-3.54074001575,-9.14496590455,-0.006185,0.369399,1.497011,7.000000000000062e-05,-0.00012099999999999611,1.1000000000000593e-05,0.00021645228468769595,3.501561140328846e-05,7.400377873956199e-05
1504196533.38,-1.0,-0.014494228699999999,-0.04564995575,-0.007502087249999999,0.028189,0.010262,-0.02432,-0.05598616484999999,-3.5442998297,-9.1435831669,-0.006123,0.369788,1.496796,7.000000000000062e-05,-0.00011300000000000199,1.799999999999892e-05,0.00019033057888218075,4.439319235149952e-05,4.78880243065527e-05
1504196533.39,-1.0,-0.023153500649999995,-0.033764295949999995,-0.019122967499999997,0.011423,0.047696,-0.025482,-0.05181833859999999,-3.5461630931999997,-9.14288689475,-0.005667,0.369992,1.496536,7.000000000000062e-05,-0.00010899999999999799,2.1000000000000185e-05,0.00022089331821284475,4.930619659493374e-05,6.12221246766298e-05
1504196533.4,-1.0,-0.0461500949,-0.03182257925,0.005452497399999999,-0.009709,0.078763,-0.017034,-0.0451302033,-3.5461630931999997,-9.14292612135,-0.004936,0.369992,1.496357,7.000000000000062e-05,-0.00010699999999999599,2.5000000000000716e-05,0.00021746155823487712,3.650672390076437e-05,4.690209237245835e-05
1504196533.41,-1.0,-0.054868206749999995,-0.05811420789999999,-0.0232417605,-0.022451,0.094837,-0.003208,-0.0373044966,-3.5450059084999994,-9.143406647199999,-0.00408,0.369865,1.496318,7.000000000000062e-05,-0.00010799999999999699,2.499999999999898e-05,0.00019377226059535957,5.714808227197388e-05,6.224652510289364e-05
1504196533.42,-1.0,-0.0431884866,-0.07090207949999999,-0.029694536199999996,-0.024623,0.095909,0.006393,-0.02923362365,-3.5435937509,-9.14398523955,-0.003197,0.369711,1.496392,7.499999999999174e-05,-0.00011150000000000049,2.249999999999995e-05,0.00018761906142605866,3.642180970264697e-05,6.788281785352623e-05
1504196533.43,-1.0,-0.020947004399999997,-0.059153712799999994,0.026272015349999997,-0.022625,0.082034,0.011758,-0.02199631595,-3.5424757928,-9.14443634545,-0.002405,0.369589,1.496515,7.500000000000562e-05,-0.00011150000000000049,2.249999999999995e-05,0.00018762095319457828,3.640901906654115e-05,6.788944436442179e-05
1504196533.44,-1.0,0.00832584585,-0.04104083025,0.04650313429999999,-0.011084,0.057431,0.011822,-0.0162594257,-3.5420344935499997,-9.144622671799999,-0.001778,0.36954,1.496637,5.4999999999999494e-05,-0.00010450000000000736,8.000000000001062e-06,0.0002051225290473635,4.601365352741027e-05,6.816679168886175e-05
1504196533.45,-1.0,0.03468612105,-0.02711538725,0.0447575506,0.010032,0.027424,0.008708,-0.0126898051,-3.5430936117499994,-9.14422059915,-0.001388,0.369656,1.496711,5.4999999999999494e-05,-0.00010449999999999349,7.999999999999327e-06,0.00020512476129774804,4.5999556353537585e-05,6.81759342214816e-05
1504196533.46,-1.0,0.05045521425,-0.00899269805,0.07054904009999999,0.024755,-0.001464,0.005582,-0.011405133949999998,-3.5456531473999995,-9.143230127499999,-0.001247,0.369936,1.496748,3.999999999999837e-05,-9.300000000000974e-05,-2.999999999999531e-06,0.00017655950502537543,4.619095494007297e-05,7.952183635551169e-05
1504196533.47,-1.0,0.053485469099999995,0.00814932615,0.07989477754999999,0.037379,-0.023944,0.005643,-0.01248386545,-3.5493306411499996,-9.141798356599999,-0.001366,0.370338,1.496779,3.0000000000002247e-05,-9.099999999999386e-05,-4.000000000000531e-06,0.00014298192897777007,8.559252248518945e-05,7.865392782091529e-05
1504196533.48,-1.0,0.0491705431,-0.009237864299999999,0.0169066646,0.050182,-0.024048,0.005665,-0.01415099595,-3.5539299599999996,-9.14000373965,-0.001548,0.370842,1.496815,3.0000000000002247e-05,-8.900000000000574e-05,-7.999999999999327e-06,0.00011586613337200014,9.345521893289188e-05,7.967017483878625e-05
1504196533.49,-1.0,0.0101793027,-0.02246703515,0.02801759905,0.044952,-0.00909,0.008831,-0.015425860449999999,-3.5588038650500002,-9.1381110562,-0.001688,0.371375,1.496899,3.500000000000725e-05,-8.249999999999924e-05,-1.4500000000000624e-05,2.34035891117923e-05,8.124822216748484e-05,0.00011464584007681022
1504196533.5,-1.0,-0.0125917386,-0.0067469752,0.059977471399999996,0.018376,0.004978,0.011963,-0.01599464615,-3.5616576001999998,-9.1369930981,-0.00175,0.371687,1.497031,3.499999999999337e-05,-8.249999999999924e-05,-1.4499999999998889e-05,2.341277698980626e-05,8.124532419939712e-05,0.00011464709056119293
1504196533.51,-1.0,-0.04670907395,-0.0207116448,0.010954028049999998,-0.004934,0.026479,0.01402,-0.01538663385,-3.5619125730999994,-9.1368950316,-0.001684,0.371715,1.497213,3.0000000000002247e-05,-7.499999999999174e-05,-1.8000000000000654e-05,-6.704366005871876e-05,7.21685585294285e-05,9.536502692286675e-05
1504196533.52,-1.0,-0.0664106338,-0.0215157901,-0.056094038,-0.001535,0.057342,0.023579,-0.012601545249999999,-3.5615595336999997,-9.137042131349999,-0.001379,0.371676,1.497486,2.999999999998837e-05,-7.200000000000262e-05,-1.8000000000000654e-05,-0.00014651035128299128,0.00010958820067941133,0.00010481185598854026
1504196533.53,-1.0,-0.0747070597,-0.0103362091,-0.044208378199999995,0.015686,0.082762,0.034238,-0.0077472535,-3.5625598119999995,-9.136659671999999,-0.000847,0.371786,1.497866,2.0000000000006124e-05,-6.799999999999862e-05,-1.4999999999999389e-05,-0.00016961320277442127,7.472082592441254e-05,6.622625169017127e-05
1504196533.54,-1.0,-0.08944645465,0.0022359162,0.022221868899999997,0.019921,0.080591,0.037453,-0.0028831550999999997,-3.5645113353499998,-9.13590455995,-0.000315,0.371999,1.498307,9.999999999996123e-06,-6.50000000000095e-05,-1.1999999999999858e-05,-0.00013659647660690943,3.7856273711334154e-05,3.210492516358965e-05
1504196533.55,-1.0,-0.05631959095,0.008090486249999999,0.0245362383,0.012261,0.054017,0.033217,0.00065704555,-3.5658744597,-9.1353651942,7.2e-05,0.372149,1.498717,5.0000000000050004e-06,-3.599999999999437e-05,-1.6999999999999654e-05,-8.23556468454445e-05,2.209616695991734e-05,3.0108391700811588e-05
1504196533.56,-1.0,0.017200864099999998,-0.006766588499999999,-0.0035794272499999995,0.005616,0.018915,0.025796,0.0025497289999999997,-3.5665805385,-9.135090607999999,0.00028,0.372226,1.498998,5.0000000000050004e-06,-3.599999999999437e-05,-1.5000000000001124e-05,-2.4669260099363655e-05,1.9109349170598477e-05,4.245024919913298e-05
1504196533.57,-1.0,0.05554486559999999,-0.0315970263,-0.011954306349999999,0.003284,-0.011957,0.016239,0.0023634026499999997,-3.56733565055,-9.1347964085,0.000259,0.372309,1.499159,1.9999999999992246e-05,-3.400000000000625e-05,-1.4000000000000123e-05,1.1218134426727033e-05,5.303614299023707e-05,3.9885255533333996e-05
1504196533.58,-1.0,0.06208590115,-0.05746696899999999,0.03590214565,0.00105,-0.030043,0.007727,0.0007649187,-3.56855167515,-9.134315882649998,8.3e-05,0.372442,1.499212,2.4999999999997247e-05,-2.5499999999997747e-05,-1.650000000000089e-05,2.0833931833053043e-05,8.65262014340118e-05,4.860532349648672e-05
1504196533.59,-1.0,0.0572904493,-0.06541035549999999,0.04478697055,0.007473,-0.029027,0.005601,-0.00132389775,-3.5703364854499995,-9.133629417149999,-0.000145,0.372637,1.499241,2.5000000000011124e-05,-2.5499999999997747e-05,-1.6499999999999154e-05,2.0838552208690686e-05,8.652717449653125e-05,4.8608088150881024e-05
1504196533.6,-1.0,0.01921122735,-0.06959779505,0.05543699245,0.021417,-0.017424,0.009874,-0.0033538743,-3.5733275137,-9.13245261915,-0.000367,0.372965,1.49933,1.5000000000001124e-05,-1.5000000000001124e-05,-2.549999999999948e-05,-5.622633630397722e-05,3.6529119243677854e-05,3.0933700346791326e-05
1504196533.61,-1.0,-0.02058415835,-0.07636438355,0.10486250844999999,0.031205,0.013384,0.022645,-0.0039618866,-3.5777797328,-9.13070703545,-0.000434,0.373453,1.499554,1.4999999999987246e-05,-1.5000000000001124e-05,-2.549999999999948e-05,-5.622358123136273e-05,3.6529850774735806e-05,3.0930751447111327e-05
1504196533.62,-1.0,-0.019662333249999997,-0.09191773044999998,0.11433573234999998,0.033446,0.033599,0.034355,-0.0027850886,-3.5830360972,-9.12864763895,-0.000305,0.374028,1.499896,3.333333333341293e-06,-5.0000000000050004e-06,-3.300000000000004e-05,-0.00017902604934638688,4.865946853627179e-05,5.673104928838324e-05
1504196533.63,-1.0,-0.0355196863,-0.10498018824999998,0.10459772889999999,0.021722,0.037952,0.039664,-0.00114737805,-3.5876256094,-9.12684321535,-0.000125,0.374531,1.500322,3.333333333327415e-06,2.000000000002e-06,-3.5999999999999574e-05,-0.00021248528526873756,2.8468175640838922e-05,6.405742816506521e-05
1504196533.64,-1.0,-0.02848831825,-0.09738984115,0.09005446695,-0.000735,0.031741,0.040704,4.903325e-05,-3.5899792053999997,-9.12592139025,6e-06,0.374789,1.500784,3.333333333341293e-06,7.000000000007001e-06,-3.900000000000084e-05,-0.00025837497575342816,2.6488187359507975e-05,7.437454590297765e-05
1504196533.65,-1.0,-0.0024320492,-0.10715726454999999,0.0560155848,-0.016761,0.026549,0.037483,0.0010885381499999998,-3.5905381844499997,-9.1256958373,0.000119,0.37485,1.501194,1.9999999999992246e-05,6.999999999993123e-06,-3.799999999999984e-05,-0.0002667210351390281,4.427829479758394e-05,6.60182071152704e-05
1504196533.66,-1.0,0.024722564649999997,-0.10227355285,-0.009502643849999999,-0.01465,0.020144,0.032161,0.0023634026499999997,-3.5904793445499994,-9.12572525725,0.000259,0.374844,1.501534,2.0000000000006124e-05,2.000000000002e-06,-3.399999999999931e-05,-0.0002388346951569531,4.591130548625699e-05,6.667760329159833e-05
1504196533.67,-1.0,0.009669356899999999,-0.0706274933,0.006688135299999999,-0.010399,0.013722,0.025775,0.00304986815,-3.59040089135,-9.1257546772,0.000334,0.374835,1.501821,2.4999999999997247e-05,-8.5000000000085e-06,-2.9500000000000012e-05,-0.00014066489764719137,4.81726605661148e-05,4.3808205021367286e-05
1504196533.68,-1.0,-0.0010198916,-0.040893730499999996,-0.012895744749999999,-0.002969,0.006206,0.021531,0.0029714149499999996,-3.59036166475,-9.125774290499999,0.000325,0.374831,1.502071,2.4999999999997247e-05,-8.499999999994623e-06,-2.9500000000000012e-05,-0.00014066334483997522,4.8179094096045816e-05,4.380159798378358e-05
1504196533.69,-1.0,-0.03301899055,-0.0235555733,-0.048258524649999995,0.011931,-0.002435,0.015168,0.0017455836999999998,-3.5912442632499997,-9.125421251099999,0.000192,0.374927,1.50228,3.999999999999837e-05,-1.5000000000001124e-05,-2.3999999999999716e-05,2.7224307851847485e-05,6.634871387722896e-05,0.0001019730793704321
1504196533.7,-1.0,-0.03672590425,-0.028086245599999997,-0.01872089485,0.027931,-0.007934,0.010968,6.864654999999999e-05,-3.593744959,-9.124440586099999,8e-06,0.375201,1.502429,3.999999999999837e-05,-9.999999999996123e-06,-2.1000000000000185e-05,3.3627216980525176e-05,6.461762525344916e-05,9.975510154569545e-05
1504196533.71,-1.0,-0.0409525704,-0.0248108245,0.019113160849999998,0.037593,-0.005875,0.002443,-0.0013925443,-3.59761858575,-9.1229107487,-0.000153,0.375626,1.502507,3.0000000000002247e-05,-1.000000000001e-06,-1.899999999999992e-05,3.857563339737524e-05,5.523733637979866e-05,0.00010788320707222354
1504196533.72,-1.0,-0.06261546024999999,-0.006717555249999999,0.022672974799999995,0.039823,0.004764,0.000294,-0.0023241760499999996,-3.6014922125,-9.1213809113,-0.000255,0.376051,1.502553,2.0000000000006124e-05,5.0000000000050004e-06,-2.000000000000092e-05,4.204365697257906e-05,6.80158868660019e-05,0.00012221085842312185
1504196533.73,-1.0,-0.07157873834999999,-0.0048837117,0.01626923235,0.033586,0.023997,-0.001885,-0.0017455836999999998,-3.6048264734999993,-9.1200668202,-0.000192,0.376416,1.502581,3.0000000000002247e-05,8.999999999995123e-06,-1.9999999999999185e-05,3.118997369755405e-05,8.523172112928634e-05,0.00013307542362950286
1504196533.74,-1.0,-0.05831034089999999,-0.0038834333999999996,-0.02458527155,0.028401,0.045346,0.002339,0.00114737805,-3.607474269,-9.11901750865,0.000125,0.376706,1.502626,1.9999999999992246e-05,1.1999999999998123e-05,-2.300000000000045e-05,-2.59574582366362e-05,0.00011554332040830673,0.0001515764037036682
1504196533.75,-1.0,-0.0548387868,-0.0022555294999999998,0.0007158854499999999,0.020959,0.053922,0.010851,0.0048640984,-3.60970037855,-9.11813491015,0.000533,0.376951,1.502749,3.0000000000002247e-05,9.999999999996123e-06,-1.3000000000000858e-05,-5.010544176742293e-05,7.913347782784186e-05,0.00014015471891482
1504196533.76,-1.0,-0.0283412185,-0.01883857465,0.0327934376,0.005919,0.042321,0.01298,0.00828661925,-3.61107330955,-9.1175955444,0.000909,0.377101,1.5029,3.0000000000002247e-05,1.0000000000010001e-05,-1.4999999999999389e-05,-7.232988943628449e-05,5.6485571358955156e-05,0.00013514917900614432
1504196533.77,-1.0,0.00244185585,-0.0264583417,0.038442067999999996,-0.005002,0.00938,0.010884,0.009532063799999999,-3.6115342220999995,-9.11740921805,0.001046,0.377151,1.503032,2.4999999999997247e-05,8.999999999995123e-06,-1.650000000000089e-05,-0.00010805133569991021,5.898046955610248e-05,0.00014473507947843078
1504196533.78,-1.0,0.037196623449999994,-0.0146119085,0.04872924385,-0.007398,-0.032143,-0.002923,0.0082964259,-3.6112498292499997,-9.1175170912,0.00091,0.377121,1.503016,2.4999999999997247e-05,8.999999999995123e-06,-1.6499999999999154e-05,-0.00010804296544741909,5.8996315877024585e-05,0.00014472893321371139
1504196533.79,-1.0,0.08009091055,-0.00397169325,0.07120608565,-0.000209,-0.081195,-0.025241,0.00385401345,-3.6115734486999997,-9.1173994114,0.000423,0.377156,1.50275,3.999999999999837e-05,6.0000000000060005e-06,-1.899999999999992e-05,-9.594385267419625e-05,7.721532355908778e-05,0.00015042602863690746
1504196533.8,-1.0,0.08786758399999998,0.01171894675,0.10098888169999999,0.002748,-0.132332,-0.058236,-0.0039128533499999995,-3.6122991408,-9.1171052119,-0.00043,0.377236,1.502165,4.000000000001225e-05,-2.000000000002e-06,-2.199999999999945e-05,-5.547073194289709e-05,6.334346615033404e-05,0.00018003277841183163
1504196533.81,-1.0,0.06834254384999999,0.021290237150000002,0.10954028049999999,-0.01338,-0.175841,-0.103019,-0.014768814899999998,-3.6118480349,-9.117271924949998,-0.00162,0.377186,1.501143,3.999999999999837e-05,-2.000000000002e-06,-2.300000000000045e-05,-5.545904437909144e-05,6.335327262818602e-05,0.00018002836754893448
1504196533.82,-1.0,0.0235947999,-0.00013729309999999998,0.08688691899999999,-0.040006,-0.197952,-0.147857,-0.0273409402,-3.6092688859499997,-9.11827220325,-0.002998,0.376903,1.499653,4.999999999999449e-05,-7.999999999994123e-06,-2.3999999999999716e-05,-6.093763160963661e-06,7.809106308909186e-05,0.0001840625613128699
1504196533.83,-1.0,0.033244543499999994,-0.07857087979999999,0.0502492746,-0.049301,-0.192493,-0.200186,-0.03788308895,-3.6061013379999998,-9.119478421199998,-0.004154,0.376557,1.497613,4.999999999999449e-05,-8.999999999995123e-06,-2.5000000000000716e-05,-1.9341404733363987e-05,5.497814954291691e-05,0.000146337745831282
1504196533.84,-1.0,-0.060850263249999995,-0.10814773619999998,0.057202189449999996,-0.029883,-0.175589,-0.215125,-0.04777799879999999,-3.6046597604499997,-9.120007980299999,-0.005239,0.376398,1.49535,3.500000000000725e-05,4.5000000000045e-06,-1.4000000000000123e-05,-1.7965052053758868e-05,3.073378133899851e-05,6.125728637840222e-05
1504196533.85,-1.0,-0.10658847885,-0.0895739411,0.08354285135,0.003178,-0.157782,-0.183075,-0.057859234999999995,-3.6060228847999998,-9.11940977465,-0.006345,0.376548,1.493355,3.499999999999337e-05,4.499999999990623e-06,-1.4000000000000123e-05,-1.7963175216184624e-05,3.07349263906076e-05,6.125675787815865e-05
1504196533.86,-1.0,-0.16746816204999998,-0.13006559895,0.09885103199999999,0.056406,-0.135909,-0.123245,-0.06881326304999999,-3.6125148870999997,-9.116761979149999,-0.007548,0.37726,1.491969,0.00012000000000000899,3.499999999999337e-05,-5.199999999999996e-05,-9.765214597834415e-05,0.00011661489803116432,0.0002328305418082266
1504196533.87,-1.0,-0.2167073517,-0.09580116385,0.07329490209999999,0.105372,-0.106554,-0.052761,-0.0804733699,-3.6231452956999997,-9.11244705315,-0.008831,0.378426,1.491369,4.999999999999449e-05,3.600000000000825e-05,-1.9999999999999185e-05,-3.137415628184925e-05,4.670189509314859e-05,0.00010257978913541521
1504196533.88,-1.0,-0.191818074,-0.08826965665,0.13851893125,0.127665,-0.081235,0.011279,-0.09159411099999999,-3.6368157657999998,-9.10689648925,-0.010058,0.379926,1.491477,6.0000000000004494e-05,4.500000000000337e-05,-1.899999999999992e-05,-4.735219568674509e-05,9.040458529963047e-05,7.156669077168498e-05
1504196533.89,-1.0,-0.11095243809999998,-0.04459083755,0.14412833505,0.111546,-0.069428,0.053928,-0.10198916,-3.64906427165,-9.1018852911,-0.011204,0.381271,1.492076,5.9999999999990616e-05,4.899999999999349e-05,-1.899999999999992e-05,-4.385849654386931e-05,0.00010318972054434994,8.587864249720578e-05
1504196533.9,-1.0,-0.028086245599999997,-0.0263014353,0.12285771119999998,0.07194,-0.081896,0.060286,-0.11198213635,-3.65777257685,-9.09826663725,-0.012307,0.382228,1.492764,5.000000000000837e-05,5.1999999999996493e-05,-2.1000000000000185e-05,-8.23803671823331e-05,7.12543779659569e-05,7.099128990251113e-05
1504196533.91,-1.0,0.0542307745,-0.01691647125,0.11857220514999998,0.02057,-0.112357,0.043172,-0.1224654452,-3.6617736900499995,-9.0965308602,-0.013462,0.382668,1.493268,6.0000000000004494e-05,5.000000000000837e-05,-2.5000000000000716e-05,-0.00011297014577560383,6.641106291671584e-05,5.7629247419699325e-05
1504196533.92,-1.0,0.12603506579999998,-0.0177892631,0.14824712804999998,-0.024283,-0.13859,0.010049,-0.13336063334999998,-3.66165601025,-9.09642298705,-0.01466,0.382655,1.493388,2.999999999998837e-05,2.2499999999994746e-05,-1.3499999999999623e-05,-5.294559709412283e-05,2.149623189118266e-05,2.2627957204535143e-05
1504196533.93,-1.0,0.15579824854999996,-0.0177500365,0.14044103465,-0.051719,-0.123405,-0.026319,-0.14202971195,-3.65840020245,-9.097599785049999,-0.01561,0.382297,1.493076,3.0000000000002247e-05,2.2499999999994746e-05,-1.3499999999999623e-05,-5.294494387442228e-05,2.1497377606261026e-05,2.2626747203768893e-05
1504196533.94,-1.0,0.11280589494999999,-0.0233594403,0.12697650419999998,-0.061788,-0.062557,-0.04886,-0.1458837254,-3.6541343097,-9.09924730225,-0.016031,0.381829,1.492511,0.0001300000000000051,7.200000000000262e-05,-5.800000000000076e-05,-6.522040409828733e-05,0.00013108079032631004,9.472823602296732e-05
1504196533.95,-1.0,0.0102577559,0.004726805299999999,0.2127454651,-0.067545,0.018476,-0.047946,-0.14418717495,-3.6492996312499995,-9.101218438899998,-0.015841,0.381297,1.491948,8.999999999999286e-05,4.700000000000537e-05,-2.1000000000000185e-05,1.9940648048333287e-05,6.448273181991482e-05,5.2406019264816806e-05
1504196533.96,-1.0,-0.08621026015,0.0282627653,0.19341655794999998,-0.068053,0.101573,-0.026744,-0.13704793375,-3.64365100085,-9.1035916482,-0.015053,0.380677,1.491649,0.00010000000000000286,4.600000000000437e-05,-2.199999999999945e-05,4.997246085536311e-05,7.180604978218597e-05,3.0721865321825526e-05
1504196533.97,-1.0,-0.1555923089,0.02635046855,0.1504732376,-0.060277,0.161143,0.007323,-0.12602525914999999,-3.6384534763499996,-9.1058275644,-0.013839,0.380106,1.491728,0.00010000000000000286,4.599999999999049e-05,-2.199999999999945e-05,9.584090874104056e-05,7.372838778718638e-05,2.0475737551595152e-05
1504196533.98,-1.0,-0.1737934513,0.028605998049999998,0.15174810209999998,-0.048634,0.167407,0.036154,-0.1145612853,-3.6341287437,-9.1077104412,-0.012578,0.379631,1.49216,0.00010000000000000286,5.100000000000937e-05,-2.3999999999999716e-05,6.873856330402717e-05,8.166392674091583e-05,2.14361976595967e-05
1504196533.99,-1.0,-0.10069468219999998,-0.004128599649999999,0.12386779614999999,-0.037255,0.133194,0.053313,-0.1047546353,-3.6311671353999997,-9.109004919,-0.0115,0.379306,1.492753,0.00010000000000000286,5.6999999999987616e-05,-2.599999999999998e-05,4.6635308483811144e-06,0.00011629014533331983,7.063143768637481e-06
1504196534.0,-1.0,-0.00150041745,-0.0037559469499999997,0.07940444505,-0.036666,0.071388,0.050221,-0.098458766,-3.6284016600999998,-9.110181717,-0.010807,0.379002,1.493304,9.999999999998899e-05,6.40000000000085e-05,-3.0000000000000512e-05,-3.0959415095344056e-05,9.961632156918476e-05,-2.856008684049005e-05
1504196534.01,-1.0,0.06657734685,0.014298095700000001,0.07282418289999999,-0.039178,0.010693,0.028975,-0.09636014289999999,-3.6250575924499997,-9.1115350347,-0.010575,0.378636,1.493634,0.00010000000000000286,7.300000000000362e-05,-3.200000000000078e-05,-0.00011558831490887655,5.841452696619953e-05,-3.243228357008299e-05
1504196534.02,-1.0,0.12651559164999998,0.03594137225,-0.0036873003999999994,-0.042568,-0.028676,0.003419,-0.0964385961,-3.62066421325,-9.1132806184,-0.010582,0.378153,1.493649,9.000000000000674e-05,8.699999999998986e-05,-3.300000000000004e-05,-0.00015700932407480828,7.078904534774111e-05,-3.4988400312685464e-05
1504196534.03,-1.0,0.12677056455,0.048778277099999996,-0.011483587149999998,-0.041519,-0.041451,-0.013636,-0.09758597414999999,-3.6161433476,-9.1150654287,-0.010706,0.377657,1.493446,8.499999999998786e-05,0.00010399999999999299,-3.099999999999978e-05,-0.00018314985023581976,5.580178639674749e-05,-2.6670731237077305e-05
1504196534.04,-1.0,0.1138552065,0.009267284249999999,0.010551955399999998,-0.041509,-0.041447,-0.015772,-0.09890006525,-3.6122403009,-9.1165952661,-0.010848,0.377229,1.49319,8.500000000000174e-05,0.00010400000000000686,-3.099999999999978e-05,-0.0001831509530063613,5.579689110457586e-05,-2.6680900455211543e-05
1504196534.05,-1.0,0.046091255,0.0037069137,0.0037951735499999993,-0.039205,-0.014833,-0.007277,-0.09981208369999998,-3.6084745472999997,-9.11807607025,-0.010946,0.376816,1.493047,0.00010000000000000286,0.0001280000000000031,-2.3999999999999716e-05,-0.00019101057795900545,4.9917612708449965e-05,-1.4103422051880976e-05
1504196534.06,-1.0,-0.00867888525,0.0007158854499999999,-0.0249677309,-0.03153,0.020253,0.007619,-0.09905697165,-3.6051893195499995,-9.11939016135,-0.010862,0.376456,1.493091,0.00010000000000000286,0.0001290000000000041,-2.199999999999945e-05,-0.0001441156275845401,6.405699671119258e-05,9.125388665598422e-06
1504196534.07,-1.0,-0.05724141605,-0.00244185585,-0.018867994599999997,-0.019576,0.054241,0.018254,-0.09629149634999999,-3.6030710831499997,-9.12025314655,-0.010557,0.376224,1.493287,0.00010999999999999899,0.0001280000000000031,-2.1000000000000185e-05,-0.00011034856752201172,7.757429589072551e-05,-1.101644880241448e-05
1504196534.08,-1.0,-0.07144144525,0.0012748644999999999,-0.012375992300000001,-0.012932,0.087214,0.022478,-0.09091745215,-3.6015510524,-9.120910192099998,-0.009968,0.376057,1.493571,0.00011999999999999511,0.00013299999999999423,-2.1000000000000185e-05,-0.00013045121382537772,0.000111085987876125,1.853173146937337e-05
1504196534.09,-1.0,-0.0898877539,0.0097674234,-0.020976424349999998,-0.013832,0.107467,0.021374,-0.08368995109999999,-3.6000212149999995,-9.1215770443,-0.009174,0.375889,1.493867,0.00012000000000000899,0.00013900000000000023,-2.300000000000045e-05,-0.00011263637533898141,0.00011944030838417774,3.632829213573441e-05
1504196534.1,-1.0,-0.08738705815,-0.0011375714,-0.04333558635,-0.020083,0.122442,0.014933,-0.07481493285,-3.5980991116,-9.1224204162,-0.008201,0.375678,1.494101,0.0001300000000000051,0.00014749999999999486,-3.099999999999978e-05,-0.00011870836140026597,0.0001497474919727182,5.184519913681296e-05
1504196534.11,-1.0,-0.07986535759999999,0.0196525266,-0.0620564812,-0.029521,0.13851,0.007418,-0.06407665109999999,-3.5949413703,-9.12374431395,-0.007023,0.375332,1.494242,0.00012999999999999123,0.00014750000000000874,-3.099999999999978e-05,-0.0001186997241036103,0.0001497532883731889,5.1827033207829665e-05
1504196534.12,-1.0,-0.06700883945,0.014709975,-0.09656608254999999,-0.032453,0.166248,-0.002242,-0.05045521425,-3.59119523,-9.1253035713,-0.005529,0.374922,1.494274,0.0001300000000000051,0.00015199999999999936,-3.500000000000031e-05,-0.00019393050030513947,0.00014327328254171157,3.906886890925332e-05
1504196534.13,-1.0,-0.1023421994,0.0042953127,-0.13035979844999998,-0.019563,0.174669,-0.006503,-0.0357746592,-3.5882630416499994,-9.1265195959,-0.003919,0.374601,1.494266,0.00012999999999999123,0.00015799999999999148,-3.099999999999978e-05,-0.000201869842518132,0.00011619238201987514,3.753489187152681e-05
1504196534.14,-1.0,-0.11592440964999999,0.0195740734,-0.08651426629999999,0.00266,0.152106,-0.006424,-0.022643554849999997,-3.5872431500499995,-9.1269707018,-0.002481,0.374488,1.494259,0.00014000000000000123,0.00017300000000000648,-1.8000000000000654e-05,-0.00024197949025994703,0.00013421915367151094,5.562748426501951e-05
1504196534.15,-1.0,-0.07812958055,0.011405133949999998,-0.0609581364,0.02271,0.119977,-0.013802,-0.01344491715,-3.5877432892,-9.1267941821,-0.001473,0.374543,1.494256,0.00014000000000000123,0.0001729999999999926,-1.4000000000000123e-05,-0.0002582828556825234,0.0001249475626288188,4.572562548343928e-05
1504196534.17,-1.0,-0.0875733845,0.014337322299999998,-0.062105514449999996,0.03316,0.087931,-0.021199,-0.00401091985,-3.5906754775499996,-9.12564680405,-0.000439,0.374865,1.49404,0.00014000000000000123,0.00017200000000000548,-1.4000000000000123e-05,-0.00025198696152672895,0.0001481708183290742,7.642818871955726e-05
1504196534.18,-1.0,-0.0060310897499999995,-0.0423843413,-0.0027360553499999997,0.022201,0.052854,-0.019021,0.0022947561,-3.5938037989,-9.124411166149999,0.000251,0.375208,1.493817,0.00014000000000000123,0.0001779999999999976,-1.899999999999992e-05,-0.0002519741171500556,0.00014818988170306469,7.639037083484457e-05
1504196534.19,-1.0,0.0177892631,-0.10802024975,0.031136113749999996,-0.001488,0.030663,-0.010485,0.00644296905,-3.5959612619,-9.123567794249999,0.000707,0.375444,1.493667,0.00014000000000000123,0.00020000000000000573,-2.1000000000000185e-05,-0.0003475666055370308,0.00017647546997712205,7.556666629426889e-05
1504196534.2,-1.0,-0.00911037785,-0.15479797025,-0.03221484525,-0.020833,0.018026,-0.001957,0.00836507245,-3.5964712077,-9.1233618546,0.000917,0.3755,1.493628,0.00014000000000000123,0.0002309999999999951,-2.099999999999845e-05,-0.00043871174601051166,0.0002133877740082557,7.411436350190925e-05
1504196534.21,-1.0,-0.01791674955,-0.1643398407,-0.034382114899999996,-0.020901,0.011628,0.002324,0.009237864299999999,-3.5966575340499998,-9.1232834014,0.001013,0.375521,1.493653,0.00012999999999999123,0.00025999999999999635,-2.1000000000000185e-05,-0.0005393033803413605,0.00022978996827616172,5.0955569020905145e-05
1504196534.22,-1.0,-0.01897586775,-0.12276945135,0.007502087249999999,-0.013523,0.005165,0.010887,0.00924767095,-3.59706941335,-9.123126495,0.001014,0.375566,1.493754,0.0001300000000000051,0.00027699999999999947,-2.300000000000045e-05,-0.0005791959412537739,0.00024129042135556666,5.6150567234292126e-05
1504196534.23,-1.0,0.018259982299999998,-0.08256218634999998,0.0338329425,0.001271,-0.005625,0.022673,0.0083748791,-3.5982167914,-9.1226753891,0.000918,0.375692,1.493952,0.00014999999999999736,0.00028700000000000947,-2.3999999999999716e-05,-0.0005648933540423062,0.00023690226210981713,5.954270218200275e-05
1504196534.24,-1.0,0.032067745499999994,-0.06269391345,0.0388539473,0.011814,-0.011057,0.039779,0.0066979419499999995,-3.6002859945499996,-9.121861437149999,0.000734,0.375919,1.494301,0.00014999999999999736,0.0002909999999999996,-2.599999999999998e-05,-0.0005284922786858992,0.00021263651818137497,3.982296462223811e-05
1504196534.25,-1.0,0.0354412331,-0.061575955349999996,0.05928119925,0.012867,-0.002557,0.056844,0.0049621649000000006,-3.6027572703499997,-9.120880772149999,0.000544,0.376189,1.494838,0.00016000000000000736,0.0002950000000000036,-2.599999999999998e-05,-0.00048356091578138916,0.00021310654524686612,5.664615146072638e-05
1504196534.26,-1.0,-0.02154521005,-0.0905349928,0.07261824324999999,0.009773,0.013446,0.062147,0.00328522775,-3.6068564500499996,-9.1192626749,0.00036,0.376639,1.495515,0.00025999999999999635,0.00013900000000000023,3.749999999999934e-05,-0.0003948393854573684,0.00018998863915786757,9.175863279609064e-05
1504196534.27,-1.0,-0.02240819525,-0.0897700741,0.0723142371,0.008941,0.040097,0.057829,0.00414821295,-3.60762136875,-9.11895866875,0.000455,0.376723,1.49616,0.00025999999999999635,0.00013899999999998636,3.7500000000001074e-05,-0.0003948182045576676,0.00019002413624424896,9.168270779491561e-05
1504196534.28,-1.0,-0.06020302435,-0.0940065469,0.08931896819999999,0.009136,0.061411,0.053523,0.00648219565,-3.6104162639999995,-9.117850517299999,0.000711,0.377029,1.496794,0.00027000000000000635,0.00014400000000000523,3.999999999999837e-05,-0.00036807069949240656,0.00020267825339281842,0.00011833307846842445
1504196534.29,-1.0,-0.08696537219999999,-0.0797672911,0.14387336215,0.013404,0.060309,0.052465,0.00885540495,-3.61358381195,-9.1165952661,0.000971,0.377377,1.497411,0.00027499999999999747,0.00015049999999999786,4.4000000000000636e-05,-0.00036412402172025793,0.00019496762405379897,0.00010493574897318947
1504196534.3,-1.0,-0.09030943984999999,-0.06902900935,0.14877668715,0.022794,0.034653,0.054663,0.0091986377,-3.6174476320499998,-9.1150654287,0.001009,0.3778,1.498056,0.00027499999999999747,0.00015049999999999786,4.4000000000000636e-05,-0.00036409790910796325,0.00019500391509597037,0.00010486309306911856
1504196534.31,-1.0,-0.07214752405,-0.07162777159999999,0.17512715569999998,0.032054,-0.00805,0.055822,0.006158576199999999,-3.6223215370999995,-9.113133518649999,0.000676,0.378335,1.498714,0.00028000000000000247,0.00015800000000000536,4.5999999999999167e-05,-0.00040082452525247447,0.00023998594095475667,0.00015190626329886214
1504196534.32,-1.0,-0.022447421849999996,-0.08403318385,0.20299765499999997,0.033874,-0.053876,0.046299,0.0,-3.627872101,-9.110927022399999,0.0,0.378945,1.499261,0.0003000000000000086,0.00016700000000000048,4.49999999999999e-05,-0.00040793317840548404,0.00027012617480548506,0.00017677393074844172
1504196534.33,-1.0,0.013954862949999999,-0.10290117845,0.20462555889999998,0.028431,-0.084706,0.019659,-0.00797280645,-3.6335501513499997,-9.108661686249999,-0.000875,0.379568,1.499549,0.00031999999999998696,0.0001759999999999956,4.200000000000037e-05,-0.00042308309873462235,0.0003164483425113218,0.00025351994279199097
1504196534.34,-1.0,0.0046189321499999995,-0.10578433354999998,0.1960741601,0.010537,-0.088765,-0.034803,-0.01538663385,-3.6376983643,-9.10699455575,-0.00169,0.380023,1.499337,0.00034000000000000696,0.0001890000000000086,3.799999999999984e-05,-0.0004122909223687188,0.000355068513163026,0.0002961517400842384
1504196534.35,-1.0,-0.02789991925,-0.0677639515,0.15697504655,-0.014488,-0.059716,-0.104278,-0.01909354755,-3.6389143889,-9.106494416599999,-0.002096,0.380157,1.498437,0.0003399999999999931,0.00020499999999999685,3.500000000000031e-05,-0.00042281866147875213,0.00036588571071027864,0.0002939855102443989
1504196534.36,-1.0,-0.08515114195,-0.0569177966,0.11137412405,-0.027553,-0.001997,-0.172716,-0.01630845895,-3.6380906303,-9.10683764935,-0.001791,0.380066,1.496811,0.0003500000000000031,0.0002279999999999921,5.400000000000023e-05,-0.0004604746722891573,0.0003912426470285002,0.0003053238455297258
1504196534.37,-1.0,-0.19245550625,-0.0588987399,0.039510992849999996,-0.016382,0.051203,-0.187731,-0.0089632781,-3.6374433914,-9.1071024289,-0.000984,0.379996,1.494915,0.0003500000000000031,0.0002480000000000121,5.299999999999923e-05,-0.000496818017388545,0.00036656324337291935,0.0002838865441620042
1504196534.38,-1.0,-0.26388714485,-0.07022542065,0.0699606411,-0.001346,0.081944,-0.157869,-0.00022555294999999998,-3.6383946364499997,-9.1067297762,-2.4e-05,0.3801,1.493293,0.0003599999999999992,0.00026599999999998847,5.400000000000023e-05,-0.00047680042460740424,0.0003330209678134022,0.00025440345570881817
1504196534.39,-1.0,-0.34508620684999997,-0.15162061565,0.0165340119,0.023222,0.116845,-0.106649,0.00840429905,-3.6421407767499994,-9.10522935875,0.000923,0.380511,1.492236,0.00036999999999999533,0.00028200000000000447,5.400000000000023e-05,-0.00045806441458218217,0.0003495139313911544,0.00025765618404449686
1504196534.4,-1.0,-0.36911249934999996,-0.1481196416,-0.09046634625,0.047776,0.154936,-0.047962,0.0180638493,-3.6477403739,-9.102964022599998,0.001984,0.381126,1.491801,0.00039000000000000146,0.0003019999999999967,5.699999999999976e-05,-0.0004401258225819049,0.00035807823240552317,0.0002753311121276303
1504196534.41,-1.0,-0.33400469234999997,-0.15495487665,-0.025752262899999996,0.056134,0.167588,0.008607,0.0281450855,-3.6549678749499996,-9.1000416409,0.003093,0.38192,1.491935,0.00039000000000001533,0.00032100000000000184,6.100000000000029e-05,-0.0003993209695134503,0.0003936900755818762,0.00034575386219493076
1504196534.42,-1.0,-0.27692018269999996,-0.14665845074999997,0.0303417751,0.03988,0.157024,0.042757,0.037059330349999996,-3.66161678365,-9.0973350055,0.004073,0.382651,1.492505,0.0003999999999999837,0.00033800000000000496,6.399999999999982e-05,-0.00039013626883033226,0.0003738287781480665,0.0003891544073935105
1504196534.43,-1.0,-0.23429067515,-0.1361555286,0.0334995164,0.017005,0.107108,0.057752,0.042296081449999995,-3.6659807428999995,-9.09556000185,0.004651,0.383131,1.493251,0.00040000000000001146,0.0003539999999999932,6.199999999999956e-05,-0.00042690660727817686,0.00040062349739411474,0.00037330848300931585
1504196534.44,-1.0,-0.00505042475,-0.16351608210000002,0.06981354135,-0.008221,0.019938,0.056794,0.044100505049999995,-3.66869718495,-9.094451850399999,0.004849,0.38343,1.493882,0.0004099999999999937,0.00037299999999999833,5.699999999999976e-05,-0.00048048809072009924,0.00037190369596928896,0.0003817710576107247
1504196534.45,-1.0,0.08020859035,-0.14775679555,0.11074649844999998,-0.024858,-0.070482,0.039844,0.03935408645,-3.6696484299999996,-9.094098811,0.004327,0.383533,1.494317,0.0004099999999999937,0.00039500000000000646,4.900000000000043e-05,-0.0005258741697662384,0.0004130886739996953,0.0004195888912464918
1504196534.46,-1.0,0.15967187530000002,-0.14244159125,0.09713486825,-0.029446,-0.131147,0.007918,0.030361388399999995,-3.6697268831999996,-9.094098811,0.003339,0.383543,1.494384,0.0004300000000000137,0.00044600000000000195,4.49999999999999e-05,-0.0006120995978509125,0.00042184973151271343,0.000461586895369126
1504196534.47,-1.0,0.1602798876,-0.12247525185,0.13546906309999998,-0.024014,-0.137551,-0.020884,0.020780291349999997,-3.67008972925,-9.09397132455,0.002285,0.383583,1.494117,0.00045000000000000595,0.0004689999999999972,3.400000000000104e-05,-0.0006806968188981521,0.0004875419041925344,0.0004520485088397308
1504196534.48,-1.0,0.10752991725,-0.0998709236,0.1769904192,-0.020413,-0.092816,-0.02843,0.013827376499999999,-3.6706977415499997,-9.0937457716,0.00152,0.38365,1.493745,0.0004599999999999882,0.0004919999999999994,2.499999999999898e-05,-0.0007388869403304188,0.0004931609045222274,0.00040385220629512997
1504196534.49,-1.0,-0.07306934914999999,-0.05759445544999999,0.17076319645000002,-0.017872,-0.031053,-0.010388,0.008571012099999999,-3.6709232944999997,-9.09365751175,0.000943,0.383675,1.493637,0.0004899999999999904,0.0005170000000000036,2.000000000000092e-05,-0.0007964935220170499,0.000496695065516306,0.00039073463208361137
1504196534.5,-1.0,-0.21081355504999996,-0.0337741026,0.1973686379,-0.021829,0.025422,0.018328,0.00565843705,-3.6706487083,-9.09377519155,0.000623,0.383644,1.493905,0.0005100000000000104,0.0005420000000000008,1.899999999999992e-05,-0.0008558603152992728,0.0005459063888251237,0.0003623440435640557
1504196534.51,-1.0,-0.247715979,-0.0576827153,0.17960879475,-0.023867,0.061622,0.057758,0.00456009225,-3.6705310284999997,-9.09381441815,0.000501,0.383631,1.494589,0.0005499999999999949,0.0005719999999999961,2.8999999999999512e-05,-0.0008918235554715714,0.0005741666621026376,0.00031894124183073913
1504196534.52,-1.0,-0.25943492575,-0.09261400259999998,0.16948833195,-0.033675,0.05527,0.089778,0.0023634026499999997,-3.6700210827,-9.094030164449999,0.00026,0.383575,1.495684,0.0005700000000000149,0.0006040000000000004,4.49999999999999e-05,-0.0009062459431741221,0.0006237724804900591,0.0003075333332025476
1504196534.53,-1.0,-0.24939291614999998,-0.1122076893,0.13803840539999998,-0.050978,0.027698,0.093002,-0.00214765635,-3.6682362723999997,-9.0947460499,-0.000236,0.383379,1.496871,0.0005999999999999894,0.0006330000000000016,6.100000000000029e-05,-0.0008141681811328905,0.0006834340220274182,0.00034024248036812477
1504196534.54,-1.0,-0.09248651614999999,-0.0938300272,0.07248095015,-0.046996,-0.017078,0.079212,-0.007472667299999999,-3.6656571234499995,-9.095785554799999,-0.000821,0.383096,1.497833,0.0006299999999999917,0.0006499999999999978,7.300000000000015e-05,-0.000716547131141887,0.0007136027729388594,0.0003402396524830875
1504196534.55,-1.0,0.043865145450000004,-0.10144979424999999,0.059153712799999994,-0.033379,-0.059796,0.062232,-0.01364105015,-3.6641861259499997,-9.096373953799999,-0.0015,0.382933,1.498524,0.0007350000000000134,0.0006290000000000046,9.800000000000086e-05,-0.0004009230093349192,0.0007304238956860054,0.0003348847768356311
1504196534.56,-1.0,0.04023668495,-0.04539498285,0.18549278475,-0.022704,-0.080095,0.029196,-0.021839409549999998,-3.66367618015,-9.09656028015,-0.0024,0.382877,1.498942,0.0007349999999999857,0.0006289999999999976,9.799999999999913e-05,-0.0004006720986873269,0.0007305564308108803,0.00033458664637109337
1504196534.57,-1.0,0.05555467224999999,0.00383440015,0.2315546198,-0.014084,-0.097169,-0.014524,-0.029665116249999998,-3.6636663734999995,-9.09654066685,-0.003261,0.382877,1.498878,0.0008299999999999974,0.0006079999999999974,0.00011500000000000052,-0.00017328206389422007,0.0006975067299646032,0.000372720868158094
1504196534.58,-1.0,0.037804635749999996,0.19948687429999998,0.35271578054999997,-0.022721,-0.121586,-0.033709,-0.038255741649999994,-3.6607537984499996,-9.09767823825,-0.004205,0.382556,1.498499,0.0008500000000000174,0.0006239999999999996,0.00011299999999999852,-6.954851333129675e-05,0.0006959606042675759,0.00037573076957397866
1504196534.59,-1.0,0.1588088901,0.035784465849999995,0.26231808084999997,-0.025074,-0.14395,-0.025137,-0.0474837993,-3.6595573871499996,-9.098119537499999,-0.005219,0.382425,1.498093,0.0008699999999999819,0.0006490000000000037,0.00011200000000000099,-4.180784052798536e-05,0.0006429096744060558,0.0003823041925150594
1504196534.6,-1.0,-0.00752170055,-0.24019427845,0.1498259987,-0.021811,-0.1312,-0.015548,-0.05951655884999999,-3.6619011765,-9.097099645899998,-0.006542,0.382683,1.497908,0.0008900000000000019,0.0006839999999999971,0.00010600000000000019,-0.00010318719544577526,0.0006333743551958371,0.00035514571051054045
1504196534.61,-1.0,-0.083356525,-0.23652659135,0.20138936439999996,-0.019437,-0.089684,0.004664,-0.07032348715,-3.6648235581999997,-9.095854201349999,-0.007731,0.383003,1.497966,0.0009100000000000219,0.0007269999999999985,0.0001010000000000004,-0.00014964493622882102,0.000678593496216795,0.00032238787038396666
1504196534.62,-1.0,-0.12924184035,-0.10809870294999999,0.2522662646,-0.025655,-0.04811,0.035536,-0.07905140565,-3.6657649966,-9.09540309545,-0.008691,0.383107,1.498354,0.0009299999999999864,0.0007750000000000049,9.299999999999933e-05,-0.00026994979545125197,0.0007161756502445105,0.00030194350794821023
1504196534.63,-1.0,-0.20524337785,-0.042580474300000004,0.23952742624999998,-0.049974,0.004257,0.075966,-0.08609258035,-3.6637840532999997,-9.096128787549999,-0.009465,0.38289,1.499206,0.0009699999999999986,0.0008219999999999963,8.5e-05,-0.000339127330286626,0.0007837359060771654,0.00025670131638122484
1504196534.64,-1.0,-0.21843332209999997,-0.13802859875,0.1217789797,-0.082599,0.081209,0.109933,-0.08818139679999999,-3.6596260337,-9.0977861114,-0.009692,0.382432,1.500452,0.0010000000000000009,0.0008690000000000017,7.500000000000041e-05,-0.0004613156188100209,0.0008206986399990068,0.0002549176024139177
1504196534.65,-1.0,-0.28212751384999996,-0.1956622808,0.0992040714,-0.098143,0.155892,0.138598,-0.08508249539999999,-3.6540558565,-9.10005144755,-0.009349,0.38182,1.502062,0.0010300000000000031,0.0009090000000000001,6.299999999999882e-05,-0.0004891147194974188,0.0008726789579058813,0.0002748755824718563
1504196534.66,-1.0,-0.2755864783,-0.08479810254999999,0.0905349928,-0.083068,0.178131,0.147128,-0.07890430589999999,-3.64745598105,-9.10275808295,-0.008668,0.381095,1.503832,0.0010999999999999899,0.0008709999999999968,0.00010399999999999993,-0.000515925919966076,0.0008809572807646493,0.00027498609379283945
1504196534.67,-1.0,-0.21386342319999999,0.0293218835,0.06483176315,-0.035314,0.142573,0.14194,-0.07344200185,-3.6426213026,-9.104739026249998,-0.008066,0.380564,1.505513,0.0011200000000000099,0.000902,9.699999999999986e-05,-0.0005542781911707095,0.0008042843324831406,0.00026691151530644497
1504196534.68,-1.0,-0.04821929805,0.09634052959999999,0.016190779149999997,0.040775,0.055625,0.14863,-0.0722357839,-3.64304298855,-9.104582119849999,-0.007934,0.380611,1.507131,0.0011200000000000099,0.0009360000000000063,9.200000000000007e-05,-0.0005952140644476245,0.0007141990543448884,0.0002528412681612746
1504196534.69,-1.0,0.05365218215,0.1774807517,-0.04766031899999999,0.109274,-0.040858,0.163863,-0.07893372585,-3.6487798788,-9.10222852385,-0.008672,0.38124,1.508839,0.0011199999999999821,0.0009759999999999977,9.010000000000094e-05,-0.000692079994465189,0.0006396863719728696,0.0002587187723822604
1504196534.7,-1.0,0.07793344754999999,0.1810111457,-0.04755244585,0.142969,-0.093352,0.168283,-0.0915548844,-3.65828252265,-9.0982960572,-0.010062,0.382285,1.510616,0.0011200000000000099,0.001011999999999999,8.38999999999996e-05,-0.0008116803281548179,0.0005875105051462715,0.00025216668232008743
1504196534.71,-1.0,0.09984150365,0.14004876865,-0.08793623055,0.128082,-0.090067,0.166146,-0.10477424860000001,-3.6679028463,-9.0942753307,-0.011521,0.383342,1.512376,0.0011299999999999921,0.0010449999999999973,7.180000000000034e-05,-0.0009352804397173564,0.0005645359516659454,0.00028633935765409735
1504196534.72,-1.0,0.04108005685,0.10821638274999999,-0.0751385523,0.074186,-0.034196,0.151011,-0.11470838505,-3.6740810357999996,-9.091666761799999,-0.012616,0.384021,1.514048,0.0011299999999999921,0.0010740000000000055,5.7599999999999665e-05,-0.0010431838089592915,0.000555360955210249,0.00023279218731731
1504196534.73,-1.0,-0.1102463593,0.044620257499999996,-0.062036867899999994,-0.002752,0.071951,0.130411,-0.11766018669999999,-3.6745321416999994,-9.09144120885,-0.012941,0.38407,1.515588,0.0011400000000000021,0.0011029999999999998,4.570000000000095e-05,-0.0011228342682050307,0.0005374956663466435,0.0001868740350058351
1504196534.74,-1.0,-0.30431015614999996,-0.17401900425,0.014749201599999998,-0.070981,0.203597,0.116185,-0.10645118575,-3.66926597065,-9.093706545,-0.011705,0.383492,1.516859,0.0011500000000000121,0.001131,3.959999999999901e-05,-0.001186622271295068,0.0004738326452253805,7.10579191443017e-05
1504196534.75,-1.0,-0.28348083155,-0.38721557524999994,0.18679706919999997,-0.108564,0.316843,0.131931,-0.08462158284999999,-3.6598810065999996,-9.09771746485,-0.009301,0.38246,1.518196,0.0011700000000000044,0.0011590000000000003,4.3899999999999495e-05,-0.0011991215461770732,0.00038879889303911064,-8.783780683763176e-05
1504196534.76,-1.0,-0.31097867815,-0.39812057005,0.19138658139999998,-0.120009,0.376573,0.169165,-0.057133542899999994,-3.64898581845,-9.10230697705,-0.006277,0.381262,1.519907,0.0012000000000000066,0.0011870000000000006,5.730000000000145e-05,-0.001170213231789008,0.00044169375820457546,-0.0001525312968200243
1504196534.77,-1.0,-0.3481753016,-0.4983543397,0.25455121405,-0.114784,0.378623,0.197992,-0.03519606685,-3.6473579145499997,-9.10307189575,-0.003866,0.381084,1.522214,0.0012499999999999734,0.0012069999999999997,7.259999999999905e-05,-0.0011373119629933814,0.0005067233486071299,-0.0003455009796413666
1504196534.78,-1.0,-0.30460435565,-0.43543487329999997,0.21663870514999997,-0.104537,0.330579,0.205567,-0.0112776475,-3.63755126455,-9.107053395649999,-0.001238,0.380007,1.524421,0.0012800000000000034,0.001242,9.819999999999968e-05,-0.0009918377325530692,0.0006048373814617758,-0.0005617561081346922
1504196534.79,-1.0,-0.154552804,-0.37004413109999995,0.24395022539999997,-0.105101,0.250679,0.190763,0.00640374245,-3.6279799741499996,-9.11087798915,0.000703,0.378956,1.526528,0.0013200000000000156,0.0012739999999999974,0.00012340000000000094,-0.000811343927872521,0.0005804238712898702,-0.0009310617616644645
1504196534.8,-1.0,-0.041756715699999995,-0.34314449015,0.2601508112,-0.110127,0.134605,0.156802,0.0154160538,-3.6180654509999997,-9.114810455799999,0.001692,0.377868,1.528321,0.00136,0.0013039999999999996,0.00014289999999999962,-0.0005358424440911058,0.0005271784962070925,-0.001297437849774874
1504196534.81,-1.0,0.13086974424999998,-0.359119523,0.22401330594999996,-0.11005,-0.006028,0.132498,0.01368027675,-3.6145056370499997,-9.1162226134,0.001501,0.377478,1.529786,0.0013999999999999846,0.0013260000000000008,0.00015030000000000078,-0.00028734728922197306,0.00043611331726767233,-0.0016285291225391907
1504196534.82,-1.0,0.14306921684999999,-0.36929882569999994,0.22805364575,-0.112895,-0.10828,0.111325,0.0014808041500000001,-3.60432633435,-9.1202629532,0.000163,0.376361,1.531042,0.0014300000000000146,0.0013409999999999984,0.0001405999999999994,-7.770577577836946e-06,0.0003901796207232966,-0.0018287715392346637
1504196534.83,-1.0,0.06292927305,-0.4038182337,0.2106664553,-0.100069,-0.112636,0.099614,-0.012797678249999998,-3.5945000710499997,-9.12413657995,-0.001403,0.375284,1.532136,0.0014399999999999968,0.0013450000000000024,0.0001121999999999998,0.0003181398998604035,0.00040183700587337334,-0.001958690834846899
1504196534.84,-1.0,-0.0131212977,-0.3363092551,0.22885779104999998,-0.050496,-0.044856,0.109187,-0.0224964551,-3.5885376278499996,-9.126460756,-0.002465,0.374631,1.533275,0.0014399999999999968,0.0013489999999999995,6.740000000000045e-05,0.0005520643455600993,0.0003470158453944272,-0.0019434374476795524
1504196534.85,-1.0,-0.13417458529999998,-0.4651686360999999,0.31684305484999997,0.011064,0.053721,0.121928,-0.026840801049999998,-3.5983933110999997,-9.12256751595,-0.002942,0.375711,1.534661,0.0013900000000000023,0.0013500000000000005,1.4699999999999436e-05,0.000685119270815715,0.0002458649184624573,-0.0018541857762474079
1504196534.86,-1.0,-0.2850008623,-0.44472177085,0.3321120089,0.062988,0.145995,0.127192,-0.019966339399999998,-3.6029730166499996,-9.120772899,-0.002189,0.376213,1.536025,0.0013400000000000079,0.001337999999999999,-7.199999999999915e-05,0.0007144590545344887,0.00013978927551150377,-0.001625418636106657
1504196534.87,-1.0,-0.25659099725,-0.28928636835,0.24364621924999996,0.070857,0.187503,0.113256,-0.0076688003,-3.6095140521999998,-9.1182035567,-0.000841,0.376931,1.537303,0.0012599999999999834,0.0013249999999999998,-0.00012690000000000097,0.0006048430886103073,5.6492225711579636e-05,-0.0013198043380197033
1504196534.88,-1.0,-0.1983493029,-0.1484138411,0.18788560734999998,0.039738,0.147297,0.084453,0.0038245934999999996,-3.6139270447,-9.11646777965,0.000419,0.377414,1.538287,0.0011700000000000044,0.0013099999999999987,-0.00017110000000000042,0.00037790680623128736,1.7355385633077702e-05,-0.0009052578843622427
1504196534.89,-1.0,-0.10337189764999999,-0.11340410059999999,0.059663658599999995,0.005075,0.060236,0.050391,0.007158854499999999,-3.6176535717,-9.114977168849999,0.000785,0.377823,1.539002,0.0010700000000000154,0.001289000000000002,-0.00019839999999999962,0.00017554825314514133,0.00011385415595621673,-0.00040726958838144256
1504196534.9,-1.0,-0.0361865385,-0.1417845457,-0.04321790655,-0.007219,-0.028077,0.020638,0.00565843705,-3.6171142059499997,-9.1152027218,0.00062,0.377764,1.539293,0.0009599999999999886,0.0012659999999999998,-0.00020479999999999977,0.00016041955097589877,0.0001411527382115807,8.204577176029737e-05
1504196534.91,-1.0,0.10956970045,-0.2479513386,0.08466080945,0.010445,-0.095342,0.007979,-0.00212804305,-3.6176339584,-9.11499678215,-0.000234,0.377821,1.539413,0.0008199999999999874,0.0012469999999999981,-0.00019019999999999974,0.0002604666749785878,0.00021144216602730914,0.0005013537133862211
1504196534.92,-1.0,0.12086696124999999,-0.24429345814999998,0.0831996186,0.05075,-0.124446,0.009167,-0.013425303849999999,-3.62129183885,-9.11352578465,-0.001473,0.378223,1.539501,0.0007000000000000062,0.0012449999999999996,-0.0001576000000000008,0.0003648088796548432,0.0001562200085423182,0.0007186732993716971
1504196534.93,-1.0,0.11943519035,-0.27755761495,0.139842829,0.105144,-0.118514,0.025258,-0.02291814105,-3.63606065375,-9.107631988,-0.002516,0.379844,1.539628,0.0005799999999999972,0.0012620000000000027,-0.00011559999999999869,0.0004224727789894356,4.674669997406511e-05,0.0008033552453768911
1504196534.94,-1.0,0.14969851225,-0.32143256705,0.21959050679999997,0.123564,-0.079245,0.031625,-0.032381558299999995,-3.6472598480499996,-9.103120929,-0.003558,0.381073,1.539967,0.0004800000000000082,0.001299999999999999,-6.850000000000085e-05,0.0005874940716861232,-4.572150280557352e-05,0.0007896854665363495
1504196534.95,-1.0,0.10088100854999998,-0.28464782289999996,0.2771947689,0.098496,-0.020416,0.020801,-0.034597861199999996,-3.6647352983499997,-9.09608956095,-0.003803,0.382994,1.540156,0.0004300000000000137,0.0013559999999999996,-2.1300000000000138e-05,0.0007753984750979992,-5.145934459371837e-05,0.0006552085525418638
1504196534.96,-1.0,0.27306616925,-0.34414476844999997,0.21640334555,0.0416,0.050422,-0.003986,-0.0216726965,-3.6852998434,-9.087822554999999,-0.002385,0.385255,1.539764,0.00036999999999998145,0.001445,-1.4000000000000123e-05,0.0009728840258695914,0.0002747526319990534,0.00031859273105061536
1504196534.97,-1.0,0.2644657372,-0.3449783337,0.21676619159999996,-0.026221,0.098948,-0.019132,-0.01307226445,-3.6844564715,-9.0881755944,-0.001439,0.385163,1.539592,0.00034000000000000696,0.0015440000000000002,2.2400000000000544e-05,0.0009112437223910419,0.00027861695657938057,0.0002814156314649985
1504196534.98,-1.0,0.30241747269999997,-0.39260923275,0.2087247386,-0.080497,0.117514,-0.01393,0.00463854545,-3.6869571672499997,-9.0871753161,0.00051,0.385438,1.53914,0.00034000000000000696,0.0016556000000000001,5.630000000000045e-05,0.0008135595833056453,0.000817193309342823,-0.00020464849881929315
1504196534.99,-1.0,0.36350309555,-0.4386514545,0.20753813395,-0.110616,0.09325,-7.2e-05,0.021966895999999996,-3.6868591007499996,-9.087185122749998,0.002417,0.385427,1.538772,0.00032999999999999696,0.0017707,8.99999999999998e-05,0.0006831081045386433,0.0012424960886388003,-0.0005789025750138066
1504196535.0,-1.0,0.4787410397,-0.49132297165,0.24408751849999996,-0.11528,0.051716,0.012802,0.027331133549999997,-3.67638559855,-9.091411788899999,0.003007,0.384275,1.538879,0.00031999999999998696,0.0018842,0.00012129999999999953,0.0005291120987498399,0.0016438596774850378,-0.0009310087677470991
1504196535.01,-1.0,0.62218290925,-0.4711899192,0.2979064137,-0.09866,-0.005961,0.010798,0.027693979599999998,-3.6668829546999997,-9.09524618905,0.003044,0.38323,1.539004,0.0002999999999999947,0.0019914999999999998,0.00014620000000000084,0.0004649357273023291,0.001996226119446165,-0.0011238169173394263
1504196535.02,-1.0,0.62583098305,-0.4779565076999999,0.30064246904999997,-0.064813,-0.048854,0.001325,0.0240459058,-3.6601163662,-9.097982244399999,0.002643,0.382486,1.539044,0.00029000000000001247,0.002084,0.0001660999999999989,0.0003721246922874233,0.002291071939953593,-0.001163639471301936
1504196535.03,-1.0,0.6548978936499998,-0.42368650659999996,0.31270464854999996,-0.02776,-0.094948,-0.010286,0.031194953649999996,-3.6672556074,-9.09508928265,0.003429,0.383271,1.538374,0.00028000000000000247,0.0021552000000000003,0.0001787999999999998,0.00033166624521974164,0.0024637890653633754,-0.0011412247383807417
1504196535.04,-1.0,0.6705689203499999,-0.42461813834999995,0.36707271615,-0.015232,-0.141917,-0.030462,0.020309572149999996,-3.66572577,-9.095736521549998,0.002233,0.383103,1.538103,0.00023999999999999022,0.0022074,0.00018400000000000014,0.0003685376581781252,0.0024919933886184964,-0.001035766687751516
1504196535.05,-1.0,0.6583204144999999,-0.34965610574999995,0.3243647554,-0.019739,-0.179163,-0.042145,0.00622722275,-3.6640782528,-9.09642298705,0.000684,0.382921,1.537677,0.00021999999999999797,0.0022449,0.0001805000000000001,0.0003965961495688841,0.0025355651081000463,-0.0008847397919554689
1504196535.06,-1.0,0.5940280171,-0.28562848789999995,0.15886772999999998,-0.038022,-0.200305,-0.044288,0.0033342610000000003,-3.6677949731499995,-9.0949225696,0.000366,0.38333,1.536656,0.00021000000000001573,0.0023638999999999995,0.00014319999999999958,0.00042020889551586116,0.0026100836410978268,-0.0007281719379238494
1504196535.07,-1.0,0.6116407604999999,-0.29109079195,0.16105461294999998,-0.065887,-0.213931,-0.04111,-0.014288289049999998,-3.6623326691,-9.097109452549999,-0.001571,0.38273,1.536194,0.00014999999999998348,0.0023806,0.00012560000000000002,0.00040818339400128245,0.0027078387328818287,-0.0005259858083549451
1504196535.08,-1.0,0.54265097775,-0.3227368515,0.14797254185,-0.085182,-0.215919,-0.026196,-0.03284247085,-3.65492864835,-9.1000416409,-0.003609,0.381916,1.535864,7.00000000000145e-05,0.0023879999999999995,0.00010779999999999991,0.00035017123647040904,0.0028045950643627027,-0.0003498212670078882
1504196535.09,-1.0,0.5082590562,-0.34842046784999997,0.16679150319999997,-0.105548,-0.213643,-0.00382,-0.05216157135,-3.64584769045,-9.1035916482,-0.00573,0.380919,1.53576,-3.0000000000002247e-05,0.0023890000000000005,9.220000000000061e-05,0.00021628488272007473,0.002834122276839768,-0.0001430485988933583
1504196535.1,-1.0,0.45144913275,-0.33622099525,0.20717528789999998,-0.117238,-0.203963,0.002547,-0.07106879255,-3.63545264145,-9.10762218135,-0.007803,0.379777,1.535773,-0.00014000000000000123,0.002383999999999999,8.280000000000093e-05,0.00015179074603355325,0.0028452660872484437,4.005534358741958e-05
1504196535.11,-1.0,0.2731936557,-0.1633395624,0.17001789105,-0.101944,-0.165711,-0.006039,-0.080610663,-3.63011782385,-9.109671771199999,-0.008848,0.379191,1.535486,-0.00026999999999999247,0.0023720000000000026,7.740000000000004e-05,5.593339038889589e-05,0.002703998327723278,0.00018951405424671997
1504196535.12,-1.0,0.3482537548,-0.41140858080000003,0.21806066939999996,-0.075978,-0.136062,-0.030597,-0.09281994225,-3.6226745765,-9.1125156997,-0.010186,0.378374,1.535234,-0.00039000000000000146,0.0023560000000000005,7.17999999999986e-05,5.0265638099400434e-05,0.002360540940535172,0.0003381677285986262
1504196535.13,-1.0,0.6351374939,-1.08825375715,0.49910945175,-0.076932,-0.144541,-0.066875,-0.1034797708,-3.6159079879999996,-9.11509484865,-0.011352,0.377631,1.534603,-0.0005000000000000004,0.0023469999999999984,6.480000000000027e-05,7.787725090602216e-05,0.0020772091518830305,0.000554407282328806
1504196535.14,-1.0,0.7045195426499999,-1.25312315695,0.5139272999,-0.090847,-0.166777,-0.093545,-0.11494374465,-3.6080038280999998,-9.118085876899999,-0.012606,0.376765,1.533648,-0.0006099999999999994,0.002345,5.289999999999982e-05,0.00018662223201881822,0.001921935400605923,0.0007009017493345704
1504196535.15,-1.0,0.7206612885499999,-0.9324555085999999,0.36256165714999994,-0.099424,-0.173083,-0.087161,-0.11044249229999999,-3.6211643523999997,-9.112927578999999,-0.012118,0.378208,1.53198,-0.0006899999999999962,0.0023549999999999995,3.44000000000004e-05,0.00026669292448300297,0.0017773047618290239,0.0007853239700654768
1504196535.16,-1.0,0.64583654905,-0.6351669138499999,0.36056110055,-0.09203,-0.162521,-0.055145,-0.1233088171,-3.6126031469499997,-9.11615396685,-0.013525,0.377269,1.53127,-0.0008700000000000097,0.0024360000000000007,-4.805000000000087e-05,0.0002920127253955851,0.0015466264677455044,0.0006631205740296187
1504196535.17,-1.0,0.5914782880999999,-0.6487295108,0.3715347419,-0.059994,-0.127672,-0.004983,-0.1352337035,-3.60636611755,-9.1184585296,-0.014829,0.376585,1.531068,-0.0008700000000000097,0.0024360000000000007,-4.8049999999999135e-05,0.0002930580247155756,0.0015464291209363878,0.0006636152671475326
1504196535.18,-1.0,0.5695506186999999,-0.6067178221999999,0.39243271304999994,-0.029101,-0.104532,0.041996,-0.1463740579,-3.6030318565499995,-9.119596100999999,-0.01605,0.37622,1.531399,-0.0010000000000000009,0.0025350000000000025,-8.99000000000004e-05,0.00010679453385820104,0.00137003887083198,0.00037778514359909643
1504196535.19,-1.0,0.4976874875,-0.5125935954999999,0.441103117,-0.029156,-0.100277,0.065459,-0.14544242615,-3.6154568820999997,-9.114692776,-0.015955,0.377582,1.531564,-0.0010799999999999976,0.0026209999999999983,-0.00011939999999999867,-0.00017882568547511468,0.001289617048738645,6.761471924709994e-05
1504196535.2,-1.0,0.5322853487,-0.43683722425,0.39372719084999996,-0.052365,-0.065989,0.067494,-0.15459203059999999,-3.6111615693999997,-9.11625203335,-0.016957,0.37711,1.5323,-0.0011599999999999944,0.002715999999999996,-0.00014510000000000044,-0.00048738218197619254,0.0011858986322654808,-0.0002487573978319224
1504196535.21,-1.0,0.5050817016,-0.1777357246,0.29187532395,-0.081851,-0.022049,0.059893,-0.16017201444999998,-3.6043557542999998,-9.11884098895,-0.017563,0.376365,1.532954,-0.0012399999999999911,0.002817,-0.0001632000000000005,-0.0007698927463029026,0.0010768839319952317,-0.0006196063923412654
1504196535.22,-1.0,0.6397956526499999,-0.59870578915,0.37499648935,-0.10592,0.02612,0.042688,-0.16050544055,-3.5950394367999996,-9.1225184827,-0.017592,0.375344,1.533441,-0.0013100000000000056,0.002916000000000002,-0.0001749000000000004,-0.0009919894423544573,0.0009188591229853937,-0.0009604741211315382
1504196535.23,-1.0,0.7085598824499999,-1.06042248445,0.42047973204999994,-0.123691,0.062527,0.037239,-0.1390386837,-3.61036723075,-9.1168110124,-0.015249,0.377024,1.533107,-0.00136,0.003014000000000003,-0.0001844999999999989,-0.0011989522279480802,0.0007106807500989465,-0.0012897952114543365
1504196535.24,-1.0,0.7402157486500001,-1.19257689985,0.45179236549999996,-0.151443,0.061689,0.03826,-0.13463549784999998,-3.5971772865,-9.12209679675,-0.014758,0.375578,1.533478,-0.0014200000000000046,0.0031079999999999997,-0.00019670000000000104,-0.0013436426945983015,0.0005128157403053724,-0.0016168472552878788
1504196535.25,-1.0,0.6715103587499999,-0.98247923025,0.41785154985,-0.175112,0.043757,0.048925,-0.13177195604999997,-3.58161413295,-9.12825537295,-0.014434,0.373872,1.533949,-0.001469999999999999,0.0031969999999999985,-0.00021359999999999955,-0.0013297613490164117,0.0002964339670290528,-0.0019092097646971062
1504196535.26,-1.0,0.67874766645,-0.8233467207,0.3773795053,-0.175289,0.030956,0.063891,-0.1307814844,-3.5653743205499997,-9.13462969545,-0.014316,0.372094,1.534562,-0.0015100000000000113,0.0033089999999999994,-0.0002804000000000001,-0.0012744511209232812,0.00011053785174608421,-0.0021499812142695696
1504196535.27,-1.0,0.7103054661499999,-0.7885527264999999,0.427373807,-0.172195,0.019223,0.074573,-0.1129529947,-3.5705424250999993,-9.13284488515,-0.012367,0.37266,1.534579,-0.001579999999999998,0.003397000000000004,-0.00030359999999999936,-0.0011325630622058824,1.587219179688404e-05,-0.002356816498409575
1504196535.28,-1.0,0.7002732631999999,-0.77351913205,0.46292291324999996,-0.161568,0.015935,0.0778,-0.11414940599999998,-3.5553421175999995,-9.138758295099999,-0.01249,0.370996,1.535387,-0.0016299999999999926,0.00348699999999999,-0.00031890000000000043,-0.0010181902201447102,-2.8177319830957614e-05,-0.002517175771594382
1504196535.29,-1.0,0.68178772795,-0.7814919384999999,0.4429663805,-0.145542,0.020064,0.079955,-0.1154046572,-3.5415441610499996,-9.144102919349999,-0.012621,0.369487,1.536231,-0.0017099999999999893,0.0035760000000000097,-0.00032000000000000084,-0.00093684286948581,-9.249739783956379e-05,-0.0026442416868841523
1504196535.3,-1.0,0.6689312097999999,-0.7503067914999999,0.41012390964999995,-0.110182,0.038953,0.079983,-0.1152673641,-3.5305312930999997,-9.148359005449999,-0.0126,0.368283,1.537079,-0.001810000000000006,0.0036660000000000026,-0.0003119999999999998,-0.0008780577695690628,-0.00013745379200580388,-0.00273013163394753
1504196535.31,-1.0,0.5765427601499999,-0.7146400054499998,0.38179249779999996,-0.086348,0.072888,0.069276,-0.0966543424,-3.5416520342,-9.144269632399999,-0.010569,0.369499,1.537254,-0.001920000000000005,0.0037479999999999875,-0.00029299999999999986,-0.0008710683813433207,-0.0003173040330759491,-0.002772429764943074
1504196535.32,-1.0,0.5216353268,-0.7424810848,0.39602194695,-0.077413,0.106941,0.043614,-0.08948568124999999,-3.5344637597499995,-9.14712336755,-0.009782,0.368713,1.537788,-0.0020399999999999863,0.003823000000000007,-0.0002699999999999994,-0.0008356804504685567,-0.0005624812214877206,-0.002805096500301252
1504196535.33,-1.0,0.5686876335,-0.7546413308000001,0.37193681455,-0.084588,0.128337,0.019014,-0.0789239192,-3.5269420592,-9.15012420245,-0.008625,0.36789,1.538035,-0.002160000000000023,0.0039050000000000057,-0.0002509999999999995,-0.000723507513224364,-0.0008022138020040703,-0.0027846268185610645
1504196535.34,-1.0,0.5909193090499999,-0.7682333477,0.3277186297,-0.099457,0.127424,0.011503,-0.05147510585,-3.53848448625,-9.14586811635,-0.005628,0.369152,1.537529,-0.0022799999999999765,0.003996999999999987,-0.00023900000000000136,-0.0006397930648236461,-0.0009483170740960389,-0.0026713079017606223
1504196535.35,-1.0,0.58746736825,-0.8980930069999999,0.30695795165,-0.116748,0.096683,0.014716,-0.026772154499999996,-3.55062511895,-9.14125899085,-0.002929,0.370481,1.537065,-0.0025199999999999945,0.004248000000000002,-0.00035249999999999865,-0.0006130439706439894,-0.0010420636341330614,-0.0023180506051110328
1504196535.36,-1.0,0.5698252049,-0.9841757807,0.2688002765,-0.121446,0.043452,0.024396,-0.0077864801,-3.56302072455,-9.13647334565,-0.000852,0.371836,1.536713,-0.0025200000000000222,0.004248000000000002,-0.0003525000000000004,-0.0006105954342916498,-0.0010434821120981486,-0.0023173019899360714
1504196535.37,-1.0,0.5587240770999999,-0.9601102616,0.1719498011,-0.115582,-0.01841,0.033054,-0.00924767095,-3.5523608959999997,-9.14063136525,-0.001012,0.37067,1.537044,-0.0027599999999999847,0.004535999999999998,-0.00045500000000000054,-0.0008211964649085246,-0.000985454013160636,-0.0019395829716490898
1504196535.38,-1.0,0.5587044637999999,-0.93462277825,0.14165705925,-0.110709,-0.07812,0.029966,-0.01611232595,-3.5420835268,-9.1446030585,-0.001762,0.369546,1.537369,-0.002930000000000016,0.0046700000000000075,-0.0004209999999999995,-0.00104196044558158,-0.0009189432024536703,-0.0017173718316324527
1504196535.39,-1.0,0.5821521639499999,-0.9116850238999998,0.11183503659999998,-0.097163,-0.118725,0.030061,-0.027291906949999997,-3.53285546915,-9.148143259149998,-0.002983,0.368537,1.537683,-0.0030899999999999817,0.004819999999999991,-0.0003610000000000002,-0.0012271460584420968,-0.0008810221567430165,-0.0014381297519336922
1504196535.4,-1.0,0.5272643439,-0.90255503275,0.00403053315,-0.086508,-0.12306,0.033278,-0.02688002765,-3.5442311831499995,-9.143749879949999,-0.00294,0.36978,1.537524,-0.003270000000000023,0.004930000000000004,-0.00027699999999999947,-0.001343733662299229,-0.0008141280121123362,-0.001174922678108814
1504196535.41,-1.0,0.39998383354999995,-0.9172355878,-0.05730025595,-0.079853,-0.094331,0.035367,-0.02784107935,-3.5557343836,-9.139278047549999,-0.003046,0.371039,1.537509,-0.003449999999999981,0.005019999999999997,-0.00016900000000000075,-0.001319109499714033,-0.0007584501971578117,-0.0008966630035962542
1504196535.42,-1.0,0.33357319974999994,-0.94131091355,-0.08351343139999999,-0.074044,-0.04002,0.034209,-0.026370081849999998,-3.5677181099,-9.13461008215,-0.002887,0.37235,1.537578,-0.0036600000000000105,0.005030000000000007,-4.200000000000037e-05,-0.001109982633039408,-0.0007203746082187212,-0.0006664096492100535
1504196535.43,-1.0,0.23128984024999996,-0.95588359545,-0.1488257204,-0.068018,0.039862,0.023405,-0.0255365166,-3.56137320735,-9.137081357949999,-0.002795,0.371656,1.537851,-0.0038899999999999907,0.004899999999999988,-0.0002999999999999999,-0.0008605224406605938,-0.0006940944782387604,-0.0004124386933429536
1504196535.44,-1.0,0.1084811623,-0.94580235925,-0.2141576227,-0.057612,0.130369,0.007252,-0.0160044528,-3.5558912899999995,-9.139238820949998,-0.001751,0.371056,1.537968,-0.004040000000000002,0.0050000000000000044,-0.00028300000000000027,-0.0005872324233993087,-0.0006851448537379401,-0.0002199533919313712
1504196535.45,-1.0,0.08381743755,-0.9431055305,-0.22440557195,-0.048424,0.21128,0.006058,0.0014709974999999999,-3.5511056448,-9.14112169775,0.000161,0.370533,1.538027,-0.004200000000000009,0.005120000000000013,-0.0002349999999999991,-0.00034270778771272603,-0.0007097900917352185,-0.00014364614143669296
1504196535.46,-1.0,0.0791396655,-0.9307491514999999,-0.294591766,-0.023562,0.261141,0.027364,0.02589936265,-3.5652664473999995,-9.13557113385,0.002835,0.372082,1.538157,-0.004619999999999999,0.004629999999999995,-0.000647,-8.862241424578698e-05,-0.000788425726680142,-0.00026813587061191857
1504196535.47,-1.0,0.05042579429999999,-0.9312002573999999,-0.42830543874999993,0.017962,0.273548,0.064773,0.04878808375,-3.5660019461499997,-9.135188674499998,0.005341,0.372163,1.538755,-0.004809999999999995,0.004730000000000012,-0.00039799999999999905,0.00021367842657271652,-0.0008325065105045937,-0.0005321079853001232
1504196535.48,-1.0,-0.01595541955,-0.93776090625,-0.5233416838999999,0.050768,0.257265,0.092611,0.06967624825,-3.56992460615,-9.133521543999999,0.007628,0.372592,1.539678,-0.0048870000000000025,0.005129999999999996,1.9999999999999185e-05,0.0005147377475651638,-0.0008681155415768416,-0.0009875676291135616
1504196535.49,-1.0,-0.06451795034999999,-0.9595414758999999,-0.5686287936,0.07187,0.222999,0.085236,0.08772048425,-3.5762793153499994,-9.13088355515,0.009606,0.373287,1.540639,-0.004844000000000001,0.005679999999999991,0.00022099999999999898,0.0009225149567140267,-0.0009280174875612168,-0.0015665278351763012
1504196535.5,-1.0,0.014268675749999998,-1.0097711372,-0.61190554005,0.087851,0.17818,0.023438,0.10364648385,-3.5995112691999998,-9.1215770443,0.011363,0.375834,1.541092,-0.004969000000000001,0.005869999999999986,0.00041000000000000064,0.001483906807377089,-0.0010481405386457698,-0.0023792584136690387
1504196535.51,-1.0,0.14675651725,-1.0251871909999999,-0.59511655525,0.125209,0.139578,-0.041541,0.11810148594999999,-3.6099847713999997,-9.1172621183,0.012953,0.376982,1.540813,-0.005063999999999999,0.006090000000000012,0.0005800000000000007,0.0020916597617248733,-0.0011361704558905394,-0.0034757242292369206
1504196535.52,-1.0,0.24144952965,-0.8608277369999999,-0.4843308302,0.178473,0.098697,-0.090477,0.13084032429999998,-3.6248614594499995,-9.111181995299999,0.01436,0.378614,1.53994,-0.005129999999999996,0.006280000000000008,0.0007069999999999993,0.0023527330937065383,-0.0012551359160206665,-0.0046599093899629684
1504196535.53,-1.0,0.27563551155,-1.1531639734999999,-0.3301506789,0.249804,0.055526,-0.128704,0.14110788685,-3.6457202039999994,-9.1027090497,0.015501,0.380904,1.538625,-0.005180000000000004,0.006489999999999996,0.0007869999999999995,0.0021563536112969572,-0.001416462350308123,-0.005665268763444753
1504196535.54,-1.0,0.25218781139999996,-1.2862598272999999,-0.37373143149999993,0.332116,0.045309,-0.168038,0.15691620665,-3.6974208627999996,-9.0815659123,0.017277,0.38659,1.536622,-0.005213999999999996,0.006659999999999999,0.0008270000000000013,0.001668559620494392,-0.0015581994501971952,-0.006348259103218568
1504196535.55,-1.0,0.24197908875,-1.1578515522,-0.4208033514999999,0.415583,0.054248,-0.203134,0.1689293529,-3.7329013224999996,-9.06682651735,0.018629,0.390499,1.534435,-0.0052280000000000035,0.006819999999999993,0.0008449999999999985,0.001041710661279005,-0.0014480445459477131,-0.006626102299162939
1504196535.56,-1.0,0.21827641569999998,-0.9610026667499999,-0.46555109545,0.494622,0.058935,-0.212611,0.18229581685000001,-3.77562889655,-9.048860734549999,0.020143,0.395215,1.532038,-0.0053349999999999995,0.0065699999999999925,-0.0002749999999999992,0.00032919959839405877,-0.0009595180713968254,-0.006512876638934295
1504196535.57,-1.0,0.1325466814,-0.7047745155499999,-0.6095421374,0.564916,0.056204,-0.192204,0.19516214164999998,-3.8249073127999997,-9.0278646969,0.021614,0.400666,1.529751,-0.005353999999999998,0.006520000000000026,-0.00018699999999999967,-0.00041227626946183094,1.5739753878030172e-07,-0.006192734120818333
1504196535.58,-1.0,-0.0053740442,-0.5299121393999999,-0.80796008685,0.613797,0.045122,-0.169684,0.20619462289999999,-3.88036391855,-9.003926664249999,0.022896,0.406815,1.527699,-0.0052289999999999975,0.006759999999999988,0.0005260000000000004,-0.0009440182818134524,0.0012262758015262332,-0.0056322424090299306
1504196535.59,-1.0,-0.1922299533,-0.35948236905,-0.9333871403499999,0.643569,0.041664,-0.154683,0.21616798594999997,-3.9373601683499997,-8.9789099001,0.024071,0.413153,1.525813,-0.005070000000000005,0.006890000000000007,0.0008809999999999998,-0.0010841685580462723,0.0025736531772853066,-0.004771601024418537
1504196535.6,-1.0,-0.31058641214999994,-0.08450390305,-0.98930465865,0.647901,0.05228,-0.150424,0.22649438839999997,-3.9952095966999996,-8.95306937735,0.025292,0.419603,1.523981,-0.004966999999999999,0.006729999999999986,0.0009344999999999996,-0.0007916375327186032,0.003912711017353354,-0.003742080675055548
1504196535.61,-1.0,-0.58729084855,0.31960853015,-0.9857252313999999,0.634066,0.056655,-0.151521,0.23548708645,-4.0499307037,-8.92821932625,0.02637,0.425721,1.522252,-0.004860999999999997,0.006489999999999996,0.000990099999999999,-5.363585381434888e-05,0.004817747814650719,-0.0027908257905512324
1504196535.62,-1.0,-0.59845081625,0.3728880596,-1.01038895615,0.588196,0.044268,-0.172927,0.2466568608,-4.1032004265,-8.903555601499999,0.027696,0.431694,1.520242,-0.004766000000000003,0.006180000000000019,0.0010352,0.000922802330686423,0.004967453181262904,-0.0020775475147826183
1504196535.63,-1.0,-0.72574113325,0.5674912222,-1.0100064968,0.538992,0.007413,-0.207104,0.25648312409999996,-4.1517629573,-8.88073552695,0.028872,0.437153,1.517874,-0.004686999999999997,0.005840000000000012,0.0010558000000000008,0.002094935668330411,0.0043173872596693474,-0.001726434494042528
1504196535.64,-1.0,-0.7981436302,0.7734112589,-1.03157132015,0.504566,-0.048746,-0.240154,0.26319087269999997,-4.1965205079,-8.85947470975,0.029699,0.442197,1.515136,-0.004614,0.005489999999999995,0.0010489999999999996,0.0032053000801919307,0.003205481658073994,-0.0017765170447691103
1504196535.65,-1.0,-0.8925326364499999,0.9479009823499999,-0.9627972837,0.480707,-0.115652,-0.269964,0.26570137509999997,-4.2388852359,-8.83921417085,0.03005,0.446981,1.51206,-0.004544000000000001,0.005179999999999962,0.0010233000000000004,0.0039821390622940545,0.0018790017134233672,-0.0020687431145897106
1504196535.66,-1.0,-0.9654744991499999,1.06328602625,-0.8023016498,0.451594,-0.170808,-0.30406,0.2490104568,-4.26148956415,-8.82881912185,0.028196,0.44954,1.509397,-0.004451500000000001,0.0045800000000000285,0.0002580999999999998,0.004155226920916633,0.0006420597175629261,-0.0024372396852072598
1504196535.67,-1.0,-0.9917170945499999,1.1995298147,-0.7223970655999999,0.419499,-0.200349,-0.33395,0.2457742623,-4.2983723748,-8.81101024545,0.027887,0.45372,1.505634,-0.0043555,0.004620000000000013,0.0006498000000000003,0.0036080151720219167,-0.0001739044870563422,-0.0026148886934015403
1504196535.68,-1.0,-0.9959241473999999,1.33644045535,-0.69177089765,0.37905,-0.203188,-0.357498,0.24309704684999997,-4.3318915045,-8.794662559899999,0.027634,0.457526,1.501584,-0.0042165,0.004809999999999981,0.0008815999999999997,0.002594429781486385,-0.0005500383269867459,-0.0025036258654204113
1504196535.69,-1.0,-0.996551773,1.43023125595,-0.56712837615,0.322616,-0.196317,-0.36935,0.24162604935,-4.36073286215,-8.78043311075,0.027512,0.460807,1.497376,-0.0040698,0.004830000000000001,0.0008462999999999999,0.0015287750315504667,-0.0006404642958723894,-0.002114602576406832
1504196535.7,-1.0,-1.00444612625,1.47238023765,-0.47263149675,0.256548,-0.184055,-0.366283,0.24129262324999998,-4.3837294564,-8.7689887502,0.02751,0.463427,1.493187,-0.003926799999999999,0.004850000000000021,0.0008139000000000002,0.0006221771808956333,-0.0006300540706813962,-0.0016227460499061985
1504196535.71,-1.0,-1.08517446905,1.4659176553,-0.42350018024999997,0.189419,-0.17289,-0.363186,0.2419692821,-4.4009107071999995,-8.7603588982,0.027614,0.465386,1.489042,-0.0037999,0.0048599999999999755,0.0007821999999999999,2.6134348094508653e-06,-0.0006263192480118196,-0.0012566697211612299
1504196535.72,-1.0,-1.1419843925,1.47865649365,-0.33754489299999996,0.13398,-0.164979,-0.359026,0.24326375990000002,-4.41290424015,-8.754288581849998,0.027781,0.466755,1.484959,-0.003696999999999999,0.004840000000000011,0.00076067,-0.00018354470437853543,-0.0006950999311576833,-0.0009621333578928581
1504196535.73,-1.0,-1.1515164563,1.51194026375,-0.20934255755,0.095533,-0.165734,-0.352687,0.24456804434999999,-4.42120066605,-8.7500619157,0.027943,0.467703,1.48095,-0.0036260000000000008,0.0047800000000000065,0.0007517299999999999,-0.0003813502788905243,-0.00085451682081783,-0.0007236227085749558
1504196535.74,-1.0,-1.1387874246,1.5537950459499998,-0.05135742605,0.072007,-0.16236,-0.336723,0.2453035431,-4.4271336893,-8.747041467499999,0.028037,0.468381,1.477104,-0.003587,0.004689999999999972,0.0007448000000000001,-0.00031945892791140906,-0.001156789429470173,-0.0004226748340964148
1504196535.75,-1.0,-1.1795242487,1.59596364095,0.13698909385,0.051799,-0.139841,-0.313315,0.24652937435,-4.4313015155499995,-8.74489381115,0.028184,0.468857,1.473501,-0.00358,0.0045600000000000085,0.0007278999999999999,1.4650689727391253e-05,-0.001654431414315205,-9.642568647938443e-05
1504196535.76,-1.0,-1.2031975017999998,1.5398990228999998,0.28910984865,0.024305,-0.09701,-0.294225,0.25015783485,-4.4332922655,-8.7437856597,0.028602,0.469084,1.470156,-0.003590000000000003,0.0044399999999999995,0.0006997000000000001,0.0003433530122305406,-0.002179214001209795,0.00023357817318858665
1504196535.77,-1.0,-1.18586915125,1.4341048827,0.4266481149,-0.013774,-0.047692,-0.281569,0.25751282235,-4.4322429539499995,-8.7440994725,0.029442,0.468965,1.46697,-0.0037719999999999976,0.0037599999999999856,0.0005203,0.0005729356542627517,-0.002679403842558825,0.0005030328341072421
1504196535.78,-1.0,-1.1042876299,1.3514250165500001,0.5232828439999999,-0.056123,-0.004722,-0.278516,0.26841781714999996,-4.427525955299999,-8.746158868999999,0.03068,0.468425,1.463863,-0.0037840000000000026,0.0036599999999999966,0.00048400000000000006,0.0006336840530396515,-0.0030605235184442137,0.0005851988189338186
1504196535.79,-1.0,-1.02892352465,1.2671074398499997,0.6123860659,-0.085729,0.032811,-0.272229,0.2826864929,-4.4196806353,-8.74967945635,0.032297,0.467529,1.460816,-0.0037789999999999976,0.0035900000000000376,0.0004301999999999995,0.0004698872401820431,-0.0034975826440384328,0.00044753358167759494
1504196535.8,-1.0,-0.91255781575,1.1883894602999998,0.7025287926999999,-0.088902,0.045609,-0.257313,0.29814177329999997,-4.4111292365,-8.75348443655,0.034047,0.466553,1.457919,-0.0037379999999999983,0.003569999999999962,0.00035990000000000067,0.000232926883509732,-0.003920632461942297,9.9579269031147e-05
1504196535.81,-1.0,-0.8401749320999999,1.099129332,0.8779697611999999,-0.091383,0.011515,-0.242314,0.31105713134999996,-4.4023817047,-8.757436516499999,0.035504,0.465554,1.455194,-0.0036559999999999995,0.0035900000000000376,0.00028329999999999935,-3.741283534730577e-05,-0.004175770549565749,-0.0002554200810757079
1504196535.82,-1.0,-0.7587012839,1.01437045605,1.00750580105,-0.095234,-0.054546,-0.217654,0.31786294644999996,-4.3933399734,-8.7617318292,0.036263,0.464522,1.452713,-0.0035430000000000045,0.0036700000000000066,0.00022030000000000053,-0.0003471467766811287,-0.004100016990294497,-0.0006466076803611776
1504196535.83,-1.0,-0.63391166265,0.92399236965,1.00372043415,-0.098005,-0.11955,-0.194061,0.3174216472,-4.38420998225,-8.766311534749999,0.036194,0.463482,1.450516,-0.003380999999999995,0.0038499999999999646,0.00016119999999999936,-0.0006958424701815069,-0.003753580545318602,-0.0010525409336791247
1504196535.84,-1.0,-0.5882617068999999,0.8083229328999999,0.9625913440499999,-0.104762,-0.154674,-0.179067,0.31233199585,-4.3746386918499995,-8.7712835063,0.035593,0.462391,1.448525,-0.0031090000000000007,0.004290000000000016,-0.00011809999999999946,-0.0010640470846428052,-0.0032464593664374153,-0.0014070087900293071
1504196535.85,-1.0,-0.5432786033499999,0.70446070275,0.9632778095499999,-0.116656,-0.168439,-0.169457,0.3052025613,-4.3641455763499994,-8.776755617,0.03476,0.461196,1.446659,-0.0029600000000000043,0.004400000000000015,-0.00022940000000000026,-0.0014366283323383744,-0.0027727978577438694,-0.0016730951317126541
1504196535.86,-1.0,-0.5307162847,0.6038738937,0.9755655419999999,-0.133766,-0.177881,-0.176942,0.29742588784999996,-4.35229914315,-8.78290438655,0.033852,0.459846,1.444768,-0.003265000000000004,0.0041100000000000025,-0.0006033000000000002,-0.001812674901786382,-0.0024475680120936705,-0.0018909247821798925
1504196535.87,-1.0,-0.5551740698,0.5208115682,1.0012001251,-0.154023,-0.189413,-0.198304,0.28942366145,-4.33851099325,-8.7899945945,0.032914,0.458279,1.442677,-0.0031780000000000003,0.0041999999999999815,-0.0006348999999999999,-0.002138112838443895,-0.002293451011370795,-0.0021242408944410762
1504196535.88,-1.0,-0.5437199025999999,0.45378311545,0.97351595215,-0.165719,-0.195692,-0.21646,0.281254722,-4.323555851999999,-8.7976241682,0.031958,0.456579,1.440382,-0.0031189999999999968,0.004290000000000016,-0.0006294999999999999,-0.002380932492002996,-0.0022173122389117506,-0.0023695484504531183
1504196535.89,-1.0,-0.5264601986,0.36134563254999996,0.96431731445,-0.179574,-0.203021,-0.231414,0.2732721089,-4.3074337194,-8.80577349435,0.031023,0.454748,1.437914,-0.0030869999999999925,0.004359999999999975,-0.0005983,-0.002464706218119117,-0.00229430847649148,-0.002578325746453891
1504196535.9,-1.0,-0.55690984685,0.28181370105,1.0253440973999999,-0.210478,-0.212334,-0.253867,0.26541698225,-4.28896779745,-8.81503097195,0.030101,0.452653,1.435229,-0.0030789999999999984,0.004390000000000005,-0.0005493999999999998,-0.002315156806376617,-0.002501265480692627,-0.0026678516184874823
1504196535.91,-1.0,-0.5971857584,0.15979936175,0.92083462835,-0.256346,-0.225784,-0.277405,0.25736572259999996,-4.266755735199999,-8.826043839899999,0.029151,0.450136,1.432284,-0.0030870000000000064,0.0044299999999999895,-0.00048340000000000015,-0.001971789058361928,-0.002828937200028303,-0.0026015863723548582
1504196535.92,-1.0,-0.5898503841999999,0.1330174006,0.9339461193999999,-0.308502,-0.218946,-0.291384,0.2500303484,-4.23997377405,-8.8391455243,0.028279,0.447105,1.429167,-0.0031059999999999977,0.0044500000000000095,-0.0003976000000000001,-0.0015300258228783115,-0.0032514842151607493,-0.0024592271980371505
1504196535.93,-1.0,-0.6239971395,0.07623689709999999,0.8761653376,-0.367005,-0.203555,-0.3011,0.22850475164999998,-4.21461377715,-8.85184513605,0.025808,0.44424,1.426723,-0.003046000000000007,0.0045600000000000085,-0.00029409999999999983,-0.0011419085893435987,-0.0036492872870743653,-0.0022536290289271177
1504196535.94,-1.0,-0.69843941965,0.019642719949999998,0.79723161175,-0.406344,-0.18299,-0.295867,0.22438595864999997,-4.17866259825,-8.868977353599998,0.025294,0.440183,1.423543,-0.0027519999999999906,0.0048599999999999755,-0.0003470300000000001,-0.0008679548609598076,-0.0039043452370357556,-0.0020702993255128366
1504196535.95,-1.0,-0.73217429565,-0.019760399749999998,0.7229462379999999,-0.429754,-0.167891,-0.284193,0.22116937744999998,-4.1403087901,-8.887031396249998,0.024881,0.435865,1.420479,-0.0027820000000000067,0.0049200000000000355,-0.00037496,-0.0007068052051169005,-0.004009284927816603,-0.0017780881006134175
1504196535.96,-1.0,-0.7121981495999999,-0.07438344024999999,0.6192507208999999,-0.439386,-0.163581,-0.270324,0.20402735325,-4.10634836115,-8.9031829488,0.022912,0.432047,1.418224,-0.003261,0.00492999999999999,-0.00095385,-0.0006248808904014691,-0.004000703188621779,-0.0013812393556583702
1504196535.97,-1.0,-0.7080597433,-0.11453186535,0.6377460628,-0.446952,-0.167794,-0.257521,0.19988894694999998,-4.0661901294,-8.92168809735,0.022401,0.427543,1.415459,-0.0033229999999999926,0.005029999999999979,-0.00100026,-0.0007095328912656296,-0.003875801788104427,-0.0008642492896738796
1504196535.98,-1.0,-0.65670231725,-0.1562199345,0.5610972864,-0.450242,-0.170977,-0.244712,0.19492678204999997,-4.0255513718,-8.940203052549998,0.0218,0.422994,1.412833,-0.003390000000000004,0.005170000000000008,-0.0010401000000000002,-0.0009526634327674532,-0.003589793021977039,-0.00029928001202239596
1504196535.99,-1.0,-0.58448614665,-0.23573225269999998,0.5016101475,-0.442887,-0.178508,-0.234012,0.1885426529,-3.9852460403,-8.95838458165,0.021044,0.418491,1.410349,-0.0034499999999999947,0.005319999999999991,-0.0010109999999999997,-0.001298753308999201,-0.003225672706667293,0.00029911585835296073
1504196536.0,-1.0,-0.5633920425,-0.33424005195,0.45429306124999996,-0.433229,-0.172193,-0.235074,0.18211929715,-3.9456860141999996,-8.9760071317,0.020287,0.414081,1.407882,-0.0029900000000000065,0.005530000000000035,-0.0007377,-0.0016324102226663584,-0.0027922870706977854,0.0009207798797206124
1504196536.01,-1.0,-0.5324618684,-0.39759101095,0.35576564869999994,-0.412643,-0.139342,-0.241479,0.16211373115,-3.9211007426499997,-8.9871670994,0.018036,0.411343,1.406053,-0.003009999999999999,0.005679999999999963,-0.0008038999999999998,-0.0018662692664663805,-0.0023476333048975118,0.0015049729596363637
1504196536.02,-1.0,-0.53205979575,-0.4335323831999999,0.37136802885,-0.390969,-0.100089,-0.245781,0.16170185185,-3.8851593703999994,-9.0027596729,0.01796,0.407349,1.403461,-0.003040000000000001,0.005790000000000017,-0.0008594000000000006,-0.0018747879156075786,-0.001932994946890032,0.0020476413851231445
1504196536.03,-1.0,-0.59490080895,-0.48192820094999994,0.37574179474999997,-0.372621,-0.070409,-0.240464,0.16409467445,-3.8508262887499995,-9.01745984125,0.018196,0.403538,1.400888,-0.0030700000000000033,0.005910000000000026,-0.0009030999999999996,-0.0018369316983075645,-0.0016398428603729975,0.0025252895054241886
1504196536.04,-1.0,-0.5917136477,-0.5802300605499999,0.29717091495,-0.343843,-0.06746,-0.229745,0.16703666944999998,-3.81866047675,-9.03107147145,0.018494,0.399975,1.398413,-0.0030599999999999933,0.00602999999999998,-0.0009363000000000002,-0.001720528310485081,-0.0013891090045108356,0.0029435069306946726
1504196536.05,-1.0,-0.5461029185499999,-0.6526325574999999,0.16972369154999997,-0.288477,-0.074354,-0.211464,0.14881591374999997,-3.81224692765,-9.0341017263,0.016471,0.399265,1.396979,-0.0030700000000000033,0.006129999999999969,-0.0009621000000000005,-0.0016379150816432375,-0.0011668729975922165,0.0031963445879281682
1504196536.06,-1.0,-0.49941345789999997,-0.7440991820499999,0.13122278365,-0.21626,-0.099486,-0.18461,0.14776660219999999,-3.79067229765,-9.04319249085,0.016338,0.396878,1.394935,-0.0037399999999999933,0.005950000000000011,-0.0010109999999999997,-0.0014466279201907906,-0.0009834858159567528,0.003464617487238586
1504196536.07,-1.0,-0.39216793349999995,-0.81282418525,0.15809300464999998,-0.146282,-0.135259,-0.153471,0.14242197794999997,-3.7756583165,-9.049557006699999,0.015737,0.395219,1.393224,-0.003720000000000001,0.00605,-0.000997099999999999,-0.0011347599534370367,-0.0007829637829395164,0.0037164346437337237
1504196536.08,-1.0,-0.34754767599999997,-0.8713208524999999,0.15544520914999999,-0.083665,-0.161375,-0.128766,0.13340966659999998,-3.76654793865,-9.05348947335,0.014735,0.394212,1.391786,-0.0036800000000000166,0.006159999999999999,-0.0009730000000000016,-0.0006233084731377403,-0.0006693911348600867,0.003915689699964697
1504196536.09,-1.0,-0.30221153305,-0.8840694974999999,0.0674109121,-0.029467,-0.178913,-0.104072,0.1097756401,-3.7910547569999995,-9.0435749502,0.012138,0.39692,1.391103,-0.0036199999999999843,0.006269999999999998,-0.0009379999999999996,3.530474979340781e-05,-0.0005611062862518335,0.004061911542561525
1504196536.1,-1.0,-0.25202109835,-0.9131069881499999,0.08376840429999999,0.002361,-0.188787,-0.083719,0.0962424631,-3.7906036510999996,-9.04391818295,0.010642,0.39687,1.390143,-0.0035600000000000076,0.006370000000000042,-0.0008999999999999998,0.0009759794190575821,-0.0005963741305341497,0.004001918543312111
1504196536.11,-1.0,-0.23955684619999998,-0.99358035805,0.08161094129999999,0.005496,-0.187763,-0.068772,0.08183649424999999,-3.7910841769499997,-9.043859343049999,0.009049,0.396924,1.389361,-0.003479999999999983,0.006489999999999996,-0.000841999999999999,0.0014053607504231902,-0.0005597477856409405,0.0039982319015618994
1504196536.12,-1.0,-0.20838150584999998,-1.1142119597,-0.011130547749999999,-0.00401,-0.171707,-0.062412,0.06817583079999999,-3.7909076572499996,-9.044045669399999,0.007538,0.396904,1.388673,-0.002850000000000019,0.006809999999999983,-0.0010350000000000012,0.0022582272465876407,-0.0006892098077324604,0.00367779852644301
1504196536.13,-1.0,-0.17562729485,-1.1832017424499999,-0.11004041965,-0.004646,-0.129083,-0.068879,0.05098477334999999,-3.8245738867,-9.029973126649999,0.005646,0.400629,1.388238,-0.0027599999999999847,0.006949999999999956,-0.001085000000000001,0.002631669392711089,-0.000789217498257333,0.0034263920947497084
1504196536.14,-1.0,-0.19935938784999999,-1.2034034414499999,-0.19340675129999998,0.01089,-0.064193,-0.084977,0.04672868725,-3.8250151859499995,-9.0298064136,0.005174,0.400679,1.387349,-0.00274000000000002,0.007099999999999995,-0.0011129999999999994,0.0026863446850227124,-0.0008841756767297149,0.0031002512756682643
1504196536.15,-1.0,-0.20377238034999998,-1.1263329790999999,-0.22908334399999997,0.046679,0.009038,-0.083977,0.04904305665,-3.8283102203499997,-9.028394256,0.005432,0.401044,1.386417,-0.00272,0.007290000000000019,-0.0011280000000000005,0.00239211696563002,-0.0009821636114262233,0.002754435741791017
1504196536.16,-1.0,-0.20810691965,-1.0272073609,-0.21471660175,0.087497,0.056632,-0.062642,0.05591751829999999,-3.8352631351999995,-9.0254130344,0.006196,0.401813,1.385656,-0.002689999999999998,0.007520000000000082,-0.0011269999999999995,0.0019851277418208024,-0.0010630833381046756,0.002364318584749059
1504196536.17,-1.0,-0.23713460365,-0.9690441197499999,-0.22956386985,0.130211,0.072223,-0.035896,0.055172212899999996,-3.8724793719499995,-9.0095066481,0.006124,0.40594,1.385563,-0.003390000000000004,0.008309999999999929,-0.0012379999999999995,0.0015820425027759377,-0.001116953342355398,0.002058193752927928
1504196536.18,-1.0,-0.2221990757,-0.9612380263499999,-0.32495315439999994,0.17806,0.071796,-0.003791,0.06208590115,-3.88746393315,-9.003004839149998,0.006896,0.407604,1.385416,-0.003379999999999994,0.008580000000000032,-0.001183,0.0013214286232510197,-0.00118012082488117,0.0018717369208842705
1504196536.19,-1.0,-0.1519638484,-0.89637684325,-0.40421049969999995,0.212912,0.049095,0.031534,0.06622430745,-3.9059396617499997,-8.9949731928,0.007362,0.409658,1.385657,-0.003360000000000002,0.008819999999999939,-0.0010979999999999983,0.0013373499657425292,-0.0011700581204898697,0.001825733233086213
1504196536.2,-1.0,-0.09837050615,-0.8170116247999999,-0.41061424215,0.23056,0.005231,0.059395,0.0657437816,-3.9264944001499997,-8.986029528,0.007317,0.411944,1.386222,-0.003349999999999992,0.009050000000000002,-0.0009750000000000002,0.0018376753042081972,-0.0012010194606091318,0.0019839912781924873
1504196536.21,-1.0,-0.03227368515,-0.7605057074999999,-0.5151923577499999,0.223839,-0.03096,0.071192,0.0592125527,-3.9626515186999995,-8.9701819816,0.006601,0.415971,1.38702,-0.003349999999999992,0.009250000000000091,-0.0008070000000000022,0.0026784459460946763,-0.001250653563637627,0.002282461767044497
1504196536.22,-1.0,0.01126784085,-0.7329882476,-0.64030559845,0.20144,-0.030774,0.070086,0.053377595949999995,-3.9813429935999998,-8.9619443956,0.005956,0.418055,1.387785,-0.002960000000000018,0.009129999999999971,-0.0006490000000000003,0.003541546585847488,-0.0013361497313759685,0.002521895664261864
1504196536.23,-1.0,0.03411733535,-0.72411322935,-0.73295882765,0.168566,-0.007058,0.067852,0.04938628939999999,-3.9972493799,-8.9548836076,0.005514,0.419831,1.388512,-0.0026599999999999957,0.009089999999999931,-0.0005489999999999974,0.004103476172010678,-0.0014702269426236647,0.002772514656737779
1504196536.24,-1.0,-0.04166845585,-0.6858967143,-0.8179138366,0.13158,0.047576,0.083703,0.04929802955,-4.009880345099999,-8.9492349772,0.005509,0.421242,1.389351,-0.00270999999999999,0.009280000000000066,-0.0004070000000000011,0.004131519887380808,-0.0015775450991906137,0.0030149395692364855
1504196536.25,-1.0,-0.07022542065,-0.7337433596499999,-0.8187670151499999,0.106204,0.105271,0.133729,0.050170821399999996,-4.0304154702,-8.9399971129,0.005612,0.423538,1.390767,-0.0027699999999999947,0.009489999999999998,-0.0002659999999999989,0.0035494756394942595,-0.0017144103268444955,0.0033463149202733744
1504196536.26,-1.0,-0.172008641,-0.7464625847,-0.8488243973999999,0.118999,0.1541,0.21372,0.05514279295,-4.040584966249999,-8.93537818075,0.006171,0.424676,1.392861,-0.003710000000000019,0.01030999999999993,3.899999999999737e-05,0.0026544447713845454,-0.0019345730303681474,0.0037044129373874357
1504196536.27,-1.0,-0.27100677274999996,-0.7057061472999999,-0.8961022570499999,0.170982,0.185526,0.323697,0.05927139259999999,-4.0547163488999995,-8.92894501835,0.006638,0.426258,1.39609,-0.003789999999999988,0.010520000000000085,0.00022000000000000144,0.0017369670402265225,-0.0021810576124701164,0.003929404316997398
