Time,placement_label,user_acc_x(m/s^2),user_acc_y(m/s^2),user_acc_z(m/s^2),rotation_rate_x(rad/s),rotation_rate_y(rad/s),rotation_rate_z(rad/s),gravity_x(m/s^2),gravity_y(m/s^2),gravity_z(m/s^2),attitude_roll(rad),attitude_pitch(rad),attitude_yaw(rad),target_delta_x,target_delta_y,target_delta_z,target_delta_roll,target_delta_pitch,target_delta_yaw
1504280470.2,-1.0,-0.03613750525,0.022800461249999997,-0.00187307015,-0.130489,0.075805,-0.038808,-0.046758107199999996,-4.28822249205,-8.819257638099998,-0.005302,0.452568,-2.973873,0.0,0.0,0.0,0.0,0.0,0.0
1504280470.21,-1.0,-0.032675757799999997,0.0089828914,-0.06606740105,-0.149823,0.063171,-0.033482,-0.03989345219999999,-4.2744049222,-8.82599480665,-0.00452,0.451003,-2.974223,-5.816050955414013e-05,3.049363057324841e-05,1.6846496815286624e-05,0.0044047759405543285,-0.007965606026863581,-0.0074695389321219885
1504280470.22,-1.0,-0.0345390213,0.02584052275,-0.1226811915,-0.151065,0.032294,-0.048373,-0.035039160449999995,-4.2593909410499995,-8.8332811476,-0.003967,0.449302,-2.974687,-5.816050955414013e-05,3.049363057324841e-05,1.6846496815286624e-05,0.004499335963033202,-0.007993615671629817,-0.007563446722221645
1504280470.23,-1.0,0.033646616149999996,0.04066817755,-0.12227911884999998,-0.138457,-0.010402,-0.078163,-0.03125379355,-4.2448869057,-8.8402634824,-0.003535,0.447661,-2.975509,-5.8160509554140146e-05,3.049363057324841e-05,1.6846496815286624e-05,0.004595715097116426,-0.008020364596813101,-0.007659159452646946
1504280470.24,-1.0,0.06377264495,0.05204389155,-0.13247803484999998,-0.103458,-0.05222,-0.103647,-0.029508209849999998,-4.2327658863,-8.846078825849998,-0.003336,0.446291,-2.97666,-5.816050955414012e-05,3.049363057324841e-05,1.6846496815286624e-05,0.0046939426465983924,-0.008045791313865402,-0.00775670644586457
1504280470.25,-1.0,0.07820803374999999,0.08607296704999999,-0.11803283939999999,-0.059869,-0.077076,-0.113134,-0.029723956149999998,-4.2241556476,-8.850197618849998,-0.003359,0.445317,-2.977974,-5.816050955414012e-05,3.049363057324841e-05,1.684649681528663e-05,0.004794047546062052,-0.008069832600932747,-0.007856116655512224
1504280470.26,-1.0,0.045689182349999996,0.09503624514999999,-0.0784728133,-0.018234,-0.0689,-0.105605,-0.03072423445,-4.2196445886,-8.8523452752,-0.00347,0.444807,-2.979217,-5.8160509554140173e-05,3.049363057324841e-05,1.6846496815286618e-05,0.004896058269641679,-0.008092423492593648,-0.007957418575162079
1504280470.27,-1.0,0.0281058589,0.05949694555,-0.02827257195,-0.005277,-0.043442,-0.096021,-0.030498681499999996,-4.21792842485,-8.8531690338,-0.003445,0.444614,-2.980332,-5.816050955414012e-05,3.049363057324841e-05,1.6846496815286618e-05,0.005000002732147846,-0.008113497272756787,-0.008060640139444297
1504280470.28,-1.0,-0.0294787899,0.02138830365,-0.0147295883,-0.02437,-0.021985,-0.08435,-0.029625889649999997,-4.215878835,-8.85413989215,-0.003346,0.444382,-2.981277,-5.816050955414012e-05,3.049363057324841e-05,1.684649681528663e-05,0.0051059081821023256,-0.008132985471039689,-0.008165808617078163
1504280470.29,-1.0,-0.028733484499999996,-0.0290669106,-0.0531324297,-0.064914,-0.017397,-0.076956,-0.02842947835,-4.21106376985,-8.856444454899998,-0.00321,0.443838,-2.982112,-5.816050955414012e-05,3.0493630573248383e-05,1.684649681528663e-05,0.005213801086221159,-0.008150817862974336,-0.008272950495359366
1504280470.3,-1.0,0.0012650578499999998,-0.0740402075,-0.1011850147,-0.10461,-0.036265,-0.063116,-0.028351025149999997,-4.20290463705,-8.86031808165,-0.0032,0.442917,-2.982852,-5.816050955414012e-05,3.0493630573248437e-05,1.684649681528663e-05,0.005323707004881828,-0.008166922474386329,-0.008382091355618071
1504280470.31,-1.0,0.0115522337,-0.05990882484999999,-0.16727202905,-0.117612,-0.051093,-0.047101,-0.030253515249999998,-4.1920486755,-8.8654469596,-0.003413,0.441692,-2.983434,-5.816050955414012e-05,3.0493630573248437e-05,1.6846496815286604e-05,0.00543565045809602,-0.008181225590338626,-0.008493255739196126
1504280470.32,-1.0,-0.035794272499999995,-0.01083634825,-0.2060573298,-0.108083,-0.053314,-0.036406,-0.034078108749999995,-4.1806631548499995,-8.87081119715,-0.003842,0.440409,-2.983831,-5.816050955414023e-05,3.0493630573248383e-05,1.684649681528663e-05,0.005549654781508262,-0.00819365176903708,-0.00860646700344292
1504280470.33,-1.0,-0.057025669749999994,0.0081002929,-0.15971110189999999,-0.088892,-0.051348,-0.031039,-0.038442067999999996,-4.1708663115,-8.87540070935,-0.004331,0.439304,-2.984143,-5.816050955414012e-05,3.0493630573248383e-05,1.684649681528663e-05,0.005665741971943916,-0.008204123861127677,-0.008721747167260041
1504280470.34,-1.0,-0.0476799323,0.025114830649999996,-0.15344465255,-0.06424,-0.040889,-0.037418,-0.041658649199999995,-4.1628935050499996,-8.879137043,-0.004692,0.438406,-2.984493,-5.816050955414012e-05,3.0493630573248437e-05,1.6846496815286604e-05,0.0057839325220298,-0.008212563034833309,-0.008839116745722908
1504280470.35,-1.0,-0.049503969200000005,0.0310282406,-0.20239944935,-0.04374,-0.01867,-0.048095,-0.04282564055,-4.1565387958499995,-8.8820986513,-0.004822,0.43769,-2.984948,-5.816050955414012e-05,3.0493630573248437e-05,1.684649681528666e-05,0.0059042452434246995,-0.008218888807399294,-0.008958594573306389
1504280470.36,-1.0,-0.0036284604999999998,-0.0039520799499999995,-0.18915066519999998,-0.031869,-0.002781,-0.050237,-0.0412663832,-4.1522336765,-8.8841188212,-0.004645,0.437206,-2.98551,-5.816050955414012e-05,3.0493630573248383e-05,1.6846496815286604e-05,0.00602669707819703,-0.008223019083356764,-0.00908019761526635
1504280470.37,-1.0,0.03296015065,-0.03360738955,-0.19897692849999998,-0.029669,0.008918,-0.044917,-0.03803999535,-4.14861502265,-8.8858251783,-0.004281,0.436799,-2.986075,-5.816050955414023e-05,3.0493630573248383e-05,1.6846496815286604e-05,0.006151302897935751,-0.008224870200107315,-0.00920394076674147
1504280470.38,-1.0,0.02529135035,-0.0716473849,-0.23123100034999997,-0.031932,0.003592,-0.027833,-0.0356177528,-4.1452905683,-8.887384435649999,-0.004008,0.436425,-2.986461,-5.816050955414001e-05,3.0493630573248383e-05,1.684649681528666e-05,0.006278075290175211,-0.008224356981387348,-0.00932983663918363
1504280470.39,-1.0,0.03403888215,-0.10724552439999999,-0.24362660595,-0.041744,-0.011264,-0.009679,-0.03507838705,-4.1417209477,-8.889061372799999,-0.003947,0.436023,-2.986659,-5.816050955414023e-05,3.049363057324849e-05,1.6846496815286604e-05,0.006407024331771649,-0.008221392799172555,-0.009457895333729205
1504280470.4,-1.0,0.026477955,-0.12828078865,-0.2815096949,-0.046244,-0.033615,0.001027,-0.03709855695,-4.1375825414,-8.890973669549998,-0.004173,0.435558,-2.986695,-5.816050955414001e-05,3.0493630573248383e-05,1.684649681528666e-05,0.006538157348916385,-0.008215889644606511,-0.009588124201209913
1504280470.41,-1.0,0.025173670549999996,-0.1245640683,-0.31795120629999996,-0.037916,-0.058194,0.003219,-0.0414821295,-4.1335225883,-8.8928467397,-0.004664,0.435101,-2.986686,-5.816050955414023e-05,3.0493630573248383e-05,1.6846496815286604e-05,0.006671478663502262,-0.008207758208574223,-0.009720527588519712
1504280470.42,-1.0,0.03507838705,-0.0818266876,-0.3051044948,-0.010334,-0.07441,0.008632,-0.04749360595,-4.130923826049999,-8.894023537699999,-0.00534,0.434809,-2.986629,-5.816050955414001e-05,3.049363057324849e-05,1.6846496815286604e-05,0.006806989325661927,-0.008196907972531253,-0.009855106571151406
1504280470.43,-1.0,0.05543699245,-0.03962867265,-0.24788269205,0.026912,-0.084309,0.011916,-0.05439748755,-4.13137493195,-8.893778371449999,-0.006116,0.434859,-2.986544,-5.816050955414023e-05,3.0493630573248383e-05,1.684649681528666e-05,0.006944686832342617,-0.008183247310254549,-0.009991858671765996
1504280470.44,-1.0,0.045600922499999995,0.00348136075,-0.15136564275,0.063239,-0.080341,0.007702,-0.06132098245,-4.13512107225,-8.8919837545,-0.006896,0.435281,-2.986483,-5.816050955414023e-05,3.0493630573248383e-05,1.6846496815286604e-05,0.00708456483189579,-0.00816668360114825,-0.010130777564786086
1504280470.45,-1.0,0.0442476048,0.04957261574999999,-0.11908215094999998,0.095416,-0.063547,0.000257,-0.06669502664999999,-4.1415640413,-8.88895349965,-0.007503,0.436005,-2.986483,-5.816050955414001e-05,3.0493630573248383e-05,1.6846496815286604e-05,0.007226612814759559,-0.008147123355796815,-0.010271852767072875
1504280470.46,-1.0,0.03813806185,0.07247114349999999,-0.06930359555,0.112634,-0.050891,-0.009343,-0.07060788,-4.14994872705,-8.8850014197,-0.007947,0.436949,-2.986577,-5.816050955414023e-05,3.0493630573248383e-05,1.684649681528666e-05,0.007370815790445739,-0.00812447235442293,-0.010415069314910985
1504280470.47,-1.0,0.031547993049999994,0.058908546549999996,-0.0027850886,0.103132,-0.045472,-0.02111,-0.07344200185,-4.15867664555,-8.88090224,-0.00827,0.437932,-2.98679,-5.816050955414001e-05,3.049363057324849e-05,1.6846496815286604e-05,0.007517153951160704,-0.008098635798941878,-0.010560407427631313
1504280470.48,-1.0,0.04947454925,0.02221206225,-0.021182364,0.079772,-0.042064,-0.038236,-0.07491299935,-4.16597279315,-8.877469912499999,-0.008438,0.438753,-2.987198,-5.816050955414023e-05,3.0493630573248383e-05,1.6846496815286604e-05,0.007665602322590392,-0.008069518479276061,-0.010707842158389491
1504280470.49,-1.0,0.05810440124999999,-0.0368926173,-0.050053141599999997,0.048976,-0.033268,-0.053249,-0.07501106585,-4.171356644,-8.8749397968,-0.008452,0.43936,-2.98779,-5.816050955414001e-05,3.0493630573248383e-05,1.684649681528666e-05,0.007816130402516608,-0.00803702495460068,-0.010857343032783184
1504280470.5,-1.0,0.09684066875,-0.07401078755,-0.03099882065,0.022433,-0.024511,-0.065052,-0.07290263609999999,-4.17479877815,-8.87334131285,-0.008216,0.439748,-2.988567,-5.816050955414023e-05,3.049363057324849e-05,1.684649681528666e-05,0.007968701788163668,-0.00800105975016785,-0.011008873676197739
1504280470.51,-1.0,0.12541724685,-0.07765886135,-0.014494228699999999,0.004426,-0.013695,-0.073643,-0.06914668915,-4.1766914616,-8.872478327649999,-0.007794,0.43996,-2.989461,-5.816050955414001e-05,3.0493630573248383e-05,1.684649681528655e-05,0.008123273793385843,-0.007961527570322424,-0.011162391430987961
1504280470.52,-1.0,0.13370386609999999,-0.0327149844,0.01995653275,0.003496,-0.004081,-0.085404,-0.06383148485,-4.1776329,-8.872076255,-0.007194,0.440067,-2.990494,-5.816050955414023e-05,3.0493630573248383e-05,1.684649681528666e-05,0.008279797057047511,-0.00791833352831528,-0.011317846964859157
1504280470.53,-1.0,0.11677758819999999,0.0485233042,0.022045349199999998,0.01741,-0.00312,-0.092855,-0.05811420789999999,-4.17836839875,-8.871772248849998,-0.006551,0.44015,-2.991607,-5.816050955414023e-05,3.049363057324849e-05,1.684649681528666e-05,0.008438215144222938,-0.00787138339343274,-0.011475183872066586
1504280470.54,-1.0,0.09183927724999999,0.14022528834999998,0.0052857843499999994,0.039789,-0.008625,-0.097077,-0.052936296699999996,-4.179398097,-8.8713113363,-0.005967,0.440266,-2.992755,-5.816050955414023e-05,3.0493630573248274e-05,1.684649681528655e-05,0.008598464142127837,-0.007820583855942198,-0.011634338269339795
1504280470.55,-1.0,0.056456884049999996,0.17554884164999998,0.00530539765,0.0663,-0.023768,-0.089533,-0.04972952215,-4.1822420255,-8.86998743855,-0.005606,0.440587,-2.993828,-5.816050955414001e-05,3.049363057324849e-05,1.684649681528666e-05,0.008760472253009244,-0.007765842810267598,-0.01179523838877472
1504280470.56,-1.0,0.057133542899999994,0.18061887969999998,0.0159259996,0.078951,-0.035604,-0.078816,-0.0481506515,-4.1867138579,-8.86788881545,-0.00543,0.441091,-2.994776,-5.816050955414001e-05,3.0493630573248274e-05,1.684649681528666e-05,0.008924159386547004,-0.007707069656716303,-0.011957804170234176
1504280470.57,-1.0,0.01585735305,0.1658500648,0.026193562150000002,0.061911,-0.033328,-0.082052,-0.0475818658,-4.1906561312,-8.8660353586,-0.005367,0.441535,-2.995682,-5.816050955414001e-05,3.049363057324849e-05,1.684649681528655e-05,0.009089436754683988,-0.007644175621994487,-0.012121946856170407
1504280470.58,-1.0,0.02397725925,0.13067361125,-0.0030792880999999995,0.029033,-0.009611,-0.084286,-0.04508117005,-4.19213693535,-8.8653488931,-0.005085,0.441702,-2.996629,-5.8160509554140444e-05,3.049363057324849e-05,1.684649681528666e-05,0.009256206472157857,-0.007577074098627401,-0.012287568592161069
1504280470.59,-1.0,0.0479937451,0.0912606849,-0.034705734349999996,-0.007036,0.020517,-0.077997,-0.039609059349999996,-4.19072477775,-8.8660353586,-0.004467,0.441543,-2.997567,-5.816050955414001e-05,3.0493630573248274e-05,1.684649681528666e-05,0.009424361166402773,-0.007505681003255216,-0.01245456203680484
1504280470.6,-1.0,0.024595078199999995,0.06452775699999999,-0.009218250999999998,-0.034643,0.047369,-0.062082,-0.03252865805,-4.18719438375,-8.867731909049999,-0.003668,0.441145,-2.998347,-5.816050955414001e-05,3.049363057324849e-05,1.684649681528666e-05,0.009593783600877703,-0.007429915153642552,-0.012622809985049832
1504280470.61,-1.0,0.0164947853,0.05543699245,0.03676513085,-0.04105,0.060187,-0.040767,-0.025026570799999998,-4.1830363641499995,-8.869722659,-0.002822,0.440676,-2.99889,-5.8160509554140444e-05,3.049363057324849e-05,1.684649681528655e-05,0.009764346316275763,-0.007349698664053328,-0.012792185009399937
1504280470.62,-1.0,0.01819133575,0.07439324689999999,0.0759623109,-0.037992,0.05375,-0.022605,-0.018485535249999997,-4.1789469911,-8.8716643757,-0.002084,0.440215,-2.999203,-5.816050955414001e-05,3.0493630573248274e-05,1.684649681528666e-05,0.009935911294478239,-0.007264957358448676,-0.012962549123865852
1504280470.63,-1.0,0.0467384939,0.0778451877,0.14371645575,-0.044602,0.035678,-0.009776,-0.013366463949999999,-4.17491645795,-8.873566865799999,-0.001506,0.439761,-2.999386,-5.816050955414001e-05,3.049363057324849e-05,1.684649681528666e-05,0.010108329650497794,-0.007175621200769866,-0.013133753475908172
1504280470.64,-1.0,0.10046912925,0.05384831515,0.15573940865,-0.052276,0.011232,-0.007613,-0.00979684335,-4.17067998515,-8.8755674224,-0.001103,0.439283,-2.999559,-5.816050955414001e-05,3.049363057324849e-05,1.684649681528655e-05,0.010281441358043208,-0.007081624741309467,-0.013305638071999137
1504280470.65,-1.0,0.10097907505,0.038559747799999995,0.08227779349999999,-0.054464,0.003794,-0.008672,-0.007158854499999999,-4.16556091385,-8.87797005165,-0.000807,0.438707,-2.999748,-5.8160509554140444e-05,3.0493630573248274e-05,1.684649681528666e-05,0.0104550750146849,-0.006982907577942843,-0.013478031542784041
1504280470.66,-1.0,0.08762241775,0.029920089149999995,0.054652460449999996,-0.046954,0.009063,-0.008669,-0.00442279915,-4.160961595,-8.880127514649999,-0.000498,0.438189,-2.999931,-5.816050955414001e-05,3.049363057324849e-05,1.684649681528666e-05,0.01062904765292505,-0.006879414830704089,-0.01365075095415369
1504280470.67,-1.0,0.044326057999999995,0.06804834435,0.08471964935000001,-0.023645,-0.003928,0.003136,-0.0034715540999999996,-4.1577842404,-8.881618125449998,-0.000391,0.437831,-2.999976,-5.816050955414001e-05,3.0493630573248274e-05,1.684649681528655e-05,0.010803164603747806,-0.0067710976279027335,-0.013823601670787777
1504280470.68,-1.0,0.030577134699999998,0.10884400835,0.0909076455,0.001687,-0.025469,0.023498,-0.0054426907500000005,-4.1563916961,-8.882275171,-0.000612,0.437675,-2.999794,-5.8160509554140444e-05,3.049363057324849e-05,1.684649681528666e-05,0.010977219419439521,-0.006657913601669119,-0.01399637727897507
1504280470.69,-1.0,0.009453610599999999,0.13818550515,0.12018049574999999,0.025917,-0.056583,0.035336,-0.01109132115,-4.1571566148,-8.88191232495,-0.001249,0.43776,-2.999436,-5.816050955414001e-05,3.049363057324849e-05,1.684649681528666e-05,0.01115099386261853,-0.006539827390492414,-0.014168859575641068
1504280470.7,-1.0,0.02246703515,0.1230734575,0.14559933255,0.035374,-0.077967,0.030053,-0.0187307015,-4.159392531,-8.8808434001,-0.002109,0.438013,-2.999092,-5.816050955414001e-05,3.0493630573248274e-05,1.684649681528655e-05,0.011324257968469864,-0.006416811145980361,-0.014340818630580232
1504280470.71,-1.0,0.031293020149999996,0.10075352209999999,0.13684199409999998,0.031213,-0.075782,0.011896,-0.026046462399999998,-4.1617755469499995,-8.87971563535,-0.002934,0.43828,-2.99892,-5.816050955414001e-05,3.049363057324849e-05,1.684649681528666e-05,0.011496770187145788,-0.006288845040731017,-0.014512012928853846
1504280470.72,-1.0,0.04246279449999999,0.060104957849999995,0.14463828085,0.013343,-0.054302,-0.007386,-0.03064578125,-4.163619197149999,-8.878833036849999,-0.003451,0.438488,-2.998991,-5.8160509554140444e-05,3.0493630573248274e-05,1.684649681528666e-05,0.0116682776131381,-0.006155917773854602,-0.014682189600160767
1504280470.73,-1.0,0.04253144104999999,0.01073828175,0.15465087049999998,-0.019461,-0.025252,-0.014966,-0.0322050386,-4.1636290038,-8.878823230199998,-0.003627,0.438489,-2.999184,-5.816050955414001e-05,3.049363057324849e-05,1.684649681528655e-05,0.011838516308153135,-0.0060180270703600325,-0.014851084741708931
1504280470.74,-1.0,0.01630845895,-0.03294053735,0.1386856443,-0.058749,0.000642,-0.010811,-0.03201871225,-4.1606575888499995,-8.880215774499998,-0.003606,0.438154,-2.999337,-5.816050955414001e-05,3.049363057324849e-05,1.684649681528666e-05,0.0120072117235967,-0.005875180170266114,-0.01501842384070029
1504280470.75,-1.0,0.0203193788,-0.0746482198,0.0906526726,-0.103445,0.018055,-0.005582,-0.030047575599999998,-4.1539596469,-8.883363709149998,-0.003383,0.4374,-2.999431,-5.816050955414001e-05,3.0493630573248274e-05,1.684649681528666e-05,0.012174079228218837,-0.005727394302998068,-0.015183922301969632
1504280470.76,-1.0,0.0492882229,-0.06261546024999999,0.04802316505,-0.133313,0.022558,0.000762,-0.027135000549999996,-4.143701891,-8.888159160999999,-0.003053,0.436246,-2.999482,-5.8160509554140444e-05,3.049363057324849e-05,1.684649681528655e-05,0.012338824745719235,-0.005574697142336493,-0.01534728608559277
1504280470.77,-1.0,0.08032627015,-0.0126701918,0.00385401345,-0.133344,0.019362,0.001835,-0.0240655191,-4.1315416449999995,-8.8938274047,-0.002705,0.434879,-2.999534,-5.816050955414001e-05,3.049363057324849e-05,1.684649681528666e-05,0.012501145506238709,-0.005417127236917452,-0.01550821245836942
1504280470.78,-1.0,0.059457718949999995,0.0235163467,-0.0163967188,-0.097078,0.016936,-0.000234,-0.02144714355,-4.121342729,-8.898564016649999,-0.00241,0.433731,-2.999584,-5.816050955414001e-05,3.0493630573248274e-05,1.684649681528666e-05,0.012660730914566543,-0.005254734411068718,-0.01566639086203403
1504280470.79,-1.0,0.04651294095,0.07048039354999999,0.020721451449999997,-0.044854,0.012241,0.003067,-0.01942697365,-4.1151841527999995,-8.9014177518,-0.002183,0.43304,-2.999609,-5.8160509554140444e-05,3.049363057324849e-05,1.684649681528666e-05,0.012817263536678336,-0.005087580130614278,-0.01582150389978798
1504280470.8,-1.0,0.02076067805,0.1496102524,0.08603374044999999,-0.003363,0.002301,0.010628,-0.018966061099999997,-4.1124579041,-8.902682809649999,-0.002131,0.432734,-2.999533,-5.816050955414001e-05,3.049363057324849e-05,1.684649681528666e-05,0.012970420204785338,-0.004915737828126598,-0.0159732284413463
1504280470.81,-1.0,0.0203782187,0.1340176789,0.09628168969999999,0.015656,-0.010659,0.026695,-0.0202213123,-4.112281384399999,-8.90276126285,-0.002272,0.432714,-2.999301,-5.816050955414001e-05,3.0493630573248274e-05,1.684649681528644e-05,0.013119873239523794,-0.004739293182127513,-0.016121236845127562
1504280470.82,-1.0,0.0088848249,0.08651426629999999,0.04302177355,-0.001502,-0.017982,0.032015,-0.022810267899999997,-4.111614532199999,-8.903065268999999,-0.002562,0.432639,-2.998953,-5.816050955414001e-05,3.049363057324849e-05,1.684649681528666e-05,0.013265291786200617,-0.00455834434471547,-0.016265198294493244
1504280470.83,-1.0,-0.014994367849999999,0.0422666615,-0.0010395049,-0.031392,-0.019867,0.031966,-0.0263014353,-4.10881963695,-8.9043401335,-0.002954,0.432325,-2.998575,-5.8160509554140444e-05,3.0493630573248274e-05,1.684649681528666e-05,0.013406343260173814,-0.0043730021122534435,-0.016404780243129413
1504280470.84,-1.0,-0.0221434157,0.0037853669,-0.09597768355,-0.06335,-0.017466,0.025503,-0.0294787899,-4.10311216665,-8.9069683157,-0.00331,0.431684,-2.998264,-5.816050955414001e-05,3.049363057324849e-05,1.684649681528666e-05,0.01354269489452331,-0.004183390033958512,-0.016539649962712066
1504280470.85,-1.0,-0.05608423135,-0.0027556686499999998,-0.14091175385,-0.079268,-0.007744,0.023324,-0.03235213835,-4.09536491315,-8.910518323,-0.003631,0.430815,-2.997963,-5.816050955414001e-05,3.049363057324849e-05,1.684649681528666e-05,0.01367401538117824,-0.003989644453531227,-0.016669476184034027
1504280470.86,-1.0,-0.08545514809999999,0.026870220999999996,-0.1530818065,-0.074947,0.003932,0.030783,-0.03499993385,-4.086990034049999,-8.91435272315,-0.003926,0.429874,-2.997576,-5.8160509554140444e-05,3.049363057324849e-05,1.684649681528666e-05,0.013799976594646324,-0.0037919144793840953,-0.016793930820730663
1504280470.87,-1.0,-0.1347041444,0.0760015375,-0.15210114149999998,-0.055746,0.016538,0.051076,-0.03798115545,-4.0792525872,-8.91788311715,-0.004258,0.429007,-2.996956,-5.816050955414001e-05,3.0493630573248057e-05,1.684649681528666e-05,0.013920255385503122,-0.003590361879551418,-0.016912690762767912
1504280470.88,-1.0,-0.18118766539999998,0.12521130719999998,-0.14061755434999998,-0.026976,0.025865,0.072459,-0.041776328999999994,-4.07339801715,-8.920540719299998,-0.004683,0.428351,-2.996069,-5.8160509554140444e-05,3.049363057324849e-05,1.684649681528644e-05,0.014034535428859685,-0.0033851608979431624,-0.017025439724906666
1504280470.89,-1.0,-0.22300322099999997,0.16370240844999998,-0.13161504965,0.002909,0.035192,0.084237,-0.04604222175,-4.0697009101,-8.9222078498,-0.005161,0.427936,-2.995,-5.816050955414001e-05,3.049363057324849e-05,1.684649681528666e-05,0.014142509111221058,-0.0031764979893595946,-0.01713187013355766
1504280470.9,-1.0,-0.24841225114999999,0.1975647709,-0.12253409174999999,0.023294,0.054193,0.090646,-0.04951377585,-4.067788613349999,-8.92306102835,-0.005549,0.427722,-2.99381,-5.816050955414001e-05,3.049363057324849e-05,1.684649681528666e-05,0.014243879437496276,-0.002964571471469224,-0.017231685033792465
1504280470.91,-1.0,-0.2515797991,0.1507085972,-0.11866046499999999,0.029819,0.066927,0.085299,-0.05159278565,-4.067474800549999,-8.9231885148,-0.005781,0.427687,-2.992654,-5.816050955414001e-05,3.049363057324849e-05,1.684649681528666e-05,0.014338361938505184,-0.0027495910928225786,-0.01732459999684266
1504280470.92,-1.0,-0.2531488631,0.12455426165,-0.1413530531,0.027718,0.063755,0.072495,-0.0530147499,-4.06735712075,-8.923237548049999,-0.005941,0.427673,-2.991621,-5.816050955414001e-05,3.0493630573248057e-05,1.684649681528666e-05,0.014425686558159068,-0.0025317775169841905,-0.017410345007283
1504280470.93,-1.0,-0.20343895424999997,0.07293205605,-0.1706945499,0.02448,0.048877,0.055438,-0.05408367475,-4.06735712075,-8.923227741399998,-0.006061,0.427674,-2.99081,-5.816050955414001e-05,3.049363057324849e-05,1.684649681528666e-05,0.014505599498680966,-0.0023113617238210704,-0.01748866630824686
1504280470.94,-1.0,-0.1583970108,0.00705098135,-0.1668111165,0.029672,0.025397,0.045883,-0.05588809835,-4.068661405199999,-8.92262953575,-0.006263,0.42782,-2.990163,-5.816050955414001e-05,3.049363057324849e-05,1.684649681528644e-05,0.014577865001732138,-0.0020885843300972873,-0.01755932818254813
1504280470.95,-1.0,-0.09713486825,-0.04061914429999999,-0.09385944715,0.035841,-0.007683,0.039549,-0.059232165999999996,-4.07172108,-8.9212075715,-0.006639,0.428162,-2.989636,-5.816050955414088e-05,3.049363057324849e-05,1.684649681528666e-05,0.014642267043245949,-0.0018636948325594371,-0.017622114647518172
1504280470.96,-1.0,-0.05947733225,-0.0690976559,-0.0458755087,0.041021,-0.031163,0.033195,-0.06412568434999999,-4.076006586049999,-8.919216821549998,-0.00719,0.428643,-2.9892,-5.816050955414001e-05,3.049363057324849e-05,1.684649681528666e-05,0.014698610920109267,-0.001636950777800239,-0.017676831041678942
1504280470.97,-1.0,-0.0498766219,-0.08619064685,-0.023604606549999997,0.046392,-0.030138,0.027866,-0.0690780426,-4.08122372385,-8.916794579,-0.007747,0.429228,-2.988829,-5.816050955414001e-05,3.049363057324849e-05,1.684649681528666e-05,0.014746724707591696,-0.0014086168642288843,-0.017723305482171825
1504280470.98,-1.0,-0.09046634625,-0.08948568124999999,0.016563431849999997,0.046564,-0.010957,0.024631,-0.07308896245,-4.0869017742,-8.914166396799999,-0.008199,0.429865,-2.988479,-5.816050955414001e-05,3.0493630573248057e-05,1.684649681528666e-05,0.014786460567635662,-0.0011789639824830722,-0.01776139017304701
1504280470.99,-1.0,-0.12423064219999999,-0.09928252459999999,0.0384812946,0.03293,0.01686,0.022424,-0.0752366188,-4.091912972349999,-8.91184222075,-0.008442,0.430427,-2.988122,-5.816050955414001e-05,3.049363057324849e-05,1.684649681528666e-05,0.014817695889758786,-0.000948268201556024,-0.017790962546160527
1504280471.0,-1.0,-0.16417312764999997,-0.09460475254999999,0.01673995155,0.012902,0.045795,0.020205,-0.0753935252,-4.0949432272,-8.91044967645,-0.008461,0.430767,-2.987762,-5.816050955414001e-05,3.049363057324849e-05,1.684649681528666e-05,0.014840334248337417,-0.0007168097087666414,-0.017811926218455065
1504280471.01,-1.0,-0.16929219895,-0.11727772734999999,-0.028027405699999997,0.001335,0.064006,0.015884,-0.0734125819,-4.096659390949999,-8.9096749511,-0.00824,0.43096,-2.987443,-5.816050955414001e-05,3.049363057324849e-05,1.684649681528644e-05,0.014854306162445208,-0.0004848717124175117,-0.01782421175180049
1504280471.02,-1.0,-0.15499410325,-0.11799361279999998,-0.038147868499999994,-0.001807,0.068296,0.011603,-0.0703529071,-4.09789502885,-8.90913558535,-0.007897,0.431099,-2.987179,-5.816050955414088e-05,3.049363057324849e-05,1.684649681528666e-05,0.01485956964714974,-0.00025273931660785287,-0.017827777204280637
1504280471.03,-1.0,-0.1134433272,-0.07703123574999998,-0.022790654599999998,0.005599,0.05439,0.002034,-0.0670186461,-4.099052213549999,-8.90862563955,-0.007523,0.431228,-2.987041,-5.816050955414001e-05,3.0493630573248057e-05,1.684649681528666e-05,0.014856110548111534,-2.069837812412878e-05,-0.01782260846479683
1504280471.04,-1.0,-0.08393511735,-0.0268898343,0.021201977299999997,0.015088,0.028754,-0.016049,-0.06465524345,-4.1007095374,-8.907880334149999,-0.007258,0.431414,-2.987099,-5.816050955414001e-05,3.049363057324849e-05,1.684649681528666e-05,0.014843942654543585,0.0002109656443824992,-0.01780871936602002
1504280471.05,-1.0,-0.056094038,0.012650578499999999,0.026291628649999996,0.029917,0.002013,-0.037324,-0.06361573855,-4.10299448685,-8.90684082925,-0.007142,0.431671,-2.987394,-5.816050955414001e-05,3.049363057324849e-05,1.684649681528666e-05,0.014823107588827766,0.0004419688385504106,-0.017786151574005427
1504280471.06,-1.0,-0.06300772624999999,0.046983660149999995,-0.004059953099999999,0.048,-0.014106,-0.052207,-0.06373341834999999,-4.1062012614,-8.905360025099998,-0.007156,0.432031,-2.987869,-5.816050955414001e-05,3.049363057324849e-05,1.684649681528666e-05,0.014793674474442353,0.0006720299734845891,-0.01775497425612138
1504280471.07,-1.0,-0.05951655884999999,0.05714334954999999,0.00508965135,0.058625,-0.022714,-0.05751,-0.06438065724999999,-4.1106730938,-8.90329082195,-0.007231,0.432533,-2.988444,-5.816050955414001e-05,3.049363057324849e-05,1.684649681528644e-05,0.014755739387134703,0.0009008716118121818,-0.017715283532212356
1504280471.08,-1.0,-0.08917186845,0.0554860257,0.026134722249999996,0.056449,-0.025898,-0.054305,-0.06599875449999999,-4.1153018326,-8.901143165599999,-0.007415,0.433053,-2.988978,-5.816050955414001e-05,3.049363057324849e-05,1.684649681528666e-05,0.014709424597421639,0.0011282211888532512,-0.017667201717102565
1504280471.09,-1.0,-0.09152546444999998,0.05939887904999999,0.00559959715,0.044757,-0.01622,-0.047937,-0.06724419905,-4.11892048645,-8.899456421799998,-0.007556,0.433459,-2.989452,-5.816050955414088e-05,3.0493630573248057e-05,1.684649681528666e-05,0.014654877615514872,0.0013538120496536798,-0.017610876365516948
1504280471.1,-1.0,-0.08764203105,0.0241635856,-0.02599742915,0.027816,0.004158,-0.041597,-0.06708729264999999,-4.121234855849999,-8.89838749695,-0.007539,0.43372,-2.989856,-5.816050955414001e-05,3.049363057324849e-05,1.684649681528666e-05,0.014592270052447787,0.0015773844352906519,-0.01754647913320395
1504280471.11,-1.0,-0.08160113465,0.01758332345,-0.041658649199999995,0.016237,0.031944,-0.028857,-0.06489060305,-4.1224410738,-8.8978481312,-0.007293,0.433856,-2.990151,-5.816050955414001e-05,3.049363057324849e-05,1.684649681528666e-05,0.014521796313616053,0.0017986864106265266,-0.01747420447047593
1504280471.12,-1.0,-0.05639804415,0.033872169099999995,-0.02970434285,0.010999,0.05541,-0.010761,-0.0607620034,-4.1228725664,-8.8976716115,-0.006829,0.433903,-2.99028,-5.816050955414001e-05,3.049363057324849e-05,1.684649681528666e-05,0.014443672142957942,0.002017474726606183,-0.017394268166384896
1504280471.13,-1.0,-0.06716574585,0.049651068949999995,0.009610516999999999,0.023676,0.053151,0.010613,-0.05718257615,-4.123980717849999,-8.897181279,-0.006427,0.434029,-2.99017,-5.816050955414001e-05,3.049363057324849e-05,1.684649681528644e-05,0.01435813303764999,0.002233515611131942,-0.01730690576341548
1504280471.14,-1.0,-0.05511337299999999,0.07412846734999999,0.015268954049999998,0.039441,0.027439,0.017091,-0.05546641239999999,-4.12631470055,-8.89611235415,-0.006235,0.43429,-2.989942,-5.816050955414001e-05,3.0493630573248057e-05,1.684649681528666e-05,0.014265432554394164,0.0024465854836088763,-0.01721237086377203
1504280471.15,-1.0,-0.0373241099,0.0741971139,0.04746418599999999,0.054115,-0.009971,0.009711,-0.05650591729999999,-4.1301294874,-8.8943373505,-0.006353,0.434719,-2.989777,-5.816050955414001e-05,3.049363057324849e-05,1.684649681528666e-05,0.014165840529164364,0.002656471589326914,-0.017110933349119395
1504280471.16,-1.0,0.0215942433,0.07202003759999999,0.0346370878,0.066656,-0.050553,-0.003005,-0.059899018199999994,-4.135130878899999,-8.891993561149999,-0.006736,0.435282,-2.989785,-5.816050955414088e-05,3.049363057324849e-05,1.684649681528666e-05,0.014059641232602949,0.002862972550920384,-0.017002877535976846
1504280471.17,-1.0,0.047503412599999996,0.05802594805,0.0027458619999999995,0.073885,-0.085767,-0.01147,-0.06575358825,-4.14088738245,-8.889267312449999,-0.007397,0.435929,-2.989922,-5.816050955414001e-05,3.049363057324849e-05,1.684649681528666e-05,0.013947131483196262,0.0030658988352549876,-0.01688850028889416
1504280471.18,-1.0,0.0321069721,0.0194563936,0.03221484525,0.07379,-0.099616,-0.014648,-0.0734125819,-4.1475068712,-8.8861193778,-0.008261,0.436675,-2.990097,-5.816050955414001e-05,3.049363057324849e-05,1.684649681528666e-05,0.01382861873988861,0.003265073135122254,-0.016768109113060814
1504280471.19,-1.0,0.021790376299999997,-0.0015298374,0.01928968055,0.071724,-0.093201,-0.017865,-0.08105196225,-4.15420481315,-8.882922409899999,-0.009124,0.437428,-2.990287,-5.816050955414001e-05,3.0493630573248057e-05,1.684649681528666e-05,0.013704419194953577,0.0034603306661653566,-0.01664202024717165
1504280471.2,-1.0,-0.009639936949999999,-0.012248505849999999,0.0230848541,0.07186,-0.072962,-0.012563,-0.08762241775,-4.16099101495,-8.8796862154,-0.009868,0.438192,-2.990428,-5.816050955414001e-05,3.049363057324849e-05,1.684649681528644e-05,0.013574855886797854,0.0036515193803765555,-0.016510556776235252
1504280471.21,-1.0,-0.005197524499999999,0.0101596894,0.02737036015,0.069829,-0.052711,-0.000861,-0.09267284249999999,-4.16738495075,-8.876636347249999,-0.010439,0.438913,-2.990451,-5.816050955414001e-05,3.049363057324849e-05,1.684649681528666e-05,0.013440256850956511,0.0038385000983984785,-0.01637404678255966
1504280471.22,-1.0,-0.01844630865,0.00410898635,0.04512039665,0.0625,-0.031346,0.005493,-0.09633072294999999,-4.173465073749999,-8.8737433855,-0.010855,0.439597,-2.990382,-5.816050955414001e-05,3.049363057324849e-05,1.684649681528666e-05,0.013300953325887321,0.004021146563642164,-0.01623282155154665
1504280471.23,-1.0,-0.011944499699999998,-0.008257199299999999,0.061909381449999995,0.055074,-0.024894,0.007604,-0.09923349135,-4.179054864249999,-8.8710759767,-0.011186,0.440227,-2.990284,-5.816050955414001e-05,3.049363057324849e-05,1.684649681528666e-05,0.013157278028358976,0.004199345421911582,-0.016087213847078397
1504280471.24,-1.0,-0.006462582349999999,-0.026232788749999996,0.06630276064999999,0.042346,-0.018391,0.003301,-0.1014203743,-4.1839679959,-8.868741994,-0.011435,0.440781,-2.990216,-5.816050955414088e-05,3.0493630573248057e-05,1.684649681528666e-05,0.01300956351131266,0.004372996130831197,-0.01593755626937543
1504280471.25,-1.0,0.00456009225,-0.04786625864999999,0.0656849417,0.020055,-0.012865,-0.010624,-0.10227355285,-4.18746896995,-8.8670748635,-0.011533,0.441176,-2.990291,-5.816050955414001e-05,3.049363057324849e-05,1.684649681528666e-05,0.0128581406150593,0.004542010803816998,-0.015784179706190282
1504280471.26,-1.0,-0.0160632927,-0.042276468149999996,0.08895612214999998,-0.007575,-0.012615,-0.03202,-0.10245007255,-4.1885771214,-8.8665453044,-0.011554,0.441301,-2.990578,-5.816050955414001e-05,3.049363057324849e-05,1.684649681528644e-05,0.012703337020684491,0.004706313993762423,-0.015627411886209974
1504280471.27,-1.0,0.0066096821,-0.051759498699999996,0.06150730879999999,-0.024625,-0.015663,-0.040584,-0.1019303201,-4.1877729761,-8.8669375704,-0.011495,0.44121,-2.991012,-5.816050955414001e-05,3.049363057324849e-05,1.684649681528666e-05,0.012545475912511428,0.004865842421821087,-0.01546757604151966
1504280471.28,-1.0,0.028811937699999998,-0.08650445965,0.03898143375,-0.035315,-0.019834,-0.04273,-0.10123404795,-4.18639023845,-8.867594615949999,-0.011416,0.441055,-2.991506,-5.816050955414001e-05,3.049363057324849e-05,1.684649681528666e-05,0.012384874754583275,0.005020544656906267,-0.015304989684075065
1504280471.29,-1.0,0.033666229449999995,-0.06710690595,0.08287599914999999,-0.036444,-0.027285,-0.041652,-0.1013026945,-4.184693687999999,-8.868398761249999,-0.011423,0.440863,-2.991987,-5.816050955414001e-05,3.049363057324849e-05,1.684649681528666e-05,0.012221844184251096,0.005170380751566173,-0.015139963499296916
1504280471.3,-1.0,0.03880491404999999,-0.03294053735,0.0786101064,-0.02367,-0.028459,-0.037358,-0.10165573389999999,-4.1832423038,-8.8690754201,-0.011461,0.4407,-2.992452,-5.816050955414001e-05,3.0493630573248057e-05,1.684649681528666e-05,0.012056687024276869,0.005315321839919562,-0.01497280035816212
1504280471.31,-1.0,0.05420135455,-0.0169066646,0.0370102971,-0.00013,-0.014808,-0.028803,-0.10103791494999999,-4.18327172375,-8.8690754201,-0.011391,0.440702,-2.992839,-5.816050955414088e-05,3.049363057324849e-05,1.684649681528666e-05,0.01188969741326451,0.005455349703255896,-0.014803794447640517
1504280471.32,-1.0,0.040246491599999996,0.0405210778,0.0825327664,0.007301,-0.014876,-0.021319,-0.10055738909999999,-4.1838405094499995,-8.86881064055,-0.011338,0.440766,-2.993118,-5.816050955414001e-05,3.049363057324849e-05,1.684649681528644e-05,0.011721160052846624,0.005590456308758096,-0.014633230517872298
1504280471.33,-1.0,0.019789819699999996,0.07128453885,0.0933396947,0.006132,-0.020206,-0.00957,-0.10134192109999998,-4.1840660623999995,-8.86869296075,-0.011427,0.440793,-2.993267,-5.816050955414001e-05,3.049363057324849e-05,1.684649681528666e-05,0.011551349568786451,0.005720643326612818,-0.014461383243270787
1504280471.34,-1.0,0.0340094622,0.0702548406,0.00979684335,0.005972,-0.034067,6.1e-05,-0.10358764394999999,-4.1837914762,-8.8688008339,-0.011679,0.440761,-2.993309,-5.816050955414001e-05,3.049363057324849e-05,1.684649681528666e-05,0.011380529982094378,0.005845921630523554,-0.014288516693634956
1504280471.35,-1.0,0.037069136999999995,0.04770935225,-0.02409493905,0.005815,-0.052182,0.002227,-0.10740243079999999,-4.183536503299999,-8.86886948045,-0.012109,0.440733,-2.993305,-5.816050955414001e-05,3.0493630573248057e-05,1.684649681528666e-05,0.011208954285364836,0.005966310786348128,-0.014114883910485432
1504280471.36,-1.0,0.027850886,0.0753935252,-0.02776262615,0.013175,-0.066094,0.001197,-0.11269802179999999,-4.18325211045,-8.868938127,-0.012706,0.4407,-2.993297,-5.816050955414001e-05,3.049363057324849e-05,1.684649681528666e-05,0.01103686411878857,0.006081838533288586,-0.013940726583072105
1504280471.37,-1.0,0.059673465249999995,0.06015399109999999,-0.055417379149999994,0.02607,-0.057668,-0.004133,-0.11698352784999999,-4.18401702915,-8.868526247699998,-0.01319,0.440786,-2.993349,-5.816050955414001e-05,3.049363057324849e-05,1.684649681528644e-05,0.010864489539744948,0.006192540261695356,-0.013766274817962998
1504280471.38,-1.0,0.04135464305,0.05874183349999999,-0.042492214449999996,0.042195,-0.045009,-0.008398,-0.12021972235,-4.18635101185,-8.86737886965,-0.013556,0.44105,-2.993456,-5.816050955414088e-05,3.049363057324849e-05,1.6846496815286875e-05,0.010692048879435312,0.0062984584912177954,-0.013591746995680165
1504280471.39,-1.0,0.0054721106999999995,0.09821359974999999,-0.01572005995,0.054007,-0.03126,-0.001997,-0.12308326415,-4.189459719899999,-8.865868645549998,-0.013882,0.4414,-2.993502,-5.816050955414001e-05,3.049363057324849e-05,1.684649681528644e-05,0.010519748679772123,0.006399642352671542,-0.013417349707577353
1504280471.4,-1.0,0.0016671305000000001,0.0716669982,-0.014043122799999998,0.054043,-0.018486,0.01079,-0.1252701471,-4.19313721365,-8.864103448549999,-0.014131,0.441815,-2.993416,-5.816050955414001e-05,3.049363057324849e-05,1.6846496815286875e-05,0.010347783703542168,0.006496147076623826,-0.013243277766010753
1504280471.41,-1.0,-0.01819133575,0.0355392996,-0.0063743225,0.048748,-0.006732,0.021434,-0.1272510904,-4.1971089069,-8.8621911518,-0.014358,0.442263,-2.993178,-5.816050955414001e-05,3.0493630573248057e-05,1.684649681528644e-05,0.010176337010870506,0.0065880334913679395,-0.013069714280791456
1504280471.42,-1.0,-0.04023668495,0.02125101055,0.0234182802,0.031733,0.000865,0.022459,-0.1289966741,-4.2001783883499995,-8.86071034765,-0.014558,0.44261,-2.992883,-5.816050955414001e-05,3.049363057324849e-05,1.684649681528644e-05,0.01000558009502428,0.006675367532584353,-0.012896830794992431
1504280471.43,-1.0,-0.02283968785,0.01326839745,0.0215942433,0.013628,0.00102,0.016023,-0.12993811249999998,-4.2017768723,-8.859945428949999,-0.014665,0.442789,-2.992659,-5.816050955414001e-05,3.049363057324849e-05,1.6846496815286875e-05,0.009835673070783146,0.006758219766686002,-0.012724787473313404
1504280471.44,-1.0,0.007433440699999999,-0.00885540495,0.0114933938,0.008215,-0.012781,0.009633,-0.13118355704999998,-4.202845797149999,-8.85941586985,-0.014806,0.44291,-2.992532,-5.816050955414001e-05,3.049363057324849e-05,1.684649681528644e-05,0.009666764908778935,0.006836664929506631,-0.012553733336418793
1504280471.45,-1.0,0.04327674645,-0.0177108099,0.028870777599999998,0.008091,-0.033018,0.002197,-0.13320372695,-4.2040127885,-8.858827470849999,-0.015035,0.443042,-2.992522,-5.816050955414088e-05,3.049363057324849e-05,1.6846496815286875e-05,0.009498993709514458,0.00691078148171087,-0.012383806534954411
1504280471.46,-1.0,0.04892537685,-0.00530539765,0.01456287525,0.014371,-0.052243,-0.004163,-0.13661644115,-4.2053464928999995,-8.858150812,-0.015421,0.443193,-2.992591,-5.816050955414001e-05,3.0493630573248057e-05,1.684649681528644e-05,0.00933248701106848,0.006980651182021402,-0.012215134657246995
1504280471.47,-1.0,0.07769808795,0.016514398599999997,-0.01738719045,0.027072,-0.063005,-0.000921,-0.14069600755,-4.20725878965,-8.857170147,-0.015883,0.443409,-2.992668,-5.816050955414001e-05,3.049363057324849e-05,1.6846496815286875e-05,0.009167362124848477,0.007046358679105413,-0.012047835065060575
1504280471.48,-1.0,0.059899018199999994,0.0225160684,-0.0026674088,0.028164,-0.059816,-0.000925,-0.1451972599,-4.2095241258,-8.856022768949998,-0.016393,0.443664,-2.992713,-5.816050955414001e-05,3.049363057324849e-05,1.684649681528644e-05,0.009003726494155595,0.007107991122730084,-0.01188201525214988
1504280471.49,-1.0,0.0337544893,0.04855272415,-0.0044914457,0.027181,-0.049151,-0.000946,-0.1492768263,-4.21131874275,-8.8551107505,-0.016856,0.443867,-2.992736,-5.816050955414001e-05,3.049363057324849e-05,1.684649681528644e-05,0.008841678070672154,0.007165637794593671,-0.011717773220754846
1504280471.5,-1.0,0.017475450299999997,0.05311281639999999,-0.01823056235,0.020957,-0.026722,-0.000996,-0.15185597525,-4.21243670085,-8.85453215815,-0.017148,0.443994,-2.992761,-5.816050955414001e-05,3.049363057324849e-05,1.6846496815286875e-05,0.00868130570443948,0.007219389759023365,-0.011555197871568057
1504280471.51,-1.0,-0.0043345393,0.0641943309,-0.030812494299999996,0.017903,-0.007517,3.2e-05,-0.1530818065,-4.21304471315,-8.854218345349999,-0.017288,0.444062,-2.992753,-5.816050955414001e-05,3.049363057324849e-05,1.684649681528644e-05,0.008522689543233541,0.007269339533605201,-0.011394369403110616
1504280471.52,-1.0,-0.0151414676,0.048807697049999994,-0.016896857949999997,0.016933,0.007405,0.004274,-0.1531994863,-4.2136723387499995,-8.8539143392,-0.017301,0.444133,-2.992702,-5.816050955414088e-05,3.049363057324849e-05,1.6846496815286875e-05,0.00836590143769822,0.00731558077961636,-0.011235359716865678
1504280471.53,-1.0,-0.0005295590999999999,0.05214195804999999,-0.004971971549999999,0.027664,0.017968,0.008544,-0.15210114149999998,-4.2150550764,-8.853276906949999,-0.017179,0.444289,-2.992615,-5.816050955414001e-05,3.049363057324849e-05,1.684649681528644e-05,0.008211005348929934,0.007358208012042899,-0.011078232824853762
1504280471.54,-1.0,0.00675678185,0.052759777,0.029370916749999997,0.035149,0.022166,0.011751,-0.15055169079999997,-4.217477318949999,-8.85215894885,-0.017006,0.444562,-2.992485,-5.816050955414001e-05,3.0493630573247624e-05,1.6846496815286875e-05,0.008058057755612413,0.007397316328818571,-0.010923045256774733
1504280471.55,-1.0,0.03835380815,0.058947773149999994,0.0721573307,0.035106,0.016839,0.01176,-0.14878649379999997,-4.2203702807,-8.85080563115,-0.016809,0.44489,-2.992374,-5.8160509554139143e-05,3.049363057324849e-05,1.684649681528644e-05,0.007907108058139656,0.00743300115886103,-0.01076984646411594
1504280471.56,-1.0,0.0760015375,0.052102731449999995,0.08793623055,0.026463,0.004123,0.012834,-0.14737433619999998,-4.2228023298999995,-8.84966805975,-0.016652,0.445164,-2.992283,-5.8160509554141746e-05,3.049363057324849e-05,1.684649681528644e-05,0.007758198977484421,0.007465358028374558,-0.01061867921902937
1504280471.57,-1.0,0.11610092934999999,0.04468890405,0.06438065724999999,0.009334,-0.003192,0.012817,-0.14603082515,-4.2239202879999995,-8.849158113949999,-0.016501,0.44529,-2.99224,-5.816050955414001e-05,3.049363057324849e-05,1.6846496815286875e-05,0.007611366946915776,0.007494482344840181,-0.010469580006039814
1504280471.58,-1.0,0.1373519399,0.04776819215,0.07773731454999999,-0.010953,-0.003025,0.015982,-0.1446873141,-4.223253435799999,-8.84949154005,-0.016348,0.445216,-2.992194,-5.816050955414001e-05,3.049363057324849e-05,1.684649681528644e-05,0.007466642494925235,0.007520469198065927,-0.010322579404970944
1504280471.59,-1.0,0.15677891355,0.041962655349999996,0.0875733845,-0.025951,-0.003975,0.026631,-0.14346148285,-4.22118423265,-8.850501625,-0.016207,0.444982,-2.992061,-5.816050955414001e-05,3.049363057324849e-05,1.6846496815286875e-05,0.007324050618003897,0.007543413177614422,-0.01017770246371974
1504280471.6,-1.0,0.1488061071,0.030400614999999995,0.0763938035,-0.030254,-0.001816,0.037292,-0.14267695084999998,-4.21861489035,-8.85174706955,-0.016117,0.444691,-2.991816,-5.816050955414001e-05,3.049363057324849e-05,1.684649681528644e-05,0.0071836111421619275,0.007563408205913058,-0.01003496905977197
1504280471.61,-1.0,0.12171033314999999,0.0433257797,0.07181409794999999,-0.019675,-0.005111,0.050124,-0.1429613437,-4.216271100999999,-8.852855220999999,-0.016147,0.444427,-2.991404,-5.816050955414001e-05,3.049363057324849e-05,1.684649681528644e-05,0.0070453390722968745,0.007580547386327963,-0.009894394249571337
1504280471.62,-1.0,0.07912985885,0.06124252924999999,0.04297274029999999,0.002552,-0.015967,0.068327,-0.14541300619999997,-4.21518256285,-8.853335746849998,-0.016424,0.444303,-2.990758,-5.816050955414001e-05,3.049363057324849e-05,1.6846496815286875e-05,0.006909244928717584,0.007594922865465925,-0.009755988605036015
1504280471.63,-1.0,0.0233202137,0.07342238855,0.045493049349999995,0.029094,-0.02685,0.076931,-0.1505124642,-4.2162907142999995,-8.8527179279,-0.017,0.444429,-2.989927,-5.816050955414001e-05,3.049363057324849e-05,1.684649681528644e-05,0.0067753350703223525,0.007606625708973747,-0.00961975853673902
1504280471.64,-1.0,-0.0063547092,0.06431201069999999,0.054142514649999994,0.048293,-0.030201,0.072701,-0.15660239385,-4.219605361999999,-8.8510311841,-0.017691,0.444803,-2.989085,-5.816050955414001e-05,3.0493630573247624e-05,1.6846496815286875e-05,0.006643612004074484,0.007615745790095385,-0.009485706603378385
1504280471.65,-1.0,-0.029135557149999998,0.063350959,0.05596655155,0.052676,-0.024894,0.057756,-0.1621039245,-4.223724155,-8.8489717876,-0.018317,0.445269,-2.988363,-5.816050955414001e-05,3.049363057324849e-05,1.684649681528644e-05,0.0065140746805767424,0.007622371690274576,-0.009353831807349111
1504280471.66,-1.0,-0.025350190249999998,0.02884135765,0.08131674180000001,0.040003,-0.017317,0.043844,-0.1663403973,-4.2278233347,-8.8469320044,-0.0188,0.445731,-2.987806,-5.816050955414001e-05,3.049363057324849e-05,1.6846496815286875e-05,0.006386718775658773,0.0076265906110721815,-0.009224129876330478
1504280471.67,-1.0,-0.02595820255,-0.0074138274,0.09478127224999999,0.011251,-0.016006,0.035253,-0.1699100179,-4.2301769307,-8.84574539975,-0.019206,0.445997,-2.987362,-5.816050955414001e-05,3.049363057324849e-05,1.684649681528644e-05,0.0062615369580041325,0.007628488296717695,-0.009096593530907304
1504280471.68,-1.0,-0.024948117599999996,-0.0426785408,0.08611219365,-0.013266,-0.014737,0.033074,-0.17301872594999998,-4.2306672632,-8.8454413936,-0.019558,0.446053,-2.986972,-5.816050955414001e-05,3.049363057324849e-05,1.684649681528644e-05,0.0061385191429395025,0.007628148966605908,-0.008971212738359824
1504280471.69,-1.0,-0.03982480565,-0.06099736299999999,0.061066009549999994,-0.027128,-0.014622,0.031983,-0.17640202019999998,-4.2297062115,-8.8458336596,-0.019939,0.445944,-2.986586,-5.816050955414001e-05,3.049363057324849e-05,1.6846496815286875e-05,0.006017652732585699,0.007625655257085029,-0.00884797495280859
1504280471.7,-1.0,-0.05712373625,-0.06705787269999999,0.06450814369999999,-0.031348,-0.015643,0.021304,-0.17989318759999998,-4.2282940539,-8.8464416719,-0.020333,0.445784,-2.986271,-5.8160509554141746e-05,3.049363057324849e-05,1.684649681528644e-05,0.00589892284262894,0.007621088171902324,-0.008726865341988577
1504280471.71,-1.0,-0.06893094285,-0.059340039149999996,0.07656051655,-0.031315,-0.017766,0.011702,-0.18320783529999998,-4.2267249899,-8.847128137399999,-0.020706,0.445608,-2.98607,-5.816050955414001e-05,3.049363057324849e-05,1.6846496815286875e-05,0.005782312516050325,0.007614527040693986,-0.008607867000969882
1504280471.72,-1.0,-0.062134934399999994,-0.0589771931,0.06015399109999999,-0.024786,-0.006093,0.005289,-0.18536529829999998,-4.22559722515,-8.847618469899999,-0.020948,0.44548,-2.985946,-5.816050955414001e-05,3.049363057324849e-05,1.684649681528644e-05,0.005667802924161247,0.007606049484941924,-0.008490961153195808
1504280471.73,-1.0,-0.0834153649,-0.05303436319999999,0.0492882229,-0.01504,0.007684,-0.001122,-0.18638518989999997,-4.2251068926499995,-8.847834216199999,-0.021062,0.445424,-2.985881,-5.816050955414001e-05,3.049363057324849e-05,1.6846496815286875e-05,0.005555373555364396,0.007595731390831473,-0.008376127339238648
1504280471.74,-1.0,-0.09199618365,-0.03847148795,0.06669502664999999,-0.00752,0.011886,-0.004318,-0.18678726255,-4.22530302565,-8.84772634305,-0.021108,0.445447,-2.985848,-5.816050955414001e-05,3.049363057324849e-05,1.684649681528644e-05,0.005445002392059584,0.007583646888484896,-0.00826334359370362
1504280471.75,-1.0,-0.06914668915,-0.0237909329,0.056682437,0.001044,0.013948,-0.006441,-0.18643422315,-4.22591103795,-8.847441950199999,-0.021069,0.445516,-2.985851,-5.816050955414001e-05,3.0493630573247624e-05,1.684649681528644e-05,0.005336666076155794,0.007569868337060637,-0.008152586610740475
1504280471.76,-1.0,0.0057466969,0.00995374975,0.0369318439,0.009475,0.002154,-0.004271,-0.18606157045,-4.22718590245,-8.84684374455,-0.021028,0.44566,-2.985885,-5.816050955414001e-05,3.049363057324849e-05,1.6846496815286875e-05,0.0052303400636464215,0.007554466315243813,-0.008043831898611686
1504280471.77,-1.0,0.006433162399999999,0.01083634825,0.03649054465,0.009344,-0.014894,-0.005308,-0.18674803595,-4.2280783076,-8.8464024453,-0.021107,0.44576,-2.985936,-5.816050955414001e-05,3.049363057324849e-05,1.684649681528644e-05,0.005125998768730655,0.007537509616676319,-0.007937053923817883
1504280471.78,-1.0,0.04570879565,0.024928504299999998,0.02980240935,0.000743,-0.02441,-0.007442,-0.18770908764999997,-4.2282548273,-8.8463043788,-0.021216,0.44578,-2.986042,-0.0030977999999999995,-0.0005476000000000005,-0.00036050000000000014,-0.0003792781707219195,0.0007170366106339365,0.00017542758985944484
1504280471.79,-1.0,0.06353728535,0.0039814999,-0.00171616375,-0.005602,-0.017961,-0.008532,-0.18817980685,-4.2278037214,-8.84651031845,-0.021269,0.445729,-2.986184,-0.0032650000000000005,-0.0005628999999999994,-0.0003412999999999999,-0.0002028183691999974,0.0007482405491967548,0.0004434992622742162
1504280471.8,-1.0,0.042286274799999995,-0.034313468349999994,-0.009345737449999999,-0.010772,-0.000863,-0.013909,-0.18743450145,-4.2275095219,-8.8466574182,-0.021184,0.445696,-2.986357,-0.0034350000000000006,-0.0005660000000000001,-0.0003196999999999998,-8.16783013537492e-05,0.0007858597807195444,0.0006306458293679484
1504280471.81,-1.0,0.0154356671,-0.04118793,0.014239255799999998,-0.019174,0.013064,-0.018217,-0.18557123794999997,-4.22677402315,-8.847049684199998,-0.020972,0.445613,-2.986559,-0.003608,-0.0005555999999999998,-0.0002984000000000001,-6.425704802359711e-05,0.0007655060464299979,0.0007942502237183735
1504280471.82,-1.0,0.0263406619,-0.05503491979999999,0.030910560799999997,-0.033019,0.015311,-0.019313,-0.18286460255,-4.225204959149999,-8.847863636149999,-0.020665,0.445435,-2.986803,-0.0037789999999999976,-0.0005343000000000001,-0.0002898,-8.92754285586328e-05,0.0006729581897753079,0.0009330149391521547
1504280471.83,-1.0,0.05266171049999999,-0.05323049619999999,-0.0640178112,-0.040534,0.013238,-0.012919,-0.1794028551,-4.2226650368,-8.8491483073,-0.02027,0.445148,-2.987055,-0.005540000000000003,-0.0002607,-0.00045094000000000004,-0.0001869183989851031,0.0005854015672452917,0.001015739857911091
1504280471.84,-1.0,0.05096516005,-0.05647649735,-0.06243894055,-0.034141,0.014247,-0.009707,-0.17770630465,-4.21941903565,-8.850727177949999,-0.020075,0.444782,-2.987176,-0.005690999999999995,-0.00023020000000000007,-0.00047232,-0.00035207316935848,0.0005300932182383811,0.0011393770184248697
1504280471.85,-1.0,0.040677984199999996,-0.007462860649999999,-0.06338037895,-0.019171,0.018387,-0.009689,-0.17505850914999999,-4.21710466625,-8.851874556,-0.019774,0.444521,-2.987325,-0.005833000000000005,-0.00019979999999999998,-0.00050019,-0.0005549293494930829,0.0005252691085309014,0.0012659335379800463
1504280471.86,-1.0,0.05515259959999999,0.06347844544999999,-0.05596655155,-0.001084,0.015038,-0.005383,-0.1723224538,-4.2154669557,-8.85270812125,-0.019463,0.444336,-2.987446,-0.005970999999999997,-0.00017660000000000006,-0.00052935,-0.0008293054861332472,0.0006154410823102641,0.0014785534711164172
1504280471.87,-1.0,0.0649004097,0.09010350019999999,-0.048837117,0.007366,0.005379,-0.004284,-0.170243444,-4.2144078375,-8.85325729365,-0.019227,0.444216,-2.98756,-0.006110999999999998,-0.0001552699999999999,-0.0005580000000000001,-0.0010103792072737594,0.000754478449837892,0.0016573097779827295
1504280471.88,-1.0,0.04007977855,0.1224066053,-0.06643024709999999,0.010456,-0.005306,9e-06,-0.1698119514,-4.21304471315,-8.8539143392,-0.019177,0.444062,-2.987599,-0.006257000000000006,-0.0001323600000000001,-0.0005847999999999999,-0.0012430994367715886,0.0008595588188884395,0.0018969553381559812
1504280471.89,-1.0,0.03956983275,0.12147497355,-0.1048919284,0.018973,-0.006442,0.001093,-0.16975311149999997,-4.2121130814,-8.854355638449999,-0.019169,0.443957,-2.987617,-0.006414999999999997,-0.00010621000000000003,-0.0006083999999999998,-0.0014335609123008464,0.0009241998536653195,0.002069706024930673
1504280471.9,-1.0,0.0344801814,0.10350919075,-0.0950264385,0.024277,-0.006491,0.006439,-0.17005711764999998,-4.2121130814,-8.854355638449999,-0.019204,0.443957,-2.98757,-0.0065840000000000065,-7.693999999999995e-05,-0.0006263000000000002,-0.0016679460348640873,0.0009821732749917267,0.0022690371542912757
1504280471.91,-1.0,0.031067467199999997,0.10606872639999998,-0.054672073749999994,0.029696,0.005186,0.007495,-0.16978253144999997,-4.212868193449999,-8.85400259905,-0.019174,0.444042,-2.987513,-0.006943999999999992,-3.404999999999999e-05,-0.0006748999999999995,-0.0018459297123487595,0.0009305565172137431,0.002526172118495429
1504280471.92,-1.0,0.0219276694,0.10617659954999999,-0.08893650885,0.039422,0.02109,0.007483,-0.16827230734999998,-4.21418228455,-8.8534043934,-0.019004,0.44419,-2.987437,-0.007119,-4.010000000000038e-06,-0.0006782000000000003,-0.001973429513160374,0.0008938163474767613,0.0028007274851851727
1504280471.93,-1.0,0.01352337035,0.09929233124999999,-0.06132098245,0.038373,0.021103,0.003212,-0.16615407094999998,-4.2159769014999995,-8.85259044145,-0.018766,0.444393,-2.987389,-0.007296999999999998,2.8250000000000063e-05,-0.0006781000000000001,-0.0020046114007035154,0.0008504009092904496,0.003057757892358126
1504280471.94,-1.0,0.015455280399999998,0.1085596155,-0.016141745899999997,0.030834,0.007322,-0.005317,-0.16464384684999997,-4.2173106059,-8.851982429149999,-0.018597,0.444544,-2.987426,-0.0074820000000000025,6.081999999999995e-05,-0.0006734000000000002,-0.001949903685509513,0.0007971471836021315,0.0033061157578769262
1504280471.95,-1.0,0.015582766849999999,0.09019176005,-0.067469752,0.0254,-0.005419,-0.006371,-0.1643202274,-4.21794803815,-8.85168822965,-0.018561,0.444616,-2.987499,-0.00766,9.531000000000003e-05,-0.0006636999999999997,-0.0018803999824354989,0.0007576211253843557,0.0035142341566361535
1504280471.96,-1.0,-0.0022359162,0.07860029974999999,-0.00871811185,0.024276,-0.008612,-0.00103,-0.16476152665,-4.2174282857,-8.85192358925,-0.018611,0.444557,-2.987532,-0.00784,0.00013455999999999993,-0.0006513999999999999,-0.0017615780482240773,0.0007485597970133817,0.003758705374599436
1504280471.97,-1.0,-0.0021182363999999996,0.08079698934999999,-0.0097674234,0.025426,0.008417,0.009616,-0.16487920645,-4.21961516865,-8.8508742777,-0.018626,0.444805,-2.98745,-0.00803000000000001,0.00017719999999999997,-0.0006401000000000011,-0.0016324471743951463,0.0007538272026128556,0.00398422193130904
1504280471.98,-1.0,-0.043041386849999995,0.0654299688,0.0029714149499999996,0.028716,0.026493,0.020264,-0.164359454,-4.22116461935,-8.8501485856,-0.018569,0.444979,-2.98722,-0.008209999999999995,0.00022400000000000002,-0.0006305999999999985,-0.0014801223973586186,0.0007322997809959819,0.004187581218116521
1504280471.99,-1.0,-0.0761584439,0.0721573307,0.0400699719,0.025608,0.043558,0.028768,-0.16326110919999998,-4.2228023298999995,-8.8493836669,-0.018447,0.445164,-2.986844,-0.008379999999999999,0.0002733,-0.0006230000000000003,-0.0012616755678442892,0.0006841179466137159,0.004411897143347943
1504280472.0,-1.0,-0.07187293784999998,0.04969029555,0.06145827555,0.01599,0.043632,0.031954,-0.16185875824999998,-4.2241360343,-8.848775654599999,-0.01829,0.445315,-2.986432,-0.008569999999999994,0.0003270999999999999,-0.0006192999999999997,-0.0009773671156769748,0.0006438122742411512,0.004595812580011738
1504280472.01,-1.0,-0.05004333495,0.036971070499999995,0.04342384619999999,-0.001162,0.030988,0.027678,-0.16199605134999998,-4.22398893455,-8.848844301149999,-0.018304,0.445298,-2.986014,-0.008739999999999998,0.0003872000000000003,-0.0006172,-0.0006701271453801727,0.0005659105951141274,0.004800651071942219
1504280472.02,-1.0,-0.05055328075,0.0364022848,0.04370823905,-0.007693,0.010802,0.021298,-0.16148610554999998,-4.223410342199999,-8.849128694,-0.018247,0.445233,-2.985773,-0.008920000000000011,0.0004572999999999999,-0.0006189999999999998,-0.000356837364527518,0.0004815588043092234,0.004956542556678989
1504280472.03,-1.0,-0.05063173395,0.035137226949999996,0.0283608318,-0.000303,-0.000978,0.01813,-0.16305516955,-4.2229003964,-8.8493444403,-0.018424,0.445175,-2.985517,-0.009110000000000007,0.00038579999999999995,-0.0006230000000000003,-7.75622308277768e-05,0.0003768636324976704,0.005145866513665498
1504280472.04,-1.0,-0.06510634935,0.024193005549999997,0.08130693515,0.006062,-0.00955,0.011752,-0.16548721875,-4.223478988749999,-8.849020820849999,-0.018699,0.44524,-2.985304,-0.00925999999999999,0.0004743,-0.0006379999999999997,3.582871035145985e-05,0.0003198724023496524,0.005310755527218325
1504280472.05,-1.0,-0.1087361352,0.0408348906,0.13198770234999999,0.011386,-0.014918,0.005367,-0.1689881928,-4.22469501335,-8.84837358195,-0.019096,0.445379,-2.985128,-0.009419999999999984,0.0005751999999999997,-0.0006670000000000009,-2.7034889117372174e-05,0.0002594130422000074,0.0054010106170075955
1504280472.06,-1.0,-0.10678461184999999,0.05111225979999999,0.12941836005,0.010337,-0.010653,0.008561,-0.1724401336,-4.22585219805,-8.847755763,-0.019487,0.445509,-2.984947,-0.009560000000000013,0.0006852000000000004,-0.0007019999999999995,-0.0002872113193046477,0.00017831047759608865,0.005411565633231197
1504280472.07,-1.0,-0.09833127954999998,0.01913277415,0.11941557705,0.008163,-0.013837,0.011766,-0.1758136212,-4.22724474235,-8.847030070899999,-0.01987,0.445666,-2.984739,-0.009699999999999986,0.0007997999999999998,-0.0007380000000000008,-0.000565460288219688,0.00011716416825358067,0.005361892238805344
1504280472.08,-1.0,-0.10043970929999999,-0.0069627215,0.11347274714999998,-0.000454,-0.022297,0.014969,-0.1801285472,-4.22822540735,-8.846471091849999,-0.020359,0.445777,-2.984477,-0.009810000000000013,0.0009098999999999999,-0.0007659999999999993,-0.0008475262080840373,6.56631188584722e-05,0.005263964127887544
1504280472.09,-1.0,-0.09517353825,-0.0028047019,0.07634477025,-0.015396,-0.024305,0.012813,-0.18464941284999997,-4.2277448815,-8.846608384949999,-0.02087,0.445723,-2.984241,-0.009940000000000004,0.0010146,-0.0007799999999999994,-0.0010423003443360557,3.025595938521697e-05,0.005138901150173791
1504280472.1,-1.0,-0.06142885559999999,-0.015180694199999997,0.03925601994999999,-0.021765,-0.024247,0.006398,-0.18816019355,-4.2262934972999995,-8.8472262039,-0.021265,0.445558,-2.984103,-0.010125000000000023,0.0011725999999999993,-0.0007824999999999985,-0.001305763368863122,-0.00010778409691658553,0.004929940884681905
1504280472.11,-1.0,-0.02695848085,-0.016945891199999997,0.01564160675,-0.027107,-0.025269,0.006391,-0.19106296195,-4.2242341008,-8.848148028999999,-0.02159,0.445325,-2.984019,-0.010124999999999995,0.001172600000000001,-0.0007825000000000019,-0.0013062874615590303,-0.00010136156460061052,0.004930105089573533
1504280472.12,-1.0,-0.0301848687,0.0093359308,0.012474058799999998,-0.028178,-0.028453,0.002126,-0.1942697365,-4.22163533855,-8.849324826999998,-0.021949,0.445032,-2.983957,-0.010309999999999986,0.001327,-0.0007769999999999999,-0.001581011479595329,-0.00019110039860881223,0.00475839027637015
1504280472.13,-1.0,-0.049209769699999996,0.039697319200000004,0.0027654753,-0.022832,-0.02956,-0.002132,-0.19769225734999998,-4.21892870315,-8.85053104495,-0.022333,0.444727,-2.983931,-0.010399999999999965,0.0012370000000000003,-0.0008090000000000007,-0.0016666855697609062,-0.00018528842319120997,0.004644686897943451
1504280472.14,-1.0,-0.03474496095,0.04489484369999999,-0.024869664399999998,-0.012146,-0.028581,-0.00425,-0.20078135209999998,-4.21679085345,-8.85148229,-0.022679,0.444485,-2.983951,-0.021130000000000038,0.0026699999999999988,-0.0015580000000000004,-0.003549793869106921,-0.00024031948941938275,0.009196494452759496
1504280472.15,-1.0,-0.0487978904,0.062213387599999996,-0.03050848815,-0.006831,-0.030757,-0.004236,-0.2042332929,-4.2149570099,-8.85227662865,-0.023068,0.444277,-2.983963,-0.005354999999999999,0.0007065000000000005,-0.0003689999999999978,-0.0009148433400893996,-4.773062670215822e-05,0.002309240411399349
1504280472.16,-1.0,-0.0932220149,0.0941046134,-0.025330576949999996,0.010227,-0.028774,0.001128,-0.2084501524,-4.21392731165,-8.85266889465,-0.023542,0.444162,-2.983893,-0.005354999999999999,0.0007064999999999988,-0.00036900000000000127,-0.0009149509803656475,-4.562321386991641e-05,0.002309282140841251
1504280472.17,-1.0,-0.0786101064,0.10812812289999998,-0.047091533299999995,0.028388,-0.021473,0.007551,-0.21213745279999996,-4.21418228455,-8.852462954999998,-0.023959,0.444191,-2.983755,-0.02173999999999998,0.0029470000000000017,-0.0013950000000000004,-0.0038215410052140353,-2.0071069291471844e-05,0.009212738406252863
1504280472.18,-1.0,-0.0699998677,0.10207741984999999,0.0173185439,0.031586,-0.021501,0.007558,-0.21565804014999998,-4.21577096185,-8.8516195831,-0.024359,0.44437,-2.983595,-0.005505000000000038,0.0007530000000000002,-0.0003254999999999994,-0.0008766922174849867,2.8114595989281455e-05,0.0022468922460063268
1504280472.19,-1.0,-0.0193191005,0.0928101356,0.05085728689999999,0.029345,-0.035334,0.006511,-0.2191982408,-4.21741847905,-8.85074679125,-0.024761,0.444556,-2.983495,-0.005504999999999982,0.0007530000000000002,-0.0003254999999999994,-0.0008766233838151116,3.007915269415129e-05,0.0022468582501959378
1504280472.2,-1.0,0.04988642855,0.08122848195,-0.024349911949999997,0.023969,-0.039553,0.007576,-0.22197352274999999,-4.2184089507,-8.850207425499999,-0.025076,0.444668,-2.983449,-0.011079999999999979,0.001513999999999998,-0.000622000000000001,-0.0014135905500185508,0.00010548001300536569,0.004466698250531642
1504280472.21,-1.0,0.056986443149999996,0.06549861535,-0.024408751849999997,0.016454,-0.043754,0.009705,-0.22518029729999997,-4.21898754305,-8.849854386099999,-0.025439,0.444733,-2.983375,-0.011160000000000003,0.001525000000000002,-0.0006020000000000018,-0.0009533022165004734,0.00012978885848102806,0.004456753281782466
1504280472.22,-1.0,0.042698154099999996,0.0667636732,-0.02282007455,0.001579,-0.035107,0.010731,-0.22824977875,-4.21830107755,-8.850099552349999,-0.025785,0.444656,-2.983294,-0.011220000000000008,0.0015389999999999987,-0.0005919999999999988,-0.0005591787679084526,0.00018405525513065513,0.004454328351191306
1504280472.23,-1.0,0.0299691224,0.06208590115,-0.091790244,-0.001463,-0.014835,0.01069,-0.23003458904999996,-4.2166241403999996,-8.8508546644,-0.025984,0.444466,-2.983201,-0.011189999999999978,0.0016520000000000007,-0.000621,-0.00022240080259439132,0.000268548321010309,0.004440383791110336
1504280472.24,-1.0,-0.025634583099999997,0.07469725305,-0.0978507537,0.00192,0.009644,0.012788,-0.23054453484999998,-4.21486875005,-8.851668616349999,-0.026039,0.444268,-2.983058,-0.011240000000000028,0.0016669999999999983,-0.0006080000000000009,2.7819111357629822e-05,0.00042970335663161663,0.004370083378480938
1504280472.25,-1.0,-0.056133264599999996,0.069038816,-0.040207265,0.007291,0.017053,0.017054,-0.23072105454999997,-4.21414305795,-8.852011849099998,-0.026059,0.444187,-2.982839,-0.011309999999999987,0.001680000000000001,-0.0005919999999999988,0.00019620738216108435,0.0006748751152867438,0.004209079128328519
1504280472.26,-1.0,-0.07091188614999999,0.0843764166,-0.0102185293,0.009289,0.00105,0.018154,-0.23225089194999998,-4.2136233055,-8.85221778875,-0.026231,0.444128,-2.982577,-0.022830000000000017,0.003417,-0.0011439999999999992,0.000607234498561926,0.0021420039722575,0.007911371517539623
1504280472.27,-1.0,-0.0336956494,0.07955154479999998,-0.03435269495,0.016649,-0.012863,0.017124,-0.23460448795,-4.213584078899999,-8.85217856215,-0.026496,0.444123,-2.982348,-0.005769999999999997,0.0008775000000000033,-0.00027800000000000047,0.00014788674732235663,0.0006798195138633112,0.0018944774310960533
1504280472.28,-1.0,0.01228773245,0.0625075871,-0.049660875599999994,0.030464,-0.021498,0.013961,-0.23689924405,-4.2148001035,-8.8515411299,-0.026757,0.444261,-2.982188,-0.005769999999999997,0.0008774999999999963,-0.00027800000000000047,0.0001491707325589342,0.000679539815165775,0.001894494354859888
1504280472.29,-1.0,0.024987344199999997,0.0491509298,-0.0226925881,0.04008,-0.021574,0.010776,-0.23882134744999997,-4.21745770565,-8.85021723215,-0.026978,0.44456,-2.982077,-0.01162000000000002,0.001801000000000004,-0.0005509999999999994,0.00021943109728650434,0.0014272638645989044,0.0037848595071675595
1504280472.3,-1.0,0.0041580196,0.0537208287,0.03243059155,0.031625,-0.01404,0.006478,-0.2404394447,-4.22008588785,-8.84892275435,-0.027165,0.444857,-2.981978,-0.011729999999999963,0.0018549999999999955,-0.0005490000000000009,0.00021721357724668877,0.001365820424023667,0.0037937059801391726
1504280472.31,-1.0,-0.027223260399999998,0.04072701744999999,0.02448720505,0.01893,-0.001148,0.005366,-0.24152798285,-4.221596111949999,-8.8481676423,-0.02729,0.445028,-2.981894,-0.011830000000000007,0.001913999999999999,-0.0005529999999999979,0.0001645952256374983,0.0012519661007119876,0.0038308058032239245
1504280472.32,-1.0,-0.036412091449999996,0.00212804305,-0.012827098199999998,0.007333,0.017061,0.006382,-0.24131223655,-4.22236103065,-8.8478146029,-0.027267,0.445114,-2.981791,-0.012080000000000035,0.0015960000000000002,-0.0006290000000000011,0.00021903779052401262,0.0010981722173890596,0.003837850044699831
1504280472.33,-1.0,-0.045149816599999996,-0.014543261949999999,0.0180834626,0.001038,0.030963,0.007414,-0.23990988559999998,-4.22289058975,-8.8475988566,-0.02711,0.445174,-2.981671,-0.012199999999999989,0.0016530000000000017,-0.0006270000000000026,0.0003218276818461874,0.0009863319313025976,0.0038944257099753354
1504280472.34,-1.0,-0.040481851199999995,-0.04435547795,0.08812255689999998,-0.008553,0.032107,0.007396,-0.23799758884999997,-4.2236064751999995,-8.84731446375,-0.026894,0.445255,-2.981563,-0.012319999999999998,0.0017039999999999972,-0.0006159999999999985,0.0005616303362145914,0.0008547374977434519,0.003917532003108293
1504280472.35,-1.0,-0.01205237285,-0.060614903649999996,0.1212886472,-0.019331,0.019406,0.009534,-0.23649717139999998,-4.2238026082,-8.84725562385,-0.026725,0.445277,-2.981457,-0.012419999999999987,0.0017480000000000065,-0.0005970000000000003,0.0007781089414931053,0.0006924984608169815,0.003950318335865011
1504280472.36,-1.0,0.024889277699999997,-0.052730357049999996,0.11390423975,-0.026932,0.004548,0.012749,-0.23587935245,-4.223008269549999,-8.84764788985,-0.026654,0.445188,-2.981347,-0.02515999999999996,0.003596999999999996,-0.001120999999999997,0.0032044450525776647,0.0009770415115444298,0.007890425252744304
1504280472.37,-1.0,0.035274520049999994,-0.05416212795,0.11772883325,-0.034467,-0.002851,0.014884,-0.23593819235,-4.2215863053,-8.84833435535,-0.026659,0.445026,-2.981224,-0.006349999999999967,0.0009134999999999976,-0.00025999999999999635,0.0012701154526006952,0.00017273121893812693,0.0019751238778120683
1504280472.38,-1.0,0.0108265416,-0.056584370499999995,0.14220623165,-0.036659,-0.01242,0.011694,-0.2372228635,-4.22006627455,-8.849020820849999,-0.026802,0.444855,-2.98111,-0.006350000000000078,0.0009135000000000046,-0.0002600000000000033,0.0012704407944821305,0.0001702261967140295,0.0019753203969861133
1504280472.39,-1.0,-0.012827098199999998,-0.023751706299999998,0.10699055149999999,-0.031327,-0.015656,0.00744,-0.23916458019999998,-4.2181735911,-8.84986419275,-0.027018,0.444642,-2.981011,-0.025580000000000047,0.0036559999999999995,-0.0009490000000000054,0.007207058438641001,0.000660689122227387,0.007874015380476052
1504280472.4,-1.0,-0.04751321925,0.023330020349999998,0.08070872949999999,-0.019598,-0.023202,-0.0032,-0.24203792865,-4.2163299409,-8.85066833805,-0.02734,0.444433,-2.980981,-0.006425000000000014,0.0009154999999999996,-0.0002134999999999984,0.0023748934475753547,0.00016731971667272028,0.0019389848905783102
1504280472.41,-1.0,-0.1037151304,0.07181409794999999,0.056496110649999993,-0.001426,-0.020155,-0.005308,-0.2455389027,-4.21512372295,-8.851148863899999,-0.027734,0.444297,-2.980952,-0.006424999999999903,0.0009154999999999996,-0.0002134999999999984,0.002375187892344144,0.00016272135223460715,0.001939356166660522
1504280472.42,-1.0,-0.12537802025,0.110030613,0.0036088471999999997,0.020983,-0.016086,6.2e-05,-0.2491673632,-4.21504526975,-8.851090024,-0.028143,0.444288,-2.980864,-0.011920000000000042,0.002610000000000001,1.6000000000002124e-05,0.005479948651880839,0.00031478713739652164,0.0037916141101093093
1504280472.43,-1.0,-0.16471249339999997,0.09878238545,0.0128074849,0.029495,-0.014036,0.007547,-0.2536784222,-4.216202454449999,-8.8504035585,-0.028655,0.444419,-2.980651,-0.023950000000000027,0.005199999999999996,8.69999999999968e-05,0.012839283293184955,0.00034396578370321507,0.007229888605732482
1504280472.44,-1.0,-0.15077724374999998,0.08550418134999999,0.00438357255,0.028395,-0.017229,0.008619,-0.25803257479999997,-4.217594998749999,-8.8496190265,-0.02915,0.444576,-2.980425,-0.012029999999999985,0.0026380000000000015,4.799999999999943e-05,0.006886543683275903,-1.855277092599472e-05,0.003388144639458135
1504280472.45,-1.0,-0.09844895934999999,0.0769233626,-0.02650737495,0.016675,-0.018194,0.003265,-0.26157277544999996,-4.21814417115,-8.8492463738,-0.02955,0.444638,-2.980281,-0.012075000000000058,0.0027279999999999943,2.8000000000000247e-05,0.006605568467719536,-3.863109035529e-05,0.0032480446663648577
1504280472.46,-1.0,-0.03552949295,0.050621927299999994,-0.03670629095,0.002788,-0.023403,-0.002087,-0.26419115099999996,-4.21773229185,-8.84937386025,-0.029846,0.444591,-2.98026,-0.012074999999999947,0.002728000000000008,2.8000000000000247e-05,0.006605380214032008,-6.0050565592106864e-05,0.003247704585051636
1504280472.47,-1.0,0.0116699135,0.021349077049999998,-0.028449091649999998,-0.010055,-0.027561,-0.001034,-0.26635842065,-4.2165849138,-8.849854386099999,-0.030088,0.444462,-2.980289,-0.012089999999999934,0.0028419999999999973,-3.9999999999970615e-06,0.005914421696534777,0.00010129123573854315,0.0032352767917540604
1504280472.48,-1.0,0.01642613875,-0.0033734876,-0.02711538725,-0.013285,-0.028604,0.003232,-0.2685649169,-4.2152119828,-8.8504427851,-0.030336,0.444306,-2.980287,-0.00605,0.001466000000000009,-1.4000000000000123e-05,0.0026763650673411465,0.00011423086518025372,0.001663109125247364
1504280472.49,-1.0,0.01897586775,-0.017200864099999998,0.00304986815,-0.012247,-0.027554,0.010703,-0.2711146459,-4.2142509311,-8.8508154378,-0.030622,0.444198,-2.980204,-0.00605,0.001465999999999995,-1.4000000000000123e-05,0.0026765372032733215,0.00010978636292846566,0.0016634004002534786
1504280472.5,-1.0,0.013023231199999999,-0.05896738645,-0.008384685749999999,-0.00262,-0.018054,0.021377,-0.27353688845,-4.21453532395,-8.85060949815,-0.030897,0.44423,-2.979996,-0.01212000000000002,0.003023999999999999,-5.3999999999998494e-05,0.004878746820185631,0.00032828902919823655,0.003434993907067807
1504280472.51,-1.0,-0.0244577851,-0.01997614605,0.0132193642,0.006011,-0.002148,0.027768,-0.275566865,-4.21522178945,-8.85021723215,-0.031126,0.444307,-2.979682,-0.01216000000000006,0.0031209999999999988,-8.800000000000474e-05,0.004373115477706246,0.0003494879959393682,0.003541505932494915
1504280472.52,-1.0,-0.05078864034999999,-0.01791674955,0.00581534345,0.0051,0.015976,0.025601,-0.27661617655,-4.21592786825,-8.849854386099999,-0.031246,0.444387,-2.979343,-0.012149999999999994,0.002920000000000006,0.0004030000000000006,0.003749419688597211,0.0002843267208034739,0.0035982249463256677
1504280472.53,-1.0,-0.0746678331,-0.00958109705,-0.0046189321499999995,0.000984,0.030933,0.019163,-0.27623371719999995,-4.21618284115,-8.849736706299998,-0.031203,0.444417,-2.979051,-0.024459999999999926,0.006181999999999993,0.0006019999999999984,0.005095333733673435,0.0003638720531318196,0.007297172714033073
1504280472.54,-1.0,-0.0720788775,-0.0044914457,-0.010042009599999999,-0.00635,0.043786,0.012724,-0.27447832685,-4.2157415419,-8.85000148585,-0.031005,0.444366,-2.978831,-0.012310000000000043,0.003254000000000007,0.00019800000000000373,0.0012376730494101373,0.00020848441669363282,0.0037206178815900603
1504280472.55,-1.0,-0.07920831205000001,-0.024251845449999997,0.004314926,-0.01906,0.051355,0.006285,-0.27169323824999997,-4.214682423699999,-8.850589884849999,-0.030688,0.444247,-2.978686,-0.006184999999999996,0.001674999999999996,6.950000000000012e-05,0.00028720990878339236,0.00013225885714907015,0.0018923857294120827
1504280472.56,-1.0,-0.1079712165,-0.0630763728,0.04189400879999999,-0.02118,0.048181,-0.001184,-0.26911408929999997,-4.21386847175,-8.85106060405,-0.030396,0.444155,-2.978591,-0.006184999999999996,0.001674999999999996,6.950000000000012e-05,0.00028745700961296805,0.00013171546448109694,0.0018924036816748702
1504280472.57,-1.0,-0.1248386545,-0.10941279405,0.0597224985,-0.020193,0.034322,-0.006494,-0.26766270509999995,-4.213917505,-8.851080217349999,-0.030231,0.44416,-2.978562,-0.012440000000000007,0.0034200000000000064,9.20000000000018e-05,0.00019989395866293336,0.00027652426106294925,0.003835006397952756
1504280472.58,-1.0,-0.11158987035,-0.1365477946,0.10205780654999999,-0.017123,0.019373,-0.003259,-0.2672900524,-4.214907976649999,-8.850619304799999,-0.030191,0.444273,-2.978528,-0.025109999999999966,0.0070199999999999985,9.399999999999686e-05,-2.475267762069855e-05,0.0005551470665279279,0.007774561082687037
1504280472.59,-1.0,-0.07810996725,-0.15076743709999998,0.1554157892,-0.022583,0.007687,0.004224,-0.26784903145,-4.216251487699999,-8.84996225925,-0.030257,0.444424,-2.978437,-0.006340000000000012,0.001799999999999996,4.5000000000045e-06,-8.044206526558462e-05,0.00015789855158976351,0.001966756456741159
1504280472.6,-1.0,-0.0578200084,-0.15468029044999998,0.1910923819,-0.038678,-0.001777,0.008483,-0.26914350924999997,-4.2166829803,-8.849717092999999,-0.030403,0.444473,-2.978313,-0.006340000000000012,0.001799999999999996,4.4999999999975615e-06,-8.013080032842623e-05,0.00015805732445595133,0.0019667408023570365
1504280472.61,-1.0,-0.015268954049999998,-0.15099299004999997,0.1765000867,-0.063334,-0.016494,0.009534,-0.27098715945,-4.2148393301,-8.8505408516,-0.030609,0.444264,-2.978202,-0.012780000000000014,0.0036300000000000082,-1.5000000000001124e-05,-0.0003397993811815603,0.00041172097172537114,0.004029076880603943
1504280472.62,-1.0,0.031057660549999998,-0.135920169,0.14130401985,-0.087004,-0.036554,0.018067,-0.2739193478,-4.21029885115,-8.85261005475,-0.030932,0.443752,-2.978079,-0.012394999999999934,0.003589999999999996,-0.00014050000000000173,-0.0007709611935355909,0.0005778798568154553,0.0043190924422188415
1504280472.63,-1.0,0.0166516917,-0.1342530385,0.09900793840000001,-0.09785,-0.05246,0.02875,-0.27910706565,-4.20419911485,-8.8553461101,-0.031509,0.443063,-2.97783,-0.012395000000000045,0.003589999999999996,-0.00014050000000000173,-0.0007684281613231647,0.0005811969057261113,0.00431849585550681
1504280472.64,-1.0,-0.0660772077,-0.1357044227,0.05755522885,-0.084977,-0.03766,0.03942,-0.28572655439999994,-4.19839357805,-8.857886032449999,-0.032245,0.442409,-2.977394,-0.01206000000000007,0.0035199999999999954,-0.00022099999999999898,-0.0010560130810053359,0.0007280257205235507,0.004665489198144024
1504280472.65,-1.0,-0.15442531755,-0.14216700505,0.0016475171999999999,-0.050499,0.009995,0.049004,-0.29060045944999996,-4.1947847308499995,-8.8594452898,-0.032789,0.442001,-2.976769,-0.02454999999999996,0.007080000000000003,-0.0003620000000000012,-0.0020352892704476044,0.0015172441560344918,0.010033862868267018
1504280472.66,-1.0,-0.2877074977,-0.09573251729999999,0.03403888215,-0.013935,0.0523,0.05967,-0.2940818202,-4.194078652049999,-8.859661036099999,-0.033181,0.441921,-2.975917,-0.006244999999999945,0.0017700000000000216,-7.299999999999668e-05,-0.0002891498234443013,0.0003767281058275618,0.0026720536958222407
1504280472.67,-1.0,-0.33845691145,-0.0781982271,0.0724319169,0.021261,0.061574,0.077864,-0.29749453439999995,-4.1965008946,-8.85839597825,-0.033571,0.442195,-2.974819,-0.006245000000000056,0.0017699999999999938,-7.300000000000362e-05,-0.0002881360132838129,0.0003774989076439361,0.002671898760260194
1504280472.68,-1.0,-0.3363484817,-0.06679309315,0.04041320464999999,0.04984,0.042135,0.092895,-0.30260379904999996,-4.20117866665,-8.8560129623,-0.034156,0.442722,-2.973528,-0.025419999999999998,0.007039999999999991,-0.0002539999999999973,1.6801528046173075e-05,0.001419575283512664,0.011333593702122391
1504280472.69,-1.0,-0.2816077614,-0.05243615755,0.027125193899999997,0.066542,-0.004894,0.091942,-0.3106550587,-4.207445116,-8.852757154499999,-0.035077,0.44343,-2.972239,-0.006464999999999943,0.0017650000000000166,-6.350000000000106e-05,0.00023278534765758252,0.0003204090431625506,0.0030013346243970007
1504280472.7,-1.0,-0.17837315685,-0.0205351251,0.06963702164999999,0.062852,-0.076247,0.076053,-0.3224622653,-4.2137605985999995,-8.849324826999998,-0.036423,0.444143,-2.971167,-0.006465000000000054,0.0017649999999999888,-6.350000000000106e-05,0.00023374231623574104,0.0003197080672081576,0.0030013490140844423
1504280472.71,-1.0,-0.0656849417,-0.006805815099999999,0.04200188195,0.047599,-0.132572,0.049441,-0.33683881419999995,-4.21851682385,-8.84652993175,-0.038057,0.44468,-2.970461,-0.013089999999999935,0.0035499999999999976,-0.0001409999999999953,0.0006238127197208954,0.0005710741967148714,0.006198242817717636
1504280472.72,-1.0,0.011159967699999999,0.020593965,-0.031616639599999996,0.031544,-0.149472,0.032365,-0.3514311094,-4.2210763595,-8.8447353148,-0.039712,0.444969,-2.97005,-0.013550000000000062,0.0034500000000000086,0.0005259999999999987,0.0006828229435502653,0.0005191332403995386,0.006360128361952877
1504280472.73,-1.0,0.0253599969,0.03427424175,-0.022751427999999997,0.009248,-0.132244,0.037633,-0.36488583319999995,-4.22173340505,-8.843882136249999,-0.041236,0.445043,-2.969677,-0.013680000000000025,0.003489999999999993,0.0005019999999999955,0.0006676091226471836,0.0004919845005360024,0.006553296970993383
1504280472.74,-1.0,-0.0185737951,0.048346784500000003,-0.0074040207499999995,-0.017147,-0.087288,0.053519,-0.3763203871,-4.2199387880999994,-8.84425478895,-0.042524,0.444841,-2.969118,-0.013900000000000023,0.0035300000000000054,0.00048400000000000526,0.0006111886040462977,0.0004657298234451712,0.006745256601635385
1504280472.75,-1.0,-0.08928954825,0.051788918649999995,-0.032048132199999996,-0.043485,-0.028493,0.080056,-0.3849110125,-4.21530024265,-8.84609843915,-0.043484,0.444317,-2.968241,-0.028000000000000025,0.007199999999999984,0.0009289999999999993,0.0009280863980669629,0.0008700553907567965,0.014120137436980817
1504280472.76,-1.0,-0.1057745269,0.01583773975,-0.06979392805,-0.051736,0.025887,0.109835,-0.38982414415,-4.20957315905,-8.84860894155,-0.044026,0.44367,-2.967058,-0.01429999999999998,0.0036700000000000066,0.000452000000000001,0.00015002427462995627,0.0004082885026484018,0.007371297378164887
1504280472.77,-1.0,-0.13663605445,0.0345390213,-0.08596509389999998,-0.038709,0.072633,0.139664,-0.39217774014999995,-4.20404220845,-8.851139057249998,-0.044279,0.443045,-2.965501,-0.014399999999999968,0.003720000000000001,0.0004364999999999994,-0.00034658415477695215,0.00044991022466867037,0.007541350563393112
1504280472.78,-1.0,-0.13730290665,0.07916908545,-0.059467525599999994,-0.006597,0.094728,0.153558,-0.3927171059,-4.20049220115,-8.8527963811,-0.044331,0.442645,-2.963736,-0.014399999999999968,0.003720000000000001,0.0004364999999999994,-0.0003431713362529454,0.0004525081453226054,0.007541040868478732
1504280472.79,-1.0,-0.11358062029999999,0.10535284095,-0.0392658266,0.038167,0.091157,0.156846,-0.39279555909999997,-4.2004823945,-8.8527963811,-0.044341,0.442644,-2.96191,-0.014100000000000001,0.003904999999999992,8.149999999999824e-05,-0.000870827237840377,0.0006184584512320956,0.007673709077788526
1504280472.8,-1.0,-0.027733206199999996,0.14658980419999998,-0.014337322299999998,0.072141,0.065311,0.148412,-0.39319763174999994,-4.20341458285,-8.8513842235,-0.044393,0.442975,-2.960197,-0.014100000000000001,0.003904999999999992,8.149999999999824e-05,-0.0008660372998881005,0.0006251222064079798,0.007673040100265038
1504280472.81,-1.0,0.04949416255,0.17258723334999998,0.046012801799999996,0.093175,0.020396,0.136786,-0.39545316124999996,-4.2087592071,-8.84874623465,-0.044661,0.443579,-2.958647,-0.013900000000000023,0.004045000000000021,-0.0002600000000000033,-0.0011450228017908515,0.0008033960967830378,0.00767159824383179
1504280472.82,-1.0,0.11817993914999998,0.14340264295,0.060732583449999995,0.094016,-0.014761,0.125107,-0.39949350105,-4.2151923694999995,-8.84551004015,-0.045133,0.444304,-2.957277,-0.013900000000000023,0.004044999999999993,-0.00025999999999999635,-0.0011387752931439898,0.0008121421959852437,0.0076703655285303984
1504280472.83,-1.0,0.13594958895,0.0754915917,0.08593567395,0.079034,-0.024218,0.118692,-0.40439682605,-4.2218020516,-8.842126745899998,-0.045704,0.445051,-2.956018,-0.013900000000000023,0.004019999999999996,-0.0002689999999999984,-0.0011440148379806558,0.0007950944526671222,0.0076273338371462
1504280472.84,-1.0,0.1521795947,0.00514849125,0.14422640155,0.04497,-0.015408,0.117549,-0.4086627188,-4.2271760958,-8.83937107725,-0.046199,0.445658,-2.954804,-0.014100000000000001,0.0039949999999999986,-0.0002740000000000034,-0.0009891084484874302,0.0006899053695110791,0.007533942768911284
1504280472.85,-1.0,0.13379212595,-0.04988642855,0.1963683596,0.00676,0.013673,0.124901,-0.4113693542,-4.230196544,-8.8377922066,-0.046513,0.445999,-2.95353,-0.014100000000000001,0.0039949999999999986,-0.00027399999999999647,-0.0009838495726317564,0.0006973290291378831,0.007533030937431073
1504280472.86,-1.0,0.14275540405,-0.0942615198,0.1873854682,-0.022889,0.0512,0.140793,-0.41120264115,-4.230863396199999,-8.8374783938,-0.046496,0.446075,-2.952135,-0.014100000000000001,0.003960000000000019,-0.0002679999999999974,-0.0007883624254509947,0.0006069854267609642,0.007365155168569504
1504280472.87,-1.0,0.13989186225,-0.10134192109999998,0.22596482929999998,-0.053584,0.091931,0.157744,-0.40804489985,-4.229019746,-8.838508092049999,-0.046134,0.445867,-2.950562,-0.01419999999999999,0.003939999999999999,-0.0002580000000000013,-0.0006275504521893183,0.0005432744392106503,0.007209704285570662
1504280472.88,-1.0,0.13134046345,-0.07047058689999999,0.29101233875,-0.078008,0.117689,0.176868,-0.40338674109999995,-4.22487153305,-8.840704781649999,-0.045596,0.445398,-2.948793,-0.007100000000000106,0.0019599999999999895,-0.0001239999999999991,-0.0002761085855453871,0.00024982013036445316,0.003509225810457539
1504280472.89,-1.0,0.14889436695,-0.07978690439999998,0.3020252067,-0.097132,0.137014,0.19281,-0.39713990504999996,-4.21900715635,-8.8437938764,-0.044876,0.444735,-2.946856,-0.007099999999999884,0.0019599999999999895,-0.0001239999999999991,-0.00027522689808945344,0.0002507866112384516,0.0035091215687230726
1504280472.9,-1.0,0.190052877,-0.09788998029999998,0.32327621725,-0.1153,0.13716,0.200248,-0.3901183436499999,-4.211818881899999,-8.84753021005,-0.044065,0.443924,-2.944849,-0.01419999999999999,0.003909999999999997,-0.0002360000000000001,-0.0004753781109110289,0.00048367193560427957,0.0068207292858070145
1504280472.91,-1.0,0.21840390214999997,-0.09633072294999999,0.35658940729999994,-0.13037,0.117047,0.195985,-0.38405783395,-4.2033557429499995,-8.851815716099999,-0.04336,0.442968,-2.942895,-0.027800000000000047,0.00818000000000002,-0.0007740000000000039,-0.0009240999454036558,0.0008275160393060865,0.012973967039420109
1504280472.92,-1.0,0.260268491,-0.08931896819999999,0.2985536526,-0.132584,0.101096,0.187467,-0.37833075035,-4.19405903875,-8.85647387485,-0.042692,0.441919,-2.941072,-0.013899999999999801,0.0041049999999999975,-0.0003860000000000044,-0.0005262577152247427,0.0002558012428275358,0.0059495033579467504
1504280472.93,-1.0,0.29756318094999995,-0.11663048845,0.24172411585,-0.114563,0.08178,0.181124,-0.37328032559999996,-4.1858999059499995,-8.86055344125,-0.042103,0.440998,-2.939357,-0.013900000000000023,0.0041049999999999975,-0.00038599999999999746,-0.0005247224016284857,0.00025892646178671264,0.005949331141080205
1504280472.94,-1.0,0.30385905025,-0.15540598255,0.27063412005,-0.087973,0.069847,0.18012,-0.36924979244999995,-4.1807906413,-8.863122783549999,-0.041637,0.440423,-2.937651,-0.007000000000000117,0.0020599999999999785,-0.0002009999999999998,-0.0003557832827529861,9.63579288082439e-05,0.0027661694236197354
1504280472.95,-1.0,0.34808704175,-0.23156442644999997,0.24839263785,-0.054933,0.066383,0.183381,-0.3651408061,-4.179456936899999,-8.86392692885,-0.041171,0.440272,-2.935936,-0.006999999999999895,0.0020600000000000063,-0.0002009999999999998,-0.0003555145520752756,9.734128185168167e-05,0.0027661296836181126
1504280472.96,-1.0,0.3580604048,-0.32023615575000003,0.20492956504999998,-0.034653,0.069409,0.186613,-0.36673929005,-4.175318530599999,-8.865809805649999,-0.041342,0.439807,-2.933903,-0.013900000000000023,0.0041400000000000325,-0.0004139999999999977,-0.0008900687418791353,0.00019319181095767135,0.005249233055851121
1504280472.97,-1.0,0.39168740764999993,-0.37315283914999997,0.22421924559999998,-0.037964,0.060903,0.195161,-0.36909288604999996,-4.17134683735,-8.8675848093,-0.041599,0.439358,-2.931793,-0.013900000000000023,0.004149999999999987,-0.0004159999999999997,-0.0009707223110000385,0.00022439796429218895,0.004967321196727381
1504280472.98,-1.0,0.44273102089999994,-0.45677414369999997,0.18998423045,-0.06369,0.057898,0.214335,-0.37270173324999994,-4.1655314939,-8.87016395825,-0.041992,0.438703,-2.929504,-0.013900000000000023,0.004149999999999987,-0.00040799999999999864,-0.0010334342712978728,0.0002502297717690283,0.0046869719270672405
1504280472.99,-1.0,0.4464575478999999,-0.47499489939999995,0.0765703232,-0.067994,0.069636,0.243121,-0.3687888799,-4.16586492,-8.8701737649,-0.041553,0.438741,-2.927302,-0.013900000000000023,0.004170000000000007,-0.00039300000000000446,-0.001057593011938529,0.0002819420521145144,0.004408761571191189
1504280473.0,-1.0,0.45676433704999997,-0.42846234515,0.05495646659999999,-0.038074,0.101314,0.284746,-0.37191720125,-4.16061836225,-8.87249794095,-0.041894,0.43815,-2.924309,-0.013900000000000023,0.004170000000000007,-0.00037199999999999733,-0.0010798037181531939,0.0002885804549128679,0.004121797453592646
1504280473.01,-1.0,0.42973720964999995,-0.3623949441,0.19171020084999998,0.017387,0.12533,0.329625,-0.36673929005,-4.1665415788499995,-8.8699384053,-0.041323,0.438817,-2.92116,-0.013800000000000034,0.004180000000000017,-0.0003480000000000011,-0.0010464435077901513,0.00026270498669189735,0.003801652934076305
1504280473.02,-1.0,0.43826899515,-0.30179965375,0.35126439634999995,0.082259,0.122633,0.370298,-0.36315005615,-4.1782016856999995,-8.8646035877,-0.040943,0.440131,-2.917487,-0.027599999999999847,0.008309999999999984,-0.0006609999999999949,-0.0017905980338375205,0.000345258119535119,0.0065095860712972575
1504280473.03,-1.0,0.47527929225,-0.3078307435,0.4872728252,0.128873,0.082827,0.37578,-0.3627479835,-4.1953633232,-8.8565032948,-0.040936,0.442067,-2.913622,-0.013750000000000151,0.00414500000000001,-0.00030450000000000615,-0.000604700326172436,-4.317919036078699e-05,0.0024182760581313856
1504280473.04,-1.0,0.5455439394999999,-0.35352973249999997,0.60190275705,0.141286,0.011376,0.342831,-0.36658238364999995,-4.2155061823,-8.846784904649999,-0.041413,0.444339,-2.910043,-0.013749999999999929,0.004144999999999954,-0.0003044999999999992,-0.0006048028827603247,-4.171739474845282e-05,0.0024183011522649345
1504280473.05,-1.0,0.7335668399499999,-0.46845386385,0.6003042730999999,0.119677,-0.06297,0.277813,-0.3832634953,-4.22583258475,-8.8411460809,-0.043323,0.445506,-2.906686,-0.013700000000000045,0.0041400000000000325,-0.0002710000000000004,-0.0002628939192863555,-0.00023624517620013386,0.001801729732436863
1504280473.06,-1.0,0.82445487215,-0.5845351798999999,0.5825934631999999,0.057726,-0.124177,0.193489,-0.40218052314999997,-4.23169696145,-8.8374980071,-0.045477,0.44617,-2.904268,-0.01364999999999994,0.0041400000000000325,-0.00023250000000000354,0.0001430445177210693,-0.0003711345822108303,0.0011998546266844823
1504280473.07,-1.0,0.8507465007999999,-0.6910157856,0.51366252035,-0.022154,-0.151151,0.121882,-0.42097987119999997,-4.23101049595,-8.8369488347,-0.047603,0.446092,-2.90274,-0.01364999999999994,0.004139999999999977,-0.0002324999999999966,0.0001426005412767939,-0.00037130570621846104,0.001199815528273196
1504280473.08,-1.0,0.86348533915,-0.7862579703999999,0.4183320757,-0.100648,-0.123797,0.07899,-0.42055818525,-4.2388656226,-8.833202694399999,-0.047575,0.44698,-2.90257,-0.013600000000000056,0.004139999999999977,-0.00020900000000000085,0.00037882000743416633,-0.000452507648319056,0.0006290261850007139
1504280473.09,-1.0,0.7717049018,-0.8393315601999999,0.38725480185,-0.180026,-0.054926,0.060585,-0.42978624289999995,-4.2244106205,-8.83968489005,-0.048582,0.445345,-2.901948,-0.006750000000000034,0.0020799999999999708,-0.00010649999999999549,0.0001915642417982255,-0.00024147429218324135,0.00013771678120155784
1504280473.1,-1.0,0.69073139275,-0.8080189267499999,0.38592109745,-0.240175,0.02975,0.062466,-0.43170834629999993,-4.20410104835,-8.849265987099999,-0.048746,0.443052,-2.901396,-0.006750000000000034,0.0020800000000000263,-0.00010650000000000243,0.0001915329409003519,-0.00024150118349219873,0.00013767191423375014
1504280473.11,-1.0,0.5757288082,-0.738440745,0.34868524739999995,-0.274701,0.123793,0.076117,-0.42579493635,-4.179996302649999,-8.86096532055,-0.048015,0.440333,-2.900744,-0.013499999999999845,0.004180000000000017,-0.00022900000000000004,0.00026390660745501116,-0.0004781658216412854,-8.726404526537834e-05
1504280473.12,-1.0,0.4584020476,-0.6979098605499999,0.32562981324999996,-0.290154,0.199575,0.091961,-0.40409281989999996,-4.1675516638,-8.867839782199999,-0.045536,0.438931,-2.900345,-0.0264000000000002,0.008560000000000012,-0.00031499999999999584,6.390097718522725e-06,-0.0007837678451849683,-0.0014025932125851792
1504280473.13,-1.0,0.37829152374999997,-0.63652023155,0.35795253164999996,-0.295255,0.229453,0.092967,-0.38801972054999995,-4.140956029,-8.88101011315,-0.043664,0.435937,-2.899459,-0.006450000000000067,0.0021900000000000253,-4.650000000000487e-05,-0.00014808413873068638,-0.00013245059617905675,-0.0006623722274979871
1504280473.14,-1.0,0.34002597545,-0.5985586894,0.27692018269999996,-0.280206,0.236799,0.082306,-0.37070117664999996,-4.1153214459,-8.893650885,-0.041657,0.433055,-2.898633,-0.006449999999999845,0.0021899999999999697,-4.649999999999793e-05,-0.00014799681858823632,-0.00013254842073084916,-0.000662354822750455
1504280473.15,-1.0,0.34865582745,-0.6289298844499999,0.17122410899999999,-0.24481,0.24293,0.054604,-0.35179395545,-4.0924327248,-8.904977565749999,-0.039485,0.430485,-2.898063,-0.012899999999999912,0.0044199999999999795,-0.0001229999999999981,-0.0004376950648974365,-0.00014599482791388674,-0.0016864208404152592
1504280473.16,-1.0,0.38624471689999995,-0.6447480109,0.2147852483,-0.209404,0.250134,0.031164,-0.32294279115,-4.084999284099999,-8.9094788181,-0.036232,0.429651,-2.898123,-0.012800000000000145,0.0044600000000000195,-0.0001490000000000033,-0.000528075187750332,-4.3437324949158196e-05,-0.0019625425244302885
1504280473.17,-1.0,0.45152758595,-0.71216872965,0.30040710945,-0.179433,0.256291,0.021598,-0.3011426082,-4.06829855915,-8.91788311715,-0.033756,0.427779,-2.897946,-0.012699999999999934,0.004479999999999984,-0.00016599999999999948,-0.0006036588262994247,5.3416329372835136e-05,-0.0022305924292606027
1504280473.18,-1.0,0.5542914713,-0.8492558899999999,0.3513722695,-0.176285,0.256254,0.032278,-0.2792541654,-4.0525686925499995,-8.92574805045,-0.031276,0.426017,-2.897689,-0.012699999999999934,0.004510000000000014,-0.00017500000000000154,-0.0006651649937241544,0.00012742835699364186,-0.002491676593415315
1504280473.19,-1.0,0.621937743,-0.9834500885999999,0.41157529384999997,-0.181825,0.244555,0.054704,-0.2590720797,-4.0362994601999995,-8.93373066355,-0.028991,0.424195,-2.897218,-0.0253000000000001,0.009099999999999997,-0.000336999999999997,-0.0016005208172145124,0.0003031829632791361,-0.00573718686566993
1504280473.2,-1.0,0.7051569749,-1.0864395268999998,0.42393167284999994,-0.19168,0.22864,0.087794,-0.22646496844999997,-4.04103607215,-8.93247541235,-0.025348,0.424726,-2.897083,-0.012599999999999945,0.004579999999999973,-0.0001460000000000003,-0.000968314416500915,7.118712606857258e-05,-0.0032014425449701234
1504280473.21,-1.0,0.79226944685,-1.1848688729499999,0.44552591615,-0.203704,0.210594,0.116625,-0.21167654025,-4.0228251231,-8.9410562311,-0.02367,0.422689,-2.895934,-0.012599999999999945,0.004049999999999998,0.0001429999999999973,-0.001052059672697947,4.2192878162428116e-05,-0.0033092628214073105
1504280473.22,-1.0,0.8207969916999999,-1.22176149025,0.49012656035,-0.207345,0.175426,0.148702,-0.20069309224999998,-4.004035581699999,-8.949735116349999,-0.022421,0.420588,-2.894449,-0.012700000000000156,0.004049999999999998,0.00017000000000000348,-0.0011229512604540304,-9.023810780162123e-06,-0.00345965070050569
1504280473.23,-1.0,0.8530020303,-1.2521719118999999,0.480329717,-0.188772,0.125142,0.194722,-0.19564266749999998,-3.9863345784499997,-8.9577471494,-0.021837,0.418613,-2.892491,-0.012599999999999945,0.004070000000000018,0.0001969999999999958,-0.0012364638187403187,-2.4883384599494462e-05,-0.0035908603666854333
1504280473.24,-1.0,0.7722736874999999,-1.14679945765,0.4021118766,-0.158456,0.069459,0.239691,-0.18106017894999998,-3.9943073849,-8.95450114825,-0.020217,0.419502,-2.890738,-0.006299999999999972,0.002035000000000009,0.00010900000000000493,-0.0006372195709074546,-9.320159057857325e-06,-0.0018669115771905442
1504280473.25,-1.0,0.6672836925999999,-1.04163294305,0.39270729925,-0.115307,0.008342,0.261222,-0.18918989179999998,-3.9824511450499998,-8.9596104129,-0.021113,0.418179,-2.887947,-0.006299999999999972,0.002035000000000009,0.00010899999999999799,-0.0006371985873157016,-1.050900368504415e-05,-0.001866898040275622
1504280473.26,-1.0,0.56942313225,-0.8779501478999999,0.35791330505,-0.05916,-0.039011,0.265672,-0.20220331634999997,-3.9752530639499994,-8.962522987949999,-0.022558,0.417376,-2.885069,-0.02520000000000011,0.00811999999999996,0.0005199999999999996,-0.0020873963790413175,-0.0001531466345487953,-0.00805887925418336
1504280473.27,-1.0,0.5048659553,-0.7122177628999999,0.3107138985999999,0.002521,-0.066156,0.262625,-0.21815873589999998,-3.9735369001999996,-8.96291525395,-0.024336,0.417184,-2.882181,-0.012599999999999945,0.0040400000000000436,0.00031699999999999784,-0.0006017735669703317,-0.00023452914836474825,-0.0043562817803141085
1504280473.28,-1.0,0.3975812043,-0.57075683665,0.35575584204999994,0.061177,-0.077274,0.255268,-0.2266905214,-3.9912477101,-8.9548247677,-0.02531,0.41916,-2.879735,-0.006250000000000089,0.002014999999999989,0.0001835000000000031,-8.701691265633471e-05,-0.0001720763748267462,-0.002297594185663332
1504280473.29,-1.0,0.2882566701,-0.47347486864999994,0.37874262965,0.10274,-0.085072,0.252151,-0.24426403819999998,-3.99904399685,-8.9508824944,-0.027283,0.420031,-2.87694,-0.006249999999999867,0.002014999999999989,0.0001835000000000031,-8.662212831200833e-05,-0.0001722767722966978,-0.002297607207255581
1504280473.3,-1.0,0.19893770189999999,-0.41930293405,0.37103460275,0.11235,-0.086213,0.248968,-0.2619356215,-4.00847799415,-8.94616549575,-0.029271,0.421085,-2.874171,-0.025100000000000122,0.008020000000000027,0.0008809999999999998,0.0006922263456750066,-0.0009630542358103344,-0.009976735042797391
1504280473.31,-1.0,0.1424710112,-0.42782491289999997,0.36040419414999997,0.089077,-0.067895,0.238221,-0.2781950472,-4.016411573999999,-8.9421153493,-0.031101,0.421971,-2.871493,-0.012199999999999989,0.003019999999999967,5.8999999999996555e-05,0.0004729642101537479,-0.0005432759213535032,-0.004929049741941305
1504280473.32,-1.0,0.11011887285,-0.47095455959999993,0.33014087225,0.04354,-0.035534,0.226343,-0.2892373351,-4.032994619149999,-8.93429944925,-0.032363,0.423826,-2.869044,-0.012199999999999989,0.0030200000000000227,8.099999999999774e-05,0.0005187465021596616,-0.0006230306748038483,-0.0050994053993860256
1504280473.33,-1.0,0.0911233918,-0.48939106159999995,0.324403982,-0.00825,0.014994,0.209086,-0.29762202085,-4.0328082927999995,-8.934103316249999,-0.0333,0.423805,-2.8667,-0.0121,0.003039999999999987,8.800000000000474e-05,0.0004965001327634777,-0.0006658247066348988,-0.005260507430365435
1504280473.34,-1.0,0.07931618519999999,-0.51287798835,0.36277740345,-0.052526,0.068661,0.187567,-0.30048556265,-4.028473753499999,-8.93596657975,-0.033614,0.42332,-2.864593,-0.00912500000000005,0.002297500000000008,5.2499999999996994e-05,0.00012764477644733319,-0.0004719653677647262,-0.004156077290905946
1504280473.35,-1.0,0.0821993403,-0.49912906504999993,0.43035502859999997,-0.079873,0.105138,0.167174,-0.2987301723,-4.02142277215,-8.939202774249999,-0.033405,0.422532,-2.862733,-0.00912500000000005,0.002297500000000008,5.250000000000393e-05,0.0001296099562733133,-0.0004714343858012171,-0.004156242539575361
1504280473.36,-1.0,0.08812255689999998,-0.40917266459999996,0.47377887479999997,-0.087184,0.110551,0.149006,-0.29297366874999997,-4.025786731399999,-8.9374277706,-0.032769,0.423019,-2.861187,-0.009124999999999828,0.0022974999999999524,5.2499999999996994e-05,0.00013157194285740026,-0.0004708911201616317,-0.004156373179748263
1504280473.37,-1.0,0.1146397385,-0.3268948711,0.5248715212999999,-0.07118,0.101909,0.135173,-0.2891196553,-4.0185886503,-8.94079145155,-0.032326,0.422215,-2.859703,-0.00912500000000005,0.002297500000000008,5.2499999999996994e-05,0.000133530635309409,-0.00047033559827069915,-0.004156469198437596
1504280473.38,-1.0,0.1700080844,-0.3205009353,0.5314615900999999,-0.046735,0.086795,0.129905,-0.28627572679999996,-4.013459772349999,-8.94318427415,-0.032,0.421641,-2.858286,-0.0242,0.006240000000000023,7.200000000000262e-05,-0.00021693889179053016,-0.001399467954556366,-0.011732692560017077
1504280473.39,-1.0,0.20706741474999998,-0.34590996544999997,0.55938112265,-0.027693,0.061072,0.121444,-0.285177382,-4.0103412576499995,-8.94461604505,-0.031871,0.421293,-2.856948,-0.0121,0.003139999999999976,2.4000000000003185e-05,-0.00011642040891124417,-0.0008207974686993413,-0.006016258690273224
1504280473.4,-1.0,0.26386753155,-0.39539432134999997,0.532697228,-0.02143,0.028019,0.101227,-0.2800190841,-4.0214619987499995,-8.939791173249999,-0.031313,0.422536,-2.85605,-0.0121,0.0031600000000000517,2.1000000000000185e-05,-0.0001260297016900669,-0.000750777364611821,-0.006100401008844014
1504280473.41,-1.0,0.32391364949999996,-0.47720139565,0.4418680357,-0.021545,-0.004983,0.071398,-0.28306895224999995,-4.01926530915,-8.9406835784,-0.03165,0.422291,-2.855181,-0.0121,0.0031699999999999506,2.2999999999995246e-05,-0.00012042082880459049,-0.0007058996042796917,-0.00617866579246007
1504280473.42,-1.0,0.36083568675,-0.49432380654999997,0.37760505824999996,-0.021643,-0.035853,0.041565,-0.2875113647,-4.0170980394999996,-8.94151714365,-0.032143,0.422048,-2.854658,-0.012199999999999989,0.0028000000000000247,-2.5499999999997747e-05,-0.0002471645771238151,-0.000555797280028969,-0.006013982140400276
1504280473.43,-1.0,0.3976204309,-0.51652606215,0.35983540845,-0.024874,-0.054982,0.017043,-0.29287560225,-4.01495038315,-8.94230167565,-0.03274,0.421808,-2.854415,-0.012199999999999989,0.0028000000000000247,-2.5499999999997747e-05,-0.00024382073327577913,-0.0005572731159551036,-0.006014004223413472
1504280473.44,-1.0,0.38449913319999995,-0.5305986049,0.34373288914999994,-0.030134,-0.054914,0.00742,-0.28872738929999997,-4.0267673963999995,-8.937123764449998,-0.032296,0.423129,-2.854751,-0.012299999999999978,0.0024199999999999777,-6.899999999999962e-05,-0.00025588854643632253,-0.0004515956193114068,-0.005855240273272888
1504280473.45,-1.0,0.35790349839999996,-0.562509444,0.28706025879999997,-0.036372,-0.035672,0.01057,-0.28412807045,-4.0379469774,-8.932220439449999,-0.031799,0.42438,-2.85505,-0.012399999999999967,0.0024199999999999777,-5.400000000000543e-05,-0.0002535239819756452,-0.0004882406247908033,-0.005927615150108534
1504280473.46,-1.0,0.3217561865,-0.64379676585,0.21724671745,-0.048853,0.001739,0.011544,-0.2776066482,-4.04884216555,-8.92749363415,-0.031086,0.425599,-2.855286,-0.012399999999999967,0.0024100000000000232,-3.999999999999837e-05,-0.00020425768783094433,-0.0005261625262651393,-0.005995717269593137
1504280473.47,-1.0,0.30502604159999996,-0.7459624455499999,0.1883465199,-0.081554,0.039326,0.002877,-0.26776077159999995,-4.0587566887,-8.92329638795,-0.029998,0.42671,-2.85557,-0.006199999999999983,0.001204999999999956,-1.2499999999998623e-05,-7.441666456808882e-05,-0.00028471052473322267,-0.0030239495651531723
1504280473.48,-1.0,0.31088061164999997,-0.78715037555,0.10627466605,-0.119677,0.056727,-0.020708,-0.2549140601,-4.064993718099999,-8.9208349188,-0.028567,0.427409,-2.856097,-0.006199999999999983,0.0012050000000000116,-1.2499999999998623e-05,-7.355613397530547e-05,-0.0002849368114554718,-0.003023998540911399
1504280473.49,-1.0,0.34390940885,-0.7866600430499999,-0.019848659600000002,-0.144129,0.048443,-0.04636,-0.24050809125,-4.06714137445,-8.92025632645,-0.026955,0.427649,-2.856945,-0.012400000000000189,0.0024100000000000232,-1.0000000000003062e-05,5.138188044684355e-05,-0.0009091057310757211,-0.006658893479723593
1504280473.5,-1.0,0.40842735919999995,-0.8074207211,-0.06373341834999999,-0.149687,0.011209,-0.061247,-0.23619316524999998,-4.0540102701,-8.926346256099999,-0.026454,0.426178,-2.857627,-0.012399999999999967,0.0024199999999999777,-2.9999999999960614e-06,4.113717795317662e-05,-0.0009543289405768984,-0.006672847923738678
1504280473.51,-1.0,0.4596965254,-0.8153935275499999,-0.05694721654999999,-0.139345,-0.035753,-0.070753,-0.2355361197,-4.04138911155,-8.93208314635,-0.026364,0.424766,-2.858428,-0.026399999999999757,0.004510000000000014,-6.300000000000056e-05,-8.454432181648208e-05,-0.0017497888972075604,-0.012588754925471846
1504280473.52,-1.0,0.4699150547,-0.79024927695,-0.11331584074999998,-0.100119,-0.069106,-0.073828,-0.2381250753,-4.03152362165,-8.9364667189,-0.02664,0.423661,-2.859266,-0.014000000000000234,0.0020800000000000263,-6.600000000000356e-05,-7.32916556489549e-05,-0.0007133344853504919,-0.005871768172600933
1504280473.53,-1.0,0.46900303624999995,-0.7336747131,-0.20888164499999998,-0.051068,-0.070569,-0.066279,-0.23092699419999999,-4.0381136904499995,-8.933681630299999,-0.025843,0.424399,-2.860532,-0.006999999999999673,0.0010349999999999526,-3.299999999999831e-05,3.230927311648202e-05,-0.0003165901260084869,-0.0028963636795625858
1504280473.54,-1.0,0.43497396074999994,-0.69163360455,-0.2650933628,-0.01582,-0.057021,-0.052365,-0.23415338204999997,-4.0361621671,-8.934475968949998,-0.026202,0.424181,-2.861149,-0.007000000000000117,0.0010350000000000081,-3.299999999999831e-05,3.322774170255727e-05,-0.00031649411744782974,-0.0028964103428170684
1504280473.55,-1.0,0.3755554683999999,-0.6802480838999999,-0.39822844319999995,0.013064,-0.032775,-0.028875,-0.23638929825,-4.03693689245,-8.9340738963,-0.026454,0.424267,-2.861528,-0.028000000000000025,0.0041300000000000225,-0.0001270000000000021,0.0004343719962704995,-0.0010882947796186926,-0.011412015203344339
1504280473.56,-1.0,0.36563113859999996,-0.6909961722999999,-0.5709431629999999,0.037706,-0.005296,-0.005398,-0.23709537705,-4.0399475339999995,-8.93269115865,-0.026536,0.424604,-2.861636,-0.014100000000000001,0.0020600000000000063,-5.7000000000001494e-05,0.0004628839536215956,-0.0006327106088184209,-0.006185168620180925
1504280473.57,-1.0,0.36165944535,-0.7233875372499999,-0.6805422834,0.044183,0.011696,0.009519,-0.22788693270000002,-4.0518528070999995,-8.9275426674,-0.025521,0.425937,-2.861952,-0.014000000000000234,0.0020600000000000063,-5.1999999999996493e-05,0.0004471568868309461,-0.000601522218876438,-0.006102355902663836
1504280473.58,-1.0,0.40290621525000003,-0.7404118816499999,-0.78920977205,0.025981,0.004385,0.010568,-0.22768099305,-4.0545790558,-8.926307029499998,-0.025502,0.426242,-2.861815,-0.014199999999999768,0.0020600000000000063,-5.000000000000143e-05,0.0004303306549089392,-0.0005558141419745866,-0.006028120196261866
1504280473.59,-1.0,0.47200387115,-0.7320075826,-0.9538830388499999,0.008764,-0.023163,-0.004357,-0.22899508415,-4.05564798065,-8.92578727705,-0.025649,0.426362,-2.861813,-0.0047000000000001485,0.0006966666666666788,-1.7333333333334477e-05,0.00010974157482257496,-0.00017786731898161712,-0.001988252431201154
1504280473.6,-1.0,0.42977643625,-0.643708506,-1.1682269878999998,0.033194,-0.05211,-0.028814,-0.23225089194999998,-4.05790351015,-8.924679125599999,-0.026018,0.426615,-2.862052,-0.004699999999999704,0.0006966666666666232,-1.7333333333334477e-05,0.00011009636885161989,-0.00017764869363467994,-0.0019882869306572237
1504280473.61,-1.0,0.35633443439999996,-0.45890218675,-1.3117080840499997,0.100539,-0.054765,-0.05858,-0.2351242404,-4.065238884349999,-8.9212664114,-0.026349,0.427436,-2.862597,-0.0047000000000001485,0.0006966666666666788,-1.7333333333334477e-05,0.00011045052151215096,-0.00017742901097417274,-0.0019883175587555035
1504280473.62,-1.0,0.19167097425,-0.191818074,-1.3057750607999998,0.203321,-0.026812,-0.085136,-0.23521250024999998,-4.08108643075,-8.91401929705,-0.026381,0.429213,-2.863418,-0.04289999999999994,0.006379999999999997,-0.0006479999999999958,0.0004364926314812667,-0.001600566669846426,-0.017078561248993318
1504280473.63,-1.0,-0.0375594695,0.140235095,-1.25773228245,0.329709,0.031825,-0.08929,-0.23014246219999998,-4.1077310987999995,-8.9019080843,-0.025847,0.432202,-2.86431,-0.007249999999999979,0.0010850000000000026,-0.00026400000000000035,2.2373319234825217e-05,-0.0002488497911594667,-0.002596961678747789
1504280473.64,-1.0,-0.26933964224999996,0.3830281357,-1.1797105750499999,0.436876,0.09168,-0.088143,-0.21967876665,-4.144613909449999,-8.8850602596,-0.024719,0.436349,-2.865162,-0.007249999999999979,0.0010850000000000026,-0.00026400000000000035,2.3020878636703657e-05,-0.000248790830874146,-0.0025970032392694797
1504280473.65,-1.0,-0.46427623095,0.57085490315,-1.01568454715,0.500227,0.138051,-0.094519,-0.20444903919999996,-4.1880475622999995,-8.865035080299998,-0.023059,0.441241,-2.866054,-0.029200000000000337,0.0043400000000000105,-0.0010300000000000031,0.0004765345328601178,-0.001040656647020688,-0.010088981457986312
1504280473.66,-1.0,-0.5162808958999999,0.6715103587499999,-1.0214214374,0.515383,0.160307,-0.107336,-0.19255357274999998,-4.22181185825,-8.84927579375,-0.021756,0.445052,-2.866787,-0.014699999999999935,0.0021700000000000053,-0.0004989999999999994,0.0003893426685350754,-0.0005347199821936766,-0.004882123910550429
1504280473.67,-1.0,-0.5944595096999999,0.77869704325,-1.01823427615,0.488697,0.152013,-0.118042,-0.17393074439999998,-4.2661477228999996,-8.82836801595,-0.019699,0.450068,-2.867953,-0.014699999999999935,0.0021599999999999953,-0.0004909999999999984,0.000374154948981964,-0.0005340408344240988,-0.0048052270092392435
1504280473.68,-1.0,-0.61045415585,0.8373506169,-0.9830185959999999,0.430872,0.123722,-0.121295,-0.15719079285,-4.30579600885,-8.8094117615,-0.017841,0.454562,-2.869203,-0.007400000000000073,0.0010850000000000026,-0.00024350000000000066,0.00024246401587535438,-0.00027729016268662754,-0.002605613328166223
1504280473.69,-1.0,-0.6200352529000001,0.8323688386999999,-0.98814747395,0.368739,0.089074,-0.126678,-0.14311825009999998,-4.3398741176,-8.792916976199999,-0.016275,0.458434,-2.870518,-0.007400000000000073,0.0010850000000000026,-0.00024350000000000066,0.00024319137089712228,-0.0002766589277154452,-0.00260572739337106
1504280473.7,-1.0,-0.6314305802,0.8572973429999999,-0.9042613898499999,0.300057,0.035289,-0.141636,-0.14608966504999998,-4.34565023445,-8.7900142078,-0.016618,0.459091,-2.871332,-0.014799999999999702,0.0021700000000000053,-0.0004879999999999954,0.00041714958984662154,-0.0005620223552034176,-0.005202835228775737
1504280473.71,-1.0,-0.6518676388,0.9288662746999999,-0.771587222,0.239923,-0.024935,-0.160848,-0.1403135482,-4.3682839826499995,-8.778883660049999,-0.015982,0.461667,-2.873017,1.15095,-0.248345,0.0221835,-0.8165158148103644,-0.3597943265111099,0.8982880100431833
1504280473.72,-1.0,-0.6693332824499999,0.9785271502999999,-0.7109232851,0.210807,-0.074759,-0.178956,-0.13841105809999998,-4.3874167567999995,-8.7693614029,-0.015782,0.463847,-2.874914,1.15095,-0.248345,0.0221835,-0.7803290863799711,0.42059561154612846,0.8645500308799567
1504280473.73,-1.0,-0.7560829083499999,1.0016120044,-0.5868495493,0.226753,-0.09937,-0.206638,-0.13814627855,-4.4070692834,-8.7595155263,-0.01577,0.466089,-2.877099,-0.04402105263157895,0.00901078947368421,-0.0011057894736842106,0.02230665104737084,-0.031298263977799445,-0.02922128951581593
1504280473.74,-1.0,-0.81525623445,1.03278734475,-0.31946143039999997,0.274864,-0.098703,-0.235357,-0.15977974844999998,-4.403980188649999,-8.76070213095,-0.018237,0.465736,-2.878444,-0.04402105263157895,0.00901078947368421,-0.0011057894736842106,0.023942425650107846,-0.031513542674731276,-0.030846699441515746
1504280473.75,-1.0,-0.8667901801999999,1.1303929322,-0.09993957015,0.322154,-0.068169,-0.25561,-0.15538636925000002,-4.4317035881999995,-8.7467864946,-0.017763,0.468903,-2.881198,-0.04402105263157893,0.009010789473684212,-0.0011057894736842106,0.025692877243486123,-0.031616301532308544,-0.032586645457916674
1504280473.76,-1.0,-0.9197558968499999,1.182485857,0.12655481824999998,0.340622,-0.03421,-0.267379,-0.1474527894,-4.4617903904,-8.73161560705,-0.016886,0.472346,-2.88411,-0.04402105263157896,0.009010789473684208,-0.0011057894736842106,0.02756116811777376,-0.03158849553560783,-0.034444291282241135
1504280473.77,-1.0,-0.9127147221499999,1.2058452973,0.27024185405,0.308941,-0.001966,-0.281367,-0.13593978229999998,-4.49008257565,-8.71727828475,-0.015593,0.475588,-2.887173,-0.04402105263157896,0.009010789473684208,-0.001105789473684211,0.02954845558110608,-0.03141081582731453,-0.0364207956616549
1504280473.78,-1.0,-0.7783440038499999,1.1195860039,0.30066208234999997,0.240964,0.028427,-0.300738,-0.13863661105,-4.49600579225,-8.714189189999999,-0.015907,0.476267,-2.889524,-0.044021052631578905,0.009010789473684215,-0.0011057894736842102,0.03165311679016103,-0.031062954265447473,-0.038514537203492516
1504280473.79,-1.0,-0.6006180859,0.9688676000499999,0.31385202659999994,0.150517,0.044115,-0.324405,-0.12063160164999999,-4.51153952585,-8.7064223232,-0.013855,0.47805,-2.893083,-0.04402105263157896,0.009010789473684208,-0.0011057894736842102,0.033869819860500305,-0.030524007642972473,-0.040720185485146665
1504280473.8,-1.0,-0.46891477639999996,0.8495402828499999,0.39239348645,0.067421,0.04376,-0.350166,-0.10120462799999999,-4.5195515589,-8.7025192765,-0.011629,0.478971,-2.896945,-0.04402105263157896,0.009010789473684208,-0.001105789473684211,0.03618845456522679,-0.029773052101831343,-0.04302763175227731
1504280473.81,-1.0,-0.36827893409999995,0.775706015,0.50311056495,-0.005105,0.033724,-0.371622,-0.08138538835,-4.52083623005,-8.70205836395,-0.009352,0.479119,-2.901074,-0.04402105263157896,0.009010789473684208,-0.001105789473684211,0.03859296477845564,-0.028789916189021714,-0.04542082136183079
1504280473.82,-1.0,-0.33543646325,0.6744131271499999,0.65648657095,-0.06385,0.010781,-0.398362,-0.07052942679999999,-4.50977432885,-8.7078933207,-0.0081,0.477847,-2.90506,-0.04402105263157896,0.009010789473684208,-0.001105789473684211,0.04106016620035646,-0.027556173169181797,-0.047876571506634935
1504280473.83,-1.0,-0.27645927015,0.61835831575,0.81788441665,-0.103551,-0.027236,-0.414374,-0.053485469099999995,-4.501752489149999,-8.712159213449999,-0.006139,0.476926,-2.909713,-0.044021052631578905,0.009010789473684208,-0.0011057894736842093,0.043558686262300306,-0.026056356948344073,-0.05036351112009685
1504280473.84,-1.0,-0.2072341278,0.5700507578499999,0.88784505775,-0.136906,-0.064254,-0.417569,-0.039520799499999995,-4.49071020125,-8.7179353303,-0.004533,0.475659,-2.914423,-0.044021052631578905,0.009010789473684222,-0.001105789473684211,0.04604822336446607,-0.02427937871037278,-0.05284134011336006
1504280473.85,-1.0,-0.18668919604999998,0.47888813944999997,0.90037795645,-0.172357,-0.095928,-0.41971,-0.0283412185,-4.476598431899999,-8.7252314779,-0.003248,0.474042,-2.919147,-0.04402105263157896,0.009010789473684208,-0.001105789473684211,0.04847937769323696,-0.022220081736719077,-0.05526066019225828
1504280473.86,-1.0,-0.2007028989,0.43911236704999995,0.8586898873,-0.202526,-0.134039,-0.421829,-0.020309572149999996,-4.459574087499999,-8.73396920305,-0.002325,0.472092,-2.923896,-0.04402105263157896,0.009010789473684208,-0.0011057894736842093,0.05079433534660821,-0.019880821318100317,-0.057563658982274446
1504280473.87,-1.0,-0.25497289999999995,0.42432393884999997,0.6938008742,-0.204906,-0.164922,-0.421779,-0.015268954049999998,-4.44163772465,-8.74310900085,-0.001746,0.470039,-2.928644,-0.04402105263157896,0.009010789473684194,-0.0011057894736842128,0.052928664107119716,-0.017272901380614547,-0.05968590580103317
1504280473.88,-1.0,-0.35555970904999995,0.36040419414999997,0.5702566975,-0.185911,-0.186398,-0.414236,-0.012552512,-4.42500564625,-8.751542719849999,-0.001434,0.468138,-2.933319,-0.04402105263157896,0.009010789473684222,-0.0011057894736842093,0.05481437589183874,-0.014417651770114226,-0.06155941410783994
1504280473.89,-1.0,-0.47906465914999996,0.31876515824999996,0.5428863373499999,-0.190365,-0.202357,-0.402475,-0.012042566199999999,-4.4086579607,-8.7597901125,-0.001375,0.466271,-2.937863,-0.04402105263157896,0.009010789473684222,-0.0011057894736842093,0.056384214161631974,-0.011346907915237292,-0.06311692891251686
1504280473.9,-1.0,-0.5426803977,0.2979456403,0.43906333379999996,-0.219359,-0.218129,-0.390746,-0.025193283849999998,-4.3885935548,-8.7698321221,-0.002873,0.463981,-2.941682,-0.04402105263157896,0.009010789473684194,-0.0011057894736842128,0.057576851010085084,-0.008102677162540761,-0.0642971238638812
1504280473.91,-1.0,-0.5534284861,0.23878212084999997,0.21422626925,-0.268457,-0.214537,-0.381231,-0.02745862,-4.36624419945,-8.78098228315,-0.003127,0.461434,-2.945984,-0.04402105263157896,0.009010789473684222,-0.0011057894736842093,0.05834238624504662,-0.004735856538393923,-0.0650501003308569
1504280473.92,-1.0,-0.53160868985,0.1758920744,0.0338133292,-0.317398,-0.193893,-0.376015,-0.028635417999999996,-4.3395504981499995,-8.7941918407,-0.003256,0.458397,-2.950212,-0.04402105263157896,0.009010789473684194,-0.0011057894736842128,0.05864732276872242,-0.001304002606870469,-0.06534236278214
1504280473.93,-1.0,-0.51517274445,0.17564690814999998,-0.0753346853,-0.340708,-0.159625,-0.3537,-0.02786069265,-4.309826542,-8.808803749199999,-0.003163,0.45502,-2.954239,-0.04402105263157885,0.009010789473684222,-0.0011057894736842093,0.058478147091481913,0.0021316783975486864,-0.06516039929956907
1504280473.94,-1.0,-0.4963930097,0.19271047914999997,-0.12918300045,-0.307481,-0.118392,-0.320615,-0.0394619596,-4.274973707899999,-8.8257300271,-0.004471,0.451066,-2.957214,-0.04402105263157896,0.009010789473684194,-0.0011057894736842093,0.05784282692213605,0.0055097952104263825,-0.0645121791679843
1504280473.95,-1.0,-0.52823520225,0.21079394175,-0.11259995529999998,-0.212325,-0.070197,-0.283176,-0.03425462845,-4.2539972835499995,-8.835879909849998,-0.003877,0.448692,-2.960485,-0.04402105263157907,0.009010789473684222,-0.0011057894736842128,0.05676992437504813,0.008772267129253164,-0.06342626608191038
1504280473.96,-1.0,-0.5368552476,0.2822942269,-0.0011277647499999999,-0.082019,-0.023368,-0.236067,-0.026683894649999998,-4.243798367549999,-8.840802848149998,-0.003018,0.447538,-2.963259,-0.04402105263157874,0.009010789473684222,-0.0011057894736842093,0.05530550423862124,0.011867418398429752,-0.06194872641362642
1504280473.97,-1.0,-0.50409122995,0.33691726739999994,0.15131660949999998,0.040781,0.016069,-0.193228,-0.0173969971,-4.24485748575,-8.840322322299999,-0.001968,0.447657,-2.965517,-0.04402105263157896,0.009010789473684194,-0.0011057894736842093,0.05350844116823006,0.014752324584530019,-0.06013843640568228
1504280473.98,-1.0,-0.46178534185,0.25906227304999996,0.29007090035,0.101621,0.032579,-0.172859,-0.021849216199999997,-4.2500452036,-8.837811819899999,-0.002472,0.448245,-2.966758,-0.04402105263157896,0.009010789473684222,-0.0011057894736842128,0.05144497190538799,0.017394215281501424,-0.05806163438965206
1504280473.99,-1.0,-0.31878477155,0.12076889475,0.35394161179999994,0.09721,0.011309,-0.178166,-0.0128074849,-4.2591457747999995,-8.83344786065,-0.00145,0.449275,-2.968693,-0.04402105263157896,0.009010789473684194,-0.0011057894736842093,0.04918335007169983,0.01977090821528571,-0.05578657557968064
1504280474.0,-1.0,-0.13694986725,-0.0340486888,0.26320067934999997,0.06182,-0.024608,-0.199512,-0.005952636549999999,-4.2654808707,-8.8303979925,-0.000674,0.449992,-2.970838,-0.04402105263157896,0.009010789473684222,-0.0011057894736842093,0.046789279384002125,0.021870395119069297,-0.05337896528721525
1504280474.01,-1.0,-0.007904159899999999,-0.16156455875,0.15859314379999997,0.023222,-0.056245,-0.212332,-0.00122583125,-4.2683051859,-8.829044674799999,-0.000139,0.450311,-2.973181,-0.04402105263157896,0.009010789473684222,-0.0011057894736842128,0.044322518199426675,0.0236897913687113,-0.050898563465673785
1504280474.02,-1.0,0.035362779899999995,-0.22528817045,0.22926967034999998,-0.004711,-0.080525,-0.209136,0.00234378935,-4.2771605908499994,-8.824759168749999,0.000265,0.451314,-2.975595,-0.04402105263157896,0.009010789473684166,-0.0011057894736842128,0.04183476252812923,0.025233893034720678,-0.04839706772277397
1504280474.03,-1.0,0.024124358999999998,-0.2490692967,0.29808293339999997,-0.01437,-0.076202,-0.191015,0.0037069137,-4.2759739862,-8.82532795445,0.00042,0.451181,-2.977773,-0.04402105263157896,0.009010789473684222,-0.0011057894736842058,0.039368694731970244,0.026513567870302124,-0.045917162018824564
1504280474.04,-1.0,-0.07960057804999998,-0.22306206089999997,0.32927788705,-0.010995,-0.043215,-0.172921,0.00658026215,-4.2748952547,-8.8258477069,0.000746,0.451058,-2.979743,-0.04402105263157896,0.009010789473684222,-0.0011057894736842128,0.03695795785951117,0.02754416015244021,-0.04349249100133179
1504280474.05,-1.0,-0.16653653029999999,-0.18870936594999999,0.40418107975,-0.01498,0.001558,-0.158063,0.012552512,-4.27378710325,-8.826377266,0.001422,0.450932,-2.981542,-0.04402105263157896,0.009010789473684222,-0.0011057894736842128,0.03462777370623216,0.028344032259932428,-0.04114827806483856
1504280474.06,-1.0,-0.18410024045,-0.18549278475,0.44404511199999996,-0.047704,0.048697,-0.148591,0.016504591949999998,-4.28104402425,-8.822856678649998,0.00187,0.451754,-2.982923,-0.04402105263157896,0.009010789473684222,-0.0011057894736842058,0.03239594119407929,0.02893331223642548,-0.03890232373009095
1504280474.07,-1.0,-0.17008653759999998,-0.20418425964999998,0.41620403264999994,-0.100813,0.081098,-0.144471,0.0291257505,-4.27327715745,-8.82658320565,0.0033,0.450875,-2.984538,-0.04402105263157896,0.009010789473684166,-0.0011057894736842128,0.030274002397726596,0.02933287376708571,-0.036766171669929126
1504280474.08,-1.0,-0.11688546135,-0.21493234804999997,0.28214712715,-0.15071,0.115603,-0.139281,0.04445354444999999,-4.261028651599999,-8.832437775699999,0.005033,0.449488,-2.986098,-0.04402105263157896,0.009010789473684222,-0.0011057894736842128,0.02826842394594231,0.029563545152240245,-0.03474629011028474
1504280474.09,-1.0,-0.06341960555,-0.21707019774999997,0.21302985794999998,-0.180517,0.133947,-0.123354,0.061468082199999996,-4.245563564549999,-8.83978295655,0.006954,0.447738,-2.987509,-0.04402105263157896,0.009010789473684222,-0.0011057894736842058,0.02638169741381491,0.029645525861719868,-0.032845172222044416
