Time,placement_label,user_acc_x(m/s^2),user_acc_y(m/s^2),user_acc_z(m/s^2),rotation_rate_x(rad/s),rotation_rate_y(rad/s),rotation_rate_z(rad/s),gravity_x(m/s^2),gravity_y(m/s^2),gravity_z(m/s^2),attitude_roll(rad),attitude_pitch(rad),attitude_yaw(rad),target_delta_x,target_delta_y,target_delta_z,target_delta_roll,target_delta_pitch,target_delta_yaw
1504281071.49,-1.0,-0.080610663,-0.025467870049999997,0.039197180049999995,0.016543,0.018989,-0.003876,1.2477785326999997,-9.501663185,2.08131436275,2.60153,1.320745,1.448083,0.0,0.0,0.0,0.0,0.0,0.0
1504281071.5,-1.0,-0.08450390305,-0.031322440099999994,0.04726805299999999,0.02615,0.022102,0.000406,1.2458466226499998,-9.501192465799999,2.0846192038,2.602912,1.320552,1.446934,0.0019899999999999918,-0.0037000000000000366,0.0008400000000000074,0.00023192971624474978,9.723320272692071e-05,0.000146962575989118
1504281071.51,-1.0,-0.0654299688,-0.0317539327,0.041129090099999994,0.030407,0.022065,0.002549,1.2439735524999997,-9.50061387345,2.0883653441,2.604362,1.320314,1.445706,0.0020000000000000018,-0.0037000000000000366,0.0008499999999999897,0.00010754612454300094,0.00013107492476316374,0.00016326552112866377
1504281071.52,-1.0,-0.026272015349999997,-0.0210254576,0.015406247149999998,0.021954,0.029599,-0.001748,1.2429732742,-9.50012354095,2.09119946595,2.605312,1.320111,1.445018,0.0020399999999999863,-0.0037999999999998035,0.0005400000000000127,2.7928365480045514e-05,0.00017043233192115537,0.00019569628817894813
1504281071.53,-1.0,0.006080123,0.01081673495,0.008012033049999999,0.010284,0.033964,-0.00818,1.24294385425,-9.4997803082,2.0927587233,2.60565,1.319972,1.445003,0.0020499999999999963,-0.0038000000000000256,0.0005399999999999849,4.9393338404701836e-05,0.00020555225927876286,0.00019132186300840903
1504281071.54,-1.0,0.031646059549999994,0.01475900825,0.0078060934,0.00174,0.030841,-0.011392,1.24386567935,-9.4993880422,2.0940041678499997,2.605586,1.319809,1.445393,0.0020700000000000163,-0.0037000000000000366,0.0005300000000000027,3.745138721411578e-05,0.00023156997542295166,0.000247292126493992
1504281071.55,-1.0,0.040020938650000004,-0.007453054,0.019417167,0.006,0.031868,-0.008185,1.2447678911499998,-9.499025196149999,2.0951123193,2.605503,1.319661,1.445808,0.0020700000000000163,-0.0038000000000000256,0.0005199999999999927,6.99128887817757e-05,0.0002026759161768421,0.0002689656214127645
1504281071.56,-1.0,0.056692243649999995,-0.0269879008,0.030253515249999998,0.013435,0.029672,-0.004967,1.2456014563999998,-9.49849563705,2.0969951961,2.605603,1.319445,1.445997,0.0020799999999999708,-0.0038000000000000256,0.0005200000000000204,3.414967302362015e-05,0.00016970545267991355,0.00022005409656966624
1504281071.57,-1.0,0.06712651925,-0.032577691299999996,0.0327345977,0.019781,0.025353,-0.000679,1.24623888865,-9.497838591499999,2.09959395835,2.605921,1.319175,1.445907,0.0020800000000000263,-0.0039000000000000146,0.0005300000000000027,3.639600776761398e-06,0.00010722006173136123,0.00025382821446862103
1504281071.58,-1.0,0.05600577815,-0.033244543499999994,0.0430119669,0.020776,0.018946,0.003603,1.2464350216499998,-9.497171739299999,2.10249672675,2.606457,1.318902,1.445544,0.0020899999999999808,-0.0038000000000000256,0.0005300000000000027,-3.3585775918165695e-05,0.0001004105211048767,0.00023861358745436156
1504281071.59,-1.0,0.04350229939999999,-0.05000410835,0.0224376152,0.017579,0.020037,0.004662,1.2462192753499999,-9.496720633399999,2.1046541897499997,2.606984,1.318718,1.445201,0.0020900000000000363,-0.0038000000000000256,0.0005299999999999749,-4.089113091465535e-05,5.75951074444081e-05,0.0002491559784254527
1504281071.6,-1.0,0.0349705139,-0.07395194764999999,-0.0038049802,0.01008,0.016901,0.005722,1.2457779761,-9.49657353365,2.10561524145,2.607339,1.318655,1.445005,0.0021100000000000008,-0.0039000000000000146,0.0005300000000000027,-1.604677395450338e-05,5.588986369264859e-05,0.00022008425965203138
1504281071.61,-1.0,0.05277939029999999,-0.07616825055,-0.028439284999999995,0.013299,0.017942,0.00359,1.2457779761,-9.4964460472,2.1061644138499998,2.607452,1.318606,1.445053,0.0021100000000000008,-0.0037999999999998035,0.0005400000000000127,-1.6034413507171053e-05,5.589328842203756e-05,0.00022008260997585793
1504281071.62,-1.0,0.07248095015,-0.0491509298,-0.019024901,0.002635,0.018031,0.002503,1.24627811525,-9.49637740065,2.1061742205,2.607278,1.318578,1.445387,0.0023599999999999732,-0.0037000000000000366,0.0006499999999999839,-2.3398190777790262e-05,8.786855537290528e-05,0.0001972138282445579
1504281071.63,-1.0,0.09040750634999999,-0.0403053315,-0.0091986377,0.008996,0.011587,0.000389,1.24735684675,-9.496093007799999,2.10681165275,2.607035,1.318462,1.445738,0.0023500000000000187,-0.0037000000000000366,0.0006500000000000117,-3.612056546975495e-06,4.566434218822302e-05,0.00014672667020465546
1504281071.64,-1.0,0.0835722713,-0.018867994599999997,-0.012297539099999998,0.008951,0.007322,0.00253,1.2483571250499998,-9.4958380349,2.1073706318,2.606798,1.318358,1.446034,0.0023699999999999832,-0.0037000000000000366,0.0006599999999999939,3.783222931819097e-05,5.664066468091811e-05,0.0001044884800438517
1504281071.65,-1.0,0.07418730724999999,-0.01573967325,-0.0112776475,0.012103,0.001967,0.003612,1.2492103036,-9.495524222099998,2.10830226355,2.606693,1.318228,1.446149,0.0023900000000000032,-0.0037000000000000366,0.0006599999999999939,3.744312973452679e-05,4.833651825042473e-05,3.384223128177766e-05
1504281071.66,-1.0,0.0826896728,-0.0225160684,-0.023830159499999996,0.014225,-0.000181,0.002551,1.25027922845,-9.495180989349999,2.1091848620499998,2.6065,1.31809,1.44633,0.0024000000000000132,-0.0036000000000000476,0.0006500000000000117,0.00012516818446450806,6.48419989417448e-05,3.6448878683037478e-06
1504281071.67,-1.0,0.07854145985,-0.008649465299999999,-0.0245558516,0.014221,-0.001246,0.001484,1.25143641315,-9.494837756599999,2.1100576538999998,2.606274,1.317949,1.446509,0.0024199999999999777,-0.0036999999999998145,0.0006599999999999939,0.00014290007634043533,7.71585949257414e-05,-7.193686573647717e-06
1504281071.68,-1.0,0.05745716234999999,-0.013964669599999998,-0.0291061372,0.010998,-0.003352,0.002549,1.25231901165,-9.494612203649998,2.1105675997,2.606072,1.317855,1.446655,0.0024399999999999977,-0.0037000000000000366,0.0006500000000000117,0.00014560483683689895,9.218330340754477e-05,-1.9964321093635107e-05
1504281071.69,-1.0,0.038648007649999996,-0.017671583299999998,-0.01687724465,0.00354,-0.003288,0.0004,1.25286818405,-9.49449452385,2.1107637327,2.605919,1.317808,1.446759,0.0024500000000000077,-0.0037000000000000366,0.0006400000000000017,0.00012322857533053622,5.206591405282346e-05,-1.1356582005572768e-05
1504281071.7,-1.0,0.024016485849999998,-0.0009120184499999999,-0.0073353742,0.005701,-0.001172,-0.001735,1.25343696975,-9.494347424099999,2.1110971588,2.605789,1.317747,1.44686,0.0024600000000000177,-0.0037000000000000366,0.0006499999999999839,0.00015838177113147722,9.025254440198083e-05,-2.2645293266565503e-05
1504281071.71,-1.0,0.01879934805,0.0014611908499999999,0.00128467115,0.013166,-0.002298,-0.002787,1.2540155620999998,-9.49402380465,2.1121955035999997,2.605818,1.317616,1.446805,0.0024699999999999722,-0.0037000000000000366,0.0006400000000000017,0.00013825616848972544,4.936617767592466e-05,-9.40308779062704e-06
1504281071.72,-1.0,-0.00581534345,-0.01515127425,-0.01701453775,0.017411,-0.004466,-0.001709,1.2542411150500001,-9.493719798499999,2.11344094815,2.605996,1.317492,1.446579,0.0024100000000000232,-0.0038000000000000256,0.0007800000000000029,0.0001564395229309845,7.748567506626891e-05,-3.76534052426436e-05
1504281071.73,-1.0,-0.0245558516,-0.03035158175,-0.038638201,0.020594,-0.006623,-0.001699,1.25412343525,-9.4934844389,2.11455890625,2.606269,1.317397,1.446235,0.0024299999999999877,-0.0038000000000000256,0.0007900000000000129,0.0001286260261781358,8.212918494909793e-05,-3.687616172176611e-05
1504281071.74,-1.0,-0.014915914649999999,-0.05320107625,-0.0338329425,0.021638,-0.008764,-0.000626,1.2540645953499998,-9.493229465999999,2.1157455108999996,2.606536,1.317292,1.445872,0.0024299999999999877,-0.0037999999999998035,0.0007800000000000029,7.223987820048627e-05,8.915057479730315e-05,-7.52845781060163e-06
1504281071.75,-1.0,-0.005187717849999999,-0.06610662764999999,0.0024810824500000003,0.025927,-0.006667,-0.001689,1.2540645953499998,-9.49274894015,2.1178833605999996,2.60698,1.317098,1.445336,0.0024399999999999977,-0.0038000000000000256,0.0007899999999999852,6.022687494611212e-05,9.334809414940359e-05,-3.2630310170200794e-05
1504281071.76,-1.0,0.0132389775,-0.05531931265,0.04201168859999999,0.025935,-0.007729,-0.00489,1.2546431877,-9.4920134414,2.1208449689,2.60739,1.316799,1.444832,0.0024399999999999977,-0.0038000000000000256,0.0007999999999999952,7.029860621843298e-05,7.638349771754704e-05,-2.2551282586213972e-05
1504281071.77,-1.0,0.0415409694,-0.05484859345,0.059457718949999995,0.025943,-0.008791,-0.00809,1.2561141852,-9.491130842899999,2.1239046437,2.607508,1.316442,1.444611,0.0024500000000000077,-0.0037000000000000366,0.0007900000000000129,7.843135969043402e-05,4.6647440620439795e-05,-2.7508194836545208e-05
1504281071.78,-1.0,0.07439324689999999,-0.055407572499999995,0.057192382800000004,0.006722,-0.012892,-0.01132,1.2584285545999998,-9.4904247641,2.12571887395,2.607075,1.316154,1.444931,0.0024299999999999877,-0.0038000000000000256,0.0007999999999999952,7.025951776062911e-05,-1.2666714853448724e-05,-0.00015830468862676472
1504281071.79,-1.0,0.11469857839999999,-0.04754263919999999,0.027831272699999996,-0.000815,-0.023483,-0.014518,1.2619687552499999,-9.48990501165,2.1259052003,2.605883,1.315947,1.445908,0.0024300000000000432,-0.0037000000000000366,0.0008100000000000052,-0.00010376504527020991,-7.521466832982604e-05,-0.0002603435864340087
1504281071.8,-1.0,0.156121868,-0.024114552349999995,-0.0324992381,0.00011,-0.040542,-0.013421,1.26663672065,-9.48955197225,2.1247382089499998,2.604018,1.315802,1.447403,0.0024299999999999877,-0.0037000000000000366,0.0007999999999999952,-0.00022562949404547616,-0.00016906785754589038,-0.0004370053807215557
1504281071.81,-1.0,0.17886348934999996,-0.0034127142,-0.0718435179,0.010585,-0.061945,-0.009098,1.27187347175,-9.4891498996,2.1233750845999997,2.601917,1.315642,1.448913,0.0024299999999999877,-0.0035999999999998256,0.0007999999999999952,-0.0005359058303653352,-0.00019372605912493235,-0.0005479063482519697
1504281071.82,-1.0,0.15089492354999998,0.0107480884,-0.09848818594999999,0.027443,-0.084469,-0.002627,1.2766395036499998,-9.4886399538,2.1227866856,2.600145,1.315436,1.44984,0.0024899999999999922,-0.0036000000000000476,0.0008500000000000174,-0.0008084232999283625,-0.0001851935167567209,-0.0006203639526461968
1504281071.83,-1.0,0.09714467489999999,0.0018828768,-0.12598603255,0.037989,-0.096284,0.002748,1.2802679641499999,-9.48815942795,2.122747459,2.598884,1.315242,1.450091,0.0025100000000000122,-0.0035000000000000586,0.0008499999999999897,-0.000981038806763035,-9.979399794524113e-05,-0.0006131004332192713
1504281071.84,-1.0,0.02774301285,-0.025428643449999996,-0.10068487555,0.04326,-0.102723,0.004902,1.28248426705,-9.48762986885,2.1237869638999998,2.598334,1.315027,1.449573,0.0025499999999999967,-0.0035000000000000586,0.0008499999999999897,-0.0009788407223272344,-4.458461824619064e-06,-0.0005608490758066687
1504281071.85,-1.0,-0.0548780134,-0.04115851005,-0.09078015904999999,0.043293,-0.098461,0.004896,1.28324918575,-9.4871689563,2.1253952545,2.598406,1.314841,1.448463,0.0025800000000000267,-0.0035999999999998256,0.0008500000000000174,-0.0008117069890754003,5.0631716755233924e-05,-0.0005282897688788646
1504281071.86,-1.0,-0.12455426165,-0.05900661305,-0.07413827399999999,0.042322,-0.085667,0.005941,1.2824450404499999,-9.486982629949999,2.1267191522499997,2.598957,1.314765,1.446989,0.002599999999999991,-0.0035000000000000586,0.0008599999999999997,-0.0004735512165647826,9.047357589042626e-05,-0.0004807096386040266
1504281071.87,-1.0,-0.16961581839999998,-0.06957818175,-0.04610106165,0.041393,-0.069673,0.003779,1.2806798434499997,-9.48672765705,2.1289060352,2.600022,1.314664,1.445172,0.0026199999999999557,-0.0037000000000000366,0.0008699999999999819,-0.0001012657129262351,8.348250579603977e-05,-0.0004537354039702013
1504281071.88,-1.0,-0.17727481204999998,-0.08823043004999999,-0.027958759149999995,0.038338,-0.052595,0.001612,1.2786106403,-9.48647268415,2.13126943785,2.601226,1.314563,1.443408,0.002630000000000021,-0.0037000000000000366,0.0008700000000000097,0.00025998064083188055,8.30600451817709e-06,-0.00044611771156755076
1504281071.89,-1.0,-0.1621235378,-0.09925310464999999,-0.013886216399999998,0.034229,-0.033379,0.000506,1.27648259725,-9.4862275179,2.1336524538,2.602453,1.314463,1.441804,0.002620000000000011,-0.0037000000000000366,0.0008700000000000097,0.0004891806366362772,-9.151540750718112e-05,-0.00039441879124957335
1504281071.9,-1.0,-0.1375088463,-0.10423488284999999,-0.00410898635,0.027896,-0.024801,0.000482,1.2744624273499998,-9.48604119155,2.13570204365,2.603573,1.314387,1.44042,0.002630000000000021,-0.0036999999999998145,0.0008900000000000019,0.0005963623738569623,-0.00012898462610411165,-0.00032902922439725923
1504281071.91,-1.0,-0.11451225204999999,-0.09493817865,-0.0034127142,0.023677,-0.017309,0.002598,1.2725501305999998,-9.4859137051,2.13738878745,2.604579,1.314336,1.439234,0.0026399999999999757,-0.0038000000000000256,0.0008799999999999919,0.000563200845697498,-0.00016168999954779828,-0.0002147018448585003
1504281071.92,-1.0,-0.09874315885,-0.0964778227,-0.0041972462,0.01941,-0.015146,0.005791,1.27055938065,-9.485864671849999,2.13878133175,2.605553,1.314318,1.438096,0.00269999999999998,-0.0038000000000000256,0.0008199999999999874,0.00044215532142488634,-0.00011811051949184304,-0.00015120429799275747
1504281071.93,-1.0,-0.08684769239999998,-0.09788017365,-0.02115294405,0.016232,-0.010859,0.007914,1.2685294041,-9.48596273835,2.1395756703999997,2.606417,1.314355,1.437103,0.00270999999999999,-0.0037000000000000366,0.0008100000000000052,0.00025196901741320055,-3.6496839797894864e-05,-6.251842143234487e-05
1504281071.94,-1.0,-0.09207463684999999,-0.09351621439999999,-0.007286340949999999,0.018391,-0.00768,0.007914,1.2662836812499998,-9.48598235165,2.14082111495,2.607452,1.314363,1.435983,0.0027100000000000457,-0.0038000000000000256,0.0008200000000000152,0.00011998425778125821,2.1647390504364594e-05,1.875836268394604e-05
1504281071.95,-1.0,-0.10356803064999999,-0.06398839125,0.00514849125,0.022741,0.001876,0.006839,1.2637045323,-9.48588428515,2.1427530249999998,2.608738,1.314326,1.434699,0.00270999999999999,-0.0037000000000000366,0.0008299999999999974,3.464233683914131e-05,4.438845498122568e-05,8.71809689368952e-05
1504281071.96,-1.0,-0.11234498239999999,-0.040795663999999995,0.01422944915,0.028159,0.01036,0.003633,1.2611155766999997,-9.485580278999999,2.1456361801,2.610225,1.314202,1.433294,0.00269999999999998,-0.0037000000000000366,0.0008299999999999974,5.6311816893916955e-06,3.092010921479371e-05,0.00013312072466442615
1504281071.97,-1.0,-0.1033424777,-0.025252123749999997,0.00383440015,0.033608,0.022042,-0.000647,1.2588404339,-9.48511936645,2.14899986105,2.611695,1.314017,1.432005,0.00270999999999999,-0.0038000000000000256,0.0008400000000000074,-3.831498657680399e-06,1.2000582490623302e-05,0.00020517904785744
1504281071.98,-1.0,-0.08904438199999999,-0.0034127142,-0.0036873003999999994,0.033731,0.032705,-0.008136,1.2572713698999998,-9.484501547499999,2.15262832155,2.612976,1.313771,1.431027,0.0027000000000000357,-0.0036999999999998145,0.0008399999999999797,7.4422138198748655e-06,5.640571507203873e-06,0.0002581716410130497
1504281071.99,-1.0,-0.061468082199999996,0.00212804305,0.0106892485,0.030628,0.042325,-0.012427,1.2564770312499998,-9.483766048749999,2.1563646552,2.614005,1.313473,1.430394,0.00272,-0.0038000000000000256,0.0008299999999999974,5.488368852812897e-05,3.7166704028868125e-05,0.0003021109181138293
1504281072.0,-1.0,-0.0098851032,0.01732835055,0.0104342756,0.025316,0.042374,-0.016706,1.25696736375,-9.482961903449999,2.15961065635,2.61449,1.313151,1.430338,0.00273000000000001,-0.0037000000000000366,0.0008299999999999974,7.372972027996916e-05,6.006405006919735e-05,0.00033406790426837585
1504281072.01,-1.0,0.03301899055,0.00367749375,0.0141608026,0.026354,0.038104,-0.017764,1.2583501014,-9.482020465049999,2.1629154973999998,2.614675,1.312776,1.430548,0.0027499999999999747,-0.0038000000000000256,0.0008400000000000074,9.144601532429242e-05,7.239450969520611e-05,0.0003231812062157724
1504281072.02,-1.0,0.0634097989,-0.01411176935,0.017377383799999997,0.016685,0.031786,-0.014568,1.2601349117,-9.481284966299999,2.1650925737,2.614494,1.312483,1.431059,0.00269999999999998,-0.0038000000000000256,-0.00026999999999999247,9.223120551515862e-05,7.460107773726854e-05,0.00029536718310740895
1504281072.03,-1.0,0.07325567549999999,-0.030204481999999998,0.013258590799999997,0.025095,0.019989,-0.00813,1.26181184885,-9.48047101435,2.16771094925,2.614442,1.312156,1.431328,0.00272,-0.0038000000000000256,-0.0002600000000000102,3.065046437011887e-05,0.00010047628409282083,0.00028085905382990717
1504281072.04,-1.0,0.0778844143,-0.03955021945,0.00771783355,0.027122,0.009311,-0.003839,1.2633220729499999,-9.47964725575,2.170407778,2.614465,1.31183,1.431404,0.00273000000000001,-0.0039000000000000146,-0.00026999999999999247,-6.119596996367882e-05,6.083824478220201e-05,0.00025084485146209534
1504281072.05,-1.0,0.0666067668,-0.05004333495,-0.008276812599999999,0.023845,0.001876,-0.00063,1.2644204177499998,-9.4790294368,2.1724867878,2.614502,1.311582,1.43137,0.00273000000000001,-0.0038000000000000256,-0.00026999999999999247,-0.00010251109545444947,7.258421760947265e-05,0.0001940460710266878
1504281072.06,-1.0,0.0631744393,-0.0499158485,0.00589379665,0.021688,-0.002367,-0.002762,1.2656070224,-9.47841161785,2.1744775377499996,2.614493,1.311337,1.431341,0.0027499999999999747,-0.0037999999999998035,-0.0002700000000000202,-0.0001167666162587011,7.751116301779604e-05,0.0001643026182595042
1504281072.07,-1.0,0.0644296905,-0.05085728689999999,0.026526988249999998,0.018473,-0.005535,-0.004898,1.2670387933,-9.4777741856,2.17643886775,2.614391,1.311083,1.431371,0.00274000000000002,-0.0038000000000000256,-0.00026999999999999247,-0.00013677810533785362,4.406759915642766e-05,8.947773179124319e-05
1504281072.08,-1.0,0.06563590845,-0.0382655483,0.04300216025,0.021627,-0.008762,-0.000618,1.26838230435,-9.4770484935,2.17881207705,2.614405,1.310795,1.431249,0.0027599999999999847,-0.0039000000000000146,-0.00026999999999999247,-0.00015755516889015553,8.382742258339348e-06,4.247850245486795e-05
1504281072.09,-1.0,0.05533892594999999,-0.015474893699999999,0.05800633475,0.020585,-0.007685,-0.003825,1.2697062021,-9.476185508299999,2.18177368535,2.614544,1.310455,1.431006,0.00276000000000004,-0.0038000000000000256,-0.00028000000000000247,-0.00020148461813995766,-4.381222750593494e-06,5.369652320230678e-05
1504281072.1,-1.0,0.0482094914,-0.0166909183,0.043865145450000004,0.031294,-0.00351,-0.004881,1.27099087325,-9.47527348985,2.18499026655,2.614743,1.310093,1.430755,0.0027699999999999947,-0.0039000000000000146,-0.00026999999999999247,-0.00023153004567655344,9.784197403384098e-07,4.9858121341617156e-05
1504281072.11,-1.0,0.03135186005,-0.0077374468499999995,0.02499715085,0.029187,-0.003487,-0.010223,1.27244225745,-9.47435166475,2.1881480078499997,2.614876,1.309728,1.430575,0.0027699999999999947,-0.0039000000000000146,-0.00028000000000000247,-0.00023465722919668863,-2.9793967060154358e-05,8.005296432100906e-05
1504281072.12,-1.0,0.0085121722,-0.016818404749999998,0.0010885381499999998,0.023918,0.004017,-0.011312,1.27357982885,-9.473645585949999,2.19050160385,2.614954,1.309452,1.430511,0.0022800000000000042,-0.0037000000000000366,-0.0004699999999999982,-0.000213237973467173,1.020555483344232e-05,0.00013204348415329914
1504281072.13,-1.0,-0.009943943099999998,-0.032685564449999996,-0.011424747249999999,0.020729,0.006173,-0.010254,1.2742368743999999,-9.47319448005,2.1921000878,2.615048,1.309272,1.430463,0.0022899999999999587,-0.0037000000000000366,-0.0004699999999999982,-0.00022440957090941183,3.850686565054495e-05,0.00016015352275911
1504281072.14,-1.0,-0.018897414549999998,-0.03284247085,0.0028635417999999997,0.020752,0.010434,-0.008126,1.2745016539499998,-9.472586467749998,2.1945713636,2.615445,1.309033,1.430139,0.0023000000000000242,-0.0036999999999998145,-0.0004699999999999982,-0.000202858001058015,7.647457958159798e-05,0.00017929506226566083
1504281072.15,-1.0,-0.0189464478,-0.038677427599999994,0.013003617899999998,0.016476,0.009403,-0.008132,1.2747075935999999,-9.472135361849999,2.1963954004999997,2.615738,1.308855,1.42995,0.0023000000000000242,-0.0037000000000000366,-0.0004699999999999982,-0.0001866544804185466,8.442622774085251e-05,0.00022404065961301178
1504281072.16,-1.0,-0.02201592925,-0.057976914799999994,0.024281265399999998,0.009015,0.011594,-0.006013,1.27463894705,-9.47184116235,2.1976898783,2.616017,1.30874,1.42979,0.0023199999999999887,-0.0038000000000000256,-0.0004699999999999982,-0.00010124991138549255,8.344523396042192e-05,0.00023678892433165455
1504281072.17,-1.0,-0.0240655191,-0.08413125034999999,0.05298532994999999,0.007943,0.011602,-0.004947,1.27428590765,-9.4715763828,2.1990628093,2.616405,1.308634,1.429536,0.0023199999999999887,-0.0037000000000000366,-0.00047000000000002595,1.1289983875117926e-05,0.00010622231090029466,0.00025465055010565063
1504281072.18,-1.0,-0.01591619295,-0.08207185384999999,0.06339999225,0.007926,0.009471,-0.004943,1.27407016135,-9.4712429567,2.2006122599999998,2.616786,1.308503,1.429266,0.0023199999999999887,-0.0038000000000000256,-0.0004599999999999882,4.049661356542167e-05,4.480381611982054e-05,0.0002421886836773135
1504281072.19,-1.0,-0.022947561,-0.05712373625,0.0417959423,0.010057,0.008389,-0.006004,1.2739132549499999,-9.47089972395,2.20217151735,2.617146,1.308369,1.429011,0.0023199999999999887,-0.0038000000000000256,-0.0004699999999999982,9.882282186080005e-05,-2.289797578902686e-05,0.000246473661600799
1504281072.2,-1.0,-0.03464689445,-0.051337812749999996,0.014994367849999999,0.017534,0.009393,-0.005992,1.2736484754,-9.47054668455,2.2038288412,2.617562,1.308232,1.428689,0.0023200000000000442,-0.0038000000000000256,-0.0004699999999999982,0.00016456714022705654,-4.91116422718374e-05,0.0002550906302429823
1504281072.21,-1.0,-0.036451318049999994,-0.04659139415,0.01475900825,0.019687,0.010444,-0.008125,1.27350137565,-9.4700661587,2.20601572415,2.61804,1.308039,1.428309,0.0023199999999999887,-0.0038000000000000256,-0.0004800000000000082,0.00015992742269621552,-7.695901933013616e-05,0.00025286908403532316
1504281072.22,-1.0,-0.0444241245,-0.04061914429999999,0.01320955755,0.018677,0.016847,-0.009204,1.27324640275,-9.469595439499999,2.2081535738499998,2.618548,1.307857,1.427946,0.0020600000000000063,-0.0029999999999998916,-0.00042999999999998595,0.00018578487850895442,-9.442314578955724e-05,0.00023708738189032186
1504281072.23,-1.0,-0.04054069109999999,-0.03763792269999999,0.0161025193,0.011215,0.019038,-0.007086,1.2728051034999999,-9.469281626699999,2.20976186445,2.619013,1.307734,1.427676,0.0020600000000000063,-0.0031000000000001027,-0.00043999999999999595,0.00021821031713953332,-7.129509186865057e-05,0.00023853207301149926
1504281072.24,-1.0,-0.0317147061,-0.052230217899999994,0.02662505475,0.005921,0.025473,-0.004971,1.27220689785,-9.469056073749998,2.21105634225,2.619468,1.307646,1.427488,0.0020699999999999608,-0.0030999999999998806,-0.0004200000000000037,0.00023633119916421919,-5.068211187886362e-05,0.00029830339326475386
1504281072.25,-1.0,-0.0175342902,-0.0600755379,0.044100505049999995,-0.001512,0.029797,-0.004991,1.2716479188,-9.4688501341,2.2122821735,2.6199,1.307564,1.427361,0.0020800000000000263,-0.0031000000000001027,-0.0004300000000000137,0.00024095803237123015,-2.2950648956188147e-05,0.0003005166928141678
1504281072.26,-1.0,-0.00026477954999999995,-0.07810996725,0.029155170449999997,-0.003651,0.029813,-0.003927,1.271137973,-9.46891878065,2.2122625602,2.620069,1.307592,1.427518,0.0020899999999999808,-0.0030999999999998806,-0.0004200000000000037,0.00015870071121781848,1.470411787440895e-06,0.00034562248380654026
1504281072.27,-1.0,0.0349705139,-0.07688413599999999,0.00118660465,-0.00689,0.027704,0.00034,1.2709222266999998,-9.469095300349998,2.2116545479,2.620024,1.30766,1.427854,0.0020900000000000363,-0.0031000000000001027,-0.0004200000000000037,0.00010037500294490798,-4.299254641626504e-06,0.00035993489360475195
1504281072.28,-1.0,0.060291284199999996,-0.050729800449999994,-0.0068450417,-0.004813,0.021292,0.001422,1.2711771995999999,-9.46921298015,2.2110073089999998,2.619809,1.307705,1.428284,0.0020999999999999908,-0.0030999999999998806,-0.00041999999999997595,-2.0684121748715256e-08,-4.496491168293204e-07,0.00034525254278716666
1504281072.29,-1.0,0.08583760744999999,0.00661948875,0.0090613446,0.004698,0.010557,0.002523,1.2721284446499999,-9.46895800725,2.2115564813999997,2.619596,1.307605,1.428614,0.0021100000000000008,-0.0031000000000001027,-0.00041000000000002146,-9.770332913183744e-05,1.8464091562364615e-05,0.0003177774798384103
1504281072.3,-1.0,0.10484289515,0.0461893215,0.01166010685,0.011088,0.008374,0.001469,1.2736190554499998,-9.4684186415,2.21299805895,2.619369,1.307394,1.428907,0.0021200000000000108,-0.0029999999999998916,-0.00042999999999998595,-0.00017147294078312392,7.182560397778204e-06,0.000259503585136156
1504281072.31,-1.0,0.11137412405,0.0539758016,-0.0020790098,0.014173,0.001966,0.000458,1.2754725123000001,-9.46782043585,2.21446905645,2.61903,1.307162,1.429256,0.0021299999999999653,-0.0031000000000001027,-0.00043999999999999595,-0.0001652827294682524,3.9466880625171896e-05,0.00020610810528998158
1504281072.32,-1.0,0.11051113884999998,0.023251567149999996,-0.01615155255,0.00993,0.003069,-0.002756,1.2775221021499998,-9.46733010335,2.2153712682499997,2.618509,1.306971,1.429773,0.0021999999999999797,-0.0034000000000000696,-0.0005000000000000004,-0.00018148549059060493,3.164410054457001e-05,0.00016132634001830848
1504281072.33,-1.0,0.0919471504,-0.0098458766,0.0025301156999999997,0.004542,-0.002217,-0.000622,1.279179426,-9.46699667725,2.2158517940999998,2.618041,1.30684,1.430204,0.0021999999999999797,-0.0033999999999998476,-0.0005100000000000104,-0.0001115527391484239,2.4811209209163465e-05,0.00010147290730311287
1504281072.34,-1.0,0.06329211909999999,-0.0263014353,0.0025987622499999996,0.008768,-0.005452,0.002592,1.28015028435,-9.4667122844,2.21652845295,2.617846,1.306727,1.430325,0.0022199999999999998,-0.0035000000000000586,-0.0005100000000000104,-5.9089226367436964e-05,-7.884314497275113e-06,4.212045115115082e-05
1504281072.35,-1.0,0.03254827135,-0.050161014749999996,-0.0032067745499999994,0.006579,-0.009701,0.006865,1.2802287375499999,-9.4666338312,2.2167932324999997,2.617873,1.306698,1.430193,0.0022199999999999998,-0.0034000000000000696,-0.0005099999999999827,8.296663227103096e-06,-1.9232234612642785e-05,4.0675796617373194e-05
1504281072.36,-1.0,-0.0014219642499999998,-0.0685092569,-0.0089632781,0.006553,-0.012897,0.006871,1.2796305318999999,-9.46670247775,2.2168716857,2.618089,1.306723,1.429841,0.0022400000000000198,-0.0033999999999998476,-0.0005100000000000104,1.4433396725355152e-05,1.4021130249730618e-05,3.683673807541865e-06
1504281072.37,-1.0,-0.0240655191,-0.07476589959999999,0.0006668522,0.008683,-0.013979,0.00581,1.2787773533499998,-9.46672209105,2.2172639516999997,2.618454,1.306732,1.429328,0.0022400000000000198,-0.0034000000000000696,-0.0005099999999999827,2.193969818842234e-05,1.266376162978311e-05,4.6622375102778335e-06
1504281072.38,-1.0,-0.00610954295,-0.0607620034,0.00885540495,0.005512,-0.012883,0.001533,1.27862044695,-9.466663251149999,2.21760718445,2.618572,1.306709,1.429081,0.0022499999999999742,-0.0035000000000000586,-0.0005200000000000204,2.9751786976284222e-05,5.023526131964218e-05,-3.011287268228635e-05
1504281072.39,-1.0,0.00581534345,-0.0432277132,-0.0007256920999999999,0.001262,-0.010717,0.001522,1.2786694802,-9.4666926711,2.2174600847,2.618528,1.306719,1.429013,0.0022600000000000398,-0.0033999999999998476,-0.0005199999999999927,2.7467105742529085e-05,3.531456861760596e-05,-4.7626443975823385e-05
1504281072.4,-1.0,0.023192727249999996,-0.045375369549999996,0.00289296175,-0.001938,-0.008563,0.004714,1.2788067733,-9.46678093095,2.21697955885,2.618391,1.306756,1.429058,0.0022600000000000398,-0.0035000000000000586,-0.0005199999999999927,0.00012110862100045416,3.4960824209839814e-05,-6.171321445402889e-05
1504281072.41,-1.0,0.026046462399999998,-0.03468612105,0.01519050085,-0.000918,-0.011772,0.008991,1.2786498669,-9.4668495775,2.2168030391499998,2.618408,1.306781,1.428916,0.0022799999999999487,-0.0035000000000000586,-0.0005300000000000027,0.0002517819220599904,-3.75719800349561e-05,-6.243698282315524e-05
1504281072.42,-1.0,0.013827376499999999,-0.02409493905,0.0089632781,0.003314,-0.012878,0.014337,1.2778457215999999,-9.4669672573,2.2167540059,2.618671,1.306828,1.428508,0.0020599999999999508,-0.0028999999999999027,-0.0005499999999999949,0.0003251268645980687,-3.459017444118473e-05,-7.48003288406629e-05
1504281072.43,-1.0,0.0095712904,-0.03133224675,0.00352058735,0.006451,-0.018237,0.018621,1.27656105045,-9.4670653238,2.21709723865,2.619171,1.306864,1.42782,0.0020600000000000618,-0.0028000000000001357,-0.0005499999999999949,0.0003389573072356544,-4.782908438816236e-05,-0.00011568558240926397
1504281072.44,-1.0,0.0015592573499999998,-0.04297274029999999,-0.01903470765,0.007515,-0.017182,0.020756,1.27499198645,-9.467241843499998,2.2172051118,2.619725,1.306936,1.427047,0.0020700000000000163,-0.0028999999999999027,-0.0005400000000000127,0.0002838310836137392,-2.2686133426041977e-05,-0.00013162944471500904
1504281072.45,-1.0,-0.019064127599999998,-0.0375986961,-0.0401876517,0.009592,-0.023594,0.021839,1.2730208498,-9.467536042999999,2.2171168519499997,2.620375,1.307048,1.426144,0.0020799999999999708,-0.0028000000000001357,-0.0005400000000000127,0.0001622439622104288,2.6503659384280454e-05,-0.00012829688122972804
1504281072.46,-1.0,-0.040923150449999994,-0.02313388735,-0.0393442798,0.007485,-0.021443,0.019697,1.27079474025,-9.467928309,2.2167147792999997,2.621052,1.307202,1.425234,0.0020799999999999708,-0.0027999999999999137,-0.0005499999999999949,6.26052862333637e-05,3.2672714805670466e-05,-0.0001707885285671118
1504281072.47,-1.0,-0.056790310149999995,-0.0068254284,-0.04329635974999999,0.008533,-0.02571,0.016506,1.2687059237999998,-9.468222508499998,2.2166363261,2.621747,1.307319,1.424283,0.0020900000000000363,-0.0027999999999999137,-0.0005499999999999949,-9.592271548619635e-06,6.037216583720806e-05,-0.00018309380818459786
1504281072.48,-1.0,-0.05522124614999999,-0.0444241245,-0.0421489817,0.002207,-0.018196,0.01328,1.2668426602999998,-9.468644194449999,2.2159302472999998,2.622245,1.307482,1.423575,0.0020900000000000363,-0.0028000000000001357,-0.0005499999999999949,-1.036239811469386e-05,5.813050379432916e-05,-0.00015528519743601699
1504281072.49,-1.0,-0.0409133438,-0.08992698049999999,-0.02858638475,-0.012702,-0.015939,0.011116,1.26524417635,-9.4692227868,2.2143415699999998,2.622479,1.307711,1.42317,0.0020899999999999253,-0.0027999999999999137,-0.0005600000000000049,3.4702390819152384e-05,5.0013291945427696e-05,-0.00014944095584246142
1504281072.5,-1.0,-0.0316558662,-0.09569329069999999,0.013435110499999998,-0.000981,-0.017102,0.012207,1.26377317885,-9.469595439499999,2.2136158779,2.62284,1.307855,1.422641,0.0020999999999999908,-0.0029000000000001247,-0.0005600000000000049,7.536056934354107e-05,3.07536311494605e-05,-0.00017348429870533977
1504281072.51,-1.0,-0.01122861425,-0.07122569895,0.03543142645,-0.002046,-0.014965,0.015404,1.2623512146,-9.4698111858,2.2134785848,2.623295,1.307942,1.422017,0.002100000000000102,-0.0027999999999999137,-0.0005699999999999872,0.00019921095327135596,-1.9081844842450124e-05,-0.00017216033865852243
1504281072.52,-1.0,0.00879656505,-0.04297274029999999,0.039089306899999995,0.00648,-0.016101,0.01542,1.26132151635,-9.4697915725,2.21415524365,2.623777,1.307934,1.421357,0.0021099999999999453,-0.0028999999999999027,-0.0005600000000000049,0.0002482457456862708,-6.891240557993505e-05,-0.00019096192758216723
1504281072.53,-1.0,0.0170047311,-0.0011277647499999999,0.013337044000000001,0.009673,-0.017193,0.015428,1.2604487245,-9.469732732599999,2.21492016235,2.624224,1.30791,1.420718,0.0020900000000000363,-0.0030000000000001137,-0.0005999999999999894,0.0002734009703502238,-8.101768010115862e-05,-0.0002670350940406907
1504281072.54,-1.0,0.01397447625,0.00797280645,-0.0052171378,0.009642,-0.020391,0.0165,1.25959554595,-9.46970331265,2.21550856135,2.624632,1.3079,1.420072,0.0021099999999999453,-0.0030999999999998806,-0.0006099999999999994,0.00027148303876112223,-9.371636680821638e-05,-0.0002820882093023114
1504281072.55,-1.0,0.007168661149999999,-0.0080610663,-0.02038802535,0.006386,-0.027822,0.01544,1.2587619807,-9.4698307991,2.21543010815,2.624898,1.307951,1.419518,0.0021100000000000563,-0.0031000000000001027,-0.0006099999999999994,0.0002239840374631541,-3.928728646629409e-05,-0.0003189110942570794
1504281072.56,-1.0,-0.010728475099999999,-0.02491869765,-0.045698988999999995,0.002104,-0.028854,0.016502,1.2576636359,-9.4701838385,2.21454750965,2.625103,1.308089,1.419005,0.0021299999999999653,-0.0029999999999998916,-0.0006200000000000094,0.00012552835778389948,-2.263893066789535e-05,-0.0003185620078682838
1504281072.57,-1.0,-0.0339506223,-0.035372586549999994,-0.041766522349999995,0.003138,-0.034188,0.014379,1.2563397381499999,-9.4706545577,2.2133020650999997,2.625315,1.308272,1.418458,0.0021299999999999653,-0.0030999999999998806,-0.0006299999999999917,1.3758006354169794e-05,5.3604782677796337e-05,-0.0003165771426963948
1504281072.58,-1.0,-0.06220358094999999,-0.053612955549999994,-0.0263210486,0.007391,-0.035289,0.015457,1.2545157012500001,-9.4709683705,2.2129784456499997,2.625874,1.308397,1.417533,0.0021400000000000308,-0.0030000000000001137,-0.0006300000000000194,-3.7361173919059354e-05,6.132237359524062e-05,-0.00030580423256865163
1504281072.59,-1.0,-0.0787277862,-0.06990180119999999,-0.01572005995,0.00955,-0.03211,0.015457,1.25233862495,-9.471291989949998,2.21284115255,2.626594,1.308523,1.416471,0.0021400000000000308,-0.0031000000000003247,-0.0006299999999999917,-7.304552609932458e-05,8.08031442440793e-05,-0.00029560009173246193
1504281072.6,-1.0,-0.0892209017,-0.05990882484999999,-0.005011198149999999,0.00749,-0.023567,0.014372,1.249955609,-9.4715567695,2.2130667055,2.627452,1.308626,1.415341,0.0021299999999999653,-0.0029999999999996696,-0.0006299999999999917,-2.6848387720379563e-05,7.102210474707604e-05,-0.00027257827872950724
1504281072.61,-1.0,-0.08786758399999998,-0.046561974199999995,-0.0156318001,0.003301,-0.015005,0.012217,1.24770988615,-9.471890195599999,2.2129097990999997,2.628193,1.308757,1.414411,0.0021400000000000308,-0.0030000000000001137,-0.0006200000000000094,4.2952581608357576e-05,2.7536975983233347e-05,-0.00023738899085889997
1504281072.62,-1.0,-0.09246690284999999,-0.035451039749999996,-0.0204174453,0.003322,-0.012872,0.011147,1.2454249366999999,-9.4722236217,2.2127528926999998,2.628945,1.308889,1.413532,0.0021900000000000253,-0.0032000000000000917,-0.0006299999999999917,0.00013051817755216355,1.3530168000652765e-05,-0.0002456144171255614
1504281072.63,-1.0,-0.09212367009999999,-0.039295246549999996,-0.027331133549999997,0.005515,-0.005431,0.011139,1.2429928875,-9.47256685445,2.2126352129,2.629759,1.309026,1.412637,0.0021899999999999142,-0.0032999999999998586,-0.0006400000000000017,0.00018881512162227665,1.1843613033413192e-05,-0.00017185222634141795
1504281072.64,-1.0,-0.0856512811,-0.04061914429999999,-0.03550987965,0.000197,-0.003256,0.011128,1.2405608383,-9.47303757365,2.211987974,2.63047,1.309212,1.411894,0.0021999999999999797,-0.0032000000000000917,-0.0006300000000000194,0.000221986342148206,3.734961060408715e-05,-0.00019815391654431913
1504281072.65,-1.0,-0.07366755479999999,-0.042619700899999995,-0.0324207849,0.002347,-0.001142,0.011129,1.23829550215,-9.473429839649999,2.211595708,2.631172,1.309365,1.411167,0.0022000000000000908,-0.0032000000000000917,-0.0006399999999999739,0.00019532700713420503,5.2486323464995266e-05,-0.00015452975881691255
1504281072.66,-1.0,-0.060193217699999996,-0.03707894365,-0.025330576949999996,0.007662,-0.002253,0.013276,1.2360497792999998,-9.4737338458,2.2115368680999996,2.631935,1.309486,1.410379,0.0022199999999999998,-0.0031999999999996476,-0.0006400000000000017,0.00018179083478853109,5.216191749002341e-05,-0.0001240269437541297
1504281072.67,-1.0,-0.0419136221,-0.04221762824999999,-0.0363630582,0.010865,-0.001215,0.014348,1.2339315429,-9.473988818699999,2.2116447412499998,2.632687,1.309585,1.409602,0.0022199999999999998,-0.0032000000000000917,-0.0006500000000000117,0.00016865874919647084,6.762416160710494e-05,-0.00011089154591858996
1504281072.68,-1.0,-0.0344213415,-0.06047761054999999,-0.0466012008,0.008716,-0.002264,0.015414,1.23182311315,-9.4742830182,2.2115564813999997,2.633397,1.309701,1.408853,0.0022199999999999998,-0.0032000000000000917,-0.0006500000000000117,0.00015588164598545617,6.956082779141504e-05,-0.00010820447064319172
1504281072.69,-1.0,-0.0224768418,-0.07248095015,-0.06579281484999999,0.005515,-0.002238,0.015409,1.2299010097499998,-9.4746948975,2.2108504025999998,2.633922,1.309865,1.408281,0.0022400000000000198,-0.0032000000000000917,-0.0006499999999999839,0.00015907323428399067,9.084876291520771e-05,-8.311341040967424e-05
1504281072.7,-1.0,-0.012091599449999999,-0.07422653385,-0.07491299935,0.001307,0.004193,0.013256,1.2282044592999999,-9.47519503665,2.2096441846499997,2.63428,1.310063,1.407931,0.0022399999999999087,-0.0032999999999998586,-0.0006599999999999939,0.00015639320277260893,7.581776032816734e-05,-7.033348510265824e-05
1504281072.71,-1.0,0.0053250109499999995,-0.06828370395,-0.06700883945,0.002404,0.007382,0.012185,1.22693940145,-9.4755971093,2.2086242930499997,2.63452,1.310223,1.407726,0.0022500000000000853,-0.0032000000000000917,-0.0006600000000000217,0.0001409513823267261,6.270156476850808e-05,-5.4885282085748166e-05
1504281072.72,-1.0,0.01228773245,-0.044218184849999995,-0.04189400879999999,0.000309,0.011662,0.011106,1.2258116366999998,-9.47588150215,2.2080457007,2.634799,1.310333,1.407538,0.0024199999999999777,-0.0036999999999998145,-0.0006999999999999784,0.0001814151134125197,5.816799135160977e-05,-2.546853995344378e-05
1504281072.73,-1.0,0.037294689949999994,-0.03199909895,-0.021809989599999996,-0.002875,0.01382,0.011097,1.225046718,-9.4761266684,2.2074180750999997,2.634943,1.310431,1.407519,0.0024199999999999777,-0.0038000000000000256,-0.0007100000000000162,0.00017949257130034368,4.5414818057087913e-05,-4.051071634225689e-05
1504281072.74,-1.0,0.04812123155,-0.023447700149999997,-0.02880213105,0.006681,0.009476,0.013255,1.2243994791,-9.4761462817,2.2076730479999997,2.635216,1.31044,1.407325,0.0024300000000000432,-0.0037000000000002586,-0.0007099999999999884,0.00019571038208887614,5.3214151718661284e-05,4.285258265790404e-06
1504281072.75,-1.0,0.04734650619999999,-0.025173670549999996,-0.04502233014999999,0.001332,0.008453,0.014314,1.22368359365,-9.47637183465,2.20713368225,2.635362,1.310527,1.407244,0.002449999999999952,-0.0038000000000000256,-0.0007199999999999984,0.00020809461745097124,3.549253894297166e-05,1.897327718980435e-05
1504281072.76,-1.0,0.041325223099999996,-0.02958666305,-0.06569474835,-0.00083,0.006338,0.016448,1.22266370205,-9.4767346807,2.206103984,2.635517,1.310673,1.407123,0.0024600000000000177,-0.0036999999999998145,-0.0007100000000000162,0.0002281150497478457,7.642675164110102e-05,5.8535173459439704e-06
1504281072.77,-1.0,0.00975761675,-0.01787752295,-0.0765310966,-0.00084,0.005272,0.01645,1.2211632845999998,-9.477234819849999,2.2048291195,2.635793,1.310869,1.406861,0.0024699999999999722,-0.0038000000000000256,-0.0007199999999999984,0.0002566782874513507,7.41397796295562e-05,-2.269331905746519e-05
1504281072.78,-1.0,-0.005197524499999999,-0.03207755215,-0.08062046964999998,0.005537,0.003087,0.017533,1.219358861,-9.477695732399999,2.20381903455,2.636224,1.311053,1.406426,0.0024899999999999922,-0.0036999999999998145,-0.0007099999999999884,0.00029687912845055564,5.183208791748051e-05,-8.752950968138329e-06
1504281072.79,-1.0,-0.010591182,-0.0672147791,-0.08034588345,0.006633,0.006276,0.016462,1.21727004455,-9.4781664516,2.20295604935,2.636784,1.31124,1.405899,0.0024899999999999922,-0.0037000000000002586,-0.0007199999999999984,0.00030071922157803854,7.732640517832401e-05,2.1388071303807266e-05
1504281072.8,-1.0,-0.01240541225,-0.09433016635000001,-0.05681973009999999,0.010987,0.015833,0.014318,1.21519103475,-9.4784410378,2.20291682275,2.637502,1.311349,1.405285,0.0025100000000000122,-0.0038000000000000256,-0.0007100000000000162,0.00029373444413272054,0.00011746972930715138,6.927593787731112e-05
1504281072.81,-1.0,-0.0028047019,-0.0820424339,-0.031106693799999998,0.013126,0.017944,0.016453,1.21307279835,-9.478597944199999,2.2033973486,2.638331,1.311413,1.404608,0.0025199999999999667,-0.0036999999999998145,-0.0007199999999999984,0.0002655331552559037,0.00013553046620851106,8.053377258199212e-05
1504281072.82,-1.0,0.0076688003,-0.06207609449999999,-0.03170489945,0.005693,0.024395,0.019631,1.2108270755,-9.478813690499999,2.2037013547499997,2.639169,1.311499,1.403978,0.0026200000000000667,-0.0038000000000000256,-0.0007399999999999907,0.0003046532220227771,9.504581350272545e-05,0.0001396330502468901
1504281072.83,-1.0,0.0250657974,-0.05755522885,-0.0465227476,0.003621,0.032936,0.02068,1.2085519326999998,-9.4791471166,2.20354444835,2.639935,1.311629,1.40348,0.002630000000000021,-0.0039000000000002366,-0.0007600000000000107,0.0004178329606427944,8.93607002623309e-05,0.00015174264477701982
1504281072.84,-1.0,0.04647371435,-0.065704555,-0.055083953049999995,0.003643,0.037196,0.022806,1.2062964032,-9.47952957595,2.2031325690499997,2.640644,1.311782,1.403085,0.00264999999999993,-0.0038999999999997925,-0.0007599999999999829,0.0005109979228408168,4.26961598478659e-05,0.00017693038934296634
1504281072.85,-1.0,0.0639589713,-0.07355968165,-0.04223724155,-0.001673,0.038307,0.02066,1.20436449315,-9.47990222865,2.2025539767,2.641205,1.311933,1.402855,0.0026599999999999957,-0.0039000000000002366,-0.0007600000000000107,0.0005720681335439348,5.576444560140281e-05,0.00023801576825344117
1504281072.86,-1.0,0.08368995109999999,-0.0699410278,-0.03947176625,-0.018764,0.035252,0.019567,1.20289349565,-9.48052985425,2.2006907131999998,2.641364,1.31218,1.403031,0.0026800000000000157,-0.0038999999999997925,-0.0007699999999999929,0.0005489731381698171,1.3078775073838145e-05,0.00027430061307098796
1504281072.87,-1.0,0.08290541909999999,-0.0722553972,-0.055427185799999994,-0.031579,0.033227,0.01848,1.20157940455,-9.481500712599999,2.1971897391499997,2.641155,1.31257,1.403552,0.0026800000000000157,-0.0039000000000002366,-0.0007800000000000029,0.0005030837888682083,-1.0693356114366281e-05,0.0003031821072266849
1504281072.88,-1.0,0.06032070415,-0.060183411049999996,-0.053681602099999996,-0.034818,0.027927,0.017415,1.2000789871,-9.4826578973,2.1930513328499996,2.640888,1.313029,1.404092,0.00268999999999997,-0.0038999999999997925,-0.000789999999999999,0.0003721685401094632,-1.751019699902656e-05,0.0003018979289248769
1504281072.89,-1.0,0.0360296321,-0.03213639205,-0.055289892699999996,-0.034817,0.026863,0.015282,1.1984805031499999,-9.483766048749999,2.18912867285,2.640694,1.313473,1.404545,0.002690000000000081,-0.0038000000000000256,-0.000789999999999999,0.00016787017651287428,-2.74303510507945e-05,0.0003129085217823402
1504281072.9,-1.0,0.0229867876,-0.022231675549999996,-0.0715297051,-0.023112,0.022505,0.014242,1.1970095056499999,-9.48468787385,2.1859120916499997,2.640593,1.313845,1.404874,0.00270999999999999,-0.0038999999999997925,-0.0008100000000000052,-8.85510257564448e-07,-1.2472392120876918e-05,0.00030235096844988263
1504281072.91,-1.0,0.01581812645,-0.044002438549999995,-0.09953749749999999,-0.018849,0.021405,0.013184,1.1954992815499998,-9.48566853885,2.1824993774499997,2.640467,1.314237,1.405198,0.0027199999999999447,-0.0039000000000002366,-0.0008099999999999913,-7.426836224921907e-05,-1.5612323756464264e-05,0.0003146473984513287
1504281072.92,-1.0,0.05930081255,-0.0619191881,-0.06722458575,-0.018898,0.016076,0.01426,1.19465590965,-9.4864628775,2.1795083492,2.640185,1.314556,1.405623,0.0028799999999999937,-0.0041999999999999815,-0.0008400000000000074,-0.0001271816555246108,8.747787195062529e-06,0.0003034423215731996
1504281072.93,-1.0,0.12736877019999998,-0.034078108749999995,-0.014445195449999998,-0.012571,0.007498,0.015351,1.1951364355,-9.48676688365,2.1779098652499997,2.639708,1.31468,1.406163,0.0029000000000000137,-0.0041999999999999815,-0.0008500000000000035,-0.00010325713638348333,-2.127589193490209e-05,0.0002725219353649777
1504281072.94,-1.0,0.18698339555,-0.01923084065,-0.0033734876,-0.004121,-0.0011,0.01858,1.1965682063999998,-9.4867963036,2.17700765345,2.639028,1.31469,1.406797,0.002909999999999968,-0.0041999999999999815,-0.0008499999999999897,-8.558635785993474e-05,-7.598731416380566e-05,0.000206806498147305
1504281072.95,-1.0,0.19739805785,-0.0239478393,-0.0256149698,0.006444,-0.010784,0.02395,1.1978234576,-9.4867178504,2.17665461405,2.638515,1.314659,1.407172,0.0029200000000000337,-0.0041999999999999815,-0.0008599999999999997,-0.00010338282923538777,-0.00010981590310388256,0.00013646883408102717
1504281072.96,-1.0,0.17040035039999998,-0.032705177749999995,-0.051896791799999994,0.013836,-0.018308,0.027175,1.1984805031499999,-9.48664920385,2.1766055808,2.638272,1.31463,1.407172,0.002950000000000008,-0.0041999999999999815,-0.0008599999999999997,-0.00016523811564628232,-0.00012519856248638384,0.00010320410236985822
1504281072.97,-1.0,0.13993108885,-0.0216138566,-0.0607620034,0.018063,-0.022607,0.028255,1.19857856965,-9.486659010499999,2.176487901,2.638218,1.314636,1.406932,0.002970000000000028,-0.0041999999999999815,-0.0008700000000000097,-0.0002595044437185834,-8.87811295395835e-05,3.52457295691444e-05
1504281072.98,-1.0,0.0974192611,-0.014886494699999999,-0.055593898850000004,0.0021,-0.019275,0.025018,1.1981470770499998,-9.4867963036,2.1761152483,2.638296,1.314693,1.406591,0.0030000000000000027,-0.0041999999999999815,-0.0008699999999999958,-0.0003236033610503064,-3.6278772761910716e-05,5.2276492632841176e-05
1504281072.99,-1.0,0.054446520799999995,0.010395048999999998,-0.0497589421,-0.003113,-0.010697,0.014319,1.19771558445,-9.4870905031,2.1750561300999998,2.638243,1.314812,1.406475,0.003009999999999957,-0.0041999999999999815,-0.0008800000000000058,-0.0003378321417364383,3.592713690014904e-05,7.745284339177871e-05
1504281073.0,-1.0,0.029155170449999997,0.062134934399999994,-0.0273997801,-0.000855,-0.001115,0.004699,1.1977253911,-9.4872081829,2.1745461843,2.638141,1.314859,1.406523,0.0030400000000000427,-0.0041999999999999815,-0.000889999999999988,-0.0002914743932520558,6.754745990589228e-05,0.00011919461705611756
1504281073.01,-1.0,0.012650578499999999,0.07805112735,-0.02246703515,0.003523,0.007382,-0.003848,1.1982157236,-9.4871101164,2.1747030907,2.637997,1.314819,1.406711,0.0030399999999999316,-0.0043000000000001926,-0.0009000000000000119,-0.0002752066858131563,7.527248915839557e-05,0.0001639886805437918
1504281073.02,-1.0,0.02203554255,0.0671755525,-0.014719781649999998,0.01111,0.016919,-0.012392,1.1994513615,-9.48670804375,2.1757818222,2.637772,1.314657,1.407079,0.0030600000000000627,-0.0041999999999999815,-0.0009199999999999903,-0.00020257760685060688,7.60486776987257e-05,0.00017947108382776467
1504281073.03,-1.0,0.03207755215,0.068058151,-0.015651413399999998,0.014371,0.019032,-0.02093,1.2015303713,-9.486100031449999,2.1773116596,2.637337,1.31441,1.407704,0.003089999999999926,-0.0042999999999997485,-0.0009200000000000041,-0.00021763031209598438,7.87877462056219e-05,0.00017750684472328526
1504281073.04,-1.0,0.04509097669999999,0.041129090099999994,-0.02697809415,0.013283,0.015845,-0.021994,1.20408990695,-9.4855018258,2.1784688442999998,2.636662,1.314173,1.408542,0.003090000000000037,-0.0043000000000001926,-0.0009300000000000003,-0.0002520200337343681,4.2956004657312974e-05,0.0001608483065703714
1504281073.05,-1.0,0.04551266265,-0.0122386992,-0.015975032849999998,0.015322,0.007298,-0.016639,1.2063552431,-9.48496246005,2.1795868024,2.636082,1.313954,1.409223,0.003110000000000057,-0.0041999999999999815,-0.0009399999999999964,-0.00027710739096242776,6.270941199737479e-05,0.0001488506911023757
1504281073.06,-1.0,0.02878251775,-0.056064618049999994,-0.02091758445,0.019466,-0.0034,-0.009142,1.2078262406,-9.48453096745,2.18063611395,2.635771,1.313782,1.409521,0.003129999999999966,-0.0043000000000001926,-0.0009400000000000103,-0.0003033975247945797,7.204720524911501e-05,9.398303194263491e-05
1504281073.07,-1.0,0.019377940399999998,-0.08309174544999999,-0.0343625016,0.025744,-0.014116,-0.00164,1.20854212605,-9.48413870145,2.1819600116999998,2.635775,1.313623,1.409389,0.0031400000000000317,-0.0042999999999997485,-0.0009399999999999964,-0.0003293099894898788,9.716666067549617e-05,2.170724209493713e-05
1504281073.08,-1.0,0.0042168595,-0.11234498239999999,-0.053063783149999995,0.025694,-0.016253,0.004768,1.20844405955,-9.4839131485,2.18300932325,2.636014,1.313532,1.408949,0.003170000000000006,-0.0043000000000001926,-0.0009300000000000003,-0.0003015059164097611,9.251551033173655e-05,2.0929153054849436e-05
1504281073.09,-1.0,-0.013503757049999999,-0.11173697009999999,-0.0714904785,0.019289,-0.015137,0.00689,1.2077674006999999,-9.48392295515,2.18332313605,2.636314,1.313537,1.408467,0.0031799999999999606,-0.0041999999999999815,-0.0009300000000000003,-0.000280650263589477,0.00013571351645413898,-2.0040187118430808e-05
1504281073.1,-1.0,-0.028733484499999996,-0.09429093975,-0.06139943565,0.01074,-0.014006,0.011144,1.2065317627999999,-9.48415831475,2.1829602899999996,2.636676,1.313633,1.40794,0.0031799999999999606,-0.0042999999999997485,-0.0009199999999999903,-0.00019149884254821004,0.00013834509517596238,-5.819091468672877e-05
1504281073.11,-1.0,-0.0587810601,-0.05847705395,-0.07167680485,0.002201,-0.012872,0.013263,1.20456062615,-9.484668260549999,2.1818717518499997,2.637157,1.313835,1.407306,0.003210000000000046,-0.0043000000000001926,-0.0009300000000000003,-9.069722431842564e-05,0.00015019912071245756,-6.0828432724702175e-05
1504281073.12,-1.0,-0.07729601529999999,-0.03639247815,-0.11876833815,-0.004161,-0.009619,0.010045,1.20242277645,-9.48549201915,2.179429896,2.637435,1.314169,1.406913,0.003209999999999935,-0.0042999999999997485,-0.0009000000000000119,-2.0049430360380427e-05,0.00013818371585938571,-6.035381060820466e-05
1504281073.13,-1.0,-0.0934966011,-0.0325384647,-0.1451188067,-0.01163,-0.00743,0.013232,1.1997651743,-9.48664920385,2.1758504687499998,2.637674,1.314634,1.406589,0.003230000000000066,-0.004400000000000404,-0.000899999999999998,4.91290579800463e-05,0.00012156567889376468,-4.261906501712431e-06
1504281073.14,-1.0,-0.11447302544999999,-0.05076902705,-0.1451580333,-0.013813,-0.010613,0.017506,1.1965093665,-9.487884841749999,2.17230046145,2.638133,1.315128,1.406029,0.0032400000000000206,-0.0043999999999999595,-0.0009099999999999941,2.3709487924072903e-05,0.00013629348744870207,4.1661809059623245e-05
1504281073.15,-1.0,-0.1450403535,-0.057231609399999994,-0.13334102004999998,-0.018093,-0.008452,0.022834,1.1922042471499998,-9.489346032599999,2.16826012165,2.638869,1.315719,1.405199,0.0032599999999999296,-0.0043999999999999595,-0.0009200000000000041,2.887666892137375e-05,0.0001722166645090617,0.00011462872589351747
1504281073.16,-1.0,-0.15095376345,-0.07050000684999999,-0.13536118995,-0.017019,-0.005268,0.026035,1.1873499554,-9.4908954833,2.16414132865,2.63979,1.316346,1.404217,0.003269999999999995,-0.0043999999999999595,-0.0009180000000000021,3.055933195605931e-05,0.00017997604617003837,0.00018761889995599912
1504281073.17,-1.0,-0.16348666214999996,-0.0934377612,-0.1034405442,-0.004173,0.001019,0.027116,1.1819170713,-9.49219976775,2.1614052732999998,2.641187,1.316874,1.402805,0.003290000000000015,-0.0042999999999997485,-0.0009149999999999991,2.5727597914526612e-05,0.000232906714303871,0.00025053664095320283
1504281073.18,-1.0,-0.16283942325,-0.1066767387,-0.0635667053,0.009779,0.009433,0.023927,1.1764841872,-9.49302352635,2.1607384211,2.642996,1.31721,1.401063,0.003290000000000015,-0.0043999999999999595,-0.0009109999999999951,2.631375384720691e-05,0.00024102405994952392,0.00032119378675632415
1504281073.19,-1.0,-0.15245418089999999,-0.09793901354999998,-0.0519360184,0.015229,0.020051,0.017516,1.1714827956999998,-9.49353347215,2.1612287535999997,2.644876,1.317416,1.399344,0.0032999999999999696,-0.004400000000000404,-0.000910000000000008,4.951209234316245e-05,0.00020854890849753005,0.0003181649049058821
1504281073.2,-1.0,-0.1188173714,-0.055103566349999994,-0.0759230843,0.016397,0.02751,0.008967,1.167775882,-9.4938767049,2.1617190860999997,2.6463,1.317556,1.398161,0.0033000000000000806,-0.0042999999999997485,-0.0009139999999999981,5.7251396109680996e-05,0.00016299290170618264,0.0003305821138730458
1504281073.21,-1.0,-0.06583204145,-0.0121994726,-0.08323884520000001,0.027165,0.032761,-0.002764,1.1659714584,-9.49382767165,2.1628958840999997,2.647173,1.317537,1.397612,0.003309999999999924,-0.0043999999999999595,-0.0009219999999999923,4.991792709230225e-05,0.00012013554764567225,0.0003410189403623143
1504281073.22,-1.0,-0.01670072495,0.0131605243,-0.09332008139999999,0.019774,0.03603,-0.013456,1.1660695249,-9.4936021187,2.1638569357999997,2.647323,1.317444,1.397811,0.003310000000000035,-0.0041999999999999815,-0.0009310000000000013,5.449464083762123e-06,0.00010131888432818315,0.00031433559409455025
1504281073.23,-1.0,0.0035598139499999995,0.0499354618,-0.09981208369999998,0.028346,0.038095,-0.017714,1.16705999655,-9.49312159285,2.16541619315,2.647269,1.31725,1.398227,0.0033199999999999896,-0.0043000000000001926,-0.0009460000000000024,-4.7725150864597055e-05,0.00013920868755823435,0.0003133905853853758
1504281073.24,-1.0,0.01664188505,0.053171656299999995,-0.12671172465,0.030449,0.033816,-0.018771,1.16849176745,-9.49261164705,2.1668675773499997,2.64704,1.317043,1.398791,0.0033400000000000096,-0.0041999999999999815,-0.0009580000000000005,-7.746753209869617e-05,0.00013118364736253163,0.00029904289476412327
1504281073.25,-1.0,0.0241439723,0.013827376499999999,-0.16206469789999997,0.028268,0.029569,-0.016633,1.16996276495,-9.492317447549999,2.1673579098499998,2.646604,1.316924,1.399514,0.003349999999999964,-0.0042999999999997485,-0.0009629999999999916,-5.998392601580527e-05,0.00015699742071895173,0.00029863587499556754
1504281073.26,-1.0,0.02605626905,-0.028037212349999997,-0.1544547375,0.02817,0.021039,-0.011281,1.1711984028499998,-9.49206247465,2.1678286290499997,2.646257,1.316819,1.400069,0.0033800000000000496,-0.004200000000000426,-0.0009660000000000085,-6.796893193605769e-05,0.00018679701688517625,0.0003036403543136279
1504281073.27,-1.0,0.02458527155,-0.0762761237,-0.13702832045,0.030207,0.012492,-0.005926,1.1719142883,-9.49184672835,2.16835818815,2.646102,1.316734,1.400342,0.0033999999999999586,-0.0041999999999999815,-0.0009639999999999926,-4.1416895899093475e-05,0.00017167894972391906,0.00026007863248656005
1504281073.28,-1.0,0.05662359709999999,-0.11178600334999998,-0.12496614095,0.038648,0.004956,0.000506,1.17264978705,-9.491503495599998,2.1694663396,2.646052,1.316594,1.400413,0.0034199999999999786,-0.0041999999999999815,-0.0009640000000000065,-7.66212653635634e-06,0.00016863604447836522,0.00022786451195733193
1504281073.29,-1.0,0.07175525804999999,-0.1200137827,-0.09362408755,0.049275,0.000604,0.001598,1.17353238555,-9.49076799685,2.17224162155,2.646273,1.316293,1.400144,0.003450000000000064,-0.0041999999999999815,-0.0009610000000000035,-2.0765020291246827e-05,0.00016523162381454348,0.00018348334015805268
1504281073.3,-1.0,0.09344756784999998,-0.0916725642,-0.060183411049999996,0.053465,-0.006893,0.00482,1.1747386034999998,-9.489767718549999,2.1759191152999997,2.646551,1.315892,1.399753,0.0034600000000000186,-0.0040999999999997705,-0.0009590000000000015,-4.9339065422149275e-05,0.0001310912753831328,0.00013531678059386376
1504281073.31,-1.0,0.10714745789999999,-0.03925601994999999,-0.06057567705,0.051241,-0.007933,0.008058,1.1759938547,-9.4887772469,2.1795868024,2.64681,1.315488,1.399365,0.0034999999999999476,-0.0041999999999999815,-0.0009599999999999886,-0.0001089226594350734,0.00011506434887564865,0.00010660926207584076
1504281073.32,-1.0,0.0893385815,0.0245362383,-0.085121722,0.046987,-0.006832,0.006979,1.17704316625,-9.487914261699999,2.1827347370499997,2.647038,1.315143,1.399011,0.003430000000000044,-0.0043999999999999595,-0.0008910000000000029,-0.00010670174632676499,0.00014084888046217436,8.063946610070705e-05
1504281073.33,-1.0,0.06625372739999999,0.0693330155,-0.10670615865,0.04274,-0.004665,0.0059,1.1778375049,-9.4872277962,2.18532369265,2.647252,1.314865,1.398693,0.006950000000000012,-0.008599999999999941,-0.001813000000000009,-7.149479287349436e-05,0.00042300485173707436,7.861087520444343e-05
1504281073.34,-1.0,0.04914112314999999,0.04914112314999999,-0.13942114305,0.05766,-0.005855,0.006994,1.17833764405,-9.486482490799999,2.18826568765,2.647637,1.314566,1.398185,0.0017599999999999838,-0.002200000000000202,-0.0004610000000000031,-2.0423062380592327e-05,0.00013210837236021788,1.141842699492468e-05
1504281073.35,-1.0,0.028919810849999995,-0.00030400615,-0.14738414285,0.057627,-0.009053,0.008067,1.1783572573499999,-9.485825445249999,2.19112922945,2.648178,1.314299,1.397495,0.0017599999999999838,-0.002200000000000202,-0.0004609999999999892,-2.0421561123473708e-05,0.00013210901281834886,1.1415732571018467e-05
1504281073.36,-1.0,0.02978279605,-0.053691408749999996,-0.1420199053,0.061839,-0.014418,0.010218,1.1782395775499999,-9.48509975315,2.1942967774,2.64882,1.314011,1.396646,0.0035399999999999876,-0.0042999999999997485,-0.0009289999999999993,-0.0001114638628156861,0.00027637314737516405,2.2168806201983138e-05
1504281073.37,-1.0,0.052406737599999996,-0.0823366334,-0.12045508195,0.061775,-0.020814,0.012363,1.1783572573499999,-9.48429560785,2.1977291049,2.649428,1.313687,1.395767,0.007140000000000035,-0.008599999999999941,-0.0018750000000000017,-0.000655904407738106,0.00047005429073743166,-0.00013832640029332044
1504281073.38,-1.0,0.0678227914,-0.08306232549999999,-0.12810426895,0.06491,-0.029364,0.011315,1.1789554629999999,-9.483422816,2.2011810457,2.649872,1.313336,1.394973,0.0017999999999999128,-0.0020999999999999908,-0.0004720000000000002,-0.0003020482465045937,8.8783755636479e-05,-9.464050663454682e-05
1504281073.39,-1.0,0.08306232549999999,-0.07206907084999999,-0.15818126449999997,0.06592,-0.036831,0.010262,1.18002438785,-9.48258925075,2.2041818805999998,2.65006,1.313003,1.394342,0.0018000000000000238,-0.0020999999999999908,-0.0004720000000000002,-0.0003020564737257203,8.875527356866364e-05,-9.466726945184245e-05
1504281073.4,-1.0,0.0879656505,-0.0479545185,-0.1823644634,0.069088,-0.041119,0.009206,1.18155422525,-9.4817164589,2.20711406895,2.650074,1.312655,1.393834,0.0036200000000000676,-0.0041999999999999815,-0.0009519999999999945,-0.0007330612853584384,0.00017804939052745716,-0.00027443247181224706
1504281073.41,-1.0,0.08185610755,-0.0001176798,-0.1997614605,0.076516,-0.046507,0.00816,1.18318212915,-9.4807750205,2.2102914235499997,2.650101,1.312278,1.393271,0.007499999999999951,-0.008199999999999985,-0.0020860000000000045,-0.00158724065283522,0.0005185089441022139,-0.0007028159427174829
1504281073.42,-1.0,0.0490724766,0.005982056499999999,-0.18071694619999998,0.081783,-0.051884,0.012447,1.1840941476,-9.479696289,2.2144396365,2.65056,1.311847,1.392212,0.003894999999999982,-0.0038999999999997925,-0.0011380000000000001,-0.0006745605660265497,0.0003599605648005877,-0.00042600889185129276
1504281073.43,-1.0,0.01213082605,-0.0030204482,-0.17906942899999997,0.092354,-0.060502,0.017817,1.1840745342999999,-9.47847045775,2.2196763876,2.651547,1.311361,1.390544,0.003894999999999982,-0.0039000000000002366,-0.0011380000000000001,-0.0006747151014367958,0.00035967615428389443,-0.0004262524255222999
1504281073.44,-1.0,-0.029076717250000002,-0.0202605389,-0.2018404703,0.095502,-0.062666,0.024232,1.1827800565,-9.477538826,2.2243345463499997,2.652873,1.310991,1.388492,0.00197500000000006,-0.0019500000000003403,-0.0005730000000000041,-0.0002732684835304866,0.0001811471432286993,-0.00023235901719986796
1504281073.45,-1.0,-0.0418743955,-0.03872646085,-0.22239520869999999,0.101842,-0.065922,0.030654,1.1807696932499998,-9.476577774299999,2.2294830375999997,2.654535,1.310611,1.386055,0.001974999999999949,-0.0019499999999998963,-0.0005729999999999902,-0.00027330822772708707,0.00018108267724969984,-0.00023240652303468945
1504281073.46,-1.0,-0.04139386965,-0.05833976085,-0.24790230535,0.108223,-0.065978,0.033868,1.17833764405,-9.475665755849999,2.2346413354999997,2.656339,1.310249,1.383458,0.003970000000000029,-0.0038999999999997925,-0.0011500000000000121,-0.0005059492376904284,0.00034184487458333024,-0.00047856774274290803
1504281073.47,-1.0,-0.07270650309999999,-0.0791200522,-0.2641519244,0.121092,-0.056496,0.034942,1.17508183625,-9.4746360576,2.24071165185,2.658597,1.309842,1.380484,0.0040000000000000036,-0.0038000000000000256,-0.0011530000000000012,-0.0005385946267359998,0.0003184854031914597,-0.0004803424939631151
1504281073.48,-1.0,-0.09999841004999999,-0.1042250762,-0.27885209274999995,0.139258,-0.052383,0.034968,1.1712572427499999,-9.473331773149999,2.2482333523999998,2.661312,1.309326,1.377104,0.008070000000000022,-0.007700000000000262,-0.0023149999999999976,-0.0009731209988319556,0.000576927957579354,-0.0009808531038076884
1504281073.49,-1.0,-0.13228190185,-0.1210336743,-0.2825099732,0.143513,-0.051357,0.038178,1.1665794707,-9.471929422199999,2.2565297783,2.664455,1.308776,1.373308,0.0020399999999999308,-0.0018999999999995687,-0.0005804999999999977,-0.00018426418209172013,0.0001498929240828506,-0.00021846818143744784
1504281073.5,-1.0,-0.13279184765,-0.1273295436,-0.2465784076,0.13503,-0.044892,0.037087,1.1616957589999999,-9.4705761045,2.264747751,2.66764,1.308241,1.369533,0.0020400000000000418,-0.0019000000000000128,-0.0005804999999999977,-0.00018429740403247408,0.00014985342015338965,-0.00021849636457504928
1504281073.51,-1.0,-0.09962575735,-0.09277090899999998,-0.23333943009999997,0.127645,-0.035239,0.034924,1.1574102529499999,-9.46921298015,2.27260287765,2.67054,1.307708,1.366119,0.004110000000000058,-0.0039000000000002366,-0.0011639999999999984,-0.0002818087506621936,0.000309013297685512,-0.00038105165102186866
1504281073.52,-1.0,-0.07599173085,-0.06465524345,-0.20425290619999997,0.134157,-0.023567,0.030647,1.15368372595,-9.46756546295,2.28137002275,2.673399,1.30706,1.362877,0.0041399999999999215,-0.0038000000000000256,-0.0011660000000000004,-0.00017740028972390576,0.0003307266758048044,-0.00033586632081383794
1504281073.53,-1.0,-0.06538093554999999,-0.04351210605,-0.23609509874999998,0.157692,-0.015237,0.030674,1.1501042986999999,-9.4655158731,2.29166700525,2.676455,1.306259,1.359522,0.004070000000000018,-0.0032999999999998586,-0.0010310000000000041,-7.907473021617761e-05,0.00031409902130574707,-0.0003356537877182708
1504281073.54,-1.0,-0.09948846424999999,-0.05647649735,-0.2640146313,0.187619,-0.004833,0.036046,1.1452990402,-9.463024984,2.3043175837499996,2.680329,1.305289,1.355409,0.008220000000000005,-0.006600000000000161,-0.0020949999999999996,8.946729491032812e-05,0.0006484107838762299,-0.0007251848772384939
1504281073.55,-1.0,-0.09727216135,-0.06216435435,-0.2709185129,0.218513,-0.00616,0.042508,1.13979750955,-9.45987704935,2.31991015725,2.684918,1.30407,1.350604,0.002075000000000049,-0.0016000000000002679,-0.0005324999999999983,8.19556118742959e-05,0.00015329024827592796,-0.00019583643446563492
1504281073.56,-1.0,-0.0790808256,-0.0344213415,-0.26294570645,0.225814,-0.021148,0.051088,1.13432539885,-9.45634665535,2.336924695,2.689698,1.302708,1.345467,0.002074999999999938,-0.0015999999999998238,-0.0005324999999999983,8.192545469332124e-05,0.00015330638338362235,-0.00019582355245229
1504281073.57,-1.0,-0.08838733644999999,0.0125328987,-0.18527703845,0.21493,-0.04238,0.059647,1.1283629556499999,-9.45271819485,2.3544197585999997,2.694679,1.301315,1.339907,0.008360000000000034,-0.00649999999999995,-0.002141999999999998,0.00054026293254128,0.0005956547584673455,-0.0008257085293925659
1504281073.58,-1.0,-0.07981632435,0.02939053005,-0.1132864208,0.195695,-0.043291,0.063886,1.1221945728,-9.44922702745,2.3713264231999998,2.699586,1.299981,1.334369,0.004209999999999936,-0.0032000000000000917,-0.0010680000000000064,0.0003025186785214906,0.0003647564160860206,-0.0003294007377855346
1504281073.59,-1.0,-0.0817090078,-0.008335652499999999,-0.1275452899,0.194765,-0.030489,0.056391,1.11599677,-9.445922186399999,2.3873701026,2.704313,1.298723,1.329119,0.0021200000000000108,-0.0015999999999998238,-0.0005339999999999998,0.00014324252793329606,0.00017480744702136342,-0.0001430604470047392
1504281073.6,-1.0,-0.09397712694999999,-0.0372064301,-0.1681644342,0.213038,-0.017845,0.048931,1.11016181325,-9.44234275915,2.404198314,2.709003,1.297367,1.324047,0.0021200000000000108,-0.0015999999999998238,-0.0005339999999999998,0.0001432173684006166,0.0001748281540867591,-0.0001430352558265957
1504281073.61,-1.0,-0.167301449,-0.0399130655,-0.14475596065,0.240814,-0.01381,0.047907,1.10314025185,-9.438125899649998,2.42388026055,2.714495,1.295782,1.318235,0.0042600000000000415,-0.0031000000000003247,-0.0010709999999999956,0.00025277391924882764,0.00040305154191688786,-0.0001671426838836254
1504281073.62,-1.0,-0.19908480164999998,0.004393379199999999,-0.1036955171,0.25795,-0.005427,0.047925,1.0954126116499998,-9.433212767999999,2.44641594225,2.720602,1.293942,1.311882,0.008510000000000018,-0.005299999999999638,-0.0015590000000000048,0.0003088566538949067,0.0009975911194974874,9.359508924333682e-06
1504281073.63,-1.0,-0.15434686434999997,0.039609059349999996,-0.07960057804999998,0.263469,0.013715,0.041499,1.08852834335,-9.427730850649999,2.4705108812999996,2.726575,1.291903,1.305826,0.004284999999999983,-0.0026000000000001577,-0.0008024999999999977,-0.00012268384832747614,0.0005909249194033794,0.00023428338612507815
1504281073.64,-1.0,-0.1232892038,0.04189400879999999,-0.11061901199999999,0.26367,0.029713,0.026529,1.0830660393,-9.42208222025,2.4943410408,2.731948,1.289819,1.300539,0.004284999999999983,-0.0026000000000001577,-0.0008024999999999977,-0.00012254508431097655,0.000590955901960788,0.00023421029406045513
1504281073.65,-1.0,-0.10826541599999999,0.021711923099999995,-0.11817993914999998,0.255218,0.03512,0.017968,1.0785157537,-9.41641397655,2.51761222125,2.736857,1.287742,1.295834,0.0042999999999999705,-0.0024999999999999467,-0.0008150000000000032,-0.0004940321397355341,0.0007269969846845914,0.00038578726140503505
1504281073.66,-1.0,-0.10983448,-0.00854159215,-0.04225685485,0.247763,0.030929,0.008357,1.0746911602,-9.41054959985,2.5410599214,2.741475,1.285609,1.291408,0.0043199999999999905,-0.0025999999999997137,-0.0008139999999999953,-0.000706882407756515,0.0008237830835449156,0.0005201335014268782
1504281073.67,-1.0,0.01521011415,-0.027036934049999996,0.08344478484999998,0.243657,0.041634,-0.006612,1.07415179445,-9.4038712712,2.5658903592,2.74513,1.283199,1.288005,0.004345000000000043,-0.0024999999999999467,-0.0007985000000000006,-0.0010512806327698243,0.0009031567281794217,0.0007021881802488084
1504281073.68,-1.0,0.14518745325,-0.08972104084999999,0.15034575114999998,0.244934,0.057625,-0.022652,1.0767505567,-9.396555510299999,2.59145629575,2.747797,1.280581,1.285732,0.004345000000000043,-0.002500000000000391,-0.0007985000000000006,-0.0010506362898030641,0.0009038918250452443,0.0007012316990314682
1504281073.69,-1.0,0.21908056099999998,-0.16201566465,0.11234498239999999,0.252609,0.071434,-0.041876,1.0784274938499998,-9.3896516287,2.61569833455,2.750536,1.278129,1.283596,0.0021900000000000253,-0.0012499999999997513,-0.00038499999999999646,-0.0006348153005315549,0.0004827941374991873,0.0003343853334975
1504281073.7,-1.0,0.25021667475,-0.21603069284999998,0.08966220094999999,0.257931,0.063941,-0.05146,1.0814087154499998,-9.38232606115,2.64062683885,2.752901,1.275552,1.281844,0.0021899999999999142,-0.0012500000000001954,-0.0003850000000000034,-0.0006346534786394464,0.000483007501933308,0.00033407859321998856
1504281073.71,-1.0,0.18390410744999997,-0.1727539464,0.10751030395,0.254546,0.04691,-0.041829,1.0842722572499999,-9.3750201069,2.6652807569499997,2.755226,1.273003,1.279949,0.008709999999999996,-0.0041999999999999815,-0.0012880000000000044,-0.0030330606249391323,0.0021833907572679223,0.0008707909410792247
1504281073.72,-1.0,0.18411985374999998,-0.09719370814999999,0.11270782844999999,0.237143,0.020387,-0.017265,1.0886950564,-9.3675278263,2.6896993154499995,2.756986,1.27041,1.27833,0.004330000000000056,-0.0017999999999998018,-0.0005239999999999967,-0.0016111727812657684,0.0011714715140047627,0.0002747103967590814
1504281073.73,-1.0,0.25207013159999997,-0.07740388845,0.027105580599999998,0.220601,-0.024269,0.019076,1.0882341438499998,-9.3615849964,2.71050902675,2.759805,1.268368,1.275251,0.004369999999999985,-0.0017000000000000348,-0.0005160000000000026,-0.0017613627599806225,0.0012433498621953198,4.2794347537511435e-05
1504281073.74,-1.0,0.1743033971,-0.0165732385,-0.0126309652,0.202882,-0.075322,0.067169,1.08474297645,-9.356573798249999,2.7291514683999996,2.763272,1.266657,1.270964,0.002195000000000058,-0.0008500000000002395,-0.0002570000000000003,-0.0008821525398932106,0.000658104058379072,-7.574918564112743e-05
1504281073.75,-1.0,0.090417313,0.022712201399999996,0.04094276375,0.193933,-0.110441,0.0939,1.0793002857,-9.352170612399998,2.74636213915,2.767141,1.265159,1.265837,0.002194999999999947,-0.0008499999999997954,-0.0002570000000000003,-0.0008822036491535901,0.0006580381470848717,-7.632981403982164e-05
1504281073.76,-1.0,0.09644840275,0.057545422199999995,0.03252865805,0.196825,-0.133933,0.118495,1.0741616011,-9.347502646999999,2.7642004355,2.770953,1.263582,1.260447,0.008909999999999973,-0.0034000000000000696,-0.0010209999999999941,-0.0028895780428892515,0.0029060438980978986,-0.001017435420227919
1504281073.77,-1.0,-0.004344345949999999,0.0944772661,0.09315336835,0.208409,-0.148954,0.124946,1.0666300939,-9.343128881099998,2.7818327921999995,2.775456,1.262112,1.254191,0.002255000000000007,-0.0008499999999997954,-0.0002545000000000047,-0.0004253312892650296,0.0007894115301725346,-0.00037751721163969965
1504281073.78,-1.0,-0.04731708625,0.12984985264999999,0.2075675539,0.215807,-0.151157,0.135637,1.05842192785,-9.33854917555,2.8002987141499998,2.780225,1.260577,1.247596,0.002255000000000007,-0.0008500000000002395,-0.0002544999999999978,-0.00042563456366662145,0.0007892582082882349,-0.0003778576343415052
1504281073.79,-1.0,-0.1906216627,0.13704793375,0.26222001435,0.207272,-0.151087,0.135622,1.0498411091,-9.33407734315,2.8183723700999996,2.785016,1.259088,1.240975,0.009029999999999982,-0.0036999999999998145,-0.001016000000000003,-0.0005767555897786547,0.00328644021508695,-0.0013635443005959313
1504281073.8,-1.0,-0.26182774835,0.1145024454,0.28960018115,0.192396,-0.148824,0.128125,1.0368080712499999,-9.3285954258,2.84127089785,2.791698,1.257269,1.232602,0.004489999999999994,-0.0019000000000000128,-0.0005089999999999956,6.645323384124602e-05,0.0016451105512449438,-0.0004394171329342722
1504281073.81,-1.0,-0.30403556995,0.0256149698,0.27844021345,0.172157,-0.145459,0.127017,1.02917849755,-9.324839478849999,2.8563142989499997,2.795758,1.256031,1.226791,0.004234999999999989,-0.0015499999999999403,-0.0004885000000000028,0.00017354317240214634,0.0014865906831063036,-0.00018220534813706557
1504281073.82,-1.0,-0.46113810295,-0.07506990575,0.2303974351,0.157137,-0.151736,0.133406,1.02123511105,-9.3215738644,2.8697886360499996,2.799711,1.254958,1.221052,0.004234999999999989,-0.0015500000000003844,-0.0004885000000000028,0.00017327509664388785,0.0014866210395674262,-0.00018195029089840276
1504281073.83,-1.0,-0.6104247359,-0.104735022,0.30346678425,0.144304,-0.154828,0.134457,1.01309559155,-9.3186907093,2.8820175285999996,2.803562,1.254011,1.215369,0.004110000000000058,-0.0015999999999998238,-0.0005229999999999957,0.0004840048547443132,0.0012523916984714667,5.970476517935808e-05
1504281073.84,-1.0,-0.66096821,-0.07257901665,0.45962787885,0.129477,-0.145109,0.12801,1.0052796915,-9.31613117365,2.8930009765999998,2.807158,1.253176,1.210027,0.004009999999999958,-0.0017000000000000348,-0.0005469999999999989,0.0008322884947307152,0.0009451488048100032,-7.165667539466014e-05
1504281073.85,-1.0,-0.66678355345,-0.07827668029999998,0.5833681885499999,0.114839,-0.11833,0.110859,0.9980816104,-9.31387564415,2.90273898005,2.810415,1.25244,1.205278,0.0038799999999999946,-0.0017000000000000348,-0.000564000000000002,0.0011085574032887457,0.0005510812549112121,-0.00022390063355859358
1504281073.86,-1.0,-0.6295673167,-0.1340176789,0.5497411857,0.114038,-0.096992,0.091607,0.9919916807499999,-9.3115514681,2.9122710438499997,2.813294,1.251683,1.201197,0.003770000000000051,-0.0017000000000000348,-0.0005690000000000001,0.001075810925926568,-4.445351538540088e-05,-0.0004569295431029463
1504281073.87,-1.0,-0.60339336785,-0.16725241575,0.41504684794999996,0.127882,-0.100302,0.091636,0.9864705368,-9.3088448327,2.9227739660000003,2.816086,1.250806,1.197221,0.003630000000000022,-0.0015999999999998238,-0.000562,0.0008484041226739514,-0.0006114458425676705,-0.0006342167203146065
1504281073.88,-1.0,-0.6308127612499999,-0.1339980656,0.31264580864999997,0.153326,-0.118631,0.094915,0.9811161058999999,-9.30544192515,2.9353853179,2.819029,1.249704,1.19292,0.003549999999999942,-0.0015999999999998238,-0.0005409999999999998,0.00032409179813086553,-0.0008231133000304869,-0.0006752506378856493
1504281073.89,-1.0,-0.6222907823999999,-0.1008908152,0.26337719904999995,0.175528,-0.138004,0.104594,0.97543805555,-9.301440811949998,2.9499383865,2.822248,1.248412,1.188128,0.003549999999999942,-0.0016000000000002679,-0.0005409999999999998,0.00032464295390455256,-0.0008228913571537433,-0.000675507761807248
1504281073.9,-1.0,-0.69938085805,-0.05206350485,0.25731668934999996,0.186168,-0.142353,0.103553,0.96992671825,-9.29698859285,2.965727093,2.825512,1.246985,1.183178,0.003350000000000186,-0.0013000000000000789,-0.0004865000000000008,-0.0005165660075991951,-0.0003926046264979277,-0.0003405306684181042
1504281073.91,-1.0,-0.7678803082999999,-0.012827098199999998,0.21827641569999998,0.186412,-0.128474,0.076844,0.9660040582499999,-9.29224217425,2.9818688388999997,2.828304,1.245464,1.178825,0.003349999999999964,-0.0013000000000000789,-0.0004865000000000008,-0.0005164327668782942,-0.0003927826782499366,-0.0003403281262566171
1504281073.92,-1.0,-0.78210975745,0.02495792425,0.18295286239999997,0.165548,-0.093098,0.038319,0.9645134474499999,-9.287525175599999,2.99700049985,2.830233,1.243963,1.175703,0.003249999999999975,-0.0009500000000000064,-0.000451,-0.0010095758770218843,0.00015039022001395175,0.00040984447759251363
1504281073.93,-1.0,-0.8120690732,0.10180283365,0.20878357849999998,0.135118,-0.054443,-0.002363,0.9657490853499999,-9.28325928285,3.00976875815,2.831099,1.242613,1.174116,0.003249999999999975,-0.0009500000000000064,-0.000451,-0.0010095164375898413,0.0001508039380335724,0.00040969335534057905
1504281073.94,-1.0,-0.7920831204999998,0.11439457224999999,0.2085482189,0.108849,-0.021164,-0.03022,0.9689558599,-9.2795425625,3.02018342045,2.831139,1.241439,1.173759,0.0031999999999998696,-0.0008999999999996788,-0.0004600000000000021,-0.0010198540547805557,0.0005006980844284303,0.0009678396212626783
1504281073.95,-1.0,-0.717258381,0.11185464989999999,0.27640043025,0.094223,0.002425,-0.054837,0.97359440535,-9.276110234999999,3.0292447650499996,2.830622,1.240357,1.174274,0.0016000000000000458,-0.000500000000000167,-0.0002370000000000011,-0.0004243094689240223,0.00036251110251783736,0.0006288527436265623
1504281073.96,-1.0,-0.6502397349,0.17480353625,0.31305768795,0.099791,0.021577,-0.070872,0.979292069,-9.272471967849999,3.0385218559499996,2.82981,1.239216,1.175316,0.0016000000000000458,-0.000500000000000167,-0.00023699999999999416,-0.00042408052016962294,0.0003627753147021906,0.0006286975526712535
1504281073.97,-1.0,-0.5720415078,0.23223127864999998,0.30424150959999996,0.117136,0.045959,-0.086896,0.9857840712999999,-9.268255108349999,3.049279751,2.828912,1.237896,1.176691,0.006199999999999983,-0.0017999999999998018,-0.0009989999999999999,-0.0015337206051107,0.0016059909839205577,0.002635026375290006
1504281073.98,-1.0,-0.41553718045,0.25071681389999995,0.303613884,0.138553,0.051119,-0.09434,0.9928448592999999,-9.2632439102,3.0621853023999996,2.828061,1.236337,1.178129,0.0031000000000001027,-0.0009000000000001229,-0.0005259999999999987,-0.0007172434592717103,0.0008161124653776053,0.0011371736187565373
1504281073.99,-1.0,-0.30309413155,0.271251939,0.32617898565,0.143839,0.040427,-0.099642,0.9936686178999999,-9.25534955695,3.08571145575,2.830055,1.233892,1.176821,0.0015499999999999403,-0.00039999999999995595,-0.0002720000000000014,-0.0003828188960373069,0.0003976665071072638,0.000475340395712176
1504281074.0,-1.0,-0.20109516489999998,0.29725917479999997,0.28728581175,0.13946,0.024482,-0.102824,1.0022494366499999,-9.2499264795,3.0991563728999996,2.828813,1.232224,1.178442,0.0015499999999999403,-0.00039999999999995595,-0.0002720000000000014,-0.0003826346361028854,0.00039785081293874924,0.00047519411157681546
1504281074.01,-1.0,-0.1459817919,0.24017466514999997,0.23647755809999998,0.138261,0.010635,-0.098532,1.0110460016999998,-9.244611275199999,3.1121109575499997,2.827476,1.230598,1.180024,0.0030000000000001137,-0.0009000000000001229,-0.0005579999999999995,-0.0009287039761574079,0.000704015312233075,0.000806696481508884
1504281074.02,-1.0,-0.12945758664999998,0.12601545249999999,0.22454286504999998,0.138084,-0.002166,-0.083566,1.0191953278499999,-9.2393941374,3.1249478623999996,2.826321,1.229005,1.181254,-0.2781500000000001,0.6066000000000003,-0.03069417,-0.0016186900886756561,0.00019570755499409564,8.101888649048039e-05
1504281074.03,-1.0,-0.12903590069999998,0.01083634825,0.2316134597,0.144219,-0.023549,-0.063234,1.02282378835,-9.2327060021,3.1434628175999997,2.827017,1.226976,1.180491,0.0052000000000000934,-0.0009000000000001229,-0.00100563,-0.0026594702614124444,0.0017059406556723111,0.0005552873117252721
1504281074.04,-1.0,-0.15744576575,0.0214177236,0.2177468566,0.139716,-0.043774,-0.048262,1.02878623155,-9.2277242239,3.1561330094,2.826489,1.225472,1.180644,0.002589999999999981,-0.00039999999999995595,-0.0005038,-0.0013512158044797218,0.0009334393603150914,-7.817485342731523e-06
1504281074.05,-1.0,-0.19249473285,0.05791807489999999,0.14224545824999998,0.125578,-0.069245,-0.035433,1.03435640875,-9.22322297155,3.16744007685,2.82595,1.224119,1.180559,0.0025999999999999357,-0.00039999999999995595,-0.0005024999999999999,-0.0011338408769252517,0.0009689641533165982,-0.00023036821853128497
1504281074.06,-1.0,-0.18347261485,-0.00152003075,0.0680777643,0.111451,-0.094714,-0.024739,1.03969122635,-9.2192905049,3.17710943375,2.825331,1.222942,1.180277,0.0026000000000000467,-0.00024999999999986144,-0.0004973500000000001,-0.0007382939612419204,0.0009624117327524662,-0.0004954357914901397
1504281074.07,-1.0,-0.21796260289999997,-0.052936296699999996,0.030949787399999998,0.102635,-0.124486,-0.016157,1.03947548005,-9.2162112168,3.1861021318,2.826229,1.222022,1.178284,0.0025999999999999357,-0.0002500000000000835,-0.0004973500000000001,-0.0007387889418117854,0.0009620484026500176,-0.0004961585564833282
1504281074.08,-1.0,-0.34647875115,-0.06877403644999999,-0.0035794272499999995,0.111905,-0.158674,-0.004339,1.0449868173499999,-9.21265140285,3.1945946907,2.825454,1.22096,1.177487,0.0025900000000000922,-0.000300000000000189,-0.0004963999999999997,-0.0003738910328840994,0.0009434388589411036,-0.0007197038119151067
1504281074.09,-1.0,-0.525440307,-0.0193191005,0.0313420534,0.129874,-0.175878,0.002127,1.0503706681999998,-9.208679709599998,3.2042738542499998,2.824829,1.21978,1.176313,0.002569999999999961,-9.999999999998899e-05,-0.0004980000000000002,-0.00020057115407312587,0.0009595283028724921,-0.0007587456215973898
1504281074.1,-1.0,-0.68555348155,0.041452709549999994,0.11735618055,0.151178,-0.183507,-0.00316,1.0563527247,-9.2039136777,3.2159731877,2.824224,1.21837,1.175001,0.0025500000000000522,-9.999999999998899e-05,-0.0005000999999999999,-0.00013793803890860268,0.0010755479620612185,-0.0007592448610200808
1504281074.11,-1.0,-0.7803347538,0.1287024746,0.14510900005,0.155569,-0.179258,-0.020218,1.0437021461999998,-9.19913783915,3.2337134175499997,2.829392,1.216963,1.168333,0.0017799999999998928,0.0009000000000001229,-0.00045620000000000036,-0.00037564269229539704,0.001119722779471699,-0.0007662257779376125
1504281074.12,-1.0,-0.89186578425,0.11060920535,0.0863181333,0.153719,-0.15578,-0.039476,1.0521260585499999,-9.19376379495,3.2462561228999998,2.82817,1.215383,1.167911,0.0017300000000000093,0.0010999999999998789,-0.00046249999999999937,-0.0006807174246155068,0.0012654255785675694,-0.0006671934286662795
1504281074.13,-1.0,-0.9428309443,-0.00222610955,0.04180574895,0.145554,-0.122657,-0.060896,1.0614914093,-9.18837013745,3.2584555955,2.826668,1.213806,1.168118,0.0016300000000000203,0.0011999999999998678,-0.0004934500000000003,-0.0016602625102140056,0.0013397947958506684,-0.0004132587800007581
1504281074.14,-1.0,-0.95964934905,-0.062458553849999994,-0.04463006415,0.137332,-0.094865,-0.079105,1.0717295518999999,-9.18305493315,3.2700666690999993,2.824885,1.212258,1.168923,0.0016300000000000203,0.0012000000000000899,-0.0004934500000000003,-0.0016608878267863059,0.0013391101168931385,-0.00041550150079294745
1504281074.15,-1.0,-0.9707504768499999,-0.011581653649999999,-0.1459817919,0.14179,-0.075706,-0.087645,1.05679402395,-9.18140741595,3.279539893,2.82986,1.211779,1.163659,0.0015000000000000568,0.0014000000000000679,-0.0005557999999999995,-0.0027446065758807148,0.0012180609128502606,-0.00014301458384491372
1504281074.16,-1.0,-0.96215985145,0.018103075899999998,-0.27310539585,0.157856,-0.067315,-0.086564,1.0670615865,-9.1754743927,3.2927886771499995,2.828212,1.210062,1.164701,0.0014199999999999768,0.0014000000000000679,-0.000614,-0.002942948953812863,0.0012797909866724133,7.217821130056645e-05
1504281074.17,-1.0,-0.9430859172,0.06465524345,-0.34256589779999996,0.186571,-0.078208,-0.085428,1.07730953575,-9.1686097377,3.3085283504,2.826804,1.208084,1.165411,0.0013449999999999296,0.0016000000000000458,-0.000698100000000001,-0.002632292062369146,0.001123277330378647,6.976442466788413e-05
1504281074.18,-1.0,-0.9234137772999998,0.06856809679999999,-0.37875243629999994,0.209998,-0.085857,-0.088576,1.08801839755,-9.160852677549999,3.3264647132499996,2.825482,1.205862,1.165946,0.0013450000000000406,0.0015999999999998238,-0.0006981000000000001,-0.002632304226183102,0.0011234511210240772,6.680791935409491e-05
1504281074.19,-1.0,-0.90065254265,0.01830901555,-0.42257835515,0.22168,-0.096603,-0.094941,1.0996785044,-9.1524876051,3.3455974874,2.824024,1.203479,1.166495,0.0012800000000000589,0.0017499999999999183,-0.0007735499999999996,-0.0015208071736212414,0.0009269400914555526,-0.00012130752831784886
1504281074.2,-1.0,-0.9018587606,-0.06855829014999999,-0.48007474409999995,0.232305,-0.109465,-0.106641,1.11284883535,-9.1435831669,3.36553440685,2.82225,1.200959,1.167245,0.0012799999999999478,0.0017500000000001403,-0.0007735499999999996,-0.001520975951936565,0.0009267569572353196,-0.00012272257845746815
1504281074.21,-1.0,-0.8987794724999999,-0.1662031042,-0.50617023975,0.240864,-0.113786,-0.11836,1.1272744174999998,-9.134217816149999,3.3860891452499997,2.820221,1.198327,1.168201,0.00044999999999995044,0.0025999999999999357,-0.000758,-0.0008433366450295576,0.0007709216439195643,-0.0003600470323668059
1504281074.22,-1.0,-0.8796957316,-0.18651267635,-0.4318946726499999,0.243098,-0.105273,-0.124776,1.1421609122,-9.1245386526,3.40713421615,2.81814,1.195624,1.169287,0.00043000000000004146,0.0028000000000001357,-0.0007720000000000001,-0.0005489011320713999,0.000759369199055504,-0.0005255927443692521
1504281074.23,-1.0,-0.9144799191499999,-0.12151420014999999,-0.37364317165,0.23784,-0.097767,-0.128,1.1571945066499998,-9.1148692957,3.4278948942,2.816024,1.192941,1.170493,0.00039000000000000146,0.0027999999999999137,-0.000791,-0.00037549190238617136,0.0007831777840690002,-0.0006232228311925381
1504281074.24,-1.0,-1.0036321743,0.0008335652500000001,-0.35113690989999996,0.219748,-0.093353,-0.130174,1.17227713435,-9.10568046465,3.4471355415,2.81379,1.190409,1.171892,0.0003349999999999742,0.003049999999999997,-0.0008339999999999997,-5.537489678664187e-05,0.0007049915259025319,-0.0007455510903746632
1504281074.25,-1.0,-1.0929903690999998,0.08274851269999998,-0.3140677729,0.201704,-0.08893,-0.141955,1.18800700095,-9.0969231262,3.46483654475,2.811279,1.18801,1.173632,0.0003349999999999742,0.003049999999999997,-0.0008339999999999997,-5.590229966112581e-05,0.0007049470329494323,-0.0007456085250051592
1504281074.26,-1.0,-1.06711061975,0.070804013,-0.2619944614,0.187914,-0.084536,-0.15263,1.1745522771499999,-9.094098811,3.4768104644,2.815805,1.187241,1.168953,0.000260000000000038,0.0031000000000001027,-0.0008910000000000012,0.0004015769552638826,0.0005793436558798604,-0.00083894536703355
1504281074.27,-1.0,-1.0691504029499999,0.03080268765,-0.24339124635,0.167615,-0.093949,-0.162255,1.192292507,-9.08612600455,3.4915792793000002,2.81253,1.185074,1.171517,0.00019999999999997797,0.0032999999999998586,-0.0009320000000000005,0.0006727785334694758,0.00042347815590138005,-0.000953188782891301
1504281074.28,-1.0,-1.009888817,-0.007453054,-0.31580354995,0.125874,-0.111709,-0.166536,1.182878123,-9.08557683215,3.4962080181,2.815351,1.184926,1.16835,0.0001300000000000745,0.0034000000000000696,-0.0009769999999999987,0.0008476339770551178,0.00020888685595776835,-0.0011092237151242301
1504281074.29,-1.0,-0.9481657618999999,-0.09843915269999999,-0.4391614003,0.066911,-0.141061,-0.160155,1.176209601,-9.08826385425,3.4914714061499996,2.816653,1.185654,1.166393,3.999999999992898e-05,0.0035000000000000586,-0.0010270000000000001,0.000873960964426157,-0.00010177569704872269,-0.001355152857977604
1504281074.3,-1.0,-0.9314258103499999,-0.2020954432,-0.5040225834,0.026047,-0.17376,-0.151602,1.1706982636999999,-9.093539831949998,3.4795661330499996,2.81704,1.187089,1.165007,-2.4999999999941735e-05,0.0018000000000000238,-0.0005374999999999998,0.0004369128586829696,-0.0001267290419413314,-0.0007701560176871514
1504281074.31,-1.0,-0.9604044610999999,-0.2094308174,-0.41461535534999994,0.022448,-0.211019,-0.145084,1.1654026727,-9.098472576899999,3.46842577865,2.81744,1.188435,1.16325,-2.5000000000052758e-05,0.0018000000000000238,-0.0005374999999999998,0.0004370118290863978,-0.00012639388898261217,-0.0007702138500711442
1504281074.32,-1.0,-1.012634679,-0.14856094085,-0.3077522903,0.046819,-0.231459,-0.146046,1.15988152875,-9.101581284949999,3.4621102960499996,2.818324,1.189286,1.16078,-0.48085999999999995,0.7068999999999999,0.026582599999999998,0.000454361298434236,-0.0025701591783093836,-0.003947683654856204
1504281074.33,-1.0,-1.0424272817,-0.11247246884999999,-0.32041267544999996,0.075723,-0.227414,-0.16092,1.15525278995,-9.10356222825,3.4584622222499997,2.819208,1.189827,1.15829,-0.0012900000000000134,0.0047000000000001485,-0.0010689000000000002,7.893172899686718e-05,-0.0009392668851859742,-0.0019746296714302503
1504281074.34,-1.0,-1.02988457635,-0.1309580041,-0.3058890268,0.096267,-0.207305,-0.185444,1.15274228755,-9.1042192738,3.45756001045,2.819785,1.190009,1.156319,-0.0013799999999999923,0.004899999999999904,-0.0010943999999999997,-0.00034525085485648255,-0.0010102926827617598,-0.0019400764329989828
1504281074.35,-1.0,-1.0578727554499998,-0.24075325749999998,-0.2325352848,0.099754,-0.187054,-0.212132,1.1516929759999999,-9.10397410755,3.4585700954,2.820144,1.18994,1.154818,-0.0015100000000000113,0.005099999999999882,-0.0011125500000000003,-0.00076361467625774,-0.0009379572186132279,-0.0017362981758998197
1504281074.36,-1.0,-1.1028460523499999,-0.43720987694999996,-0.16232947744999998,0.077493,-0.177259,-0.227105,1.15162432945,-9.103983914199999,3.4585504820999997,2.820161,1.189944,1.153821,-0.0015100000000000113,0.0051000000000001044,-0.00111255,-0.0007619571817139015,-0.0009392796127118963,-0.001735520202877816
1504281074.37,-1.0,-1.17435614415,-0.65277965725,-0.12907512729999998,0.037033,-0.166263,-0.228235,1.150712311,-9.1055333649,3.4547651152,2.82007,1.19037,1.15309,-0.0016499999999999848,0.005300000000000082,-0.0010951,-0.000800486861778138,-0.0009287397171420242,-0.001440169440515393
1504281074.38,-1.0,-1.27316794955,-0.8259847095499999,-0.16548721875,-0.001356,-0.161688,-0.225107,1.17694509975,-9.102620789849999,3.4536275437999997,2.813149,1.189569,1.15879,-0.0008750000000000147,0.0026999999999999247,-0.0005280599999999999,-0.0003395071475083,-0.0005135156207394243,-0.0005887706362676104
1504281074.39,-1.0,-1.4211797179999999,-0.88617792725,-0.13721464679999998,-0.020483,-0.14662,-0.216628,1.20210896365,-9.100630039899999,3.4501952163,2.806329,1.189025,1.164505,-0.0008750000000000147,0.0026999999999999247,-0.00052806,-0.0003391982339213673,-0.0005137146961093908,-0.0005885851678941734
1504281074.4,-1.0,-1.6494981432999998,-0.8362032388499999,-0.06901920269999999,-0.006425,-0.121165,-0.213446,1.2260175763499999,-9.098394123699999,3.4476847138999998,2.799932,1.188412,1.17,-0.00380999999999998,0.01110000000000011,-0.00195848,-0.0007581188490195512,-0.0024310264400313475,-0.0014113670300480718
1504281074.41,-1.0,-1.8187216957,-0.70746153765,-0.02990047585,0.024945,-0.072388,-0.223042,1.2053549648,-9.102483496749999,3.4441837398499997,2.804946,1.189531,1.165301,-0.002960000000000018,0.006199999999999983,-0.0006888999999999999,-0.00010294926269116544,-0.0013000594439249724,-0.00010230014381651387
1504281074.42,-1.0,-1.9930741260499998,-0.5383458583999999,-0.01893664115,0.056637,0.006231,-0.247676,1.2276749001999998,-9.0978645646,3.4484888592,2.799579,1.188269,1.170946,-0.003139999999999976,0.00649999999999995,-0.0006326000000000001,0.000219438095915514,-0.000951141458953364,0.0006854072667920041
1504281074.43,-1.0,-2.1526381282,-0.3923248399,-0.04853311085,0.084201,0.09236,-0.288341,1.2504753614499997,-9.0917059884,3.4565303122,2.794471,1.186589,1.177226,-0.003139999999999976,0.00649999999999995,-0.0006326000000000001,0.00021877895618072074,-0.0009512875940218546,0.0006851768601092711
1504281074.44,-1.0,-2.2431437010499997,-0.35714838634999996,-0.058947773149999994,0.082949,0.173404,-0.335452,1.2745408805499998,-9.084684427,3.46618986245,2.789232,1.184683,1.184538,-0.003320000000000045,0.006800000000000139,-0.0005729000000000003,0.0004336507133761991,-0.0003799688246419741,0.0014823040983360514
1504281074.45,-1.0,-2.36810003535,-0.5275585434,-0.09433016635000001,0.060244,0.246091,-0.372979,1.2995380313999998,-9.0776824789,3.4752414004,2.78375,1.182792,1.192939,-0.0034399999999999986,0.006899999999999906,-0.0005228999999999998,0.0006387927992328457,4.9703172710691135e-05,0.0018872102620104414
1504281074.46,-1.0,-2.5235844711,-0.78564015145,-0.05704528305,0.036372,0.304937,-0.412618,1.3260355997,-9.07098453695,3.4827042610499994,2.777792,1.180992,1.202532,-0.003610000000000002,0.007200000000000095,-0.000464,0.0010619538724303546,0.0005903950648828982,0.0022195382250630447
1504281074.47,-1.0,-2.6223374365999996,-0.99028532365,0.0671559392,0.031503,0.341244,-0.447914,1.3541610718999997,-9.064012008799999,3.4900298285999996,2.771466,1.179125,1.212986,-0.0037800000000000056,0.007399999999999851,-0.00039419999999999993,0.0013014042237786683,0.0007875597899504871,0.002421872661303226
1504281074.48,-1.0,-2.6961226712,-1.17263017375,0.21061742204999997,0.0479,0.367787,-0.484224,1.3845518802499999,-9.05599997575,3.49890484685,2.764791,1.176989,1.224144,-0.0039799999999999836,0.00770000000000004,-0.0003156000000000001,0.0013769867378377043,0.0007660902428836547,0.0025947737384551806
1504281074.49,-1.0,-2.6069213828,-1.30062656955,0.2834514116,0.063193,0.394331,-0.513065,1.4168549853499999,-9.0468111447,3.50971177515,2.757904,1.174555,1.235806,-0.0021050000000000235,0.00395000000000012,-0.00011420000000000007,0.0006088074321612957,0.00028146594193656505,0.0013279870618939649
1504281074.5,-1.0,-2.26197246905,-1.40275302265,0.2556397522,0.063436,0.41672,-0.525912,1.4497464894499998,-9.037014301349998,3.5215091751,2.751056,1.171974,1.24771,-0.002104999999999968,0.003949999999999898,-0.00011420000000000007,0.0006091830620549299,0.00028065613374117504,0.0013281630762801422
1504281074.51,-1.0,-1.7401704291999998,-1.4148053955,0.21421646259999996,0.030287,0.412722,-0.517424,1.4821966943,-9.0279627634,3.5312079519499995,2.744185,1.169603,1.259683,-0.009199999999999986,0.016350000000000087,-0.0001984999999999999,0.0008745053931413782,0.00026453900932121854,0.005082512443816745
1504281074.52,-1.0,-1.2458564292999998,-1.3324687620999998,0.186914749,-0.026802,0.36627,-0.483284,1.5132641615,-9.020960815299999,3.5359249505999997,2.737211,1.167779,1.271412,-0.0024550000000000405,0.004224999999999923,2.2900000000000177e-05,-0.00023781575407877398,-0.00013257290464419036,0.0011002241284959746
1504281074.53,-1.0,-0.9370156008499999,-1.23845240855,0.24882413045,-0.092814,0.295343,-0.41069,1.5411052408500001,-9.01710680185,3.53371845435,2.730346,1.166779,1.282292,-0.002454999999999985,0.004225000000000034,2.2900000000000177e-05,-0.00023796206832171762,-0.0001323121264424909,0.0011002580851353638
1504281074.54,-1.0,-0.706863332,-1.0968051559499998,0.3768891728,-0.146211,0.216827,-0.312443,1.5633957563,-9.016596856049999,3.5252160888,2.724167,1.166647,1.291575,-0.009989999999999999,0.017410000000000037,0.00044209999999999996,-0.0016320814551185059,0.000433083756741226,0.00303713006916273
1504281074.55,-1.0,-0.5174773072,-0.9281601958999999,0.5133389008999999,-0.181484,0.14986,-0.192837,1.5776644320499997,-9.01930349145,3.5119182714,2.719378,1.167348,1.298599,-0.0049699999999999744,0.008909999999999973,0.0004019999999999996,-0.0006714171306609895,0.0011181617648043929,0.0006719584081823493
1504281074.56,-1.0,-0.49257822285,-0.7286733215999999,0.5601950746,-0.172941,0.093187,-0.071038,1.582989443,-9.0239616502,3.49753191585,2.716576,1.168559,1.302804,-0.0048850000000000005,0.00906499999999999,0.00060435,-0.0004748241195013936,0.002292513420284248,2.640751672700059e-05
1504281074.57,-1.0,-0.48285002605,-0.5932434850999999,0.5612051595499999,-0.118142,0.079828,0.04436,1.5787921967999998,-9.0289042018,3.4866465343499997,2.716404,1.16985,1.303833,-0.0048850000000000005,0.00906499999999999,0.00060435,-0.0004748046995821653,0.0022925370802524547,2.5320518632354627e-05
1504281074.58,-1.0,-0.31644098219999994,-0.65654541085,0.47089571969999994,-0.054246,0.118639,0.130862,1.5648667537999998,-9.03309164135,3.48207663545,2.719232,1.170945,1.301925,-0.004760000000000014,0.009199999999999986,0.0008346,-0.0005335197124347602,0.0034425111790648,-0.00024360270792656014
1504281074.59,-1.0,0.0149649479,-0.9431447570999999,0.27593951769999997,-0.011465,0.166181,0.186357,1.54381187625,-9.03648474225,3.4826650344499996,2.724337,1.171836,1.298057,-0.0023350000000000037,0.0046199999999999575,0.0004906000000000003,-0.0003515359287966646,0.002025631743846956,-0.00010902338714646742
1504281074.6,-1.0,0.27891093265,-1.2589385003999998,0.1433339964,-0.013564,0.215142,0.257783,1.5150881983999998,-9.0404760488,3.4849303706,2.731488,1.172883,1.292536,-0.0023350000000000037,0.0046200000000000685,0.0004905999999999999,-0.0003517876779546292,0.002025592568267731,-0.00010974567936772317
1504281074.61,-1.0,0.23299619734999996,-1.39400549085,0.18796406054999998,-0.077045,0.20917,0.354817,1.47781312175,-9.04740935035,3.4829494272999995,2.740316,1.174711,1.285307,-0.004589999999999983,0.00922999999999996,0.0010898,-0.0006900866172570019,0.004354899602791562,-5.578183238241774e-05
1504281074.62,-1.0,0.1294085534,-1.1668148302999999,0.16238831735,-0.192077,0.174829,0.474227,1.43130998745,-9.0594224966,3.47111280075,2.750487,1.177899,1.276263,-0.009220000000000006,0.018140000000000045,0.0022959,-0.0013278738975153193,0.00851656194107453,0.0005963243763159598
1504281074.63,-1.0,0.2324960582,-0.725103701,0.1889937588,-0.343238,0.156772,0.590344,1.37476484355,-9.077800158699999,3.4458508703499997,2.761982,1.182825,1.265561,-0.004739999999999994,0.00878000000000001,0.0011055,-0.0007138608920802536,0.0035020615621215168,2.2732235347544538e-05
1504281074.64,-1.0,0.47202348445,-0.21661909185,0.26728024575,-0.516493,0.148537,0.65944,1.310756839,-9.102660016449999,3.4049767531499997,2.774124,1.189581,1.254089,-0.004820000000000019,0.008510000000000018,0.0010243000000000001,-0.00046881799238596145,0.0025518155804606923,-0.000583307567652458
1504281074.65,-1.0,0.8387431612,0.2435579594,0.09094687209999999,-0.702198,0.151116,0.675124,1.2443658185,-9.133384250899999,3.3471273247999997,2.785655,1.198091,1.243286,-0.004889999999999978,0.00820999999999994,0.0009226999999999998,4.7842997058733516e-05,0.0013811828415253302,-0.000663869993992483
1504281074.66,-1.0,1.1987550893499999,0.5348743042999999,-0.18774831424999996,-0.868356,0.181265,0.666244,1.17733736575,-9.168962777099999,3.27327344365,2.796317,1.208187,1.233692,-0.004930000000000018,0.007920000000000038,0.0008154,0.0008027507042984716,0.0003824115971313713,-0.0005452097850995319
1504281074.67,-1.0,1.5041243636999997,0.7046470291,-0.25343325595,-0.985235,0.234454,0.654206,1.1098970337,-9.20751271825,3.18752409605,2.806523,1.219434,1.225142,-0.004924999999999985,0.00759999999999994,0.0006624999999999999,0.001552891100100151,-0.0006120838926375605,-0.00024970894016362877
1504281074.68,-1.0,1.672229958,0.7805701133999999,-0.11588518304999999,-1.055223,0.286183,0.650792,1.0411524172,-9.24721003745,3.09441976095,2.81703,1.231392,1.216915,-0.004925000000000013,0.007600000000000051,0.0006624999999999999,0.0015529883935796462,-0.0006116981993053994,-0.0002506521019800534
1504281074.69,-1.0,1.7384640720999998,0.7468940772999999,0.03305821715,-1.0799,0.278911,0.666773,0.9710250630499999,-9.286711223649998,2.9974025724999995,2.828306,1.243706,1.208016,-0.004799999999999999,0.007390000000000008,0.0005375000000000007,0.0015383883448603086,-0.0010005900016361036,-5.5864276061523555e-05
1504281074.7,-1.0,1.8557319928,0.6225457552999999,0.14656038424999998,-1.080395,0.227748,0.68394,0.90059370275,-9.32501599855,2.8988653532999997,2.840375,1.256089,1.197847,-0.0046599999999999975,0.007329999999999948,0.0004824,0.0011002093585203987,-0.0008613654088460709,-0.00010228414173341083
1504281074.71,-1.0,2.0954065188,0.5341486122,0.2362814251,-1.068264,0.150913,0.695838,0.8309076478499999,-9.361575189749999,2.8001712277,2.853134,1.268363,1.186248,-0.004590000000000011,0.00721000000000005,0.00048059999999999943,0.0007177327572589487,-0.0005630510513043863,-0.00018105803391743613
1504281074.72,-1.0,2.35468453815,0.4481835183,0.24093958385,-1.051942,0.0719,0.719489,0.7613686927,-9.3963593773,2.70168304175,2.866904,1.28051,1.172821,-0.004369999999999985,0.007159999999999944,0.0004603999999999997,0.0005922941315716912,-0.00015334343110073867,-0.00034243863486782544
1504281074.73,-1.0,2.4956747451999997,0.3218346397,0.3045160958,-1.020805,-0.018963,0.748523,0.69145708485,-9.42908416835,2.6047344998499997,2.882115,1.292406,1.157033,-0.004150000000000015,0.007099999999999995,0.0004576000000000007,0.0006173601181103106,0.0004137331309130854,-0.00028616502688161294
1504281074.74,-1.0,2.5629679775,0.08518056189999999,0.48818484365,-0.955648,-0.121833,0.782974,0.62057461865,-9.45907290405,2.5121989504499997,2.899418,1.303761,1.138069,-0.0019699999999999995,0.003515000000000046,0.00023344999999999963,0.0003679645907719298,0.00035819359595179456,-0.0002045244744039998
1504281074.75,-1.0,2.60326350235,-0.36968128505,0.5504276511999999,-0.875154,-0.185384,0.800304,0.5492998864499999,-9.48590389845,2.4261652099999997,2.918939,1.314333,1.116079,-0.0019699999999999995,0.003515000000000046,0.00023344999999999963,0.00036790145111309513,0.00035827069782334853,-0.00020439810933403635
1504281074.76,-1.0,2.76519090715,-0.9706033771,0.5110245314999999,-0.80166,-0.200908,0.800459,0.47805457419999997,-9.509567344899999,2.3473491639499997,2.940685,1.324023,1.091536,-0.007440000000000002,0.013789999999999969,0.0010087000000000013,0.00177910923655622,0.0019377741776134272,-0.0005848436985926853
1504281074.77,-1.0,2.7323582429499997,-1.5698681452999999,0.3483518213,-0.770443,-0.177703,0.782326,0.40732901439999997,-9.531004681799999,2.2725538444,2.964236,1.333136,1.065369,-0.003610000000000002,0.006730000000000014,0.0005719999999999996,0.0010140660260327117,0.0002799553926884357,-0.00022658063444680465
1504281074.78,-1.0,2.36003896905,-1.8709519136,0.1763431803,-0.777501,-0.135006,0.768362,0.3370349472,-9.551186767499999,2.19811156425,2.98945,1.342042,1.037949,-0.0036199999999999843,0.006619999999999959,0.0006339999999999991,0.0013394562372901486,-0.0008437767947753194,-0.000307601953012937
1504281074.79,-1.0,1.7756705022,-1.7495848132,0.0639785846,-0.80914,-0.092116,0.762895,0.26598576795,-9.570800067499999,2.12118820165,3.016848,1.351037,1.008797,-0.003699999999999981,0.006425000000000014,0.000734499999999999,0.002144754601757448,-0.0028984461947574314,-0.0003681365127405911
1504281074.8,-1.0,1.25775189575,-1.3180333732999998,0.024251845449999997,-0.835346,-0.050314,0.736091,0.19597609359999998,-9.5898053552,2.04149936375,3.04589,1.360109,0.978439,-0.003700000000000009,0.006425000000000014,0.0007345000000000008,0.0021454679179992997,-0.00289766989075102,-0.0003743015943806771
1504281074.81,-1.0,0.9768207931999999,-0.9606300140499999,0.1239364427,-0.865631,0.001136,0.686847,0.12884957435,-9.608124177399999,1.9590254372499998,3.075914,1.369238,0.947668,-0.0039050000000000196,0.006249999999999978,0.0008160000000000008,0.0028679260496935477,-0.005180929298599146,-0.00014259319436804585
1504281074.82,-1.0,0.948106922,-0.54810347515,0.0716473849,-0.885199,0.036549,0.602426,0.06822486404999999,-9.62560943435,1.8743940477499998,3.105209,1.378349,0.918053,-0.003904999999999992,0.006249999999999978,0.0008160000000000008,0.002867916764107248,-0.005180492374834422,-0.00015743055934425154
1504281074.83,-1.0,1.0433491068,-0.2784107935,0.0585260872,-0.899267,0.095356,0.522243,0.0147295883,-9.64226112605,1.7880072678999999,3.133352,1.387439,0.890207,-0.0039899999999999936,0.006210000000000049,0.000782999999999999,0.002706108383220718,-0.005999245011212739,-0.00014888457672956878
1504281074.84,-1.0,0.8435876462999999,-0.0742363405,0.01171894675,-0.907981,0.176464,0.474052,-0.03464689445,-9.6580400259,1.7004338834,-3.121217,1.396483,0.862717,-0.004019999999999996,0.006220000000000003,0.0007280000000000012,0.002263203116306567,-0.006153159480861037,0.00024371561631153504
1504281074.85,-1.0,0.37314303249999997,0.1324486149,0.01744603035,-0.92751,0.269332,0.473854,-0.08419009025,-9.6730442004,1.6110560753,-3.089381,1.405539,0.832907,-0.004019999999999996,0.006269999999999998,0.0006204999999999995,0.0017039238856120242,-0.005958636164154374,0.0009571569670848712
1504281074.86,-1.0,-0.06989199454999999,0.35889397004999996,0.032067745499999994,-0.922856,0.307672,0.457783,-0.13376270599999998,-9.68700887,1.5213154211499997,-3.053892,1.41443,0.799998,-0.00402000000000001,0.006269999999999998,0.0006204999999999995,0.001697943761752363,-0.005960232853273295,0.000946845655487305
1504281074.87,-1.0,-0.06441988385,0.3570405132,0.1597699418,-0.922286,0.360977,0.42887,-0.18112882549999998,-9.69996345465,1.4311825009999999,-3.015701,1.423157,0.76485,-0.0040000000000000036,0.006329999999999947,0.0004979999999999984,0.0011916214581244589,-0.00557141930453775,0.0016248815367098102
1504281074.88,-1.0,-0.0797280645,0.4819968475,0.50787659685,-0.910649,0.465338,0.402022,-0.22687684774999997,-9.71179027455,1.3416477864999998,-2.974075,1.431595,0.727218,-0.003979999999999997,0.006390000000000007,0.0004050000000000026,0.0007173190526952311,-0.005393937670221893,0.0019863527980261697
1504281074.89,-1.0,-0.22509203745,0.6331957772,0.9282974889999999,-0.925774,0.556071,0.370881,-0.27066354,-9.722783529199999,1.2508774341,-2.928502,1.439917,0.686627,-0.003960000000000005,0.006430000000000047,0.00029900000000000065,0.00031842786567493064,-0.005260578414576278,0.0022216081312704805
1504281074.9,-1.0,0.09482049885,0.64550312295,0.8774205888,-0.95155,0.652214,0.345049,-0.31239083575,-9.7331393516,1.15705721355,-2.877889,1.448279,0.641943,-0.003949999999999995,0.006469999999999976,0.0001799999999999996,-2.8589629375685988e-05,-0.0052148363966915134,0.002362756052426085
1504281074.91,-1.0,0.4923722832,0.6929084690499999,0.8495500894999999,-0.998835,0.727222,0.319217,-0.35200970175,-9.742985228199998,1.0586278675,-2.820577,1.456788,0.59139,-0.003972000000000003,0.006369999999999987,0.00020799999999999985,-0.00048704593196058354,-0.005088164721631427,0.0028599764222025925
1504281074.92,-1.0,0.9512940832499999,0.8534139096,0.6576339489999999,-1.044079,0.774535,0.26782,-0.38731364175,-9.7523603856,0.9548538971999999,-2.75625,1.465528,0.534381,-0.0039325000000000054,0.006419999999999981,3.300000000000178e-05,-0.0006922042922943294,-0.0049460319043441725,0.0019818589623573635
1504281074.93,-1.0,1.6392305807499998,1.14285718435,0.49605958359999996,-1.056094,0.815223,0.174863,-0.41414463614999997,-9.7610883041,0.8485890378,-2.687557,1.47436,0.47343,-0.0039324999999999916,0.006420000000000092,3.299999999999831e-05,-0.0007020379208440009,-0.004944620263771071,0.00198537388968989
1504281074.94,-1.0,2.37761248585,1.46514292995,0.41802806954999994,-1.023287,0.835332,0.046796,-0.42858002494999997,-9.76898265735,0.7440501487999999,-2.619002,1.483125,0.412948,-0.00385400000000001,0.006469999999999976,-0.00011300000000000199,-0.0008646296597998315,-0.004784444588922909,0.0011708575626556694
1504281074.95,-1.0,2.9299034005499998,1.72945176075,0.336368095,-0.943837,0.817762,-0.081123,-0.42946262344999997,-9.775915958899999,0.64615036185,-2.554986,1.491599,0.357002,-0.0037579999999999975,0.00653999999999999,-0.0001810000000000006,-0.0010144654562547206,-0.004864528278609059,0.00046461447205214945
1504281074.96,-1.0,3.151268911,1.8568891774999998,0.2813920151,-0.839436,0.727509,-0.193928,-0.41753773704999997,-9.781848982149999,0.5580768382,-2.499259,1.499663,0.308709,-0.0036159999999999942,0.006610000000000005,-0.00022699999999999804,-0.0011777265220427324,-0.004973199912910786,-0.0002118492011069506
1504281074.97,-1.0,3.09334102945,1.8455428834499998,0.1931713917,-0.733792,0.553018,-0.262818,-0.39627691984999996,-9.786811147049999,0.48124173544999993,-2.452725,1.507184,0.268084,-0.0034320000000000045,0.006699999999999928,-0.0002590000000000023,-0.0013136735768739527,-0.0048690500039032525,-0.0009167891966153086
1504281074.98,-1.0,2.8852046898499997,1.6467522812999997,0.0343625016,-0.62332,0.353914,-0.269747,-0.37128957565,-9.790782840299999,0.41604712624999995,-2.412978,1.513903,0.232328,-0.0032109999999999916,0.006800000000000028,-0.00028699999999999906,-0.0014195068828446455,-0.004542056363089131,-0.001603620537000472
1504281074.99,-1.0,2.5088156562,1.2974786349,-0.1281140756,-0.531142,0.178331,-0.207369,-0.34998953185,-9.7937444486,0.3611004663,-2.371817,1.519494,0.193313,-0.0029710000000000014,0.006900000000000017,-0.00032099999999999837,-0.001489257923157794,-0.004023993428584172,-0.0022501509156112043
1504281075.0,-1.0,2.1059878941499997,0.9095569808499999,-0.36162021874999994,-0.447547,0.020895,-0.10661,-0.33712320705,-9.795784231799999,0.31507785785,-2.322415,1.523725,0.144447,-0.002635499999999999,0.007064999999999988,-0.0003849999999999999,-0.0015178779822868638,-0.0030047366580665535,-0.0027829531463671175
1504281075.01,-1.0,1.7088774090499999,0.6194566605499999,-0.52350839695,-0.374492,-0.115151,0.002631,-0.33445579825,-9.79702967635,0.27690056939999996,-2.262328,1.526505,0.083466,-0.002635500000000013,0.007064999999999988,-0.0003849999999999999,-0.001509701897578708,-0.0030089282296883457,-0.0027787526647420346
1504281075.02,-1.0,1.2712458461499998,0.46949336875,-0.5754346087,-0.316065,-0.215906,0.106448,-0.34214421185,-9.7976082687,0.24548986944999998,-2.19317,1.527843,0.012337,-0.0023739999999999872,0.00721000000000005,-0.0004580000000000001,-0.0015308663203097428,-0.0019288422593302101,-0.003207870978173877
1504281075.03,-1.0,0.875537712,0.45014484829999996,-0.62233981565,-0.26008,-0.246271,0.170643,-0.3567463137,-9.7977063352,0.21921785409999997,-2.12181,1.528086,-0.061505,-0.002265000000000003,0.007329999999999948,-0.0005080000000000015,-0.001539526680029768,-0.001355334178069434,-0.003437328004786022
1504281075.04,-1.0,0.45572483215,0.5363060752,-0.41628248585,-0.210157,-0.238217,0.228355,-0.37732066540000003,-9.79738271575,0.1984081428,-2.054896,1.527312,-0.13091,-0.0022080000000000016,0.007430000000000048,-0.0005539999999999989,-0.0015084285613256032,-0.0010957772978892333,-0.0033794339647225113
1504281075.05,-1.0,-0.17280297965,0.51968380345,-0.2565223507,-0.17062,-0.219381,0.246536,-0.40090565865,-9.79677470345,0.18155051145,-1.996025,1.525903,-0.192088,-0.0021940000000000015,0.007549999999999946,-0.0005990000000000006,-0.001576098669376913,-0.0009886587369476452,-0.0031684523884695226
1504281075.06,-1.0,-0.43312050389999995,0.6716378451999999,-0.33898647055,-0.140287,-0.181237,0.215567,-0.42280390809999996,-9.796098044599999,0.16780158815000001,-1.948602,1.524395,-0.241499,-0.0022109999999999977,0.007640000000000091,-0.0006429999999999995,-0.0016489652891196194,-0.0010015055883443313,-0.0028742795472110894
1504281075.07,-1.0,-0.5460244653499999,0.96202255835,-0.35984521509999995,-0.102013,-0.110081,0.142924,-0.43843570819999994,-9.79557829215,0.15738692585,-1.915448,1.523277,-0.275988,-0.002251000000000003,0.007739999999999969,-0.0006860000000000008,-0.0017039377068717165,-0.0010665210852898177,-0.002581323701394189
1504281075.08,-1.0,-0.6212512775,1.2250271046999999,-0.3581976979,-0.060249,-0.016554,0.047833,-0.44536900974999993,-9.7953723525,0.15079685704999998,-1.897276,1.52283,-0.294598,-0.0023029999999999995,0.007830000000000004,-0.0007329999999999993,-0.001699034608570571,-0.0011194387808008965,-0.0023268431188002703
1504281075.09,-1.0,-0.593890724,1.495710258,-0.40947667075,-0.010145,0.052396,-0.047201,-0.44310367359999997,-9.7955096456,0.1483550012,-1.893878,1.523129,-0.297612,-0.002349999999999998,0.007919999999999927,-0.0007860000000000002,-0.001715616909969686,-0.0011273876045450049,-0.0020857324143671585
1504281075.1,-1.0,-0.42974701629999995,1.7240384899499999,-0.46629640084999996,0.051374,0.089271,-0.129349,-0.43231635859999995,-9.7959411382,0.15161080899999999,-1.908092,1.524063,-0.282578,-0.002381000000000001,0.008044999999999969,-0.0008900000000000002,-0.001982548033691245,-0.0009821743521034598,-0.0014496072415903782
1504281075.11,-1.0,-0.24338143969999998,1.8585465013499998,-0.49630474985,0.110516,0.112285,-0.184792,-0.4156254403,-9.79651973055,0.1605152472,-1.939357,1.525348,-0.250202,-0.002381000000000001,0.00804500000000008,-0.0008900000000000002,-0.0019812234756146907,-0.000985035744499152,-0.0014477296918269378
1504281075.12,-1.0,-0.17765727139999998,1.9263692927499998,-0.6556530057,0.171751,0.134209,-0.233825,-0.3941096502,-9.7971571628,0.17547038845,-1.989672,1.526791,-0.19856,-0.0022920000000000024,0.008220000000000005,-0.0010474999999999998,-0.00228105790141786,-0.0004164663129357926,-0.00027766501206638594
1504281075.13,-1.0,-0.24593116869999998,1.7296577004,-0.74833565485,0.196814,0.17241,-0.277613,-0.36818086759999996,-9.79781420835,0.19393631039999998,-2.055597,1.52835,-0.13097,-0.002241999999999994,0.00831000000000004,-0.0011456999999999995,-0.0022813670760875038,0.0001477447545770172,0.00041418643728186044
1504281075.14,-1.0,-0.27810678735,1.4092548316,-0.9008290623499999,0.171855,0.228069,-0.318315,-0.33839807155,-9.798539900449999,0.21085278165,-2.128022,1.530128,-0.056353,-0.0021850000000000064,0.008399999999999963,-0.0012374000000000005,-0.002105035249016618,0.0005960618833469322,0.0007878536689767124
1504281075.15,-1.0,-0.25533574605,0.9995526079,-1.0347879013499999,0.131687,0.27103,-0.324865,-0.30685988514999996,-9.7992950125,0.22374852639999998,-2.200833,1.532061,0.019155,-0.002134999999999998,0.008510000000000018,-0.0013023000000000002,-0.0018723675877181378,0.0008081225030298622,0.0008740323889501189
1504281075.16,-1.0,-0.437572723,0.4584216609,-0.99261930635,0.080683,0.304472,-0.313271,-0.27649849675,-9.8000010913,0.23231953849999998,-2.26958,1.533962,0.090903,-0.0020960000000000006,0.008619999999999961,-0.0013264999999999996,-0.0015865034669695355,0.0007772787131588021,0.0007268851983733837
1504281075.17,-1.0,-0.36316966945,-0.23268238455,-1.0448691375499999,0.024181,0.334733,-0.273929,-0.2491477499,-9.800667943499999,0.2350261739,-2.327042,1.535863,0.1517,-0.0020419999999999987,0.00882000000000005,-0.0012799500000000002,-0.0012281482840021951,0.0005153363799084154,-0.00021480558172426445
1504281075.18,-1.0,-0.1621431511,-0.8682611777,-1.1933712385,-0.012465,0.334958,-0.199274,-0.22856359155,-9.801197502599999,0.23374150274999997,-2.367403,1.537454,0.195465,-0.0020419999999999987,0.008819999999999939,-0.00127995,-0.0012282249148500846,0.0005150731263083852,-0.0002154333319523971
1504281075.19,-1.0,-0.0925551627,-1.4585430545,-1.0631389265,-0.025884,0.32111,-0.09787,-0.21704077779999997,-9.8015309287,0.23071124789999997,-2.386705,1.538491,0.218019,-0.001974,0.009020000000000028,-0.00116972,-0.0006279592578699589,0.00012016179805707239,-0.0014189090913766522
1504281075.2,-1.0,0.03080268765,-1.8602430518,-0.9970322988499999,-0.022223,0.317762,0.018489,-0.2166485118,-9.80161918855,0.22759273319999998,-2.380826,1.538749,0.215309,-0.001915,0.009139999999999981,-0.00107072,-9.892411136203094e-05,-0.00025953196888628405,-0.0020961130714651777
1504281075.21,-1.0,0.13034999179999998,-2.0552777069999997,-0.92554182035,-0.00876,0.339907,0.135888,-0.227906546,-9.80140344225,0.2255333367,-2.350952,1.538094,0.188765,-0.0017420000000000005,0.00928000000000001,-0.0010146600000000001,0.0004619513840107281,-0.0005598701344415868,-0.0022561613288449855
1504281075.22,-1.0,0.0471699865,-1.9736177324499997,-1.0475169330499998,0.004757,0.350361,0.22342,-0.24872606395,-9.80091310975,0.2248076446,-2.305734,1.536602,0.147015,-0.001688000000000002,0.009429999999999994,-0.0009177999999999999,0.0008919864329512972,-0.0009663770768089108,-0.0023740587558956916
1504281075.23,-1.0,-0.24426403819999998,-1.7488395077999999,-1.4339872028999998,0.016036,0.325705,0.275786,-0.2754295719,-9.8001972243,0.22520971724999997,-2.256223,1.534509,0.10081,-0.0016489999999999977,0.009620000000000017,-0.0008351999999999999,0.001072707212120605,-0.0012899745942451801,-0.002288245393164412
1504281075.24,-1.0,-0.7120020166,-1.51378391395,-1.9056184213499998,0.013328,0.279863,0.31749,-0.3062812928,-9.799265592549999,0.2257883096,-2.206042,1.531985,0.05353,-0.001636000000000002,0.009830000000000005,-0.0007675,0.0010952394786545305,-0.001352826719844158,-0.0016598320968129743
1504281075.25,-1.0,-1.2681763646999997,-1.1833292289,-2.22898289845,0.012697,0.22229,0.351748,-0.34057514785,-9.798118214499999,0.22622960884999999,-2.157137,1.529092,0.00694,-0.0016529999999999982,0.010079999999999978,-0.0007133,0.0009648779478965697,-0.0013309331279807157,-0.0007118140057261746
1504281075.26,-1.0,-1.8444543453,-0.7881408471999999,-2.41034708355,0.030601,0.199754,0.362492,-0.37646748685,-9.79677470345,0.22787712605,-2.115112,1.525907,-0.033097,-0.0016990000000000009,0.010319999999999996,-0.0006695,0.0008465022579897674,-0.0012868951706535015,0.0003852854567943931
1504281075.27,-1.0,-2.3015815284,-0.3197556299,-2.45481043465,0.070449,0.222908,0.325162,-0.41015332959999995,-9.795293899299999,0.2329863907,-2.0874,1.522677,-0.058696,-0.001764,0.010580000000000034,-0.0006310000000000005,0.0008806467804527429,-0.001178422937090362,0.0014254171020542383
1504281075.28,-1.0,-2.5095707682499997,0.19247511954999996,-2.4226936559,0.104414,0.274941,0.23013,-0.43604288559999993,-9.793970001549999,0.24157701609999999,-2.076727,1.519942,-0.066797,-0.0018440000000000002,0.010830000000000006,-0.0005940999999999993,0.0010687981077559527,-0.0009191409124065242,0.0023226872349740857
1504281075.29,-1.0,-2.5100905207,0.626644935,-2.4738451422999996,0.10131,0.334784,0.092324,-0.44944857614999995,-9.79314624295,0.25052068089999996,-2.079311,1.518303,-0.060989,-0.0019319000000000003,0.011059999999999959,-0.0005630000000000001,0.0013909914385354938,-0.0006350067840656948,0.0031450501727925406
1504281075.3,-1.0,-2.1785963307499996,0.8545122544,-2.6325853858499997,0.087508,0.396835,-0.035897,-0.44964470915,-9.7929599166,0.2570911364,-2.090196,1.517956,-0.046389,-0.0020244999999999994,0.011280000000000012,-0.0005365999999999999,0.0018508607185880877,-0.00041108022973523894,0.003927829964947116
1504281075.31,-1.0,-1.9114631847499999,0.8211990643499999,-2.59222121445,0.124875,0.47443,-0.139489,-0.43978902589999996,-9.793165856249999,0.26610344775,-2.114931,1.518356,-0.016998,-0.0004409749999999997,0.0028750000000000164,-0.0001643249999999999,0.0006592645408827202,-3.603432526211314e-05,0.0013013782800092022
1504281075.32,-1.0,-1.99956612835,0.82780874645,-2.25975616615,0.156377,0.461522,-0.272836,-0.41767503014999996,-9.79379348185,0.27854808659999997,-2.158964,1.51958,0.031827,-0.00044097500000000057,0.002874999999999961,-0.0001643249999999999,0.0006592202339821274,-3.6890474560236086e-05,0.0013013606004850242
1504281075.33,-1.0,-1.39792815085,0.39318782509999994,-2.5167590426999995,0.20568,0.398397,-0.418874,-0.38141003844999993,-9.794764340199999,0.2956901108,-2.230264,1.521565,0.107359,-0.0004409749999999997,0.0028750000000000164,-0.0001643249999999999,0.0006591741099581938,-3.774651110743932e-05,0.0013013409730946446
1504281075.34,-1.0,-0.6970762953,-0.2633870057,-2.454016096,0.283852,0.342495,-0.565941,-0.330484105,-9.795852878349999,0.3201871225,-2.340376,1.523857,0.221197,-0.0004409749999999997,0.0028750000000000164,-0.0001643249999999999,0.000659126169206159,-3.860242929354385e-05,0.001301319398199663
1504281075.35,-1.0,0.08758319114999999,-0.9645526740499999,-2.12775865715,0.38081,0.242734,-0.699023,-0.26610344775,-9.79663741035,0.35424561795,-2.497345,1.525601,0.381069,-0.0056584,0.03583999999999998,-0.0016223000000000001,0.009155879449201487,-0.003864745755780552,0.01818475717839374
1504281075.36,-1.0,0.91710810135,-1.5218155602999999,-1.75567474285,0.470733,0.063112,-0.833043,-0.1882288401,-9.7967648968,0.3978557905,-2.699699,1.5259,0.584742,-0.0038612000000000004,0.024960000000000038,-0.0006120000000000014,0.004837423112206807,-0.005183809569072162,0.013132191128512716
1504281075.37,-1.0,1.7739151118499998,-1.98577797845,-1.24055103165,0.575116,-0.188004,-0.986125,-0.09483030549999999,-9.795784231799999,0.45166487904999997,-2.934646,1.523718,0.81873,-0.0019083999999999993,0.012699999999999989,-0.00012499999999999838,0.0018601924476484566,-0.0035662760925259107,0.005891723424486295
1504281075.38,-1.0,2.79017825135,-2.7466955652499996,-0.36059052049999996,0.717349,-0.50657,-1.134753,0.015072821049999999,-9.79293049665,0.51831087245,3.112512,1.517897,1.050836,-0.0018873000000000006,0.012789999999999968,1.2999999999999123e-05,0.0007241341327386408,-0.004720072375713924,0.0046155081411074494
1504281075.39,-1.0,3.9473139180999994,-3.9659661664,0.9085272826,0.866271,-0.880671,-1.216025,0.1371950335,-9.787370126099999,0.5990784418499999,2.916459,1.508085,1.239321,-0.0018624000000000002,0.012819999999999998,0.00018300000000000087,-0.0013862655879330887,-0.006238189188716214,0.0024475507081376247
1504281075.4,-1.0,5.14249938685,-5.3305124806499995,2.26817027185,0.910404,-1.072886,-1.173981,0.2609157299,-9.779152153399998,0.6859751675,2.778137,1.495887,1.367402,-0.0018130000000000004,0.012780000000000014,0.0004019999999999996,-0.004055680371434889,-0.007935604140922425,-0.00030556365298339827
