Time,placement_label,user_acc_x(m/s^2),user_acc_y(m/s^2),user_acc_z(m/s^2),rotation_rate_x(rad/s),rotation_rate_y(rad/s),rotation_rate_z(rad/s),gravity_x(m/s^2),gravity_y(m/s^2),gravity_z(m/s^2),attitude_roll(rad),attitude_pitch(rad),attitude_yaw(rad),target_delta_x,target_delta_y,target_delta_z,target_delta_roll,target_delta_pitch,target_delta_yaw
150000000000.0,1,-0.07143163859999999,0.012434832199999999,-0.1950738818,0.08318,-0.058236,-0.051876,-0.6142101027999999,-9.678575151,1.4555029929999999,-2.7423,1.409,-0.15247,0.0,0.0,0.0,0.0,0.0,0.0
150000000000.0,1,-0.09284936220000001,0.0233986669,-0.1856594978,0.060807,-0.055916,-0.056186,-0.6096990438,-9.6782809515,1.4591314535,-2.7458,1.4088,-0.14941,4.999999999999449e-05,0.00029999999999996696,-7.999999999996898e-05,-0.0013422032809575768,-0.0010753416690119089,0.0006904776277272262
150000000000.0,1,-0.1027148521,0.05916351945,-0.16682092314999997,0.037361,-0.052525,-0.057297,-0.6052272113999999,-9.6782809515,1.4608966504999998,-2.7488,1.4088,-0.14681,-9.999999999998899e-05,-0.0003500000000000725,-0.00017999999999995797,0.0032663964161432357,-0.0033172132057106563,-0.0033750002573857962
150000000000.0,1,-0.10524496779999999,0.09168237084999999,-0.15685736674999998,0.011791,-0.045923,-0.055215,-0.6010495785,-9.6786732175,1.4603082514999999,-2.7511,1.4091,-0.14491,-0.0011299999999999644,-0.00034999999999985043,0.0014499999999999513,0.005962219214021625,0.0014490028205960126,-0.011085102759256227
150000000000.0,1,-0.08301329225,0.09636994955,-0.15095376345,-0.010624,-0.04042,-0.045654,-0.5972347916499999,-9.6792616165,1.4575623895,-2.7527,1.4095,-0.14371,0.0021499999999999853,0.0007999999999999119,-0.002869999999999928,0.05413148677553137,0.0019157433509637833,0.0689145129276647
150000000000.0,1,-0.052848036849999995,0.08060085635,-0.14132363315,-0.028806,-0.036023,-0.030749,-0.59433202325,-9.680144214999999,1.4532474635,-2.7534,1.41,-0.14341,-0.0007599999999999829,0.00019999999999997797,0.0005999999999999339,-0.017163195548975496,-0.006560227917247419,-0.007656709728693478
150000000000.0,1,-0.01925045395,0.031234180249999997,-0.1583577842,-0.041675,-0.032738,-0.013698,-0.59246875975,-9.6812229465,1.446873141,-2.7529,1.4107,-0.14416,5.999999999994898e-05,0.00019999999999997797,-0.00012000000000000899,0.0007817624245236576,-0.001363081685521017,-0.000397928929336544
150000000000.0,1,0.012062179499999999,-0.02874329115,-0.1773630719,-0.053473,-0.02627,0.007616,-0.5920666871,-9.6823997445,1.4388316879999998,-2.7512,1.4115,-0.14617,-5.999999999994898e-05,0.00029999999999996696,-7.999999999996898e-05,-0.0010066047448960003,-0.00152961672662566,-0.0013210192428001477
150000000000.0,1,0.0339113957,-0.07385388115,-0.16446732715,-0.066346,-0.020858,0.02893,-0.59341019815,-9.683674608999999,1.4296134369999998,-2.7482,1.4123,-0.14948,0.00017999999999995797,0.000300000000000189,-0.000140000000000029,-0.0010401249945186652,0.00032806863191625624,-0.0009948827675145822
150000000000.0,1,0.0487978904,-0.14788428199999998,-0.1404508413,-0.074987,-0.01868,0.052392,-0.59676407245,-9.6849494735,1.4198067869999997,-2.7437,1.4131,-0.15419,-9.00000000000345e-05,0.00019999999999997797,-0.00027999999999994696,-0.0009639517116679652,-0.0010454706665350422,-0.0013762820982110568
150000000000.0,1,0.0652534491,-0.22061039839999996,-0.11380617325,-0.081444,-0.012255,0.072646,-0.6018537238,-9.6861262715,1.4095098044999999,-2.738,1.4139,-0.16008,-9.999999999998899e-05,0.0013999999999998458,-0.000280000000000058,-0.03826971413487801,-0.011553774179959397,-0.03213614454234914
150000000000.0,1,0.07524642545,-0.2502068681,-0.10041028934999999,-0.082581,-0.009067,0.090781,-0.6086987655,-9.687205002999999,1.3991147554999999,-2.7312,1.4146,-0.16707,0.0006000000000000449,0.000500000000000167,-0.0006899999999999684,-0.0058626102879599795,-0.0016283165511030706,0.0062059285949431775
150000000000.0,1,0.09018195339999999,-0.2699182346,-0.08994659379999999,-0.080532,-0.009101,0.10679,-0.61690693155,-9.688185668,1.3889158395,-2.7236,1.4152,-0.17488,0.00010999999999994348,0.00029999999999996696,-5.999999999994898e-05,-7.666995265731558e-05,0.0014576273823623254,0.0006631700629839976
150000000000.0,1,0.11398269294999999,-0.2508737203,-0.09523237814999999,-0.075278,-0.00916,0.12174,-0.6261938290999999,-9.6889702,1.3793053224999998,-2.7154,1.4157,-0.18329,-0.0005199999999999649,-0.0017000000000000348,0.0019199999999999218,0.01419573958273257,0.01461385971758089,-0.027133633475183494
150000000000.0,1,0.13914655685,-0.2518936119,-0.10056719574999999,-0.065743,-0.010316,0.13243,-0.63624564535,-9.689558599,1.3702832044999997,-2.7069,1.4161,-0.19204,-0.0014399999999999968,-0.0006999999999999229,0.0019000000000000128,0.003824754626638116,0.008350152633075814,-0.009597301394933755
150000000000.0,1,0.16451636039999998,-0.2466568608,-0.0961443966,-0.057296,-0.016786,0.13885,-0.6466406943499999,-9.6900489315,1.3622417515,-2.6984,1.4164,-0.20082,-0.00017999999999995797,9.999999999998899e-05,0.00012999999999996348,0.00036330421750019326,0.001323028829635975,-0.00019359285789732894
150000000000.0,1,0.17566652144999997,-0.22344452024999997,-0.10173418709999998,-0.0499,-0.023244,0.14207,-0.65705535665,-9.690343130999999,1.3549848304999998,-2.6901,1.4166,-0.20948,-0.000140000000000029,3.333333333332966e-05,0.00017000000000000348,6.812772553410618e-05,0.001997432084879014,-0.0002662027955593338
150000000000.0,1,0.16935103885,-0.20067347894999998,-0.0827877393,-0.044582,-0.027546,0.13781,-0.6671954327499999,-9.690539264,1.3487085745,-2.6822,1.4167,-0.21775,-9.999999999998899e-05,3.333333333332966e-05,0.0001500000000000945,-0.0003347463903358161,0.001237943256616747,-0.0007208588567859664
150000000000.0,1,0.1791674955,-0.1656931584,-0.0546230405,-0.043535,-0.035005,0.12928,-0.6764136837499999,-9.6906373305,1.3433149169999998,-2.6751,1.4168,-0.2253,-6.0000000000060005e-05,3.333333333332966e-05,6.999999999990347e-05,0.0007889730686345686,0.0010355291648489473,-0.0005621581068799841
150000000000.0,1,0.1838158476,-0.10892246155,-0.033215123549999996,-0.042487,-0.042464,0.12075,-0.68465126975,-9.690735397,1.338607725,-2.6688,1.4169,-0.23212,-0.00012999999999996348,-1.6666666666775853e-05,0.0001500000000000945,6.753974923112693e-06,0.001349934093568761,-0.00040142362414430366
150000000000.0,1,0.18333532174999997,-0.03521568015,-0.015327793949999998,-0.042482,-0.050973,0.10581,-0.6915061180999998,-9.690735397,1.334488932,-2.6635,1.4169,-0.23802,-9.999999999998899e-05,-1.666666666655381e-05,9.999999999998899e-05,7.470580534807425e-05,0.0014936572693438066,-0.0004081043500514525
150000000000.0,1,0.1966429458,0.058447634,-0.01371950335,-0.040356,-0.060567,0.09195,-0.69673306255,-9.690931529999999,1.3308604714999999,-2.6593,1.417,-0.24292,-0.00012000000000000899,-1.666666666655381e-05,3.999999999992898e-05,0.00021052462338211342,0.00030250411277688016,-0.0007786618116840671
150000000000.0,1,0.21235319909999997,0.14885514035,-0.005766310199999999,-0.038187,-0.06696,0.07488,-0.7000182903,-9.691127663,1.32782041,-2.6564,1.4171,-0.24654,-0.00012000000000000899,-1.6666666666775853e-05,0.000140000000000029,-0.00037525373996816214,0.0006613681029092877,-0.0004285942201653903
150000000000.0,1,0.23507520714999997,0.19416186335,-9.80665e-05,-0.036063,-0.077618,0.059951,-0.7013421880499999,-9.691323795999999,1.3251726145,-2.6548,1.4173,-0.24899,-3.999999999992898e-05,-1.6666666666775853e-05,-9.99999999995449e-06,0.0005442422773271893,-0.00022814738575749338,-0.0008474489489631587
150000000000.0,1,0.24166527595,0.18553201134999997,-0.00756092715,-0.032826,-0.081893,0.04608,-0.70104798855,-9.691716062,1.3227209519999998,-2.6542,1.4175,-0.25046,-7.00000000000145e-05,-1.666666666655381e-05,3.999999999992898e-05,-0.0002109776493122162,0.000394543594439245,-0.0003418341690193394
150000000000.0,1,0.24373447909999998,0.1258977727,-0.010983447999999998,-0.022168,-0.092621,0.031165,-0.6990768519,-9.692108328,1.3210538214999998,-2.6549,1.4178,-0.25078,-8.000000000008001e-05,9.999999999998899e-05,1.0000000000065512e-05,0.0012200396099957267,-0.0005844722446868289,-0.0015385622234815877
150000000000.0,1,0.22570985639999996,0.000392266,0.01317033095,-0.014654,-0.096929,0.015167,-0.6957131709500001,-9.692402527499999,1.320367356,-2.6567,1.418,-0.25,-0.00012000000000000899,-9.999999999998899e-05,5.999999999994898e-05,3.850963392970641e-05,-0.0005828462388735023,-0.0010891008565501181
150000000000.0,1,0.20618481624999999,-0.14979657875,0.0104538889,-0.006134,-0.10551,0.004515,-0.6913099851,-9.6927947935,1.3201712229999998,-2.6592,1.4182,-0.24855,-9.999999999998899e-05,-9.999999999998899e-05,2.999999999997449e-05,-0.00024349971648218727,-0.0008831803666151661,-0.0012049875730011372
150000000000.0,1,0.20050676589999997,-0.2697221016,0.016994924449999997,-0.00503,-0.10551,-0.002963,-0.6860830406499999,-9.6931870595,1.3200731565,-2.6623,1.4185,-0.24656,-0.00017000000000000348,0.00024999999999986144,4.0000000000040004e-05,-3.302615911482398e-05,-0.0015758981729194765,-0.0009212767476789452
150000000000.0,1,0.19982030039999998,-0.30401595665,0.01099325465,-0.002913,-0.11086,-0.008295,-0.6801500173999999,-9.693579325499998,1.3200731565,-2.6658,1.4188,-0.24415,0.0007600000000000939,0.0002500000000000835,-0.0011999999999999789,-0.0035394087820102005,-0.00488098507654855,0.007490716606112002
150000000000.0,1,0.21917862749999997,-0.24645092115,0.01264077185,0.000323,-0.10768,-0.010438,-0.6737756949,-9.693971591499999,1.320367356,-2.6697,1.4191,-0.24133,-0.00024000000000001798,-9.999999999998899e-05,0.00012000000000000899,0.000379809413038501,-0.000570999892359092,-0.000986655919489543
150000000000.0,1,0.245362383,-0.12365204985,0.01468055505,-0.0018,-0.10766,-0.012586,-0.6667443268499998,-9.694363857499999,1.3209557549999997,-2.6742,1.4193,-0.23799,-1.0000000000065512e-05,-9.999999999998899e-05,9.999999999998899e-05,-0.0001972479041847386,0.00016353334382035456,-0.001146449010686279
150000000000.0,1,0.2585425206,0.03141069995,-0.011875853149999999,-0.007095,-0.10336,-0.01368,-0.6595756656999999,-9.69485419,1.3210538214999998,-2.6785,1.4197,-0.2347,-0.00021999999999999797,-9.999999999998899e-05,5.999999999994898e-05,-0.0005754848675292301,-0.0010963430828829779,-0.0003740781606578203
150000000000.0,1,0.27414490075,0.14499132025,-0.03209716545,-0.016702,-0.10328,-0.012639,-0.6522795181,-9.695442588999999,1.3201712229999998,-2.6827,1.4201,-0.2316,-0.00010999999999994348,-9.999999999998899e-05,6.0000000000060005e-05,0.0005677426376458072,-0.000673024703519598,-0.0016912215741395897
150000000000.0,1,0.2897668942,0.18053061984999996,-0.01589657965,-0.036898,-0.094586,-0.013767,-0.6447087842999999,-9.6963251875,1.3179156935,-2.6866,1.4206,-0.22867,-0.0012699999999999934,-0.000700000000000145,0.0016199999999999548,0.004368936274598001,0.006009154075459877,-0.010730859876674437
150000000000.0,1,0.27720457555,0.1913473548,0.01228773245,-0.063494,-0.089032,-0.020237,-0.63693211085,-9.697403919,1.3136007675,-2.6901,1.4214,-0.22611,-0.00026999999999999247,-9.999999999998899e-05,4.999999999999449e-05,-0.0004288180780387396,0.0005325485134495267,-0.0005529056254056641
150000000000.0,1,0.23083873435,0.1709887494,0.05378947525,-0.085769,-0.082439,-0.035238,-0.62887104455,-9.6986787835,1.3076187109999997,-2.6933,1.4223,-0.22381,-0.00021999999999999797,9.999999999998899e-05,-2.999999999997449e-05,0.0009029338357171568,-0.0005553659624812912,-0.0008315038715878131
150000000000.0,1,0.1698315647,0.14735472289999998,0.09540889785,-0.11337,-0.077928,-0.05558,-0.6200940927999999,-9.700345914,1.2994791915,-2.6964,1.4234,-0.22156,0.0008899999999999464,0.000700000000000145,-0.0014499999999999513,-0.0021912327586952607,-0.00653755611870066,0.008570975509800238
150000000000.0,1,0.10465656879999999,0.0891032219,0.14744298274999998,-0.13455,-0.073466,-0.07911,-0.6101305363999999,-9.702307244,1.2899667409999998,-2.6998,1.4248,-0.2189,-0.00020999999999993246,9.999999999998899e-05,1.999999999990898e-05,0.000930211076805687,-0.00149722793606899,-3.508415430619749e-06
150000000000.0,1,0.048346784500000003,0.012895744749999999,0.17651969999999997,-0.15359,-0.069019,-0.10477,-0.5987155958,-9.704464707,1.2786890935,-2.7037,1.4263,-0.2157,-1.0000000000065512e-05,9.999999999998899e-05,4.499999999996174e-05,0.0022526112573757473,-0.00028895985638488497,-0.0007596968034517815
150000000000.0,1,0.0073353742,-0.044522190999999996,0.17046899694999998,-0.17261,-0.063505,-0.1315,-0.58538835845,-9.707014436,1.2651559165000001,-2.7082,1.4282,-0.21178,-0.000140000000000029,0.00019999999999997797,4.500000000007276e-05,0.0006355714000108037,-0.0021345486040582617,-0.00015704745295330724
150000000000.0,1,-0.0230848541,-0.0742951804,0.17339137864999998,-0.18634,-0.059108,-0.15181,-0.5703743773,-9.709858364499999,1.2501517420000001,-2.7135,1.4302,-0.20704,-0.0011599999999999389,-0.0006999999999999229,0.0018299999999999983,0.00612299793387483,0.004914959947134534,-0.009953908415439194
150000000000.0,1,-0.021466756849999998,-0.0663714072,0.1786183231,-0.19474,-0.053692,-0.16891,-0.5537422989,-9.712898425999999,1.2342649689999998,-2.7199,1.4324,-0.20122,-6.0000000000060005e-05,0.00019999999999997797,0.0002300000000000635,0.0028947093407956093,-0.0012768369169542382,-0.0005971144961587349
150000000000.0,1,-0.02393803265,-0.021829602899999998,0.17672563965,-0.19994,-0.046175,-0.18281,-0.5357078695499999,-9.716036553999999,1.217789797,-2.7272,1.4347,-0.19436,4.0000000000040004e-05,9.999999999998899e-05,-4.0000000000040004e-05,0.0019335194635445863,-0.002221690734782289,-0.0004905383010496145
150000000000.0,1,-0.02144714355,0.04847427095,0.15894618319999998,-0.19982,-0.03764,-0.19243,-0.51680064835,-9.719076615499999,1.200922359,-2.7352,1.4371,-0.18663,-4.999999999999449e-05,0.00019999999999997797,-4.0000000000040004e-05,0.0028128500423363345,-0.00409702359384001,-2.0428309583042648e-05
150000000000.0,1,-0.02293775435,0.1072062978,0.14997309844999998,-0.19863,-0.026987,-0.19778,-0.49750116115,-9.722116676999999,1.184251054,-2.7439,1.4394,-0.17822,0.0009000000000000119,0.0008999999999999009,-0.0012400000000000189,-0.0019627729984841302,-0.007820547475259065,0.0077520329392801735
150000000000.0,1,-0.01346453045,0.12016088244999999,0.1519442351,-0.19106,-0.014263,-0.19672,-0.4780938007999999,-9.725058672,1.167972015,-2.7531,1.4417,-0.16912,-0.0009000000000000119,-0.00039999999999995595,0.0013400000000000079,0.006164690039721865,0.0017398191540736185,-0.008406656903365839
150000000000.0,1,-0.0103558224,0.09120184499999999,0.1380972453,-0.17927,-0.004773,-0.19245,-0.45905909314999993,-9.7279026005,1.1525755745,-2.7625,1.444,-0.15964,-0.000160000000000049,0.00019999999999997797,6.0000000000060005e-05,0.000162530136218475,-0.0025540539104458304,-0.0002685900757088966
150000000000.0,1,-0.016818404749999998,0.0764134168,0.1209748344,-0.16529,0.010027,-0.18925,-0.44062259114999996,-9.730452329499998,1.1379636659999999,-2.7722,1.446,-0.1499,0.0006500000000000394,0.0008000000000001339,-0.0012100000000000444,-0.003788388347728544,-0.007087423908979762,0.010252866265958005
150000000000.0,1,-0.0202801522,0.09321220824999998,0.10935395414999999,-0.14601,0.023714,-0.18176,-0.4230981076,-9.732707859,1.125018888,-2.7819,1.4479,-0.13991,-0.0007899999999999574,-0.000700000000000145,0.0013900000000000023,0.00546068737808203,0.00633313166776972,-0.008229224583221395
150000000000.0,1,-0.0221434157,0.112188076,0.10716707119999999,-0.12144,0.035221,-0.16893,-0.40686810184999994,-9.734669189,1.1143296395,-2.7915,1.4495,-0.12989,-3.0000000000085514e-05,9.999999999998899e-05,7.999999999996898e-05,0.0005038104016596989,-0.0007965382337742355,0.0006480143711593556
150000000000.0,1,-0.00962032365,0.14874726719999998,0.10289137179999999,-0.093681,0.046698,-0.15289,-0.3920110271,-9.736140186499998,1.10619012,-2.801,1.4508,-0.11986,-9.999999999998899e-05,9.999999999998899e-05,6.0000000000060005e-05,0.0008802625562864819,-0.0008700689018670271,0.0004641649112340218
150000000000.0,1,0.0012552511999999998,0.18087385259999997,0.0962424631,-0.064825,0.0603,-0.14006,-0.37849746339999996,-9.7373169845,1.100698396,-2.8104,1.4518,-0.10985,-5.999999999994898e-05,9.999999999998899e-05,-7.999999999996898e-05,0.0005161239145747842,-0.0007686832378186459,0.0011504572380323097
150000000000.0,1,0.013297817399999998,0.22442518524999996,0.067665885,-0.031706,0.075994,-0.12295,-0.36659219029999995,-9.738101516499999,1.0980506005,-2.8194,1.4525,-0.10012,-4.0000000000040004e-05,-4.999999999988347e-05,-6.0000000000060005e-05,0.0005809689514322258,-0.0005999362581858847,0.0005296600041306831
150000000000.0,1,0.03347009644999999,0.2937483941,0.028615804699999997,0.00455,0.085266,-0.10369,-0.35624617454999996,-9.738395716,1.0984428665,-2.828,1.4528,-0.090616,-8.999999999992347e-05,-5.0000000000105516e-05,-0.00012000000000000899,0.00020359371241340796,-0.0010121244060961043,0.0010046799210590152
150000000000.0,1,0.043168873299999994,0.318323859,0.014700168349999997,0.038685,0.096685,-0.083372,-0.3479791686,-9.7382976495,1.1020713269999998,-2.8357,1.4527,-0.081871,-0.0002300000000000635,-5.0000000000105516e-05,-8.999999999992347e-05,0.000346242448288514,-0.0004809174808482197,0.000584071063109981
150000000000.0,1,0.06476311659999999,0.29659232259999996,0.00204958985,0.070699,0.10919,-0.064127,-0.3414479397,-9.737807317,1.1084456495,-2.8428,1.4523,-0.073727,-0.00019999999999997797,-4.999999999988347e-05,-0.00017000000000000348,-0.0003797745632700966,-0.0006682392481232036,0.0014967699090391307
150000000000.0,1,0.0663517939,0.2086266721,-0.00648219565,0.10058,0.11958,-0.048085,-0.33659364794999996,-9.7369247185,1.117565834,-2.849,1.4515,-0.066243,0.0009299999999999864,0.000600000000000156,-0.0018799999999999928,-0.003917586111511273,-0.008877001856586464,0.009792329464736849
150000000000.0,1,0.026075882349999996,0.03231291175,0.0210254576,0.12195,0.13218,-0.035262,-0.33388701255,-9.7357479205,1.129137681,-2.8541,1.4504,-0.059877,-0.0011999999999999789,-0.0009000000000001229,0.0013199999999999878,0.004215730423154707,0.004619794998151461,-0.007168747781836959
150000000000.0,1,-0.0112972608,-0.16091731985,0.0508376736,0.14012,0.14055,-0.026706,-0.3327200212,-9.7341788565,1.142670858,-2.8583,1.4491,-0.054283,-0.00026999999999999247,-9.999999999998899e-05,-0.000200000000000089,-0.0024196000490492864,0.0001692393844003881,0.0019046119667569528
150000000000.0,1,-0.0577611685,-0.3406045678,0.082964259,0.15085,0.15111,-0.021367,-0.3329357675,-9.7324136595,1.157576966,-2.8615,1.4477,-0.049482,-0.00024999999999997247,-9.999999999998899e-05,-0.00016999999999989246,-0.0007945248306970853,-0.0005636005248719211,0.0017176342164937353
150000000000.0,1,-0.08633774659999999,-0.46130481599999995,0.1010281083,0.15518,0.16066,-0.019239,-0.33399488569999997,-9.730550396,1.1729734065,-2.8642,1.4461,-0.045188,0.0007199999999999429,0.0004999999999999449,-0.0013500000000000734,-0.007292994032902289,-0.005213217088189337,0.010939135276302192
150000000000.0,1,-0.09441842619999999,-0.49059727955,0.12946739329999998,0.15313,0.17027,-0.020327,-0.33414198544999996,-9.728785199,1.1874872484999999,-2.8673,1.4447,-0.040376,2.0000000000020002e-05,-9.999999999998899e-05,-4.999999999999449e-05,-0.0016432176848826252,0.0005699901764919524,0.0018747363859090704
150000000000.0,1,-0.10390145675,-0.42430432554999997,0.13762652609999998,0.15639,0.17557,-0.022465,-0.33408314554999996,-9.7269219355,1.202099157,-2.8705,1.4432,-0.035385,-7.999999999996898e-05,-0.00019999999999997797,-4.0000000000040004e-05,-0.002564788114832961,-0.0002684150458762691,0.0027817391219566723
150000000000.0,1,-0.09585019709999999,-0.30026981635,0.12824156204999998,0.15647,0.1841,-0.025682,-0.33390662585,-9.725156738499999,1.2167110655,-2.8738,1.4418,-0.030271,-0.00010000000000010001,-5.0000000000105516e-05,-6.999999999990347e-05,-0.0013231352392963913,0.0004962097414336064,0.0017518996571395107
150000000000.0,1,-0.088848249,-0.16614426429999998,0.08964258765,0.15653,0.18624,-0.033154,-0.3346225113,-9.723097341999999,1.232695905,-2.8765,1.4402,-0.025577,-9.999999999998899e-05,-4.999999999988347e-05,5.999999999994898e-05,-0.0017617529582434344,-0.0008801469986283728,0.0030596223658623245
150000000000.0,1,-0.07391272105,-0.07890430589999999,0.061183689349999994,0.15447,0.19159,-0.039572,-0.33339668004999995,-9.721332145,1.2471116805,-2.8804,1.4388,-0.019783,-0.00018999999999991246,-0.00029999999999996696,0.000140000000000029,-0.002077143704913631,-0.00044524641635979023,0.001888342449380076
150000000000.0,1,-0.0720984908,-0.0419332354,0.0520340849,0.15344,0.19161,-0.048113,-0.3313274769,-9.719566947999999,1.261527456,-2.8847,1.4374,-0.013428,-0.0001100000000000545,-9.999999999998899e-05,8.999999999992347e-05,-0.001141533330673461,-0.0005115173808576401,0.0023129663863032945
150000000000.0,1,-0.0860239338,-0.04594415524999999,0.03977577239999999,0.15453,0.18735,-0.059845,-0.3281697356,-9.717801751,1.2758451649999998,-2.8898,1.4361,-0.006384,-2.0000000000020002e-05,-0.00019999999999997797,-9.99999999995449e-06,-0.0010927439975212394,0.00010971564204598216,0.0015980004848890061
150000000000.0,1,-0.10719649114999999,-0.04712095325,0.03115572705,0.15564,0.18416,-0.071574,-0.3258553662,-9.715840421,1.2910454724999998,-2.8944,1.4346,8.2e-05,4.0000000000040004e-05,-4.999999999988347e-05,9.99999999995449e-06,-0.0023869417877531163,-0.001462585616127443,0.002960139086924052
150000000000.0,1,-0.12446600179999999,-0.08148345485,0.028890390899999997,0.15355,0.18312,-0.083318,-0.32040286879999996,-9.714075224,1.3054612479999999,-2.9009,1.4333,0.008554,9.99999999995449e-06,-5.0000000000105516e-05,1.0000000000065512e-05,-0.0017871078633089343,-0.0003716945415892514,0.0022994140093142157
150000000000.0,1,-0.1289966741,-0.1098540933,0.010042009599999999,0.15354,0.17674,-0.090778,-0.3140873862,-9.712310027,1.319778957,-2.908,1.432,0.017476,3.0000000000085514e-05,-5.0000000000105516e-05,2.999999999997449e-05,-0.0008026940134187033,-0.0011197998485494853,0.0018493700540354041
150000000000.0,1,-0.12794736255,-0.08314077869999999,-0.0193975537,0.15244,0.17036,-0.095039,-0.3072031179,-9.7106428965,1.3339985995,-2.9152,1.4308,0.026589,9.999999999998899e-05,-4.999999999988347e-05,1.0000000000065512e-05,-0.001814163483913278,-0.000517649232003814,0.0019117100742818138
150000000000.0,1,-0.11316874099999999,-0.0359315656,-0.04364939915,0.13963,0.16833,-0.097188,-0.3020840466,-9.7090738325,1.3465511114999997,-2.9209,1.4296,0.034045,0.00012999999999996348,-9.999999999998899e-05,1.999999999990898e-05,-0.0006258472106224211,-0.0008580552418242515,0.002171474972167964
150000000000.0,1,-0.09332988804999999,0.0282627653,-0.035588332849999994,0.12784,0.1631,-0.095064,-0.29497422535,-9.707602835,1.3588094239999997,-2.9278,1.4285,0.042706,0.00024999999999997247,-0.0003333333333332966,2.0000000000020002e-05,-0.002493073596008033,-1.2456943241812013e-05,0.0030195710921487873
150000000000.0,1,-0.06875442315,0.08524920844999999,-0.034411534849999995,0.11712,0.15892,-0.09187,-0.28948250135,-9.706229903999999,1.3697928719999999,-2.9333,1.4275,0.049896,0.00021999999999999797,-0.00033333333333351867,2.0000000000020002e-05,-0.0007387707397872312,-0.00038125557016299716,0.001029022719297057
150000000000.0,1,-0.0638216782,0.1217593664,-0.050092368199999994,0.10426,0.15476,-0.086546,-0.2842359436,-9.705053106,1.3793053224999998,-2.9384,1.4267,0.056592,-0.0008899999999999464,-0.0003333333333332966,0.0015699999999999603,0.005646496653922473,0.00514052650990493,-0.010289876091233996
150000000000.0,1,-0.05579003184999999,0.13791091895,-0.053387402599999995,0.092439,0.14846,-0.080148,-0.2793914585,-9.7039743745,1.3877390415,-2.9429,1.4259,0.062717,0.00019999999999997797,-9.999999999998899e-05,0.000160000000000049,7.357606173186149e-05,-0.003346704779815468,0.001608768343948519
150000000000.0,1,-0.053044169849999996,0.12700592415,-0.06461601685,0.081698,0.14428,-0.072686,-0.27510595245,-9.703091775999999,1.394701763,-2.9468,1.4253,0.06817,0.0012100000000000444,0.0005999999999999339,-0.0013400000000000079,-0.00935852475234511,-0.0040959728639278215,0.011652803512490095
150000000000.0,1,-0.056349010899999996,0.11682662144999999,-0.0806695029,0.074119,0.13474,-0.066275,-0.2715069119,-9.702307244,1.4005857529999999,-2.9501,1.4248,0.072874,0.00030999999999992145,0.000400000000000178,-0.00038000000000004697,-0.0032317051539560993,-0.001269012946301551,0.007168191809824975
150000000000.0,1,-0.06583204145,0.09525199144999999,-0.09120184499999999,0.065492,0.12841,-0.058805,-0.26875124325,-9.701718844999998,1.405489078,-2.9527,1.4244,0.076786,0.00024000000000001798,-5.0000000000105516e-05,1.0000000000065512e-05,-0.002532749435543824,0.0009141492331665724,0.002779417301481235
150000000000.0,1,-0.06520441585,0.0806498896,-0.09545793109999999,0.060044,0.11992,-0.050258,-0.26669184674999996,-9.701130445999999,1.409607871,-2.9546,1.424,0.080014,0.00014999999999998348,-5.0000000000105516e-05,3.999999999992898e-05,-0.0008592389693538038,0.0006168046898578083,0.0007008714116922832
150000000000.0,1,-0.05504472645,0.06694019289999999,-0.10535284095,0.050297,0.10827,-0.040645,-0.26518162264999995,-9.700738179999998,1.412549866,-2.956,1.4237,0.082608,0.00021999999999999797,0.00010000000000021103,-0.00017999999999995797,-0.0018463862832702738,-0.00028143658440793473,0.0035079103783117738
150000000000.0,1,-0.04463006415,0.0469542402,-0.09891967855,0.034162,0.097741,-0.032114,-0.26407347119999997,-9.700542046999999,1.4144131295,-2.957,1.4235,0.084635,0.00017000000000000348,-5.0000000000105516e-05,4.0000000000040004e-05,-0.0008012310882083984,0.000991085503464495,0.0006064879634353204
150000000000.0,1,-0.04925880294999999,0.0068842683,-0.06878384309999999,0.02021,0.09252,-0.024655,-0.2637792717,-9.7004439805,1.4151976615,-2.9573,1.4235,0.085913,0.000280000000000058,-5.0000000000105516e-05,-7.00000000000145e-05,2.2361564763206943e-05,3.77619015488051e-05,0.0012445905850291261
150000000000.0,1,-0.06812679754999999,-0.0367357109,-0.05008256155,0.003035,0.083066,-0.019329,-0.26422057095,-9.7004439805,1.4146092624999997,-2.9569,1.4235,0.08642,0.00017999999999995797,-9.999999999998899e-05,3.999999999992898e-05,0.0005361115787654303,0.00014812055696777904,-0.0003296100391820822
150000000000.0,1,-0.090025047,-0.058163241149999996,-0.04139386965,-0.014142,0.074676,-0.011868,-0.2656621485,-9.700738179999998,1.412549866,-2.9557,1.4237,0.085952,0.000140000000000029,-6.666666666665932e-05,2.0000000000020002e-05,-0.00034877109052677824,0.00014498034701571072,-0.0009582040744868792
150000000000.0,1,-0.0975957808,-0.08441564319999999,-0.019073934249999997,-0.025979,0.066242,-0.005466,-0.26766270509999995,-9.701130445999999,1.4095098044999999,-2.9539,1.424,0.084881,0.00024000000000001798,-6.666666666665932e-05,-7.999999999996898e-05,0.0017962884214675068,7.67869974289681e-05,0.0004602932123844994
150000000000.0,1,-0.0875733845,-0.1034601575,-0.02478140455,-0.036729,0.060995,0.002,-0.27005552769999996,-9.701718844999998,1.4051948785,-2.9517,1.4244,0.083296,7.00000000000145e-05,-6.666666666665932e-05,5.999999999994898e-05,0.0027267636979098064,-0.0014994956592948583,-0.002202303905809
150000000000.0,1,-0.07352045505,-0.1248190412,-0.0190837409,-0.042202,0.04931,0.010553,-0.27288964955,-9.702307244,1.4002915535,-2.9491,1.4248,0.081219,0.00021999999999999797,-1.999999999990898e-05,-9.99999999995449e-06,0.0015152192682199583,-0.0011863843892019332,-0.00026896893235139885
150000000000.0,1,-0.0608404566,-0.14202971195,-0.039609059349999996,-0.046577,0.040814,0.018035,-0.27614545734999996,-9.703091775999999,1.3944075635,-2.9461,1.4253,0.078624,0.00029999999999996696,-2.0000000000131024e-05,4.0000000000040004e-05,0.0015918251951467788,0.00032442577041025267,0.001222300179037017
150000000000.0,1,-0.0439141787,-0.13076187109999998,-0.05426019444999999,-0.049897,0.032307,0.027652,-0.2799014043,-9.703876307999998,1.3881313075,-2.9426,1.4259,0.075485,0.00032999999999994145,-1.999999999990898e-05,-4.0000000000040004e-05,0.0012542919910423223,-0.0003141980842558123,-6.898588004844441e-05
150000000000.0,1,-0.04076624405,-0.08927974159999999,-0.049984495049999994,-0.05213,0.024858,0.035135,-0.28424575025,-9.704660839999999,1.381756985,-2.9387,1.4264,0.071815,0.0003300000000000525,-2.0000000000131024e-05,4.999999999999449e-05,0.000299382907336998,0.001564849984866834,-0.00017711932076736048
150000000000.0,1,-0.024310685349999996,-0.04959222905,-0.0454440161,-0.055461,0.014221,0.043688,-0.2890215888,-9.705445372,1.375284596,-2.9344,1.427,0.067695,0.00014999999999998348,-1.999999999990898e-05,6.0000000000060005e-05,-0.00033528677238470195,-0.0004230574634187523,0.0007347115925502301
150000000000.0,1,-0.012415218899999999,-0.028919810849999995,-0.03990325885,-0.058757,0.007846,0.052233,-0.2943367931,-9.706229903999999,1.3687141404999998,-2.9298,1.4275,0.063074,9.999999999998899e-05,-9.999999999998899e-05,6.999999999990347e-05,0.0007901925308086977,-0.0004616240036314778,0.0006138239280297775
150000000000.0,1,-0.00041187929999999997,-0.006894074949999999,-0.0253992235,-0.06419,0.000424,0.059709,-0.3000638767,-9.707014436,1.361947552,-2.9247,1.4281,0.058015,0.00034000000000000696,-9.999999999998899e-05,-2.999999999997449e-05,-0.001574216800369399,0.0008184101491399698,0.0019330959457555252
150000000000.0,1,0.01079712165,0.00422666615,-0.020564545049999997,-0.069603,-0.005931,0.065048,-0.3061832263,-9.707798968,1.354886764,-2.9193,1.4287,0.052513,0.00031000000000003247,-9.999999999998899e-05,2.0000000000020002e-05,0.0020724145440451647,0.0012667172448994624,-0.0030341652962717625
150000000000.0,1,0.0024712758,0.023702673049999998,-0.014994367849999999,-0.070754,-0.012321,0.071462,-0.31296942809999995,-9.7085835,1.347825976,-2.9134,1.4292,0.046436,0.00024000000000001798,-5.0000000000105516e-05,7.999999999996898e-05,-0.00047753089304269913,0.0011066931275165448,-0.00011663764895741835
150000000000.0,1,0.01144436055,0.044404511199999996,-0.013807763199999998,-0.076115,-0.012283,0.076789,-0.3199909895,-9.709368031999999,1.3403729219999998,-2.9072,1.4298,0.04005,0.00046000000000001595,-4.999999999988347e-05,1.0000000000065512e-05,-0.0006196807159548623,0.002573196804626532,0.0013281148990018643
150000000000.0,1,0.0270859673,0.06407665109999999,-0.0146511351,-0.078322,-0.018663,0.081065,-0.32725771714999996,-9.710152564,1.3326256685,-2.9008,1.4304,0.033349,0.00020999999999993246,-4.999999999988347e-05,-9.00000000000345e-05,0.0008159223267494298,-0.00017206365335886709,-0.0001519791549018379
150000000000.0,1,0.03912853349999999,0.0674109121,-0.013386077249999998,-0.078405,-0.025062,0.087479,-0.33480883764999997,-9.710937096,1.3249764815,-2.8941,1.431,0.026324,7.999999999996898e-05,-5.0000000000105516e-05,-4.0000000000040004e-05,0.0017341808695312544,-0.0020738000310025484,-0.0013607393208521223
150000000000.0,1,0.04498310354999999,0.0722357839,-0.0029910282499999996,-0.080564,-0.026113,0.090678,-0.3426051244,-9.711721628,1.317229228,-2.8871,1.4316,0.019046,0.0003300000000000525,-9.999999999998899e-05,-5.999999999994898e-05,0.000576547496380142,-5.529014216643091e-05,0.0008998882840050015
150000000000.0,1,0.05388754175,0.0820816605,0.01116977435,-0.079526,-0.027192,0.09495,-0.35061715745,-9.712506159999998,1.3098742405,-2.88,1.4321,0.011607,0.000260000000000038,4.999999999988347e-05,-4.999999999999449e-05,0.0005264532449615889,0.0002958984787324592,-0.00014563008412782352
150000000000.0,1,0.06194860804999999,0.06842099704999999,0.0194760069,-0.080623,-0.030381,0.096019,-0.358531124,-9.7131926255,1.3024211865,-2.873,1.4326,0.004145,0.0006399999999999739,5.0000000000105516e-05,-0.000260000000000038,-0.00029735327838897874,0.00023795708109841662,0.0018299255340061826
150000000000.0,1,0.07755098819999999,0.04247260115,0.023124080699999997,-0.081714,-0.031441,0.099219,-0.3664941238,-9.713879090999999,1.295066199,-2.8658,1.4331,-0.003429,0.00041000000000002146,-9.999999999998899e-05,-2.999999999997449e-05,0.0011354867191279983,0.0015958981054360333,-0.002122167928178431
150000000000.0,1,0.08938761475,0.02549729,0.02111371745,-0.080682,-0.034649,0.10136,-0.37444731695,-9.7145655565,1.287613145,-2.8586,1.4336,-0.011059,0.00023999999999990695,-9.999999999998899e-05,4.999999999999449e-05,0.0015080329994578978,0.0012288515771301523,-0.0010120816897991602
150000000000.0,1,0.09051537949999999,0.0003726527,0.041246769899999994,-0.07962,-0.034659,0.10242,-0.38245935,-9.7151539555,1.2806504235,-2.8514,1.4341,-0.0187,0.00031000000000003247,-0.00014999999999987246,-0.00021999999999999797,0.0007687325508656251,-0.00042404131096218656,6.647601260345581e-05
150000000000.0,1,0.0855924412,-0.0418351689,0.05971269184999999,-0.080662,-0.032518,0.10135,-0.39054983624999995,-9.7157423545,1.273687702,-2.8441,1.4345,-0.026435,0.00021999999999999797,-0.0001500000000000945,0.00017000000000000348,0.0021142081079565944,0.0008064853866440735,-0.001982433882078194
150000000000.0,1,0.08018897705,-0.08750473795,0.07748234165,-0.082789,-0.0325,0.10027,-0.3986207091999999,-9.7163307535,1.266823047,-2.8367,1.435,-0.034172,0.00012000000000000899,-0.00029999999999996696,0.00017999999999995797,0.0031536186198193317,-0.00021221231913526317,-0.00210071617729346
150000000000.0,1,0.07663896975000001,-0.11733656725,0.08518056189999999,-0.082738,-0.027171,0.099195,-0.40673080874999995,-9.716821086,1.2600564584999998,-2.8294,1.4354,-0.041936,0.0004899999999999904,5.0000000000105516e-05,-8.999999999992347e-05,0.000337855900552686,0.0026445584870897765,-0.0003347541263649667
150000000000.0,1,0.08697517885,-0.1092068544,0.08932877485,-0.077393,-0.02615,0.099199,-0.4145270955,-9.7173114185,1.2536821360000001,-2.8223,1.4357,-0.049405,0.00045000000000006146,4.999999999988347e-05,-0.00017000000000000348,-0.0011759081625886125,0.0006675277254268863,0.00306181246945858
150000000000.0,1,0.1113839307,-0.06459640355,0.0852590151,-0.075231,-0.022971,0.099193,-0.42202918274999995,-9.717801751,1.2476020129999998,-2.8154,1.4361,-0.056591,0.00035999999999991594,-0.00029999999999996696,9.999999999998899e-05,0.0015018716942241106,0.0022978620730245147,-0.0018697965397982408
150000000000.0,1,0.13596920225,0.0051190713,0.05524085945,-0.068774,-0.015567,0.10025,-0.4292566838,-9.7182920835,1.241718023,-2.8087,1.4364,-0.063511,0.0003500000000000725,0.00019999999999997797,-0.00012999999999996348,-0.0003514025658333253,0.0004289710945017955,0.00188665233480112
150000000000.0,1,0.15638664754999998,0.0725299834,0.0450321368,-0.062351,-0.012425,0.10132,-0.43636650505,-9.718586282999999,1.2363243654999998,-2.8023,1.4367,-0.070205,0.00024000000000001798,-0.000300000000000189,0.00012999999999996348,0.0008532157341640811,0.0015372311587644738,-0.00255788127533485
150000000000.0,1,0.16624233079999998,0.1220731792,0.0334995164,-0.056979,-0.00927,0.099185,-0.44322135339999996,-9.718978549,1.2314210405,-2.7961,1.4369,-0.076594,0.0006199999999999539,-0.00019999999999997797,-6.499999999998174e-05,-0.0009094346077316295,0.004512369470863753,-0.0008793915590561419
150000000000.0,1,0.1747348897,0.12366185649999999,0.03627479835,-0.054792,-0.002895,0.099171,-0.45006639509999996,-9.719174681999998,1.227008048,-2.79,1.4371,-0.082797,0.0003300000000000525,-5.0000000000105516e-05,-6.499999999998174e-05,-0.00029181706400205343,0.0012892878679935382,-0.0015249117709688065
150000000000.0,1,0.16099577305,0.1013811477,0.0524851908,-0.049388,0.003457,0.095962,-0.45682317694999997,-9.719370815,1.2231834544999998,-2.7842,1.4373,-0.088743,0.00039000000000000146,-4.999999999988347e-05,-0.0001300000000000745,-0.001074887955680115,0.002682934241633239,-0.0005416137600904314
150000000000.0,1,0.15522946284999997,0.07351064839999999,0.073157609,-0.049312,0.011981,0.094874,-0.46363879869999997,-9.7194688815,1.2197511269999999,-2.7783,1.4373,-0.094551,0.00017999999999995797,-9.999999999998899e-05,4.0000000000040004e-05,0.0004970029263686726,-0.00019874470825387291,7.198513503858806e-05
150000000000.0,1,0.1612605526,0.0422274349,0.07685471605,-0.049257,0.015183,0.089526,-0.46996408795,-9.719566947999999,1.2161226664999998,-2.7728,1.4374,-0.099991,2.999999999997449e-05,-0.00029999999999996696,9.99999999995449e-06,0.0037922777235035454,-0.0018295012284399448,-0.0017419548504493676
150000000000.0,1,0.16140765235,-0.0034323275,0.08628871334999999,-0.047042,0.021563,0.084176,-0.47579904469999995,-9.719763081,1.2128864719999999,-2.7677,1.4375,-0.10496,0.00024999999999997247,-0.00019999999999997797,-2.0000000000020002e-05,0.0005415768907042207,0.0002780846458052544,0.000722732814797844
150000000000.0,1,0.1597699418,-0.02756649315,0.10143018094999999,-0.044844,0.025812,0.07883,-0.4811927022,-9.7198611475,1.2098464105,-2.763,1.4376,-0.10949,0.0006000000000000449,-9.999999999998899e-05,4.0000000000040004e-05,-0.0008494352339110112,0.00365779334417482,-0.0003365824808807538
150000000000.0,1,0.15470971039999998,-0.028674644599999997,0.101596894,-0.041563,0.032184,0.073481,-0.4863117735,-9.719959214,1.2071005485,-2.7586,1.4377,-0.11368,0.00039999999999995595,-9.999999999998899e-05,-0.00012000000000000899,0.0018450910354890215,2.135490248345029e-05,0.0009344274020954835
150000000000.0,1,0.16083886664999997,-0.0378732823,0.1132864208,-0.042569,0.038587,0.072395,-0.49108761205,-9.719959214,1.2045508194999999,-2.7545,1.4378,-0.11752,0.00019000000000002348,-0.00019999999999997797,-0.00032999999999994145,0.004435179053388971,-0.0038871451957989134,-0.001667560923642064
150000000000.0,1,0.17749055835,-0.026428921749999997,0.1032836378,-0.03715,0.046005,0.068116,-0.49517698509999997,-9.720057280499999,1.20229529,-2.7509,1.4378,-0.12072,0.000260000000000038,-9.999999999998899e-05,3.999999999992898e-05,0.0015649311530028243,0.0014512264093713423,-0.0012101802538149187
150000000000.0,1,0.19193575379999997,-0.0009414384,0.08695556554999999,-0.033904,0.051306,0.068105,-0.49914867835,-9.720155346999999,1.2002358935,-2.7475,1.4379,-0.12374,0.00037999999999993594,-9.999999999998899e-05,-0.00012000000000000899,-0.00015397042195441912,0.0008005859839828044,-8.344831899353977e-05
150000000000.0,1,0.19988894694999998,0.0253796102,0.08366053115,-0.027418,0.060843,0.067025,-0.50305172505,-9.720057280499999,1.198764896,-2.7443,1.4378,-0.12644,0.0006700000000000594,9.999999999998899e-05,-4.999999999999449e-05,-0.004743473664369224,0.004894617856705308,0.003602343044053047
150000000000.0,1,0.21791356965,0.04074663075,0.0706667199,-0.01989,0.067175,0.065952,-0.5065723124,-9.720057280499999,1.1976861644999999,-2.7414,1.4378,-0.12868,0.00044999999999995044,-0.00029999999999996696,-0.00014999999999998348,-0.0011699083486202966,0.0009258748886040724,0.0008235447193838397
150000000000.0,1,0.23554592634999996,0.06263507355,0.057653295349999995,-0.012366,0.07457,0.067011,-0.5099850266,-9.719959214,1.1970977655,-2.7388,1.4377,-0.13063,-0.0006499999999999284,-0.000300000000000189,0.0011400000000000299,6.720278711891403e-05,0.002698505251914396,-0.0030475777779321866
150000000000.0,1,0.2405571245,0.059889211549999995,0.06549861535,-0.007002,0.079849,0.070204,-0.5136527137,-9.719763081,1.1970977655,-2.7363,1.4376,-0.13249,0.00027999999999994696,-4.999999999988347e-05,-9.999999999998899e-05,-0.0007338321896317446,0.0005636624727307638,0.0013098017558337283
150000000000.0,1,0.2405571245,0.059889211549999995,0.06549861535,-0.007002,0.079849,0.070204,-0.5136527137,-9.719763081,1.1970977655,-2.7363,1.4376,-0.13249,0.00031000000000003247,-5.0000000000105516e-05,-0.00021000000000004349,-0.0005402192454897481,0.0008319739491597922,0.001314629233890141
150000000000.0,1,0.23718363689999997,0.05703547639999999,0.07042155365,-0.001628,0.085131,0.071263,-0.51760479365,-9.7194688815,1.1978822974999999,-2.7337,1.4373,-0.13428,0.0011099999999999444,0.0016000000000000458,-0.0009099999999999664,-0.0321946431957989,-0.0004443947079220134,-0.02168047373102544
150000000000.0,1,0.2414201097,0.03574523925,0.08130693515,0.000538,0.089374,0.072318,-0.5215372602999999,-9.719076615499999,1.198961029,-2.7313,1.4371,-0.1359,0.000180000000000069,-9.999999999998899e-05,-0.00019000000000002348,5.612317662606614e-05,0.0005081800800024183,0.0007516335354642578
150000000000.0,1,0.2581306413,-0.0018436501999999997,0.0786297197,0.001669,0.095759,0.070165,-0.52523436735,-9.718782416,1.2000397605,-2.729,1.4368,-0.1373,7.999999999996898e-05,-0.00039999999999995595,6.0000000000060005e-05,0.003469515944028778,0.00038728808592569663,0.0036874190107294424
150000000000.0,1,0.2393803265,-0.05066115389999999,0.1011457881,-0.000397,0.10111,0.065873,-0.5289314744,-9.71839015,1.201118492,-2.7268,1.4366,-0.13861,0.00024000000000001798,9.999999999998899e-05,-7.00000000000145e-05,-0.00041827552154094505,0.0005540009361402198,-0.00031205790232613495
150000000000.0,1,0.21527558079999998,-0.076099604,0.1320759622,0.008222,0.10637,0.058399,-0.5323638019,-9.717997883999999,1.203275955,-2.7251,1.4362,-0.13935,0.00044999999999995044,9.999999999998899e-05,-0.00024000000000001798,-0.006848267849672629,0.00060252616733103,0.0005849442095953172
150000000000.0,1,0.20432155274999997,-0.0991844581,0.13039902504999998,0.013601,0.1074,0.051995,-0.53531560355,-9.717507551499999,1.205825684,-2.7238,1.4359,-0.13959,-0.00031999999999998696,-0.0006999999999999229,0.00017000000000000348,0.009371199137778508,-0.0006867450630800853,0.0069058033496745
150000000000.0,1,0.19933977455,-0.12375011635,0.10272465874999999,0.022201,0.1084,0.041327,-0.5375122931499999,-9.717017218999999,1.2086696124999998,-2.7232,1.4355,-0.1392,0.00017000000000000348,-9.999999999998899e-05,-0.00012000000000000899,-0.0009991864904999037,-0.00041875095535726103,0.0013874992838651679
150000000000.0,1,0.20619462289999999,-0.12298519764999999,0.08248373315,0.026519,0.10838,0.03172,-0.5385419913999999,-9.716624953,1.211709674,-2.7234,1.4352,-0.13794,0.000140000000000029,-0.00019999999999997797,-0.00012000000000000899,-0.0030896998619804883,0.000590966647380009,0.0020055085177523857
150000000000.0,1,0.1920534336,-0.11054055880000001,0.08289561245,0.028708,0.10837,0.021043,-0.53876754435,-9.7161346205,1.215043935,-2.7242,1.4348,-0.13602,0.000260000000000038,-3.333333333332966e-05,-9.99999999995449e-06,-0.0005722471679097119,0.00022859556887344645,-0.0006354025402290908
150000000000.0,1,0.18720894849999997,-0.10081236199999999,0.1139924996,0.02663,0.10946,0.012491,-0.53825759855,-9.7157423545,1.2188685284999998,-2.7257,1.4345,-0.13346,0.00022999999999995246,-3.333333333332966e-05,7.999999999996898e-05,-0.0004298407974809848,0.001520260986904498,-0.0013261379327182965
150000000000.0,1,0.17849083664999998,-0.07742350174999998,0.11043268565,0.028843,0.11159,0.000743,-0.5368748609,-9.7153500885,1.222693122,-2.7278,1.4342,-0.13025,0.00029000000000001247,-3.333333333332966e-05,-9.999999999998899e-05,-0.0009207810423688123,-0.0008559457076839916,0.0008811811180478024
150000000000.0,1,0.17812799059999998,-0.045816668799999995,0.11546349709999999,0.031006,0.10945,-0.007795,-0.5345604915,-9.714859756,1.2269099815,-2.7307,1.4339,-0.12631,0.00034000000000000696,9.999999999998899e-05,-0.000140000000000029,-0.002893433554170599,-0.0005227459810934754,-0.0008123551781888949
150000000000.0,1,0.18196239074999998,0.00477583855,0.09809591994999999,0.040666,0.1115,-0.01526,-0.5315204299999999,-9.71446749,1.2317152399999998,-2.7342,1.4336,-0.12168,0.00027999999999994696,0.00019999999999997797,-0.00041000000000002146,-0.002775757355213404,0.0006394053870963923,-9.116807779063762e-05
150000000000.0,1,0.1918573006,0.051131873099999996,0.07087265955,0.050301,0.1093,-0.024853,-0.5273427971,-9.7139771575,1.2373050305,-2.7387,1.4332,-0.11611,0.000160000000000049,-0.00029999999999996696,-0.000140000000000029,-0.0007536259861899985,0.00030242770796151675,0.003913426639500006
150000000000.0,1,0.19333810475,0.07830610025,0.0308321076,0.064165,0.10493,-0.030166,-0.5225473452499999,-9.713486825,1.2433851535,-2.7437,1.4328,-0.11001,0.00031999999999998696,9.999999999998899e-05,-0.00010999999999994348,-0.002986431312410387,-0.0009071126704207622,-0.0014680215719047318
150000000000.0,1,0.18744430809999998,0.07275553635,0.0037363336499999997,0.074824,0.10165,-0.033351,-0.51738904735,-9.712898425999999,1.2502498084999998,-2.7492,1.4324,-0.10348,9.999999999998899e-05,9.999999999998899e-05,-0.0015500000000000513,0.04865485818959958,-0.012067959084014479,-6.240224081944499
150000000000.0,1,0.18322744859999998,0.0391677601,-0.0022751428,0.079065,0.096287,-0.036543,-0.5119855832,-9.7122119605,1.2576047959999999,-2.755,1.4319,-0.096729,0.0001100000000000545,-0.00019999999999997797,-3.999999999992898e-05,-0.0027382242814226743,-0.001156772144529361,0.002059035203832771
150000000000.0,1,0.16768390835,-0.012385798949999999,0.00932612415,0.07696,0.098437,-0.038692,-0.506611539,-9.711525494999998,1.2649597835,-2.7607,1.4314,-0.090025,4.999999999999449e-05,-0.00010000000000021103,-8.000000000008001e-05,0.00022849099223942737,0.0004376821429068478,0.0004481075707509774
150000000000.0,1,0.1500221317,-0.055829258449999995,0.022947561,0.071592,0.094218,-0.0387,-0.5013747878999999,-9.7108390295,1.2720205715,-2.7661,1.4309,-0.083589,9.999999999998899e-05,-9.999999999998899e-05,-9.99999999995449e-06,-0.0006293985099681265,-0.0002850043674234026,0.0011768437284462863
150000000000.0,1,0.13412555204999999,-0.08577876755,0.06163479524999999,0.059874,0.097508,-0.036596,-0.49654991609999993,-9.7102506305,1.2786890935,-2.7712,1.4305,-0.077537,2.0000000000020002e-05,-0.00029999999999996696,2.0000000000020002e-05,0.00026394698142273576,-0.0005664495009209958,-0.0008686657860970115
150000000000.0,1,0.1126391819,-0.11998436274999999,0.08495500895,0.045996,0.09762,-0.03449,-0.49226441004999993,-9.7096622315,1.2843769505,-2.7756,1.4301,-0.07215,-0.00024000000000001798,-0.0005999999999999339,0.0004899999999999904,-0.008776749431894215,0.00048165823323564894,0.0018329794308904468
150000000000.0,1,0.10454869565,-0.1385875778,0.07889449925,0.031044,0.098803,-0.029185,-0.48867517615,-9.709368031999999,1.2882996104999997,-2.7791,1.4298,-0.067682,9.99999999995449e-06,9.999999999998899e-05,-0.0001100000000000545,-0.0005198871728631094,-0.0018623980349574687,0.001966549811564633
150000000000.0,1,0.1065394456,-0.12786890935,0.07681548945,0.020375,0.10315,-0.021744,-0.48572337449999997,-9.709171899,1.2910454724999998,-2.7817,1.4297,-0.063971,0.00012000000000000899,3.333333333332966e-05,-9.99999999995449e-06,0.00019864901026300785,0.0006693850606080964,0.0010514674359574094
150000000000.0,1,0.0973408079,-0.12084734795,0.07867875295,0.011811,0.10534,-0.012159,-0.483860111,-9.708975766,1.292908736,-2.7835,1.4296,-0.061194,0.0001100000000000545,3.333333333332966e-05,-7.999999999996898e-05,-0.00114253014299881,-0.0011250471305961351,0.0024282013027892013
150000000000.0,1,0.10745146404999999,-0.11433573234999998,0.0648023432,0.00536,0.10432,-0.003634,-0.48274215289999994,-9.708877699499999,1.293889401,-2.7845,1.4295,-0.059139,0.00012999999999996348,3.333333333332966e-05,-7.00000000000145e-05,-0.0006271801737047777,0.00011320164347172756,0.0020278307147001406
150000000000.0,1,0.11569885669999999,-0.10237161935,0.024850051099999996,0.004266,0.10751,0.007028,-0.48245776004999996,-9.708877699499999,1.294085534,-2.7847,1.4295,-0.057861,-2.999999999997449e-05,-2.4999999999941735e-05,4.999999999999449e-05,-7.456010813955416e-05,0.0002809122949600784,0.0016015763560974783
150000000000.0,1,0.12183781959999998,-0.09953749749999999,-0.0030890947499999997,0.005233,0.1011,0.016643,-0.4830657723499999,-9.708877699499999,1.293889401,-2.7843,1.4295,-0.057329,-1.0000000000065512e-05,-2.4999999999941735e-05,7.999999999996898e-05,0.0008526425350414701,0.0012517509549687666,0.0007369950389719548
150000000000.0,1,0.1301146322,-0.0798065177,-0.00330484105,0.004135,0.10323,0.026239,-0.48445831665,-9.708877699499999,1.2934971349999997,-2.7832,1.4295,-0.057369,4.0000000000040004e-05,-2.500000000016378e-05,-2.999999999997449e-05,-0.00022339243989022428,-0.0003476415429697344,0.0016873059529562973
150000000000.0,1,0.1273295436,-0.0583299542,-0.00255953565,0.006199,0.097874,0.031584,-0.48645887325,-9.708779632999999,1.293301002,-2.7818,1.4294,-0.057792,-2.999999999997449e-05,-2.4999999999941735e-05,9.999999999998899e-05,-0.00035253160603154754,0.0013256259230918221,0.001354306950545947
150000000000.0,1,0.11918021745,-0.061781894999999996,-0.0024222425499999998,0.009375,0.096779,0.034789,-0.48908705545,-9.7086815665,1.2934971349999997,-2.7801,1.4293,-0.058589,9.99999999995449e-06,9.999999999998899e-05,-2.999999999997449e-05,-0.0003384347302257673,0.000493794956327509,0.0020531732065971475
150000000000.0,1,0.11123683095,-0.05495646659999999,0.0026281822,0.008219,0.090386,0.042266,-0.49236247655,-9.7084854335,1.2937913344999998,-2.778,1.4292,-0.059835,-2.0000000000020002e-05,-9.999999999998899e-05,5.999999999994898e-05,-0.0017729880706249812,-0.00022648668827374152,0.0014291504971239988
150000000000.0,1,0.11665010174999998,-0.0481506515,0.00446202575,0.008163,0.083991,0.043341,-0.49567712425,-9.708191234,1.2942816669999997,-2.7758,1.429,-0.061152,-7.999999999996898e-05,0.00019999999999997797,-2.999999999997449e-05,0.00028121277895087893,0.0022061562296866732,0.0020254698258428405
150000000000.0,1,0.1211513541,-0.052298864449999996,0.020005566,0.009182,0.078653,0.044415,-0.4991388717,-9.707995101,1.2948700659999999,-2.7737,1.4288,-0.06254,9.99999999995449e-06,-9.999999999998899e-05,0.000140000000000029,-0.0019474891545141482,-0.00028093889673175276,0.0016196203545972843
150000000000.0,1,0.10291098509999999,-0.0365788045,0.0324992381,0.007029,0.075474,0.043346,-0.5027477188999999,-9.707700901499999,1.2956545979999998,-2.7715,1.4286,-0.064018,0.000140000000000029,-0.00019999999999997797,9.00000000000345e-05,0.001326869909519246,0.0034475319345712574,-0.001219988440320563
150000000000.0,1,0.1032836378,-0.015445473749999999,0.017573516799999998,0.008061,0.069075,0.040153,-0.50595449345,-9.707406702,1.29643913,-2.7695,1.4284,-0.065321,-7.00000000000145e-05,1.6666666666775853e-05,1.999999999990898e-05,-0.0010453376712282747,0.00031645444829941916,0.00163203651196131
150000000000.0,1,0.10194012674999998,0.0120033396,0.0067371685499999995,0.009084,0.06161,0.036962,-0.5088082286,-9.707210568999999,1.2970275289999997,-2.7678,1.4282,-0.066454,-2.999999999997449e-05,1.666666666655381e-05,2.4999999999941735e-05,-0.00014722496092423043,0.00057822171298616,0.0005175189121726653
150000000000.0,1,0.10132230779999998,0.010002783,0.0089436648,0.00691,0.053108,0.031632,-0.51103433815,-9.707014436,1.2977139945,-2.7664,1.4281,-0.067254,-0.00012999999999996348,1.666666666655381e-05,2.5000000000052758e-05,-0.0001970694596589162,0.000358866529785562,0.0001534011842978522
150000000000.0,1,0.09754674755,0.005197524499999999,0.01458248855,0.005824,0.04673,0.025234,-0.51264262875,-9.706818303,1.2983023935,-2.7655,1.428,-0.067708,-6.0000000000060005e-05,1.6666666666775853e-05,1.0000000000065512e-05,4.185303438264398e-05,0.00044859494445548265,0.0008128687755504238
150000000000.0,1,0.09389867375,-0.007119627899999999,0.031106693799999998,0.00472,0.039284,0.020972,-0.5137900068,-9.70662217,1.2992830585,-2.765,1.4278,-0.067833,-0.000140000000000029,1.6666666666775853e-05,-2.0000000000020002e-05,0.00012740427826885004,0.00017140526863879124,0.00010725947681411441
150000000000.0,1,0.0870438254,-0.0268309944,0.03370545605,0.000412,0.0308,0.015639,-0.51440782575,-9.7065241035,1.2998714574999999,-2.7648,1.4278,-0.067798,-6.999999999990347e-05,1.666666666655381e-05,2.999999999997449e-05,0.0003737739564120268,0.0005038002973674072,7.680206454363514e-05
150000000000.0,1,0.08274851269999998,-0.044522190999999996,0.03054771475,-0.001782,0.02123,0.012447,-0.51460395875,-9.706426037,1.3000675904999999,-2.7647,1.4277,-0.067664,-8.000000000008001e-05,3.333333333332966e-05,2.0000000000020002e-05,-0.0008034237885585771,-0.0006406800669844781,0.000556706642032001
150000000000.0,1,0.09207463684999999,-0.05163201224999999,0.025624776449999997,-0.006053,0.018073,0.008172,-0.5142018861,-9.7065241035,1.2996753245000001,-2.7649,1.4278,-0.067311,-0.00012000000000000899,3.333333333332966e-05,2.0000000000020002e-05,-0.00019229951647337096,-0.00012826771681329063,0.00024239201923093034
150000000000.0,1,0.09401635355,-0.057211996099999995,0.0358531124,-0.011422,0.011726,0.004968,-0.5132996743,-9.70662217,1.2991849919999998,-2.7653,1.4279,-0.066742,3.0000000000085514e-05,3.333333333332966e-05,-1.0000000000065512e-05,0.0011573226373928769,0.000668340786379229,3.008751780164687e-06
150000000000.0,1,0.082179727,-0.04270796075,0.0519164051,-0.014672,0.005359,0.004971,-0.5123876558499999,-9.706818303,1.298596593,-2.7658,1.428,-0.066253,-0.0001500000000000945,9.999999999998899e-05,6.0000000000060005e-05,5.1927207271651454e-05,-0.0001685029994029641,8.990706853184705e-05
150000000000.0,1,0.07093149944999999,-0.0263798885,0.0389127872,-0.014722,-0.001034,0.004979,-0.5116129305,-9.7069163695,1.297615928,-2.766,1.4281,-0.065974,4.0000000000040004e-05,9.999999999998899e-05,-0.0006200000000000649,-0.011840302237401845,-0.011550389453491627,0.007623619073974464
150000000000.0,1,0.07508951905,-0.027076160649999997,0.02782146605,-0.016884,-0.005278,0.003913,-0.5106911054,-9.7071125025,1.29643913,-2.7663,1.4282,-0.065726,-0.00010999999999994348,9.999999999998899e-05,1.0000000000065512e-05,0.001255290786638552,5.6795647318974574e-05,-0.0006864818078922141
150000000000.0,1,0.07753137489999999,-0.025634583099999997,0.025693422999999996,-0.01907,-0.01059,0.00605,-0.5098281202,-9.707406702,1.2949681325,-2.7665,1.4284,-0.065636,-0.00012000000000000899,3.333333333332966e-05,4.999999999999449e-05,0.0004861053512410507,8.93944304143357e-05,-0.0005181357315313662
150000000000.0,1,0.0806695029,-0.030459454899999995,0.01530818065,-0.02124,-0.013772,0.008184,-0.5090828148,-9.707700901499999,1.293301002,-2.7666,1.4286,-0.065728,-0.00012000000000000899,3.333333333332966e-05,4.0000000000040004e-05,0.00026715904521878997,-0.00011437870443398168,3.7367974066171428e-06
150000000000.0,1,0.0763938035,-0.038147868499999994,0.020299765499999997,-0.019136,-0.016987,0.009258,-0.5084061559499999,-9.707897034499998,1.2917319379999999,-2.7666,1.4288,-0.065856,-9.00000000000345e-05,3.333333333332966e-05,0.00010999999999994348,0.00021180319169156192,0.00023685621423408243,0.0001625656772215045
150000000000.0,1,0.0608796832,-0.04596376855,0.0136900834,-0.019153,-0.019119,0.009259,-0.5080040833,-9.708191234,1.2899667409999998,-2.7664,1.4289,-0.066254,-9.999999999998899e-05,4.999999999988347e-05,4.999999999999449e-05,0.000469515426385847,-9.160230809968084e-05,-0.000566554918205675
150000000000.0,1,0.04186458885,-0.057976914799999994,0.011375713999999999,-0.021327,-0.025493,0.00713,-0.5076902704999999,-9.708387366999998,1.2881034774999998,-2.7661,1.4291,-0.066787,-0.000140000000000029,5.0000000000105516e-05,2.999999999997449e-05,2.2750685467531895e-05,-0.0003393975463819032,0.00042399018190986126
150000000000.0,1,0.0296553096,-0.07219655729999999,0.0215354034,-0.025606,-0.027588,0.006058,-0.5072980045,-9.7086815665,1.286044081,-2.7659,1.4294,-0.06737,-0.000140000000000029,9.999999999998899e-05,4.999999999999449e-05,0.00047716559910937484,-0.00046091777405821155,-0.0005798799484884043
150000000000.0,1,0.025565936549999998,-0.08403318385,0.036971070499999995,-0.025641,-0.033977,0.002866,-0.5066507656,-9.708975766,1.2841808175,-2.7658,1.4296,-0.067754,-0.00011999999999989797,3.333333333332966e-05,3.0000000000085514e-05,0.0010559277754547125,-0.0002641024483347465,-0.0008014027315503824
150000000000.0,1,0.0171224109,-0.08334671834999999,0.050916126799999996,-0.023507,-0.036123,-0.00033,-0.50583681365,-9.709269965499999,1.2826117535,-2.7659,1.4297,-0.067978,-0.00012000000000000899,3.333333333332966e-05,0.00010999999999994348,-0.00029896791696804037,-0.00025673174872209437,-8.798813332111521e-05
150000000000.0,1,0.029557243100000002,-0.07816880715,0.05055328075,-0.020328,-0.040409,-0.002453,-0.50450310925,-9.7094660985,1.2813368889999999,-2.7665,1.4299,-0.067827,-0.0001300000000000745,3.333333333332966e-05,6.0000000000060005e-05,0.00043625677724667966,-0.0006170125086453204,-0.0002894071670840326
150000000000.0,1,0.012523092049999998,-0.055937131599999995,0.02003498595,-0.016068,-0.044701,-0.007775,-0.5030419184,-9.7096622315,1.2801600909999997,-2.7672,1.4301,-0.067611,-0.00012000000000000899,-9.999999999998899e-05,6.999999999990347e-05,7.063775975590936e-05,-0.0007476597843947275,-0.0008206673653514684
150000000000.0,1,0.0059232166000000004,-0.0077080269,0.00387362675,-0.00971,-0.052209,-0.010954,-0.50122768815,-9.709858364499999,1.2793755589999998,-2.7682,1.4302,-0.067098,-0.00012000000000000899,-9.999999999998899e-05,0.0001100000000000545,0.0006095294265267004,5.491276147351343e-05,-0.0021432218608818943
150000000000.0,1,0.00811009955,0.029635696299999997,-0.010591182,0.00094,-0.056556,-0.01413,-0.4992173249,-9.709956431,1.2794736254999999,-2.7696,1.4303,-0.066249,-7.999999999996898e-05,9.999999999998899e-05,2.0000000000020002e-05,-0.0005825340587888306,-0.0006445422508907228,0.0010189461540504041
150000000000.0,1,0.0084533323,0.06815621749999999,-0.03274440435,0.007312,-0.06087,-0.015179,-0.4968735355499999,-9.7100544975,1.279963958,-2.7713,1.4303,-0.065109,-7.999999999996898e-05,-4.999999999988347e-05,9.999999999998899e-05,-0.00028477058659648335,-0.0002104081031977234,-0.0004917793936463077
150000000000.0,1,0.011463973849999998,0.11229594914999999,-0.0318127726,0.010483,-0.065158,-0.016234,-0.49434341985,-9.7100544975,1.2809446230000001,-2.7733,1.4303,-0.063745,-0.000140000000000029,-5.0000000000105516e-05,7.00000000000145e-05,-0.00028027615145664875,-0.0007895484140634235,-0.0004805004496986065
150000000000.0,1,0.011424747249999999,0.10488212174999999,-0.02013305245,0.013672,-0.067314,-0.017292,-0.49175446424999997,-9.709956431,1.2826117535,-2.7755,1.4303,-0.06222,-0.00010999999999994348,-5.0000000000105516e-05,5.999999999994898e-05,-0.00016967139837897882,-0.00029815054381643336,-0.0005825912779386933
150000000000.0,1,0.0014317708999999998,0.07273592305,-0.01658304515,0.016872,-0.06734,-0.017287,-0.48924396185,-9.709858364499999,1.284475017,-2.7777,1.4302,-0.060705,-4.0000000000040004e-05,-4.999999999988347e-05,4.999999999999449e-05,8.491099587448758e-05,-0.0002747307569586077,-0.0013805822152779257
150000000000.0,1,-0.011846433200000001,0.0114149406,-0.0146315218,0.016841,-0.070538,-0.016213,-0.48689036584999995,-9.709760297999999,1.286240214,-2.7797,1.4301,-0.059324,-0.00021000000000004349,-4.999999999988347e-05,1.0000000000065512e-05,0.0005317875525066018,-0.0013559447698896498,-0.0008445311948670486
150000000000.0,1,-0.0282627653,-0.006678328649999999,-0.014788428199999998,0.017893,-0.071613,-0.015141,-0.484840776,-9.709564165,1.288005411,-2.7816,1.43,-0.058156,-0.00018999999999991246,-5.0000000000105516e-05,4.999999999999449e-05,-0.00011314352347402412,-0.0004984985191385238,-0.0006313744271690958
150000000000.0,1,-0.039089306899999995,0.0035107806999999996,-0.016553625199999998,0.015799,-0.065204,-0.01302,-0.48330113194999996,-9.7094660985,1.2896725414999999,-2.783,1.4299,-0.057345,-3.0000000000085514e-05,-0.00019999999999997797,2.999999999997449e-05,0.0010596813433607633,7.157850083139294e-05,-0.0031333716048744797
150000000000.0,1,-0.04027591155,0.029694536199999996,-0.02070183815,0.013635,-0.066256,-0.008751,-0.48210472065,-9.709269965499999,1.2912416055,-2.7843,1.4298,-0.056786,-6.999999999990347e-05,-9.999999999998899e-05,4.999999999999449e-05,-4.3217411319629306e-05,-0.00032624386736279654,-0.0009354808971173689
150000000000.0,1,-0.0299691224,0.06777375814999999,-0.025144250599999998,0.007224,-0.064078,-0.003428,-0.48133980195,-9.709269965499999,1.2921242039999998,-2.785,1.4297,-0.05668,-2.999999999997449e-05,9.999999999998899e-05,-4.0000000000040004e-05,0.00039234764314466375,0.0004092965206121679,-0.0009490400463767479
150000000000.0,1,-0.0200644059,0.06914668915,-0.021809989599999996,-0.004513,-0.06079,0.001884,-0.4810750224,-9.709269965499999,1.2921242039999998,-2.7852,1.4297,-0.057122,-3.0000000000085514e-05,3.333333333332966e-05,-9.99999999995449e-06,8.472638816936495e-05,-0.00020370450320905675,-0.000453763761623982
150000000000.0,1,-0.02580129615,0.04768973895,-0.0072765343,-0.014118,-0.056456,0.009332,-0.4816241948,-9.709368031999999,1.291143539,-2.7846,1.4298,-0.058306,-9.00000000000345e-05,3.333333333332966e-05,2.999999999997449e-05,0.0001854597997674734,-0.00020754459691230132,-0.0009189987433515512
150000000000.0,1,-0.038559747799999995,0.024516625,0.017475450299999997,-0.027959,-0.048889,0.015701,-0.483075579,-9.7094660985,1.2892802755,-2.7831,1.4299,-0.060289,-4.999999999999449e-05,3.333333333332966e-05,-1.4999999999987246e-05,0.0011093085873927766,0.00010109153963977491,-0.0009183269840957742
150000000000.0,1,-0.04827813795,-0.0070804013,0.0365788045,-0.040769,-0.044529,0.024212,-0.48547820825,-9.709760297999999,1.2863382805,-2.7807,1.4301,-0.06315,-7.00000000000145e-05,0.00019999999999997797,-1.4999999999987246e-05,1.6892208196672698e-06,9.915756964073985e-05,0.0012442942361112763
150000000000.0,1,-0.047601479099999996,-0.041570389349999994,0.044100505049999995,-0.052489,-0.038046,0.031654,-0.4887045961,-9.710152564,1.2823175539999998,-2.7775,1.4304,-0.066823,-3.999999999992898e-05,4.999999999988347e-05,-2.0000000000020002e-05,0.0007164899818437043,-5.585746439917827e-05,-0.0002640116585292951
150000000000.0,1,-0.049857008599999995,-0.05141626595,0.02923362365,-0.05887,-0.031606,0.038038,-0.49273512924999996,-9.7106428965,1.2771200295,-2.7734,1.4308,-0.071281,3.999999999992898e-05,5.0000000000105516e-05,6.666666666710341e-06,0.0009656984668242607,0.0012518920690551827,-0.0008802967143322071
150000000000.0,1,-0.0518379519,-0.022947561,0.01987807955,-0.062065,-0.026259,0.045497,-0.4976286475999999,-9.711133229,1.2715302389999998,-2.7685,1.4311,-0.07642,-5.999999999994898e-05,9.999999999998899e-05,6.666666666599319e-06,0.0007967490385327736,0.0002648606856228142,2.6462209907762713e-06
150000000000.0,1,-0.0403837847,-0.0039030467,0.014847268099999998,-0.065304,-0.023049,0.058296,-0.5033949578,-9.7116235615,1.2654501159999998,-2.763,1.4315,-0.082268,-4.999999999999449e-05,9.999999999998899e-05,6.666666666710341e-06,0.0010546741692989414,0.0007847809804324424,-0.0007687119335599846
150000000000.0,1,-0.02560516315,0.00318716125,0.025154057249999997,-0.072744,-0.015535,0.064675,-0.50979870025,-9.712113894,1.2590757934999999,-2.7569,1.4318,-0.088619,-0.00036999999999998145,-0.0014999999999998348,0.0017700000000000493,0.0109925522597627,0.01533333983534857,6.259467276125678
150000000000.0,1,-0.01879934805,0.000196133,0.021427530249999997,-0.068481,-0.010252,0.074281,-0.5170556212499999,-9.7126042265,1.2526034045,-2.7501,1.4322,-0.095544,-0.00031999999999998696,4.999999999988347e-05,0.00025999999999992696,0.0008661160655525357,0.001492347552422224,-0.0025045307002042883
150000000000.0,1,-0.0115914603,-0.0371083636,0.034078108749999995,-0.070614,-0.004915,0.082808,-0.52515591415,-9.7129964925,1.246032949,-2.7427,1.4325,-0.10306,3.999999999992898e-05,5.0000000000105516e-05,-8.999999999992347e-05,-0.0004871310916052529,7.812057183653742e-05,0.0008097896605705479
150000000000.0,1,-0.02797837245,-0.13618494855,0.052387124300000004,-0.068476,0.001452,0.092408,-0.5343643585,-9.713290692,1.2398547594999998,-2.7347,1.4327,-0.1112,-7.00000000000145e-05,-9.999999999998899e-05,0.00013999999999991797,0.0011112932884942417,0.0013777036618387584,-0.0004235856373280278
150000000000.0,1,-0.02580129615,-0.2439698387,0.05296571665,-0.066362,0.003558,0.09988,-0.5443181082499999,-9.713486825,1.2335785035,-2.726,1.4329,-0.11987,-0.00010999999999994348,4.999999999988347e-05,0.00017000000000000348,0.000825039462439392,0.0009699130045166537,-0.0009137217035819489
150000000000.0,1,-0.026203368799999998,-0.34228150495000004,0.0627821733,-0.060994,0.010967,0.10521,-0.5548406437,-9.713682958,1.2276945135,-2.7171,1.433,-0.12878,-4.999999999999449e-05,5.0000000000105516e-05,0.00026999999999999247,-0.0008256842996869906,0.0021666849402464106,0.0011877098588710666
150000000000.0,1,-0.033440676499999995,-0.3955414211,0.087279185,-0.056718,0.015189,0.11055,-0.56601041805,-9.713682958,1.222496989,-2.708,1.433,-0.13786,-9.999999999998899e-05,6.666666666665932e-05,0.0001300000000000745,0.0012737213532925118,-4.2427822632307155e-05,0.0007003142135881824
150000000000.0,1,-0.03339164325,-0.43063942145,0.08455293629999999,-0.05242,0.021543,0.11482,-0.57758226505,-9.7135848915,1.2176917305,-2.6987,1.4329,-0.14702,-2.0000000000020002e-05,6.666666666665932e-05,-1.0000000000065512e-05,0.0002681614944268773,-0.001171498302641183,0.0013940574175403952
150000000000.0,1,-0.00648219565,-0.3972477782,0.06659696015,-0.047078,0.025756,0.12016,-0.5893796649999999,-9.713486825,1.2130826049999999,-2.6893,1.4328,-0.15623,2.0000000000020002e-05,6.666666666665932e-05,0.00019000000000002348,-0.000802044650826117,0.002681505230304859,0.0008578952433082598
150000000000.0,1,0.03221484525,-0.32054016189999995,0.0539169617,-0.041733,0.031033,0.12656,-0.6012849380999999,-9.713290692,1.2088657455,-2.68,1.4327,-0.16534,0.00014500000000006175,0.00019999999999997797,0.00014999999999998348,0.0003959135128226432,0.0008783477577385401,0.0006593588868368805
150000000000.0,1,0.05347566245,-0.22491551775,0.049425515999999996,-0.037395,0.04165,0.12975,-0.6134157641499999,-9.7129964925,1.2051392184999998,-2.6708,1.4325,-0.17431,0.00014499999999995072,0.00019999999999997797,-0.00036000000000002697,0.0021265521692950262,0.0018488155337246237,-0.0016025961380417009
150000000000.0,1,0.07312818905,-0.09651704929999999,0.0496020357,-0.032044,0.046928,0.13508,-0.6258898229500001,-9.712506159999998,1.20229529,-2.6616,1.4321,-0.18311,-9.00000000000345e-05,9.999999999998899e-05,0.00019000000000002348,-0.0005977780895931595,0.001975674520190429,0.0021956093915109776
150000000000.0,1,0.1058333668,0.015367020549999999,0.018005009399999997,-0.022401,0.05324,0.13722,-0.6382363953,-9.712015827499998,1.199745561,-2.6527,1.4318,-0.19162,9.99999999995449e-06,-9.999999999998899e-05,0.00021999999999999797,0.0003399257089251595,0.0030189836304130857,-0.001772952684599094
150000000000.0,1,0.14044103465,0.09507547175,0.0162594257,-0.009571,0.058458,0.14043,-0.6504064479499999,-9.711427428499999,1.1984706964999998,-2.6444,1.4313,-0.19946,3.0000000000085514e-05,0.00014999999999987246,9.00000000000345e-05,-0.0005890811131266105,0.002835696068061555,-0.0006214976156195817
150000000000.0,1,0.1476489224,0.11621860915,0.0106892485,0.00435,0.064736,0.14044,-0.66270398705,-9.71054483,1.1986668295,-2.6366,1.4307,-0.20675,9.999999999998899e-05,0.0001500000000000945,-0.00019000000000002348,0.010880740853088877,0.0015397948520345928,-0.0007638185370510975
150000000000.0,1,0.15931883589999998,0.08854424285,-0.014974754549999999,0.028928,0.068797,0.1394,-0.6746681000499999,-9.7094660985,1.2004320265,-2.6296,1.4299,-0.21318,-3.0000000000085514e-05,-0.00029999999999996696,0.000160000000000049,0.0015670886715213328,0.001400193775713321,0.0009978478684669057
150000000000.0,1,0.16982175805,0.05482898014999999,-0.051023999949999996,0.052433,0.071801,0.1373,-0.6863772401499999,-9.708289300499999,1.2038643539999998,-2.6234,1.429,-0.2187,-0.00021999999999999797,-0.00029999999999996696,0.00032999999999994145,-0.0033926412542986117,0.0022575264745021695,0.0003715279616036682
150000000000.0,1,0.17621569384999997,0.032705177749999995,-0.08059104969999999,0.078094,0.07692,0.13412,-0.6977039209,-9.706818303,1.209159945,-2.6182,1.428,-0.22317,-0.0005399999999999849,-0.0007999999999999119,0.0006399999999999739,-0.011047511997350545,0.0009054645377419845,0.002462092973201102
150000000000.0,1,0.18727759505,0.0105323421,-0.09725254805,0.098406,0.081016,0.13201,-0.70861872235,-9.705151172499999,1.2162207329999999,-2.614,1.4268,-0.22663,-0.0006199999999999539,-0.000700000000000145,0.0008100000000000884,-0.005023424508551866,0.001136470422330893,0.0008094442631825238
150000000000.0,1,0.19689791869999998,0.012876131449999998,-0.11824858569999999,0.1177,0.089387,0.12669,-0.7189843514,-9.703287909,1.224850585,-2.6108,1.4255,-0.22908,-0.0012400000000000189,-0.0009999999999998899,0.0014199999999999768,0.011533337662171128,0.003480468362792921,-0.011547015481554901
150000000000.0,1,0.20323301459999998,0.0186718616,-0.11186445655,0.12632,0.098908,0.12348,-0.7290655875999998,-9.701228512499998,1.2345591685,-2.6082,1.4241,-0.23077,-0.00012000000000000899,-0.00029999999999996696,0.00019000000000002348,-1.5726053835596332e-05,0.0013226256845613182,0.0008044112663996295
150000000000.0,1,0.19407360349999997,-0.01301342455,-0.09738984115,0.12856,0.10849,0.11705,-0.7387545577999999,-9.699169116,1.2449542175,-2.606,1.4226,-0.23188,-0.00012999999999996348,9.999999999998899e-05,0.00034000000000000696,-0.009639166131100385,0.004166417784223997,0.005653367384176544
150000000000.0,1,0.1929556454,-0.07583482445,-0.09134894475,0.118,0.11817,0.1106,-0.74796300215,-9.6973058525,1.2543686015,-2.6039,1.4213,-0.23291,0.0014100000000000223,9.999999999998899e-05,-0.0014800000000000368,-0.011482930352130882,-0.003894128888171311,-6.275076378642819
150000000000.0,1,0.1899351972,-0.18482593255,-0.06192899475,0.098962,0.13538,0.10413,-0.7567595671999999,-9.695638722,1.2622139215,-2.6015,1.4202,-0.23403,-0.00012000000000000899,0.0020000000000000018,0.00012000000000000899,-0.031970466465234715,0.0068733846293749234,6.255237133365664
150000000000.0,1,0.1751859956,-0.30962536044999994,0.0013337044,0.078863,0.15048,0.093386,-0.7649088933499999,-9.694069657999998,1.2687843769999998,-2.5991,1.4191,-0.23504,-0.00019000000000002348,-9.999999999998899e-05,0.00030999999999992145,-0.005184671994854284,-0.0014191920644324174,0.002172702403131943
150000000000.0,1,0.1475116293,-0.43553293979999996,0.049866815249999995,0.059817,0.16237,0.080518,-0.77240117395,-9.692892859999999,1.2737857685,-2.5965,1.4183,-0.23606,-0.00034000000000000696,-0.000600000000000156,0.0005300000000000304,0.00423131870224891,0.0008527039882060272,0.006496714936064851
150000000000.0,1,0.12185743289999999,-0.5392284569,0.05216157135,0.041888,0.17851,0.064442,-0.7787656897999999,-9.691912194999999,1.27682583,-2.5939,1.4177,-0.23697,-0.0005500000000000504,-0.0019000000000000128,0.0006500000000000394,0.03527454446709033,-0.002809375624186261,-6.253463402820231
150000000000.0,1,0.0915548844,-0.58460382645,0.05639804415,0.030334,0.19141,0.048383,-0.7842181871999999,-9.691323795999999,1.278198761,-2.5913,1.4173,-0.23772,-0.00017999999999995797,-0.00019999999999997797,0.00046000000000001595,0.0019574656031589033,0.00044223366667095476,0.0016682604803119894
150000000000.0,1,0.08977988075,-0.6073062211999999,0.0391677601,0.018801,0.20751,0.033391,-0.79038657005,-9.690735397,1.2786890935,-2.588,1.4169,-0.23902,-0.00021999999999999797,-0.00029999999999996696,0.0006899999999999684,0.0016116263718937152,-0.0013469069746021578,0.0008257141049456962
150000000000.0,1,0.10794179654999998,-0.57773917145,0.01271922505,0.014709,0.21822,0.015219,-0.7950839553999999,-9.690441197499998,1.2784929605000002,-2.5852,1.4167,-0.23959,0.00043999999999999595,0.00039999999999995595,-0.00021000000000004349,0.0009665474471682867,0.0005186501766833995,0.003215590926915368
150000000000.0,1,0.115130071,-0.5219491396,-0.02021150565,0.013849,0.2321,-0.00402,-0.79807498365,-9.6902450645,1.2779045615,-2.5833,1.4165,-0.23919,-0.00010999999999994348,-0.00029999999999996696,0.0005800000000000249,-0.0034948382869341987,0.00025455344944802505,-0.000134539722762117
150000000000.0,1,0.10617659954999999,-0.44042645815,-0.06173286175,0.011842,0.23852,-0.020051,-0.7972021918,-9.6906373305,1.2752567659999998,-2.5829,1.4168,-0.23726,-0.00012000000000000899,-0.0013000000000000789,0.0009600000000000719,0.0510732451668825,0.007441706004151172,0.05742260755945017
150000000000.0,1,0.10135172775,-0.3475084494,-0.09127049154999999,0.006706,0.2535,-0.036097,-0.79731006495,-9.690735397,1.2741780344999998,-2.5824,1.4169,-0.23519,0.0007999999999999119,0.0044000000000001815,-0.0005700000000000705,-0.08988951256324151,-0.004629785284334664,6.191488399692327
150000000000.0,1,0.1030875048,-0.26247498725,-0.10119482134999999,0.000463,0.26528,-0.048938,-0.79621172015,-9.691127663,1.2722167045000001,-2.5824,1.4171,-0.23259,-0.0010999999999999899,-0.0040000000000000036,0.0014800000000000368,0.042875451088178584,-0.0027611756265666365,-6.240338216773118
150000000000.0,1,0.11139373734999998,-0.1588285034,-0.09893929185,-0.006817,0.28028,-0.062853,-0.7938875441,-9.691716062,1.2695689089999997,-2.5828,1.4175,-0.22943,-0.0005999999999999339,-0.000700000000000145,0.0013100000000000334,-0.005178761030558698,-0.0018824037231615076,0.005569268830239338
150000000000.0,1,0.10787314999999999,-0.041619422600000004,-0.0853374683,-0.013052,0.29419,-0.074635,-0.7884252400499999,-9.6927947935,1.2646655839999998,-2.5841,1.4182,-0.22513,0.00039000000000000146,-0.00019999999999997797,0.00042999999999993044,0.001992331676044179,0.001210297278324557,0.0039209548237364444
150000000000.0,1,0.1177778665,0.03735352985,-0.09084880559999998,-0.020331,0.31131,-0.085352,-0.78426722045,-9.693579325499998,1.2605467909999999,-2.585,1.4188,-0.2211,7.999999999996898e-05,-0.00039999999999995595,0.0007300000000000084,0.002112183097892073,0.0008078545872542975,0.004521890077644031
150000000000.0,1,0.12560357319999998,0.09069189919999998,-0.11753270025,-0.02126,0.32518,-0.090715,-0.7796679016,-9.694559990499998,1.2559376654999999,-2.586,1.4195,-0.21683,-0.0007399999999999629,-0.0007999999999999119,0.0011100000000000554,0.006490495980836508,-0.0011708943829407126,-0.001466748011326402
150000000000.0,1,0.12301461759999999,0.1250740141,-0.1352533168,-0.021097,0.34223,-0.096081,-0.7746861233999999,-9.695638722,1.2512304735,-2.5872,1.4202,-0.21222,-0.0011900000000000244,-0.000700000000000145,0.0019500000000000073,-0.0020985292311213044,0.0039027086647056564,-0.000714286917314233
150000000000.0,1,0.1166599084,0.1378422724,-0.15028691125,-0.022046,0.35503,-0.10038,-0.7672919093,-9.697109719499998,1.243875486,-2.5889,1.4212,-0.207,-0.000160000000000049,-0.0004999999999999449,0.0005299999999999194,-0.0018234489025881206,0.000592879397594448,0.004739813763754874
150000000000.0,1,0.11914099084999999,0.1529641267,-0.14312805674999998,-0.020805,0.37421,-0.10468,-0.7618394119,-9.698188451,1.238972161,-2.5903,1.4219,-0.20181,0.0025000000000000577,0.0034000000000000696,-0.003190000000000026,-0.012516817669777414,-0.0003313574620069648,-0.01611283060165869
150000000000.0,1,0.1114427706,0.1795989881,-0.14403026855,-0.018536,0.38911,-0.10791,-0.7562300081,-9.6992671825,1.2341669024999997,-2.5918,1.4227,-0.19633,-4.999999999999449e-05,-0.000700000000000145,0.0006300000000000194,0.0003589078037733451,-0.0009706209288209422,0.003045140352480491
150000000000.0,1,0.09682105545,0.2155305537,-0.18257040305,-0.019467,0.40404,-0.11114,-0.75043427795,-9.700345914,1.2292635774999998,-2.5935,1.4234,-0.19059,-0.000160000000000049,-0.00039999999999995595,0.0003500000000000725,6.582260442034027e-05,0.00010629136594419997,0.006103002548347725
150000000000.0,1,0.08634755325,0.26404405124999997,-0.16628155739999997,-0.020348,0.42536,-0.11545,-0.7431087103999999,-9.7018169115,1.221712457,-2.5951,1.4245,-0.18471,-0.0007800000000000029,-0.0027999999999999137,0.0013299999999999423,0.03649760883398745,-0.0071814929480680245,0.020923536446359137
150000000000.0,1,0.06729323229999999,0.34794974864999995,-0.1598680083,-0.022305,0.4435,-0.12189,-0.7367736145,-9.7029937095,1.2163187995,-2.597,1.4253,-0.17842,-0.00019999999999997797,-0.00039999999999995595,0.00046000000000001595,-0.004887830022229256,0.0005300313602809581,0.003975041048712935
150000000000.0,1,0.0663125673,0.44925244314999996,-0.1430397969,-0.02322,0.46056,-0.12512,-0.73025219225,-9.7041705075,1.210729009,-2.5989,1.4261,-0.1719,-0.0015600000000000058,-0.0018000000000000238,0.00273000000000001,-0.00827909063183685,0.000598131399341062,0.005991785228492308
150000000000.0,1,0.057545422199999995,0.61051299575,-0.17686293274999998,-0.016658,0.47863,-0.12834,-0.72358367025,-9.7053473055,1.205433418,-2.601,1.4269,-0.16494,-0.00012999999999996348,-0.000600000000000156,0.00026999999999999247,0.0015435710024005456,-0.0006627934580749617,0.0040191338317412395
150000000000.0,1,0.08054201644999999,0.8620633749,-0.22760253984999998,0.000567,0.49554,-0.13261,-0.7163561692,-9.7065241035,1.200137827,-2.6034,1.4278,-0.15748,0.0015499999999999403,0.000500000000000167,-0.00270999999999999,0.011402982971983278,-0.0021422009114497875,0.006002646827491631
150000000000.0,1,0.10632369929999999,1.1452205869999998,-0.28036231684999996,0.023137,0.51347,-0.13688,-0.7092169279999999,-9.7073086355,1.1980784304999998,-2.6071,1.4283,-0.14863,-0.0020599999999999508,-0.0020999999999999908,0.0024199999999999777,-0.012537960255106562,-0.0019207364666049553,0.0028505691449787207
150000000000.0,1,0.13147775655,1.4316728335,-0.35861938385,0.058484,0.5281,-0.14111,-0.7018913604499999,-9.707700901499999,1.1991571619999999,-2.612,1.4286,-0.13837,0.0016599999999999948,0.0009999999999998899,-0.003109999999999946,-0.008468368469232601,-0.007387495401739219,0.018217297774715924
150000000000.0,1,0.16856650685,1.6127035925,-0.44452563785,0.096991,0.53632,-0.14746,-0.6940950736999999,-9.707700901499999,1.2039624205,-2.6186,1.4286,-0.12631,0.00015999999999993797,-0.0011999999999998678,-0.0006099999999999994,0.02093200078939028,0.0030121681603378914,-0.006326848685759057
150000000000.0,1,0.16234909074999998,1.6058389375,-0.49105819209999996,0.13445,0.54561,-0.15595,-0.6857790345,-9.707210568999999,1.212298073,-2.6268,1.4283,-0.11255,-0.0019999999999998908,-0.0025000000000001688,0.0019500000000000073,-0.012565655578153256,0.0019085848460891341,0.004504315466420383
150000000000.0,1,0.12888880095,1.4326534985,-0.5137605868499999,0.16659,0.55707,-0.16446,-0.6767176898999999,-9.706426037,1.224066053,-2.6366,1.4277,-0.097056,0.0019899999999999363,0.001100000000000101,-0.003490000000000104,-0.015982649409302052,-0.008296583881355568,0.021924142297422566
150000000000.0,1,0.07861991304999999,1.1479664489999999,-0.4746222466999999,0.1881,0.5697,-0.17725,-0.66684239335,-9.7053473055,1.2380895625,-2.6475,1.4269,-0.080254,0.0003300000000000525,0.0012999999999998568,-0.0023599999999999177,0.0113051356782361,-0.010821859020077929,0.022270139525748966
150000000000.0,1,0.0235947999,0.8458627890999999,-0.41488013490000003,0.19688,0.59202,-0.19115,-0.65595701185,-9.704072441,1.2531918034999998,-2.6594,1.4261,-0.062364,2.999999999997449e-05,-0.0022999999999999687,-0.0006599999999999939,-0.0284434574172443,-0.004171639069533883,0.014364629148628794
150000000000.0,1,-0.03160683295,0.6207217184,-0.37181913474999995,0.20883,0.60792,-0.2093,-0.643708506,-9.7027975765,1.269372776,-2.6723,1.4252,-0.043226,0.00026999999999999247,-0.0009999999999998899,-0.0006400000000000849,-0.0008267009061719843,-0.0005728758791576638,0.008337953144035737
150000000000.0,1,-0.10288156514999999,0.41996978625,-0.3335437798,0.21337,0.62815,-0.23068,-0.6298909361499999,-9.701522712,1.2859460145,-2.6861,1.4243,-0.022918,-0.00014999999999998348,-0.0013000000000000789,-0.0008399999999999519,-0.006310148096792645,-0.002736629754395814,0.008688083953455994
150000000000.0,1,-0.15258166734999998,0.26363217195,-0.3020840466,0.21894,0.64518,-0.25205,-0.6150632813499999,-9.700345914,1.3018327875,-2.7002,1.4234,-0.002179,0.0005899999999999794,-0.0011999999999998678,-0.001040000000000041,-0.00042576675038930034,-0.0021725553827549593,0.004847626078451128
150000000000.0,1,-0.21852158195,0.0954187045,-0.2909633055,0.216,0.66334,-0.2745,-0.5977545441,-9.699169116,1.3187982919999999,-2.716,1.4226,0.020506,0.00046999999999997044,-0.001100000000000101,-0.0010099999999999554,-0.007462416722351817,-0.0018091579708829908,0.010470570908387877
150000000000.0,1,-0.27404683425,-0.10986389994999998,-0.26765289845,0.20242,0.68585,-0.29591,-0.57859235,-9.698090384499999,1.334881198,-2.7326,1.4219,0.044129,0.00021000000000004349,-0.0012000000000000899,-0.0005199999999999649,0.003925211538523099,-0.0025511060554839204,0.005896051674135094
150000000000.0,1,-0.33486767754999996,-0.3406241811,-0.23009342895,0.18353,0.71267,-0.31734,-0.5577237988,-9.697403919,1.349198907,-2.7496,1.4214,0.068479,0.0007199999999999429,-0.0009999999999998899,-0.0005100000000000104,-0.0013216606286796662,-0.002268437885422969,0.00901519189959643
150000000000.0,1,-0.39627691984999996,-0.64054095805,-0.14788428199999998,0.14967,0.73854,-0.33132,-0.53611974885,-9.697011653,1.360378488,-2.7662,1.4211,0.092659,0.0008000000000000229,-0.0020000000000000018,0.00041000000000002146,0.0009684952037640748,0.009677779792798491,-0.014205843408046537
150000000000.0,1,-0.47288646965,-1.006946822,-0.07221617059999999,0.10301,0.76877,-0.33999,-0.513672327,-9.697207786,1.367635409,-2.7823,1.4213,0.11665,0.00024999999999997247,-0.0012000000000000899,2.999999999997449e-05,0.006047604574013654,-0.002197589675570377,0.007782333242905892
150000000000.0,1,-0.51784015325,-1.3114433044999998,0.0002549729,0.042499,0.80869,-0.33803,-0.4917642709,-9.698090384499999,1.369204473,-2.7968,1.4219,0.13939,0.0006599999999999939,-0.0009999999999998899,-0.00019000000000002348,-0.0025038150628406974,-0.002787223251738302,0.01012862349343946
150000000000.0,1,-0.52796061605,-1.507870504,0.0854943747,-0.023322,0.85718,-0.32649,-0.47131740564999997,-9.6998555815,1.364497281,-2.809,1.4231,0.16029,0.0006800000000000139,-0.001100000000000101,2.0000000000020002e-05,-0.0003071035305872716,-0.0012590942776098402,0.010623441199556716
150000000000.0,1,-0.5340603523499999,-1.573378926,0.15563153549999997,-0.092339,0.9142,-0.30216,-0.45354775584999996,-9.702307244,1.3530235005,-2.8182,1.4248,0.17863,0.0007500000000000284,-0.0005999999999999339,-9.00000000000345e-05,0.00029775712968382884,0.0007888320658919756,0.006359099041776783
150000000000.0,1,-0.48945970814999995,-1.444127279,0.16533031234999998,-0.15179,0.97432,-0.26501,-0.43978902589999996,-9.7053473055,1.3353715305,-2.8234,1.4269,0.19368,0.0008599999999999719,0.0013999999999998458,-0.00039999999999995595,0.0007588468975454621,0.001990792227966498,0.00306783740685157
150000000000.0,1,-0.37893876265,-1.0645118574999999,0.12012165584999998,-0.19209,1.0332,-0.22035,-0.43075710124999994,-9.708779632999999,1.3131104349999998,-2.8246,1.4294,0.20517,3.0000000000085514e-05,0.0014000000000000679,-0.0017599999999999838,0.050069676557572995,-0.008084885196969704,0.016406242330249565
150000000000.0,1,-0.23623239184999997,-0.4616970819999999,-0.0128074849,-0.2132,1.0941,-0.16926,-0.42710902745,-9.712310027,1.288005411,-2.8214,1.432,0.21283,0.00045999999999990493,-0.0008999999999999009,-0.000180000000000069,0.006328301872808417,-0.0013676984550667903,0.013102252403750292
150000000000.0,1,-0.10478405525,0.2644461239,-0.17668641304999996,-0.20659,1.1504,-0.12025,-0.42867809145,-9.715546221499999,1.262704254,-2.8143,1.4344,0.21716,0.0003500000000000725,-0.0014000000000000679,-0.00030999999999992145,-0.003444792752554271,0.0020288168426012554,0.011872081949277025
150000000000.0,1,0.02999854235,1.0174399374999998,-0.35582448859999993,-0.18188,1.2035,-0.069065,-0.43552313314999996,-9.7182920835,1.239168294,-2.8036,1.4365,0.21838,0.00046000000000001595,-0.0009999999999998899,-0.000540000000000096,3.5959917578765044e-05,0.0027192253846803904,0.012850778541567465
150000000000.0,1,0.15877947015,1.6705628275,-0.5034145711,-0.14443,1.25,-0.016779,-0.44787951215,-9.72035148,1.2186723955,-2.7894,1.438,0.21656,0.00025999999999992696,-0.0013000000000000789,-0.0007399999999999629,0.007802660811878859,-2.0657483641661756e-05,0.019266419755431308
150000000000.0,1,0.27324268895,2.1801163615,-0.6275863733999999,-0.098431,1.2964,0.034454,-0.46553148214999995,-9.721528278,1.2020010904999998,-2.7721,1.439,0.21206,9.999999999998899e-05,-0.0023999999999999577,-0.00024999999999997247,-0.027311221798516083,0.002656152854884075,0.017098059464952353
150000000000.0,1,0.3796742614,2.548748335,-0.73144860355,-0.046085,1.3333,0.080378,-0.4881554237,-9.721920544,1.189938911,-2.7523,1.4393,0.20545,0.00040000000000006697,-0.00039999999999995595,-0.0023199999999999887,0.024176543889366187,0.004750766166876419,0.005989444990849968
150000000000.0,1,0.45101764014999995,2.7585125784999995,-0.7741369509999999,0.009459,1.3658,0.11991,-0.51505506465,-9.7214302115,1.1826819899999998,-2.7309,1.4389,0.19753,0.00043999999999999595,-0.001100000000000101,-0.0020200000000000218,-0.002618826899863258,0.002150840268335008,0.010827516159942263
150000000000.0,1,0.47543619865000003,2.7570415809999997,-0.7748822564,0.055384,1.391,0.1509,-0.5454654862999999,-9.720155346999999,1.1796419285,-2.7085,1.4379,0.18893,0.00017000000000000348,-0.0020999999999999908,-0.0019500000000000073,-0.0002458781841334634,0.0019323426080182227,0.017859730411187602
150000000000.0,1,0.4544009344,2.5486502685,-0.70940325435,0.090704,1.4162,0.16906,-0.57815105075,-9.7182920835,1.179739995,-2.6859,1.4364,0.18041,0.00036999999999998145,-0.00039999999999995595,-0.00277000000000005,-0.017813043762745062,0.016473161224643373,-0.0040367088781718685
150000000000.0,1,0.38288103595,2.195708935,-0.58564333135,0.11855,1.4341,0.17655,-0.61212128635,-9.715840421,1.1820935909999999,-2.6638,1.4346,0.17253,-4.0000000000040004e-05,-0.0042999999999999705,-0.0007699999999999374,-0.009774829287849451,-0.00722956431651256,0.03530306101196423
150000000000.0,1,0.30610477309999995,1.7983434769999997,-0.43333625019999994,0.12729,1.4575,0.17226,-0.6462386216999999,-9.713290692,1.185231719,-2.6424,1.4327,0.16564,0.00040000000000006697,-0.0018000000000000238,-0.0022999999999999687,0.0030493850155079993,-0.00010859932007556417,0.01734950047335282
150000000000.0,1,0.2530507966,1.3971534255,-0.28567752115,0.12641,1.4735,0.16155,-0.6796596849000001,-9.7106428965,1.1878795144999998,-2.6219,1.4308,0.15976,0.0005499999999999394,-0.0006999999999999229,-0.003269999999999995,0.028013933556869874,0.005046407028516331,0.007605298656669035
150000000000.0,1,0.21230416585,0.9750065629499999,-0.13955843615,0.10856,1.4982,0.14333,-0.7117960769499999,-9.708289300499999,1.18856598,-2.602,1.4291,0.15474,0.00019999999999997797,-0.0018000000000000238,-0.0020200000000000218,0.004010555260242299,-0.0015282526975637367,0.01448708123787501
150000000000.0,1,0.18744430809999998,0.5484467078999999,-0.0186130217,0.083161,1.5144,0.12725,-0.7424516648499999,-9.706229903999999,1.186408517,-2.5824,1.4276,0.15025,0.0006800000000000139,9.999999999998899e-05,-0.003610000000000002,-0.024555997426504828,0.01733035296338059,-0.001915381001614147
150000000000.0,1,0.17964802134999996,0.1165618419,0.1251132407,0.047147,1.5371,0.11113,-0.7717637417,-9.704758906499999,1.180132261,-2.5625,1.4265,0.14558,0.00019999999999997797,-0.0030000000000001137,-0.001060000000000061,0.019958755102863268,-0.008410158494948972,0.032232621143272855
150000000000.0,1,0.1875619879,-0.27781258784999996,0.23449661479999998,0.005762,1.5566,0.097152,-0.79972250085,-9.7037782415,1.169541079,-2.5418,1.4258,0.14044,0.000220000000000109,-0.0013999999999998458,-0.0021899999999999142,0.003653190252808969,0.003409734664573838,0.015392157125146966
150000000000.0,1,0.191033542,-0.66250785405,0.33588756914999995,-0.034519,1.5814,0.084229,-0.8265436885999999,-9.7033859755,1.1543407714999998,-2.5202,1.4255,0.13451,2.999999999997449e-05,-0.0032000000000000917,-0.0011700000000000044,-0.028891787762338916,0.004614548133011986,0.0198305885465464
150000000000.0,1,0.2108037484,-0.9536574859,0.43648418484999996,-0.068418,1.6052,0.073455,-0.85214885175,-9.7033859755,1.1351197375,-2.4977,1.4255,0.1279,0.0005699999999999594,0.0013000000000000789,-0.003630000000000022,0.017073743821092835,0.013140705452221457,-0.0007015071815725804
150000000000.0,1,0.2511090799,-1.1362965354999999,0.49604977695,-0.095944,1.6299,0.070161,-0.8773421356,-9.7037782415,1.1123683094999999,-2.4738,1.4258,0.1202,4.999999999999449e-05,-0.0015000000000000568,-0.0016300000000000203,-0.0028037837978387437,0.0025954411090149954,0.014570917506362857
150000000000.0,1,0.30266263895,-1.1896447115,0.49185253074999996,-0.11067,1.6567,0.071156,-0.902407933,-9.704366640499998,1.0872632855,-2.4488,1.4262,0.11167,1.0000000000065512e-05,-0.0015000000000000568,-0.0016500000000000403,0.007542467169847189,0.0022709716610163078,0.01565960207610173
150000000000.0,1,0.40869213874999993,-1.0762798375,0.4437116859,-0.11053,1.6801,0.080721,-0.9279346429499999,-9.704856973,1.06107953,-2.423,1.4266,0.10251,-6.0000000000060005e-05,-0.0015000000000000568,-0.0017099999999999893,0.0007966320493293377,0.0033747688261027697,0.016690991987664106
150000000000.0,1,0.5394736231499999,-0.7896902979,0.34474297409999993,-0.092335,1.697,0.095667,-0.9545596976999999,-9.7049550395,1.0354841735,-2.3968,1.4267,0.093181,-9.99999999995449e-06,-0.0020000000000000018,-0.0018199999999999328,0.007343912553586129,0.003179710482278386,0.015931046224277434
150000000000.0,1,0.69012338045,-0.4877435444,0.26457361035,-0.065679,1.7074,0.11597,-0.982822463,-9.704660839999999,1.0118501469999999,-2.3707,1.4265,0.084035,-0.00012000000000000899,-0.0014999999999998348,-0.0015600000000000058,-0.0013352258783168036,0.003618367703148273,0.016300132462893746
150000000000.0,1,0.8026546891999999,-0.25058932744999995,0.22340529364999998,-0.031552,1.7188,0.13736,-1.0129288785,-9.7037782415,0.9907658494999999,-2.3451,1.4258,0.07553,-0.00012000000000000899,-0.0020999999999999908,-0.0017400000000000748,0.0015896376733617323,0.0031537433986685848,0.015532041322389833
150000000000.0,1,0.87841106045,-0.11951364354999999,0.2274750534,0.00681,1.7217,0.1513,-1.042446895,-9.7024053105,0.9732119459999999,-2.3219,1.4249,0.069403,-0.000140000000000029,-0.0018000000000000238,-0.0016399999999999748,0.003983802608996223,0.0031849870598374963,0.01855769013719266
150000000000.0,1,0.9143818526499999,-0.14963967235,0.2327118045,0.044098,1.7182,0.1567,-1.074220441,-9.7004439805,0.9584039044999999,-2.2993,1.4235,0.063967,-0.00041000000000002146,-0.0020000000000000018,-0.0015199999999999658,-0.0018491890993328486,0.004630089479346067,0.014909607335414687
150000000000.0,1,0.8964651030999999,-0.34188923894999995,0.28352005815,0.081425,1.7136,0.15251,-1.1055036544999999,-9.698090384499999,0.9466555378,-2.2789,1.4218,0.060761,-0.00022999999999995246,-0.0018000000000000238,-0.0011499999999999844,0.0007734877472231894,0.004866754761445824,0.017063610601447454
150000000000.0,1,0.83555599995,-0.6816210148999999,0.38388131425,0.11026,1.7102,0.14189,-1.1357081365,-9.695442588999999,0.9374274801499999,-2.2608,1.4201,0.059777,-0.00045000000000006146,-0.0022999999999999687,-0.0014200000000000879,0.000738381594395987,0.0019813898880625125,0.017471139474218855
150000000000.0,1,0.7835709483,-1.1374733334999998,0.5029830785,0.1284,1.6984,0.12273,-1.1641474214999998,-9.6927947935,0.9299450061999999,-2.2448,1.4183,0.060817,-0.00034000000000000696,-0.0015000000000000568,-0.0007899999999999574,0.007137615041916678,0.002457186494974284,0.014570915062778411
150000000000.0,1,0.71991598315,-1.7071416320000001,0.62583098305,0.14124,1.6876,0.098218,-1.189938911,-9.6902450645,0.9235118438,-2.2308,1.4166,0.063736,-0.0005499999999999394,-0.0020999999999999908,-0.0005800000000000249,0.0013539485568643261,0.0036390177818259595,0.01734446036299442
150000000000.0,1,0.6021871499,-2.4194966879999997,0.7622709044999999,0.15085,1.6705,0.069445,-1.2128864719999999,-9.687989535,0.9180103131499999,-2.2187,1.4151,0.068442,-0.0006300000000000194,-0.0021999999999999797,-0.00017999999999995797,0.0033342025453748647,0.0017851189850794924,0.01326400796333882
150000000000.0,1,0.45025272145,-3.2325660394999995,0.91855948555,0.14236,1.6568,0.036365,-1.2324017055,-9.6861262715,0.91181251035,-2.2078,1.4138,0.0742,-0.0007899999999999574,-0.0018000000000000238,0.00026999999999999247,0.0017098858664366112,0.0015927634239409905,0.014161559839958482
150000000000.0,1,0.36642547725,-3.9213851355,1.074024308,0.11783,1.6442,0.014997,-1.249171077,-9.684753340499999,0.9034082112999999,-2.1969,1.4129,0.079913,-0.0007200000000000539,-0.0019000000000000128,0.0007700000000000484,0.0020127739761390817,-0.0005865615693054771,0.0185728884785048
150000000000.0,1,0.29805351345,-4.4376071915,1.2458368159999997,0.077338,1.6477,0.010651,-1.26505785,-9.683772675499998,0.8911106722,-2.1845,1.4123,0.083994,-0.0006399999999999739,-0.0017000000000000348,0.0013399999999998968,-0.0044482459184744805,0.004561812609767291,0.02242631421723562
150000000000.0,1,0.25492386675,-4.679144980999999,1.3838163815,0.040119,1.6672,0.016956,-1.2811407559999999,-9.683184276499999,0.8746551135,-2.1698,1.4119,0.085988,-0.0011700000000000044,-0.0020000000000000018,0.0014500000000000624,0.00397001116815443,-0.0010405604804279989,0.015287223499230507
150000000000.0,1,0.3799292343,-4.3320876375,1.3697928719999999,0.03272,1.6886,0.037187,-1.2986946594999997,-9.682497811,0.8560420917999999,-2.1536,1.4115,0.086594,-0.0016300000000000203,-0.0021999999999999797,0.0014899999999999913,-0.004027890210426932,0.0026944537014406134,0.017824512366643397
150000000000.0,1,0.6436692794,-3.2176599315,1.1415921265,0.067842,1.7042,0.079916,-1.319778957,-9.681124879999999,0.8391942670999999,-2.1372,1.4106,0.087233,-0.0013499999999999623,-0.0020999999999999908,0.0013199999999999878,0.0036140205993446806,-0.002190706760079264,0.01753525293284275
150000000000.0,1,0.97873308995,-1.8344319489999998,0.8207969916999999,0.1177,1.7027,0.13444,-1.34547238,-9.6786732175,0.82671040165,-2.1218,1.4091,0.08887,-0.0007099999999999884,-0.0015000000000000568,0.0021200000000000108,0.0019343670965914495,0.01668167417399391,0.02076522267345471
150000000000.0,1,1.338019326,-0.45998091825,0.4719548379,0.17076,1.7043,0.19537,-1.3763633275,-9.674946690499999,0.81912005455,-2.1076,1.4067,0.091828,-0.0023300000000000542,-0.0037000000000000366,-0.000140000000000029,-0.0036442421474092157,-0.0013145035892103696,0.013025906055521563
150000000000.0,1,1.580439714,0.77581388815,0.1692235524,0.23666,1.709,0.25418,-1.413530531,-9.669847232499999,0.8165899388499999,-2.0946,1.4036,0.095984,-0.0013599999999999168,-0.0028999999999999027,0.0007800000000000029,0.001549555838886052,0.003333664046872853,0.01772367992142554
150000000000.0,1,1.754213552,1.8319802864999999,-0.02276123465,0.31006,1.7148,0.30661,-1.4559933255,-9.663178710499999,0.82017917275,-2.0838,1.3996,0.10238,-0.0011700000000000044,-0.0024999999999999467,0.000140000000000029,-0.002948273821845593,0.005092938622099696,0.014786550963052925
150000000000.0,1,1.8780715415,2.6657416695,-0.1333508267,0.38876,1.7109,0.35051,-1.5030652454999998,-9.6551372575,0.83051538185,-2.0756,1.3948,0.11145,-0.0016900000000000803,-0.0033000000000000806,0.00012000000000000899,-0.004190519885297617,0.0066690970868881205,0.019192882216907847
150000000000.0,1,1.9422070324999998,3.2584555955,-0.22856359155,0.46751,1.7017,0.37628,-1.5530791605,-9.645722873499999,0.8477652791999999,-2.0704,1.3894,0.12354,-0.0009000000000000119,-0.0030999999999998806,-0.0006099999999999994,0.0011198241163099532,0.0014230466793168084,0.019001671178431767
150000000000.0,1,1.9707443839999998,3.5801137155,-0.32703216420000003,0.55583,1.6796,0.38821,-1.6048582724999998,-9.635033625,0.8726153303,-2.0688,1.3834,0.13904,-0.0014799999999999258,-0.0033000000000000806,-0.0008500000000000174,-0.007477079459886182,0.00473684568168764,0.01668195982131815
150000000000.0,1,1.9457374264999998,3.570797398,-0.3847737194,0.65485,1.6447,0.37457,-1.656147052,-9.623167578499999,0.9064090462,-2.0716,1.3771,0.15869,-0.0011900000000000244,-0.0032000000000000917,-0.0010900000000000354,-0.004733226628103493,0.0037038100431359133,0.018207029473218395
150000000000.0,1,1.8150147819999998,3.1649001545,-0.35101923009999997,0.75394,1.6056,0.33852,-1.7048861025,-9.610517,0.9494210130999999,-2.0789,1.3705,0.1827,-0.0013300000000000534,-0.0039000000000000146,-0.0012299999999999534,-0.006645320312333114,0.005658153454328296,0.015528969412662796
150000000000.0,1,1.6327091585,2.523643311,-0.3129890414,0.84137,1.5591,0.27685,-1.7484276285,-9.5974741555,1.001062832,-2.0908,1.3639,0.21087,-0.0011899999999999133,-0.0034999999999998366,-0.0013199999999999878,-0.007995193152140034,0.0009598324697686067,0.017384064678724
150000000000.0,1,1.4358896929999998,1.7118488239999998,-0.23928226,0.91709,1.5064,0.19915,-1.7851044994999998,-9.5843332445,1.060491131,-2.1068,1.3574,0.24284,-0.0010700000000000154,-0.0035000000000000586,-0.0011200000000000099,-0.009368934325881817,0.0048926739474828285,0.015703535721160122
150000000000.0,1,1.2395605600000001,0.761388306,-0.0961836232,0.97146,1.4442,0.10756,-1.8137399175,-9.571486533,1.126195686,-2.1264,1.3513,0.27787,-0.0011800000000000699,-0.0036000000000000476,-0.0011999999999999789,-0.0025763805237932758,-0.00023543313855323156,0.013360290162356403
150000000000.0,1,1.0809870295,-0.18414927369999998,0.0829446457,0.99606,1.3887,0.007361,-1.833059018,-9.559326287,1.195430635,-2.1487,1.3457,0.31506,-0.0010699999999999044,-0.0032999999999998586,-0.0008700000000000374,-0.009679938102549857,0.0026078187436160416,0.014422729657184163
150000000000.0,1,0.9180397331,-1.068728717,0.2504422277,0.97909,1.3367,-0.097182,-1.8429637345,-9.548538972,1.2647636505,-2.1723,1.3408,0.35315,-0.0013300000000000534,-0.0036000000000000476,-0.0005499999999999394,-0.005362255223515522,-0.0010949441408738547,0.015448182708058589
150000000000.0,1,0.7590543232999999,-1.7875561619999998,0.41292861154999994,0.92692,1.2904,-0.19433,-1.8436502,-9.539418787499999,1.3307624049999998,-2.196,1.3368,0.39094,-0.0014199999999999768,-0.0033000000000000806,-0.00045000000000006146,-0.010172632245375235,-0.0042890252145588725,0.014208638899091408
150000000000.0,1,0.656653284,-2.2566082315,0.5661771311,0.84179,1.2613,-0.28515,-1.83580488,-9.532456066,1.3898965044999998,-2.2188,1.3338,0.42746,-0.0016000000000000458,-0.0034000000000000696,-2.0000000000020002e-05,-0.004056814523927033,-0.0009087272535188706,0.012319446904983433
150000000000.0,1,0.6020890834,-2.4612730169999995,0.7155029906499999,0.72991,1.2357,-0.35575,-1.8209968385,-9.527945007,1.43961622,-2.2397,1.3318,0.46176,-0.0015699999999999603,-0.0032999999999998586,4.0000000000040004e-05,-0.005349844526432168,-0.0020579620941771903,0.014914776579026512
150000000000.0,1,0.6355297598999999,-2.4509760345,0.8091074649,0.58282,1.2252,-0.40295,-1.801481605,-9.525983677,1.4765872905,-2.2574,1.331,0.49259,-0.0021999999999999797,-0.0034000000000000696,0.00036000000000002697,0.002153902066933,-0.0025105492689823095,0.011170134407965993
150000000000.0,1,0.7497674257499999,-2.122551326,0.8237684066500001,0.43148,1.2297,-0.42884,-1.7793185759999999,-9.5266701425,1.4993387185,-2.271,1.3312,0.51926,-0.0021800000000000708,-0.0030999999999998806,0.00032999999999994145,0.0008368357926729075,-0.003219614313380914,0.01345878504669562
150000000000.0,1,0.9113614044499999,-1.5334658605,0.7507480907499999,0.2971,1.2329,-0.43441,-1.756371015,-9.529317938,1.5089492355,-2.2806,1.3324,0.54177,-0.0020799999999999708,-0.0031000000000001027,0.00036999999999998145,0.002633909632960618,-0.004038442231704353,0.013230602737906771
150000000000.0,1,1.0651002564999998,-0.8712031726999999,0.6274098536999999,0.18393,1.2307,-0.42393,-1.73381572,-9.533730930499999,1.5076743709999998,-2.2865,1.3343,0.56058,-0.002610000000000001,-0.0037000000000000366,0.0002500000000000835,0.0014154968100485998,-0.00036211981309564045,0.011988056972557004
150000000000.0,1,1.1896447115,-0.27946991169999996,0.46615910774999997,0.10054,1.2196,-0.40698,-1.712829489,-9.539026521499999,1.4979657874999999,-2.2894,1.3366,0.57607,-0.0024399999999999977,-0.0035000000000000586,0.00017999999999995797,0.0003032475768436349,-0.0017597394070123507,0.014569524725823957
150000000000.0,1,1.3130123685,0.2124904922,0.2911005986,0.056553,1.205,-0.38248,-1.693804588,-9.544616312,1.4836480785,-2.2901,1.3391,0.58928,-0.0028399999999999537,-0.0035999999999998256,0.00012000000000000899,0.0030402454619489205,-0.002619458451275092,0.010303278342748357
150000000000.0,1,1.3979379575,0.5811420789999999,0.1187193049,0.044513,1.1817,-0.35897,-1.676544884,-9.550108036,1.467859372,-2.2899,1.3416,0.60129,-0.00270999999999999,-0.0034000000000000696,5.999999999994898e-05,0.0019917187269111736,-0.0026179851924659214,0.011679274677362628
150000000000.0,1,1.413726664,0.80425317315,-0.0335191297,0.060162,1.1506,-0.33754,-1.6606581109999998,-9.5551094275,1.453737796,-2.2898,1.3438,0.61311,-0.002690000000000081,-0.0040999999999999925,-0.00029999999999996696,-0.004041170596344568,-0.0007870056280674387,0.015598171530119664
150000000000.0,1,1.4051948785,0.88472654305,-0.17923614205,0.093924,1.113,-0.32141,-1.6458500695,-9.5592282205,1.4432446804999999,-2.2907,1.3457,0.62552,-0.0027399999999999647,-0.0041999999999999815,-0.00031000000000003247,0.004026091095673312,-0.0008468851303273794,0.009352071237752835
150000000000.0,1,1.394113364,0.8994561313499999,-0.30372175715,0.14363,1.0657,-0.30843,-1.631630427,-9.562464414999999,1.4381452225,-2.2933,1.3472,0.6392,-0.002630000000000021,-0.0038000000000000256,-0.00029999999999996696,-0.0036215384098137182,9.495110434554199e-05,0.011599642649304132
150000000000.0,1,1.3601823549999998,0.8891591488499999,-0.37231927389999997,0.19767,1.0226,-0.30293,-1.6174107844999999,-9.5647199445,1.4391258875,-2.2979,1.3482,0.6546,-0.002610000000000001,-0.0045999999999999375,-0.0006300000000000194,-0.0003781329105487785,-0.0025148229112939013,0.01094957696968768
150000000000.0,1,1.2881034774999998,0.8541396016999999,-0.3625322372,0.2421,0.97751,-0.2985,-1.6029950089999998,-9.566190942,1.445304077,-2.3045,1.3489,0.67151,-0.0027800000000000047,-0.0044000000000001815,-0.0006399999999999739,-0.006902857707359544,-0.0025191526684111842,0.008197604982691953
150000000000.0,1,1.234068836,0.77391139805,-0.34864602079999996,0.27053,0.93358,-0.2941,-1.588481167,-9.5670735405,1.4555029929999999,-2.3126,1.3493,0.68944,-0.0025800000000000267,-0.0046999999999999265,-0.0006500000000000394,0.00542581902509931,-0.0033237332685147614,0.010288900287921399
150000000000.0,1,1.1999416939999998,0.7004497829,-0.31942220379999997,0.27979,0.89301,-0.28974,-1.5734769925,-9.567661939499999,1.4677613054999998,-2.3215,1.3496,0.70783,-0.0026799999999999047,-0.0045999999999999375,-0.0007399999999999629,-0.0011282973205024582,-0.0010335527675919831,0.010097685189850214
150000000000.0,1,1.1543407714999998,0.6312638671499999,-0.24276362074999996,0.27528,0.86427,-0.2865,-1.5587670175,-9.5680542055,1.4807060835,-2.3305,1.3498,0.72604,-0.0025800000000000267,-0.0046999999999999265,-0.0009400000000000519,-0.0043695259278959675,-0.0008793632366337345,0.009674370197606752
150000000000.0,1,1.10422879,0.5822208105,-0.1603779541,0.25899,0.83137,-0.28327,-1.5441551089999999,-9.568544538,1.4928663295,-2.3393,1.35,0.74369,-0.0027200000000000557,-0.0050000000000001155,-0.0008499999999999064,0.0033974388021957846,-0.0010637173236434094,0.009402475635998497
150000000000.0,1,1.0704939139999998,0.58072039305,-0.1279375559,0.22885,0.80283,-0.2758,-1.5297393334999998,-9.56932907,1.5029671789999999,-2.3474,1.3503,0.76025,-0.002829999999999999,-0.0046999999999999265,-0.0011100000000000554,-0.002688382607119122,-0.0032144102681403997,0.00602642226310901
150000000000.0,1,1.062256328,0.61814256945,-0.12051392184999998,0.19343,0.77968,-0.26942,-1.5147351589999998,-9.570505868,1.5103221665,-2.3547,1.3509,0.77583,-0.00273000000000001,-0.0046000000000001595,-0.0009899999999999354,-0.0004995325880177148,-0.001443805061166925,0.01070172475129727
150000000000.0,1,1.0434275599999998,0.69414410695,-0.11722869409999999,0.15912,0.76184,-0.26411,-1.501005849,-9.5719768655,1.5147351589999998,-2.3607,1.3516,0.78985,-0.002950000000000008,-0.005099999999999882,-0.0012400000000000189,0.002011629972461959,-0.0012121793062376263,0.006145596156670097
150000000000.0,1,1.0083197529999999,0.7778340580499999,-0.11266860184999998,0.12477,0.74187,-0.25559,-1.4875707384999999,-9.573840128999999,1.516304223,-2.3657,1.3525,0.80261,-0.0030799999999999716,-0.0052000000000000934,-0.0011999999999999789,-0.0021681459312332674,-0.0005229493850038569,0.009296905353679774
150000000000.0,1,0.9907658494999999,0.8227092884499999,-0.114737805,0.10003,0.72181,-0.24706,-1.4748220934999998,-9.575899525499999,1.5156177574999998,-2.3698,1.3534,0.81428,-0.0030599999999999516,-0.004999999999999893,-0.0013700000000000934,0.010526206278158368,-0.0037082213021515376,0.003052584604255726
150000000000.0,1,0.9811553325,0.8289365112,-0.14812944825,0.083822,0.70382,-0.23532,-1.4626618475,-9.578056988499998,1.5135583609999999,-2.3733,1.3545,0.82506,-0.003269999999999995,-0.005700000000000038,-0.0013699999999999823,0.001118694815184007,-0.0007035980569154443,0.0053260488912458825
150000000000.0,1,0.9786742500499999,0.8155798539,-0.20859725215,0.079326,0.68466,-0.22035,-1.4516783994999998,-9.580116385,1.5112047649999998,-2.3763,1.3555,0.83518,-0.002870000000000039,-0.0052000000000000934,-0.0016599999999999948,0.003895515208461875,-0.0011037351774338955,0.007051151505886422
150000000000.0,1,0.9822340639999999,0.73986270925,-0.25752262899999995,0.079103,0.66866,-0.2011,-1.4420678824999997,-9.581979648499999,1.5089492355,-2.3788,1.3563,0.84469,-0.0030400000000000427,-0.005699999999999816,-0.0018199999999999328,0.00012946130170776726,-7.406905638163153e-05,0.0066876631741519255
150000000000.0,1,0.989098719,0.6407861242999999,-0.2775674216,0.081019,0.6569,-0.1776,-1.430790235,-9.584039044999999,1.5065956394999998,-2.382,1.3573,0.85462,-0.002989999999999937,-0.005800000000000027,-0.0017800000000000038,0.0017283596399340073,-0.00021113212216672395,0.0037358383259566974
150000000000.0,1,0.996551773,0.5500746118,-0.32439417535,0.086059,0.63658,-0.15301,-1.4201009864999998,-9.5859023085,1.5044381765,-2.385,1.3582,0.86422,-0.0030000000000000027,-0.005900000000000016,-0.0018600000000000838,0.0013533734729438418,0.00020873008414379335,0.008578821424853666
150000000000.0,1,0.9941981769999999,0.43389522924999996,-0.3412518067,0.083659,0.62379,-0.12311,-1.4093136714999999,-9.587961705,1.5016923144999998,-2.3879,1.3592,0.87351,-0.003110000000000057,-0.005300000000000082,-0.0014399999999999968,0.0015270391126034344,0.002960182193378902,0.010969163095903012
150000000000.0,1,0.9696619386999998,0.24984402204999998,-0.2868641258,0.070631,0.61534,-0.096444,-1.395682428,-9.590707566999999,1.4971812555,-2.3913,1.3605,0.88306,-0.003049999999999997,-0.006099999999999994,-0.0018199999999999328,0.0004633423662434577,0.0007273590437781863,0.006116309395529873
150000000000.0,1,0.9426936512,-0.019809433,-0.20869531865,0.042703,0.60915,-0.068729,-1.397643758,-9.5910017665,1.4934547285,-2.3894,1.3607,0.88736,-0.0030199999999999116,-0.005700000000000038,-0.0014800000000000368,0.000975475409970672,0.00019200551103670804,0.003494698238325933
150000000000.0,1,0.90494785535,-0.40733882104999997,-0.10025338294999998,0.00094,0.60733,-0.041046,-1.4020567505000001,-9.591492099,1.4861978074999997,-2.3853,1.3609,0.88946,-0.002929999999999988,-0.006199999999999983,-0.0016300000000000203,-0.004566427887692903,0.00026581581348694705,0.009337305464872436
150000000000.0,1,0.8632597861999999,-0.8309076478499999,0.029155170449999997,-0.047224,0.60557,-0.013374,-1.4091175385,-9.592276630999999,1.4742336944999999,-2.3788,1.3613,0.88897,-0.0032000000000000917,-0.006599999999999939,-0.0013699999999999823,0.006578621812068697,0.0012324886467072194,0.0046497364592710255
150000000000.0,1,0.80994103015,-1.2051392184999998,0.1442558215,-0.10385,0.61134,0.012135,-1.418629989,-9.593453429,1.4569739905,-2.3695,1.3619,0.88578,-0.003469999999999973,-0.006899999999999906,-0.0013699999999999823,0.002347417822042841,-0.0007672124737203578,0.003439791966686867
150000000000.0,1,0.76863542035,-1.4592295199999998,0.22211081584999998,-0.15832,0.62241,0.040841,-1.430790235,-9.5951205595,1.4344186955,-2.3575,1.3627,0.87976,-0.003049999999999997,-0.006600000000000161,-0.0011200000000000099,0.002880322631190868,0.0018877813209163818,0.009691978935184142
150000000000.0,1,0.7685471604999999,-1.5946593565,0.2959254704,-0.20959,0.63346,0.069553,-1.4456963429999998,-9.596983823,1.4063716765,-2.3424,1.3637,0.87084,-0.003310000000000035,-0.006199999999999983,-0.0008200000000000429,0.003051246639212968,0.002947131594546404,0.007029639318378633
150000000000.0,1,0.8079306668999999,-1.7086126295,0.34777322895,-0.25985,0.6413,0.10468,-1.4638386455,-9.599043219499999,1.3732251994999998,-2.3243,1.3647,0.85885,-0.003309999999999924,-0.006799999999999917,-0.0007199999999999429,0.0021872084321814533,0.002194181112825655,0.007387218136623019
150000000000.0,1,0.8739196147499999,-1.8081501269999998,0.3710247961,-0.30583,0.6491,0.13874,-1.4850210095,-9.6012006825,1.335273464,-2.3032,1.3657,0.8439,-0.003750000000000031,-0.007100000000000106,-0.0005300000000000304,0.005757243239224108,0.0018563877371526871,0.004148164391156728
150000000000.0,1,0.9196480237,-1.8860149279999998,0.37795809765,-0.34652,0.6526,0.17175,-1.5093415014999998,-9.603162012499999,1.2932029354999999,-2.2792,1.3667,0.82612,-0.0035600000000000076,-0.007299999999999862,-0.0005600000000000049,0.0028582177765477113,0.0013477325135404783,0.005862834017431151
150000000000.0,1,0.9367998545499999,-1.9549556774999999,0.41339933074999996,-0.37969,0.65498,0.19517,-1.535917523,-9.6049272095,1.24740588,-2.2529,1.3676,0.80596,-0.003589999999999982,-0.007500000000000062,-0.00012000000000000899,0.006983754951852772,0.0025729208046918473,0.005759647301740278
150000000000.0,1,0.92964100005,-2.0102651835,0.4719940645,-0.40536,0.65517,0.20794,-1.5636703425,-9.606692406499999,1.1988629624999998,-2.2249,1.3685,0.78407,-0.0036399999999999766,-0.007300000000000084,-9.99999999995449e-06,0.0027062217454814075,0.0021997361671812765,0.0066550340772457695
150000000000.0,1,0.9130187283,-2.1357903035,0.5507610772999999,-0.41399,0.64884,0.21754,-1.5921096275,-9.608163403999999,1.1488490475,-2.1959,1.3692,0.76109,-0.003690000000000082,-0.007599999999999829,0.00032999999999994145,0.002814527348020235,0.0011798247877974344,0.006167929550134232
150000000000.0,1,0.9033984046499999,-2.4284207395,0.657241683,-0.40876,0.63708,0.21971,-1.6204508459999998,-9.609242135499999,1.098933199,-2.1667,1.3698,0.73787,-0.003969999999999918,-0.00770000000000004,0.0008299999999999974,0.004936634478238888,0.0037783247098970296,0.003934391359439848
150000000000.0,1,0.8737921283,-2.8627572679999997,0.7248389214500001,-0.38649,0.61452,0.21018,-1.647713333,-9.609928601,1.050880614,-2.1385,1.3702,0.71548,-0.003450000000000064,-0.00770000000000004,0.0011100000000000554,0.0012352255137866308,0.0023937721870457285,0.008384773222158248
150000000000.0,1,0.8394786599499999,-3.436054027,0.7718225816,-0.35137,0.58869,0.18787,-1.6725241575,-9.6104189335,1.006358423,-2.1124,1.3704,0.69492,-0.00383,-0.007900000000000018,0.0018099999999999783,0.006796953325603816,0.004063424636132185,0.004252846087280382
150000000000.0,1,0.7272121307499999,-4.2567725654999995,0.8722720975499999,-0.31309,0.55111,0.15278,-1.693608455,-9.610909266,0.9658667651499999,-2.0891,1.3707,0.67684,-0.0036599999999999966,-0.008000000000000007,0.0022600000000000398,-0.0011599277201388425,-0.0018946183577202014,0.006323965123146813
150000000000.0,1,0.6018144971999999,-5.240869893,1.0033183614999999,-0.2726,0.51779,0.11021,-1.7101816934999998,-9.611497665,0.9296704199999999,-2.0687,1.371,0.66141,-0.003929999999999989,-0.008399999999999963,0.0030200000000000227,0.007483840848756307,-0.0017980344707944074,0.002056450834035717
150000000000.0,1,0.47414172085,-6.186917418499999,1.1861143175,-0.26745,0.48047,0.087868,-1.7235187374999998,-9.612380263499999,0.8957884442499999,-2.0501,1.3714,0.64744,-0.004109999999999947,-0.008199999999999985,0.0037199999999999456,0.002390547600040316,0.004362477290990707,0.005209011893738014
150000000000.0,1,0.2565811906,-6.8949575485,1.3693025395,-0.33054,0.45224,0.07073,-1.7348944515,-9.6137531945,0.85787593535,-2.03,1.3721,0.6316,-0.0040200000000000236,-0.008399999999999963,0.0040000000000000036,0.0033515865884810037,-0.0031065780876322613,0.005128586679994163
150000000000.0,1,0.048493884249999994,-6.806207366,1.412353733,-0.39426,0.46665,0.034303,-1.7428378379999998,-9.616204857,0.8130301248999999,-2.0073,1.3734,0.61311,-0.003990000000000049,-0.008299999999999974,0.004449999999999954,0.0043135658311082015,0.0032677049655531754,0.005420679038449672
150000000000.0,1,0.17786321105,-5.380712721999999,1.3489047075,-0.36839,0.48671,0.014031,-1.748329562,-9.618950718999999,0.768056828,-1.9847,1.3748,0.59504,-0.004049999999999998,-0.008200000000000207,0.004410000000000025,5.640784437277446e-05,0.0008328656232261533,0.0027516886031206944
150000000000.0,1,0.5904387832,-3.0842894915,1.2957526645,-0.3108,0.49261,0.027997,-1.754213552,-9.621010115499999,0.72807511595,-1.9642,1.3759,0.57914,-0.003989999999999938,-0.00869999999999993,0.0042200000000000015,0.004066121077008544,0.0018857327074681685,0.005753519569199783
150000000000.0,1,1.0572549365,-0.8873253053,1.031855713,-0.26303,0.48579,0.063279,-1.7468585645,-9.6239521105,0.7058630536999999,-1.9548,1.3775,0.57417,-0.0037200000000000566,-0.009099999999999886,0.003709999999999991,0.0001914660167705584,-0.0016148317589996797,0.007044661714956213
150000000000.0,1,1.5104202329999998,1.0678461184999999,0.4410442771,-0.19605,0.48306,0.10716,-1.7594110764999997,-9.623755977499998,0.6766000100999999,-1.9379,1.3774,0.5619,-0.00383,-0.008800000000000141,0.0033199999999999896,0.002441502914390936,0.0028277093348536564,0.002607973851252998
150000000000.0,1,1.9129832154999997,2.7334075545,-0.1083438692,-0.090703,0.48107,0.15965,-1.7766707805,-9.6219907805,0.65646695765,-1.9247,1.3764,0.55337,-0.0036399999999999766,-0.009299999999999864,0.00275000000000003,0.006233097157040568,0.0016545826541760622,0.0028182876779170307
150000000000.0,1,2.227286348,3.908342291,-0.4311984005,0.056262,0.47768,0.20901,-1.798735743,-9.61836232,0.64952384945,-1.9173,1.3745,0.55069,-0.0033199999999999896,-0.009500000000000064,0.0022900000000000142,-0.00841166994951359,0.0031572111724993412,0.006922844546250806
150000000000.0,1,2.432637599,4.5895122,-0.6323131786999999,0.23087,0.46127,0.25631,-1.825409831,-9.612674463,0.6589480401,-1.9172,1.3716,0.55535,-0.003090000000000037,-0.009500000000000064,0.0018299999999999983,-0.004730748924492323,0.003479791104278318,0.005225425634336256
150000000000.0,1,2.5022648139999997,4.740338477,-0.7791579557999999,0.42464,0.42661,0.28339,-1.8551239805,-9.605025276,0.6869754458,-1.9255,1.3677,0.56821,-0.0030999999999999917,-0.010099999999999998,0.0014399999999999968,0.0016744642508756957,0.003376313769368755,0.004122780458454267
150000000000.0,1,2.416750826,4.364351515999999,-0.9420660255999999,0.61621,0.36324,0.2785,-1.8849361964999998,-9.5957089585,0.7345180849999999,-1.9424,1.363,0.58937,-0.0022599999999999287,-0.009600000000000053,0.0011299999999999644,-0.011055486713880569,0.0007288884511820193,0.00384385915395713
150000000000.0,1,2.149029281,3.4489007385,-0.9802531207,0.78237,0.29585,0.22767,-1.9106296194999999,-9.585411976,0.79993824715,-1.9673,1.358,0.61807,-0.0025800000000000267,-0.00969999999999982,0.0012400000000000189,-0.00767396971289358,0.0029767759637999713,0.0029625568678541825
150000000000.0,1,1.7158695504999997,2.2832823195,-0.8478143124499999,0.91034,0.23309,0.13941,-1.928379656,-9.574918860499999,0.87968592495,-1.9988,1.3529,0.65284,-0.0025100000000000122,-0.010399999999999965,0.0010700000000000154,-0.009676762560646202,-0.002243879231815349,0.0018696206411481509
150000000000.0,1,1.229165511,1.0194993339999998,-0.54384738905,0.97762,0.17297,0.029689,-1.935636577,-9.564818011,0.9685243673,-2.0347,1.3483,0.69161,-0.0023900000000000032,-0.009400000000000075,0.0014300000000000423,-0.006319023011537528,-0.0012720566128416877,0.004922970363417267
150000000000.0,1,0.8099900634,-0.16491843304999998,-0.1774807517,0.96614,0.12844,-0.093004,-1.931125518,-9.5560900925,1.0590201335,-2.0724,1.3443,0.73166,-0.0024300000000000432,-0.009800000000000031,0.0015100000000000113,-0.008644492688111072,0.0004004465602081009,0.0014876496927653804
150000000000.0,1,0.5590771164999999,-0.957521306,0.15169906884999998,0.8886,0.098298,-0.2105,-1.9147484125,-9.5496177035,1.1443379885,-2.1095,1.3413,0.77075,-0.0027199999999999447,-0.009300000000000086,0.0016199999999999548,-0.011024811738542306,-0.003474249359377346,0.001104909031093948
150000000000.0,1,0.4217251766,-1.3661644114999998,0.4622070278,0.76422,0.089841,-0.31531,-1.8881723909999997,-9.545695043499999,1.2188685284999998,-2.144,1.3396,0.80716,-0.002909999999999968,-0.009799999999999809,0.0017399999999999638,-0.005492785958005397,-0.003708570878988793,0.0037785670316601294
150000000000.0,1,0.34749864275,-1.3224267525,0.6894271083,0.61005,0.10292,-0.40206,-1.8529665174999999,-9.5447143785,1.2788852265,-2.1749,1.3391,0.83992,-0.003090000000000037,-0.009700000000000042,0.0016900000000000803,-0.00786983346950354,-0.005113714068202935,0.0020417407850530367
150000000000.0,1,0.416782625,-0.74492294065,0.7373914334499999,0.45794,0.12023,-0.46639,-1.811288255,-9.546577641999999,1.3239958164999999,-2.202,1.34,0.86898,-0.0033800000000000496,-0.009400000000000075,0.0016699999999999493,0.0008336793808112475,-0.0037573954791181308,0.001357622396267022
150000000000.0,1,0.5509572103,0.1387052576,0.61633814585,0.32483,0.13096,-0.51043,-1.737542247,-9.556482358499998,1.3510621704999999,-2.2317,1.3444,0.90049,-0.0034799999999999276,-0.009800000000000031,0.0013900000000000023,-0.0016787477236439585,-0.005899682024987252,0.003462366826259
150000000000.0,1,0.74033342845,1.033817043,0.39668879915,0.20123,0.13626,-0.53414,-1.6887051299999998,-9.5623663485,1.37096967,-2.2527,1.3471,0.92343,-0.0033199999999999896,-0.009700000000000042,0.0011200000000000099,-0.00042872033291474487,-0.005573545706152316,0.003063613278626809
150000000000.0,1,0.9305137918999999,1.818937442,0.15954438884999997,0.087245,0.15213,-0.54504,-1.6387892815,-9.569819402499999,1.3795014554999998,-2.2705,1.3506,0.94318,-0.0038200000000000456,-0.010000000000000009,0.0008799999999999919,-0.0013442967431711583,-0.006357796171826635,0.001857900712435745
150000000000.0,1,1.0628447269999999,2.4682357385,-0.06469447005,0.002031,0.16775,-0.54841,-1.588481167,-9.578449254499999,1.37881499,-2.2857,1.3546,0.96038,-0.00385000000000002,-0.009599999999999831,0.0005800000000000249,0.002138480151746558,-0.003938709009024377,0.004392838993732218
150000000000.0,1,1.1310009445,2.904925863,-0.2406944176,-0.030056,0.16056,-0.54419,-1.5384672519999998,-9.5872752395,1.373715532,-2.2997,1.3589,0.97643,-0.003530000000000033,-0.009800000000000031,0.00019999999999997797,-0.00043763987417611006,-0.0050227416242960565,0.0005087449648004672
150000000000.0,1,1.1251169545,3.0960574714999995,-0.3517645355,-0.037407,0.1766,-0.54209,-1.488845603,-9.596003157999998,1.3675373425,-2.3137,1.3632,0.99262,-0.003549999999999942,-0.010499999999999954,-0.00024999999999997247,-0.002556352336089418,-0.006867809284132553,0.005924505530348512
150000000000.0,1,1.118742632,3.078307435,-0.42209782929999995,-0.019412,0.16472,-0.53243,-1.4399104194999999,-9.6041426775,1.362732084,-2.3287,1.3672,1.0096,-0.0038399999999999546,-0.009700000000000042,-0.000280000000000058,0.0020544165073561604,-0.0030503487490760595,0.0008995460403411482
150000000000.0,1,1.0390145675,2.8064670969999996,-0.69169244445,0.032592,0.13551,-0.52375,-1.3912694355,-9.6113995985,1.362535951,-2.3458,1.3709,1.0285,-0.0032600000000000406,-0.010700000000000154,-0.0006699999999999484,-0.0003133371537693552,-0.007162337990235024,0.0003001193931522206
150000000000.0,1,0.9821359975,2.4345008624999998,-0.7893568717999999,0.10071,0.1179,-0.51934,-1.3428245845,-9.617381654999999,1.3687141404999998,-2.3658,1.374,1.0501,-0.003390000000000004,-0.009599999999999831,-0.0007200000000000539,-0.00105692091248355,-0.0035036032152551133,0.003188827791664517
150000000000.0,1,0.8739098081,2.13196571,-0.8016544108999999,0.17302,0.089591,-0.51596,-1.2943797334999998,-9.622088847,1.3824434505,-2.3891,1.3765,1.0749,-0.0032999999999999696,-0.010399999999999965,-0.0010599999999999499,-0.0025677956740863817,-0.006229347741203428,0.0013415709833066725
150000000000.0,1,0.79872222255,1.8697358889999998,-0.7921321537499999,0.24109,0.065581,-0.51046,-1.2461310154999998,-9.625423108,1.403135482,-2.4154,1.3783,1.1024,-0.0029799999999999827,-0.010200000000000209,-0.0010700000000000154,-0.0006225686332894664,-0.0033384696089373556,0.001211432244786037
