Time,placement_label,user_acc_x(m/s^2),user_acc_y(m/s^2),user_acc_z(m/s^2),rotation_rate_x(rad/s),rotation_rate_y(rad/s),rotation_rate_z(rad/s),gravity_x(m/s^2),gravity_y(m/s^2),gravity_z(m/s^2),attitude_roll(rad),attitude_pitch(rad),attitude_yaw(rad),target_delta_x,target_delta_y,target_delta_z,target_delta_roll,target_delta_pitch,target_delta_yaw
150000000000.0,3,-0.0430904201,-0.00024516625,-0.032783630949999996,-0.011682,-0.041132,0.000707,-0.2226697949,-9.516961558999999,2.355361197,-3.0473,1.3271,-1.4632,0.0,0.0,0.0,0.0,0.0,0.0
150000000000.0,3,-0.044296638049999996,0.0001176798,-0.03141069995,-0.016987,-0.040019,-0.003573,-0.22146357694999996,-9.517353824999999,2.3538901995,-3.0478,1.3273,-1.4632,9.999999999998899e-05,-1.999999999990898e-05,-2.5000000000052758e-05,0.0004777546363374796,5.718496866435885e-05,-0.000330915134373555
150000000000.0,3,-0.10688267835,-0.00138273765,-0.0664106338,-0.013773,-0.040039,-0.006764,-0.22171854985,-9.517942223999999,2.3515366035,-3.0476,1.3276,-1.4638,2.4999999999941735e-05,-2.0000000000131024e-05,-2.4999999999941735e-05,-2.4055941242773216e-05,6.16573354372818e-07,-0.0002480965735269791
150000000000.0,3,-0.1184251054,-0.0375202429,-0.10164592724999999,-0.009467,-0.035806,-0.008892,-0.22215004244999997,-9.5186286895,2.3487907415,-3.0473,1.3278,-1.4644,2.500000000016378e-05,-1.999999999990898e-05,3.999999999992898e-05,4.960578315826858e-05,9.332093933100971e-05,2.5112512812341947e-05
150000000000.0,3,-0.14993387184999998,-0.07605057074999999,-0.09795862685,-0.003052,-0.034787,-0.011009,-0.222807088,-9.519119022,2.3465352119999996,-3.0469,1.3281,-1.4651,2.4999999999941735e-05,-2.0000000000131024e-05,-4.999999999999449e-05,-0.00024202621603142127,0.0003442304158434162,-7.101383321561627e-05
150000000000.0,3,-0.14120595335,-0.10154786075,-0.04961184235,-0.006227,-0.030497,-0.009946,-0.22331703379999998,-9.519511288,2.3448680814999996,-3.0466,1.3282,-1.4656,2.4999999999941735e-05,-1.999999999990898e-05,-3.999999999992898e-05,3.277269007950778e-05,0.0004813429063601493,0.00022729649167452237
150000000000.0,3,-0.09124107159999999,-0.1060491131,0.010944221399999999,-0.011553,-0.027258,-0.006754,-0.22344452024999997,-9.5198054875,2.3437893499999998,-3.0465,1.3283,-1.466,2.4999999999941735e-05,-4.999999999988347e-05,-4.0000000000040004e-05,-0.0008243784654524688,0.0003314815622239564,0.00027677550461913114
150000000000.0,3,-0.0608992965,-0.0817090078,0.051023999949999996,-0.018025,-0.033602,-0.002481,-0.22341510029999997,-9.520099687,2.3427106185,-3.0465,1.3285,-1.4663,2.4999999999941735e-05,-5.0000000000105516e-05,-7.999999999996898e-05,-0.0005975396985438142,0.0004943628881881601,0.00036972218901532017
150000000000.0,3,-0.02089797115,-0.047944711849999995,0.04341403955,-0.022339,-0.038895,-0.001411,-0.22271882814999996,-9.520491952999999,2.341239621,-3.0467,1.3286,-1.4665,2.500000000016378e-05,-9.999999999998899e-05,-2.0000000000020002e-05,-0.00124736605883502,0.0002822849043824238,0.001471625805906207
150000000000.0,3,0.0033342610000000003,-0.0074432473499999995,0.02234935535,-0.018076,-0.038932,-0.000337,-0.2216499033,-9.520884219,2.339670557,-3.0471,1.3288,-1.4665,2.4999999999941735e-05,-0.00019999999999997797,2.999999999997449e-05,-0.0014606709445410537,-0.00018681911046258826,0.0014094639917683338
150000000000.0,3,-0.0385401345,0.0316754795,-0.0197309798,-0.011591,-0.028328,-0.000342,-0.2215322235,-9.521276485,2.3381995595,-3.0471,1.3289,-1.4668,5.0000000000105516e-05,-9.999999999998899e-05,8.000000000008001e-05,0.002029189809226173,-0.0016554899710949922,-0.00024110494420792605
150000000000.0,3,-0.0821601137,0.0481114249,-0.04861156404999999,0.003398,-0.020992,0.000744,-0.22250308185,-9.5213745515,2.3376111605,-3.0467,1.329,-1.4674,4.999999999988347e-05,-9.999999999998899e-05,-7.00000000000145e-05,-4.858595394985343e-05,6.859002838588424e-05,-0.0004660500245714516
150000000000.0,3,-0.10351899739999999,0.056986443149999996,-0.04978836204999999,0.009849,-0.014649,0.00075,-0.22403291925,-9.521276485,2.3379053599999997,-3.0461,1.329,-1.4682,-0.0006999999999999229,-0.000500000000000167,-0.00045000000000006146,-0.021614620185930633,0.0032546155671175914,0.00648507593101133
150000000000.0,3,-0.13347831315,0.0221238024,-0.0273997801,0.014248,0.001303,-0.000331,-0.22624922215,-9.520982285499999,2.338886025,-3.0452,1.3288,-1.4691,9.999999999998899e-05,-9.999999999998899e-05,-2.0000000000020002e-05,-0.0008016742455698722,-0.00016575288783182707,0.0004599540085274967
150000000000.0,3,-0.16441829389999998,-0.013856796449999998,-0.011581653649999999,0.007942,0.012016,-0.002486,-0.22913237725,-9.5207861525,2.3394744239999996,-3.044,1.3287,-1.4702,9.999999999998899e-05,-9.999999999998899e-05,7.00000000000145e-05,0.0009538121337702155,-0.0004514046694144014,0.0005368561872085564
150000000000.0,3,-0.1501790381,-0.007119627899999999,-0.0013140911,0.004776,0.013116,-0.007822,-0.23139771339999998,-9.520590019499998,2.33986669,-3.043,1.3287,-1.4709,9.999999999998899e-05,-9.999999999998899e-05,-5.999999999994898e-05,0.0007282184903842914,-8.894507153289766e-05,0.000317235325763221
150000000000.0,3,-0.1220731792,-0.00538385085,-0.0098458766,0.002868,0.044032,-0.003603,-0.2337709227,-9.520590019499998,2.33986669,-3.042,1.3287,-1.4716,4.999999999988347e-05,-5.0000000000105516e-05,0.00010999999999994348,0.0005684753438994772,-0.0007172321236799117,0.00040682627587873554
150000000000.0,3,-0.058908546549999996,0.020662611549999998,-0.04535575625,0.02363,0.11099,0.004858,-0.23782106915,-9.5201977535,2.340651222,-3.0403,1.3285,-1.4723,5.0000000000105516e-05,-4.999999999988347e-05,-9.99999999995449e-06,-0.00020566322492010514,-0.00034547051655753336,0.00020682497600787997
150000000000.0,3,-0.33418121205,0.16233928409999998,0.09378099395,0.005323,0.066423,-0.031368,-0.24356776605,-9.519315155,2.3437893499999998,-3.038,1.3281,-1.4736,3.333333333332966e-05,-9.999999999998899e-05,2.999999999997449e-05,0.00018570258062644562,-0.0009852079066006159,0.00025216652146919927
150000000000.0,3,-0.49462781269999995,0.18600273055,0.23453584139999997,0.005845,-0.006035,-0.035482,-0.2487750972,-9.5180402905,2.3486926749999997,-3.0361,1.3276,-1.4754,3.333333333332966e-05,-9.999999999998899e-05,2.999999999997449e-05,5.200560675611143e-05,-0.00024973573532838245,0.0002801795135702889
150000000000.0,3,0.3476457425,-0.1289770608,-0.29468983249999997,0.031391,0.002257,-0.013056,-0.24095919714999997,-9.518922888999999,2.3457506799999996,-3.0392,1.328,-1.4723,3.333333333332966e-05,-9.999999999998899e-05,-5.999999999994898e-05,-0.0003061034936506779,0.0003315328540258733,0.0001654143788023532
150000000000.0,3,0.27358592169999996,-0.23595780564999996,-0.19430896309999998,0.034673,0.017143,-0.007753,-0.23587935245,-9.5192170885,2.3450642145,-3.0413,1.3281,-1.4701,0.0005999999999999339,0.00029999999999996696,0.00026999999999999247,0.018738239750712316,-0.0020455194990789405,-0.006040059496632999
150000000000.0,3,0.07620747715,-0.04810161824999999,0.08571012099999999,0.019848,0.030051,-0.008874,-0.23422202859999997,-9.518432556499999,2.3485946085,-3.0422,1.3277,-1.469,9.999999999998899e-05,-1.999999999990898e-05,-2.0000000000020002e-05,0.00015246139091140698,-2.104474873521056e-05,-0.00013715284884785461
150000000000.0,3,0.0182795956,0.0009610516999999999,0.06091890979999999,0.007202,0.049335,-0.008931,-0.2342024153,-9.517942223999999,2.350457872,-3.0423,1.3275,-1.4684,-1.818181818191711e-05,-2.0000000000131024e-05,7.00000000000145e-05,0.0006462498105554992,-0.0005560111632596509,-0.00029424845994885374
150000000000.0,3,-0.1424317846,-0.021201977299999997,0.06165440855,-0.003492,0.041972,-0.015333,-0.23645794480000001,-9.517746091,2.3509482045,-3.0414,1.3275,-1.4688,-1.8181818181695064e-05,-1.999999999990898e-05,-9.99999999995449e-06,4.311707081927629e-05,-3.718812894248913e-05,-0.0003033331402289008
150000000000.0,3,-0.14912972654999998,-0.04321790655,0.02670350795,0.000565,0.014237,-0.017404,-0.23768377605,-9.517746091,2.3508501379999998,-3.0408,1.3275,-1.4691,-1.818181818191711e-05,-2.0000000000131024e-05,9.99999999995449e-06,-0.00025525463750675215,-4.0843570045634436e-05,-0.00014450925529008174
150000000000.0,3,0.085513988,-0.10384261684999999,-0.1164049355,0.011112,0.002426,-0.0131,-0.23485946085,-9.518138357,2.3494772069999996,-3.042,1.3276,-1.4679,-1.8181818181695064e-05,-1.999999999990898e-05,-5.999999999994898e-05,0.00011497502968449425,0.00019855200684348873,-0.0004751568691467867
150000000000.0,3,0.1379011123,-0.10468598875,-0.12521130719999998,0.014337,0.005597,-0.014174,-0.2312800336,-9.518530623,2.3483984755,-3.0434,1.3278,-1.4664,-1.818181818191711e-05,-3.333333333332966e-05,2.999999999997449e-05,0.00019007654887537306,1.4966645440761539e-05,-0.0003602684081958074
150000000000.0,3,0.07106879255,-0.040795663999999995,-0.057741555199999996,0.00582,0.005672,-0.018463,-0.2283380386,-9.5186286895,2.348104276,-3.0447,1.3278,-1.4651,-1.8181818181695064e-05,-3.333333333332966e-05,-4.999999999999449e-05,-0.0004158289410856053,0.0004980206528351072,-4.545346691564589e-05
150000000000.0,3,0.06469447005,0.01134629405,-0.01450403535,0.000403,-0.003875,-0.017391,-0.22540585024999998,-9.518726756,2.348104276,-3.0459,1.3279,-1.4639,-1.818181818191711e-05,-3.333333333332966e-05,-3.0000000000085514e-05,0.0004205554612863871,-0.00019960986844336226,-0.0007887861291555609
150000000000.0,3,0.07456976659999999,-0.0014906108,0.02076067805,-0.001824,-0.01558,-0.017379,-0.2219637161,-9.518726756,2.348300409,-3.0473,1.3279,-1.4625,-1.8181818181695064e-05,-3.333333333332966e-05,3.0000000000085514e-05,0.000400101245147777,0.0002412946595180543,-0.0003192031188588018
150000000000.0,3,0.087475318,-0.0521321514,0.0080806796,0.000181,-0.02839,-0.012021,-0.21856080855,-9.5188248225,2.348300409,-3.0488,1.3279,-1.4614,-1.818181818191711e-05,-3.333333333332966e-05,9.99999999995449e-06,-0.00017816313456142652,0.00029579209751129376,0.00025093229365857894
150000000000.0,3,0.12223008559999998,-0.08358207794999999,-0.00330484105,0.002216,-0.038003,-0.007738,-0.2147067951,-9.518922888999999,2.348104276,-3.0504,1.328,-1.4601,-1.8181818181695064e-05,-3.333333333332966e-05,-7.00000000000145e-05,-0.0003258387533990881,-0.00031092731387660777,-0.0003790890745651865
150000000000.0,3,0.0911233918,-0.07737446849999999,-0.012542705349999999,0.003234,-0.041214,-0.003466,-0.2117255735,-9.5190209555,2.348104276,-3.0517,1.328,-1.4593,-1.818181818191711e-05,-0.00019999999999997797,2.0000000000020002e-05,-0.0014396456659186985,4.097441784978173e-06,0.0005992325453787473
150000000000.0,3,0.10349938409999998,-0.05523105279999999,-0.0318127726,0.002194,-0.036945,-0.002413,-0.20884241839999998,-9.5192170885,2.34771201,-3.0529,1.3281,-1.4585,-0.00029999999999996696,-0.0002500000000000835,-9.99999999995449e-06,0.00033683068818746165,8.685691649912286e-05,-0.0001640178531561176
150000000000.0,3,0.03050848815,-0.018005009399999997,-0.0329895706,0.001139,-0.03587,-0.003486,-0.20708702804999998,-9.519315155,2.3474178104999996,-3.0536,1.3281,-1.4581,-0.00029999999999996696,-0.00024999999999986144,-0.00024000000000001798,-0.017697176356471944,0.0010893874134647596,0.005210187270908939
150000000000.0,3,-0.018917027849999997,0.0027458619999999995,-0.045375369549999996,0.004327,-0.035897,-0.001345,-0.20643978915,-9.519413221499999,2.3471236109999998,-3.0539,1.3282,-1.4582,0.0004999999999999449,0.00029999999999996696,0.00017000000000000348,0.016299921034043097,-0.0011082355546938594,-0.0048739289666519525
150000000000.0,3,-0.07877681945,-0.013807763199999998,-0.07335374199999999,0.009668,-0.032746,0.001866,-0.20702818815000001,-9.519413221499999,2.3468294115,-3.0536,1.3282,-1.4588,6.666666666665932e-05,-9.999999999998899e-05,-2.0000000000020002e-05,0.00044107638341839284,0.00053166640238822,-0.00044650256999112514
150000000000.0,3,-0.11817993914999998,-0.03880491404999999,-0.0633901856,0.010777,-0.02636,0.00293,-0.20863647874999997,-9.519413221499999,2.346731345,-3.0529,1.3282,-1.4597,6.666666666665932e-05,-4.999999999988347e-05,-2.0000000000020002e-05,0.00048369831550676423,0.00013987295548845147,-0.00032266191922225573
150000000000.0,3,-0.12802581575,-0.058908546549999996,-0.03753004955,0.007622,-0.021003,0.001855,-0.21045070899999999,-9.519413221499999,2.346731345,-3.0522,1.3282,-1.4607,6.666666666665932e-05,-5.0000000000105516e-05,-3.999999999992898e-05,0.0025456556497645,0.00014632889129040372,-3.111548240042339e-05
150000000000.0,3,-0.09171179079999998,-0.0480721983,-0.01250347875,-0.001957,-0.019854,-0.001361,-0.2114509873,-9.519413221499999,2.3464371455,-3.0517,1.3282,-1.4613,-4.999999999988347e-05,-9.999999999998899e-05,1.999999999990898e-05,0.00032120197336871215,-3.311382648241157e-05,-5.2682125515346456e-05
150000000000.0,3,-0.043865145450000004,-0.014258869099999998,-0.0334210632,-0.008275,-0.009145,-0.001388,-0.21171576685,-9.519707421,2.345162281,-3.0516,1.3283,-1.4616,-5.0000000000105516e-05,-9.999999999998899e-05,-0.00012000000000000899,-0.002796392728905861,0.0010761851635763264,0.0002015599715639027
150000000000.0,3,0.011454167199999999,0.0021378497,-0.0539169617,-0.006113,-0.005964,-0.002458,-0.2112156277,-9.520099687,2.3436912835,-3.0517,1.3285,-1.4615,-0.0006999999999999229,-0.000600000000000156,-0.00030999999999992145,-0.018891410277641185,0.001146887878898939,0.005855381446229657
150000000000.0,3,-0.029243430299999998,0.008629852,-0.04006016525,-0.000787,-0.008136,-0.004578,-0.21122543435,-9.520393886499999,2.342808685,-3.0517,1.3286,-1.4616,-4.999999999988347e-05,-9.999999999998899e-05,4.999999999999449e-05,0.00014615401018325258,-3.3007230845649715e-05,2.4572500098685168e-05
150000000000.0,3,-0.0515241391,-0.0116306869,-0.042815833899999996,0.005604,-0.009253,-0.004562,-0.21139214739999998,-9.520393886499999,2.3424164189999996,-3.0516,1.3286,-1.4618,-5.0000000000105516e-05,-9.999999999998899e-05,-7.00000000000145e-05,-0.00016581923439273893,-0.00011596334107588646,8.868184957044889e-06
150000000000.0,3,-0.03892259385,-0.0407564374,-0.059016419699999996,0.008799,-0.008214,-0.002421,-0.21156866709999997,-9.520491952999999,2.342220286,-3.0515,1.3286,-1.4619,-3.333333333332966e-05,-0.00019999999999997797,-4.0000000000040004e-05,-0.0007005773429091811,4.789903865565215e-05,0.0004729499299376272
150000000000.0,3,-0.0488567303,-0.043041386849999995,-0.0193975537,0.006652,-0.010326,-0.003486,-0.21181383334999998,-9.520393886499999,2.3424164189999996,-3.0514,1.3286,-1.4621,-3.333333333332966e-05,-9.999999999998899e-05,-2.0000000000020002e-05,-1.661002468522632e-05,-0.00033953850943335695,0.0001355696214853097
150000000000.0,3,-0.056133264599999996,-0.024987344199999997,-0.02778223945,0.006683,-0.004999,-0.001357,-0.21231397249999998,-9.520393886499999,2.3425144854999997,-3.0512,1.3286,-1.4624,-3.333333333332966e-05,-9.999999999998899e-05,-1.999999999990898e-05,-0.0003873582056896918,0.00020831917520136578,-0.0002627195892674905
150000000000.0,3,-0.03882452735,-0.017946169499999998,-0.027262487,0.004606,0.00035,-0.00457,-0.2125689454,-9.520393886499999,2.3424164189999996,-3.0511,1.3286,-1.4625,-3.333333333332966e-05,-9.999999999998899e-05,-1.0000000000065512e-05,0.00036948500163092035,-0.000251653233340976,3.920200861440293e-05
150000000000.0,3,-0.05410328805,-0.0204174453,-0.023810546199999998,0.008871,-0.001812,-0.007758,-0.21285333824999997,-9.52029582,2.3427106185,-3.051,1.3286,-1.4626,-3.333333333332966e-05,-0.00019999999999997797,-4.999999999999449e-05,-0.0013058362680165025,0.0004128035239390204,0.0003952785537428838
150000000000.0,3,-0.032783630949999996,-0.00980665,-0.040207265,0.013128,-0.002912,-0.007747,-0.21261797864999998,-9.5201977535,2.343397084,-3.0511,1.3285,-1.4625,-3.333333333332966e-05,-9.999999999998899e-05,-7.00000000000145e-05,-0.0012351541356667717,0.0008646619622907359,0.00018411763205783416
150000000000.0,3,-0.0146707484,0.004609125499999999,-0.043061000149999994,0.017379,-0.004013,-0.006669,-0.21202957965,-9.519903553999999,2.3444758155,-3.0514,1.3284,-1.4622,-5.0000000000105516e-05,-9.999999999998899e-05,-2.0000000000020002e-05,0.00028862902758297615,-0.000357794948203205,-7.097126208766014e-05
150000000000.0,3,-0.0003726527,0.0023928226,-0.0297141495,0.015225,-0.005062,-0.004536,-0.21136272744999998,-9.5196093545,2.3456526135,-3.0517,1.3283,-1.4619,-4.999999999988347e-05,-9.999999999998899e-05,-0.00011999999999989797,-0.002019773211768605,0.0013792025127667973,0.0003271246741602951
150000000000.0,3,0.014043122799999998,-0.0012748644999999999,-0.01856398845,0.011988,-0.008234,-0.002402,-0.2106664553,-9.519413221499999,2.3466332784999997,-3.0521,1.3282,-1.4617,-9.999999999998899e-05,-0.00019999999999997797,1.999999999990898e-05,-0.0005680224828032987,-0.0005247808999189196,0.000558519315546846
150000000000.0,3,0.007247114349999999,-0.019436780299999998,0.006276256,0.008801,-0.007142,-0.003477,-0.2099996031,-9.5192170885,2.3475158769999998,-3.0524,1.3281,-1.4614,0.0007999999999999119,0.00029999999999996696,0.0006900000000000794,0.02230998174705756,-0.005744605383997348,-0.005284752645271951
150000000000.0,3,-0.0233986669,-0.021486370149999996,0.0372260434,0.00559,-0.009245,-0.004545,-0.20973482354999998,-9.518922888999999,2.3485946085,-3.0525,1.328,-1.4613,-3.333333333332966e-05,-9.999999999998899e-05,-3.0000000000085514e-05,0.00037595116858879507,0.00038045036234679586,-0.0003684112983579624
150000000000.0,3,-0.004314926,-0.035470653049999995,0.0293022702,0.005606,-0.006051,-0.002416,-0.20936217084999997,-9.518726756,2.3494772069999996,-3.0527,1.3279,-1.4612,-3.333333333332966e-05,-4.999999999988347e-05,-4.999999999999449e-05,0.0007427055833080232,0.0004930464115302513,-0.0001284185487628875
150000000000.0,3,-0.010169496049999999,-0.0481114249,0.01354298365,0.01096,-0.005027,-0.004543,-0.20904835804999997,-9.518530623,2.350457872,-3.0529,1.3278,-1.4611,-3.333333333332966e-05,-5.0000000000105516e-05,-7.999999999996898e-05,0.0008448304406643015,0.00022077544394760729,-0.0002768522399563267
150000000000.0,3,-0.01993691945,-0.03475476759999999,0.0063743225,0.009935,0.00031,-0.004553,-0.20900913144999997,-9.5182364235,2.351438537,-3.0529,1.3277,-1.461,-9.999999999998899e-05,-9.999999999998899e-05,-9.99999999995449e-06,-0.0006617308175385084,0.0003732333086869932,0.00041279452976095143
150000000000.0,3,-0.0139450563,-0.026291628649999996,-0.004236472799999999,0.011022,0.003497,-0.003489,-0.20900913144999997,-9.5180402905,2.3523211355,-3.053,1.3276,-1.461,-9.999999999998899e-05,-0.00010000000000021103,-4.0000000000040004e-05,-0.0002953333357107457,0.00013640000014225606,6.940095982344019e-06
150000000000.0,3,-0.028194118749999997,-0.024026292499999997,-0.009080957899999999,0.006754,0.003532,-0.003495,-0.20928371764999998,-9.517942223999999,2.3528114679999996,-3.0529,1.3275,-1.461,-3.333333333332966e-05,-9.999999999998899e-05,-5.999999999994898e-05,-0.0005808034539673823,0.00034289679013466134,0.00046418405799819595
150000000000.0,3,-0.02489908435,-0.008708305199999999,-0.007168661149999999,0.00353,0.001427,-0.002428,-0.2095877238,-9.517844157499999,2.353203734,-3.0528,1.3275,-1.4611,-3.333333333332966e-05,-9.999999999998899e-05,-4.0000000000040004e-05,0.0013226068378529021,4.5267898779233207e-05,-0.0007641020293727152
150000000000.0,3,-0.0022751428,-0.0178088764,-0.01664188505,0.0025,0.006763,-0.001371,-0.20960733709999999,-9.517844157499999,2.3531056675,-3.0527,1.3275,-1.461,-3.333333333332966e-05,-9.999999999998899e-05,4.0000000000040004e-05,-1.2781641906656205e-05,-0.00019576540686894184,1.8373844052455013e-05
150000000000.0,3,0.00204958985,-0.00605070305,0.011944499699999998,0.001413,0.003576,-0.002435,-0.20945043069999997,-9.517746091,2.353399867,-3.0528,1.3275,-1.4609,-5.0000000000105516e-05,-9.999999999998899e-05,-3.0000000000085514e-05,-0.00021827405515595366,-0.0001339520498249147,7.608651210322392e-05
150000000000.0,3,0.016720338249999998,-0.0003530394,0.0222807088,0.003587,0.007821,-0.003507,-0.20900913144999997,-9.5176480245,2.353988266,-3.053,1.3274,-1.4606,-4.999999999988347e-05,-4.999999999988347e-05,4.999999999999449e-05,-1.5293482238831757e-05,-0.00019235743158496632,-5.8359836864418924e-05
150000000000.0,3,0.01877973475,0.012091599449999999,0.023545766649999997,0.00892,0.006712,-0.004565,-0.20851879895,-9.517353824999999,2.3550669975,-3.0533,1.3273,-1.4603,-9.999999999998899e-05,-5.0000000000105516e-05,-7.999999999996898e-05,5.4678949675146526e-05,-0.00031513580136177666,-0.00038395192235096687
150000000000.0,3,-0.0032558077999999997,0.03160683295,0.02882174435,0.011016,0.002431,-0.003486,-0.20833247259999998,-9.516961558999999,2.356734128,-3.0534,1.3271,-1.4601,-9.999999999998899e-05,-9.999999999998899e-05,6.0000000000060005e-05,-0.0026661652868074093,-7.06149726412697e-05,0.001183070794106733
150000000000.0,3,-0.005011198149999999,0.00842391235,0.0110422879,0.011008,0.001365,-0.003484,-0.2080774997,-9.5166673595,2.3579109259999997,-3.0536,1.327,-1.4599,-9.999999999998899e-05,-9.999999999998899e-05,-4.999999999999449e-05,-0.0006322766323727524,0.0003140337647709046,-0.0002131686838815483
150000000000.0,3,0.005756503549999999,-0.030792880999999998,-0.0053642375499999995,0.007801,0.001391,-0.002422,-0.2077636869,-9.516569292999998,2.3585973915,-3.0537,1.3269,-1.4598,-3.333333333332966e-05,-5.0000000000105516e-05,-7.00000000000145e-05,-0.00016668168039402076,0.0003505787772775104,-0.00018453548986840929
150000000000.0,3,0.0087475318,-0.06102678295,0.005501530649999999,0.0067,-0.002862,-0.002417,-0.20731258099999997,-9.51637316,2.3591857904999998,-3.0539,1.3269,-1.4596,-3.333333333332966e-05,-4.999999999988347e-05,-4.999999999999449e-05,-5.782376420682134e-05,-2.1405671490004607e-05,-0.00016102654136407324
150000000000.0,3,0.008119906199999999,-0.07906121229999999,0.0109638347,0.005571,-0.009249,-0.000274,-0.20683205514999997,-9.5162750935,2.3595780564999997,-3.0542,1.3269,-1.4594,-3.333333333332966e-05,-1.999999999990898e-05,-2.0000000000020002e-05,-0.0004296746100216353,-0.00016125574934644504,8.781148634451341e-05
150000000000.0,3,0.02582090945,-0.08830888325,0.00505042475,0.001291,-0.011344,-0.001346,-0.20598868324999997,-9.51637316,2.35947999,-3.0545,1.3269,-1.4592,-9.999999999998899e-05,-2.0000000000131024e-05,-4.0000000000040004e-05,-0.00012485748121027207,-0.00021449623266556195,-0.00026189121375530533
150000000000.0,3,0.028507931549999997,-0.0752954587,0.012876131449999998,0.002344,-0.01242,-0.000277,-0.20522376455,-9.51637316,2.359676123,-3.0548,1.3269,-1.459,-5.0000000000105516e-05,-1.999999999990898e-05,2.999999999997449e-05,0.0006684727188506212,3.155474232507949e-05,-0.0003928911790920253
150000000000.0,3,0.049651068949999995,-0.03227368515,0.04478697055,0.003424,-0.010299,0.000786,-0.20407638649999998,-9.5160789605,2.3606567879999996,-3.0554,1.3268,-1.4586,-5.0000000000105516e-05,-2.0000000000131024e-05,2.0000000000020002e-05,0.0004062841407259654,-0.0001565232612170675,-0.000978687930420108
150000000000.0,3,0.06081103665,0.013925443,0.07550139835,0.008728,-0.014607,0.000799,-0.20282113529999998,-9.515588628,2.3627161845,-3.056,1.3266,-1.4581,-5.0000000000105516e-05,-1.999999999990898e-05,-7.00000000000145e-05,2.9287382496523406e-05,-2.9831624358545028e-05,-0.00019483993893398832
150000000000.0,3,0.04994526845,0.055172212899999996,0.07142183195,0.015118,-0.017856,-0.001322,-0.20152665749999998,-9.515000229,2.3654620465,-3.0566,1.3263,-1.4577,-4.999999999988347e-05,-1.999999999990898e-05,6.0000000000060005e-05,0.00010686627430400719,4.319494021576276e-06,-2.4090976613599935e-05
150000000000.0,3,0.0501119815,0.043374812949999994,0.048778277099999996,0.022576,-0.018985,-0.000242,-0.20020275975,-9.514215697,2.368502108,-3.0573,1.326,-1.4572,-3.333333333332966e-05,-2.0000000000131024e-05,5.999999999994898e-05,0.00032083290184226065,2.9366685836196282e-05,-6.065469096405707e-05
150000000000.0,3,0.048699823899999994,0.006148769549999999,0.06208590115,0.01831,-0.021079,-0.003451,-0.19863369574999998,-9.5135292315,2.371444103,-3.058,1.3257,-1.4567,-3.333333333332966e-05,-1.999999999990898e-05,-9.99999999995449e-06,9.227860388638653e-05,0.00015282145705963757,0.0002837995675664118
150000000000.0,3,0.03233252505,-0.029616082999999998,0.06886229629999999,0.013981,-0.028504,-0.00238,-0.19708424505,-9.5129408325,2.3739938319999996,-3.0588,1.3254,-1.4562,-3.333333333332966e-05,-2.0000000000131024e-05,5.999999999994898e-05,-9.383778283966748e-06,-0.00012370354246526993,0.0003192615476592664
150000000000.0,3,0.0442672181,-0.0303810017,0.029880862549999995,0.008591,-0.034856,-0.001314,-0.1952504015,-9.512646633,2.3753667629999997,-3.0596,1.3253,-1.4557,-0.00019999999999997797,-1.999999999990898e-05,9.999999999998899e-05,-0.0005423573790586111,-4.8404860272022177e-05,0.0004572084662122222
150000000000.0,3,0.048032971699999996,-0.009639936949999999,-0.01879934805,0.006447,-0.032713,0.004013,-0.19392650375,-9.5125485665,2.3757590289999997,-3.0601,1.3253,-1.4555,-5.0000000000105516e-05,0.00019999999999997797,0.0001500000000000945,0.0007470080258369372,-7.369692389236349e-05,-0.0005234889723411129
150000000000.0,3,0.0284196717,0.012356378999999999,-0.0365591912,0.005361,-0.034835,0.004013,-0.19302429194999998,-9.5125485665,2.3758570955,-3.0605,1.3253,-1.4555,-4.999999999988347e-05,9.999999999998899e-05,0.00011999999999989797,0.00021104252096426634,8.057100613756418e-05,-0.00019684372151029805
150000000000.0,3,-0.055505638999999996,-0.018240369,-0.0101596894,0.004321,-0.032692,0.001876,-0.1933479114,-9.5124505,2.3760532285,-3.0604,1.3252,-1.4559,-9.999999999998899e-05,9.999999999998899e-05,0.0001100000000000545,0.0009584582301982447,0.0005444467793533914,-0.0007679532178919146
150000000000.0,3,-0.0663125673,-0.05935965245,-0.04425741144999999,0.008639,-0.025268,0.002942,-0.19406379685,-9.5125485665,2.375955162,-3.0601,1.3253,-1.4565,-9.999999999998899e-05,9.999999999998899e-05,0.00017000000000000348,0.0015140831872522131,0.00022296509637653728,-0.0004551726451111904
150000000000.0,3,-0.0411487034,-0.07340277525,-0.02389880605,0.005482,-0.018848,0.003995,-0.19453451605,-9.5125485665,2.3757590289999997,-3.0599,1.3253,-1.4569,9.999999999998899e-05,0.00019999999999997797,0.00017000000000000348,0.004238254675269948,-0.00016323972541787413,-0.0010714463850973743
150000000000.0,3,-0.0347351543,-0.08545514809999999,0.02582090945,0.000272,-0.000694,0.008225,-0.1957015074,-9.5124505,2.3760532285,-3.0594,1.3252,-1.4574,-9.999999999998899e-05,0.00019999999999997797,0.00017999999999995797,0.0020423383531302797,0.00041257772450187247,-0.0006180416804744127
150000000000.0,3,-0.0289100042,-0.1289182209,0.07075497975,-0.007114,0.01215,0.012461,-0.19749612435,-9.5123524335,2.3761512949999997,-3.0587,1.3252,-1.4581,-0.0009999999999998899,-0.0004999999999999449,-0.00019999999999997797,-0.0209841829924704,0.00315094952574535,0.00599850650733913
150000000000.0,3,0.019760399749999998,-0.19465219585,0.0763938035,-0.019944,0.011185,0.016709,-0.19886905534999996,-9.512646633,2.3749744969999997,-3.0581,1.3253,-1.4586,4.999999999988347e-05,0.00029999999999996696,0.00034000000000000696,0.00515728172624752,7.845178196541625e-05,-0.0009058230287761759
150000000000.0,3,0.11772883325,-0.22074769149999998,0.0095516771,-0.037222,-0.011057,0.022048,-0.198682729,-9.513627298,2.371051837,-3.058,1.3257,-1.4588,5.0000000000105516e-05,0.00029999999999996696,0.00036999999999998145,0.005783282904872289,-0.0004827514844241154,-0.0008631892881219017
150000000000.0,3,0.1445696343,-0.18322744859999998,-0.062331067399999995,-0.060885,-0.032179,0.025239,-0.19784916374999997,-9.515392495,2.3640891155,-3.0581,1.3265,-1.459,0.00039999999999995595,0.000300000000000189,0.00043000000000004146,0.006127908020823636,-0.0005585046236342706,-0.0008880278633185412
150000000000.0,3,0.1588873433,-0.20991134325,-0.10907936794999999,-0.08332,-0.036256,0.023063,-0.1966037192,-9.517844157499999,2.3540863325,-3.0583,1.3275,-1.4593,0.00039999999999995595,0.0007999999999999119,0.0007300000000000084,0.02697534929749401,-0.0023883581657961894,-0.007301874741215464
150000000000.0,3,0.19345578455,-0.25056971415,-0.11685604139999999,-0.11097,-0.030691,0.012321,-0.1940539902,-9.521080351999998,2.3413376875,-3.0589,1.3289,-1.459,-0.00039999999999995595,0.00019999999999997797,0.00043999999999999595,0.002957451698125446,-0.0005857662880390802,-0.0007486903941469336
150000000000.0,3,0.19518175494999998,-0.22756331324999998,-0.0962620764,-0.14184,-0.031486,-0.005888,-0.1897979041,-9.5249049455,2.3260393135,-3.0602,1.3305,-1.4581,-0.00014999999999987246,0.00039999999999995595,7.999999999996898e-05,0.006200027784706519,0.0028829280634397048,-0.0034770087028137553
150000000000.0,3,0.17807895735,-0.14848248765,-0.1351944769,-0.18547,-0.023658,-0.016661,-0.18465921949999997,-9.5298082705,2.3064260135,-3.0617,1.3326,-1.4569,-0.0001500000000000945,0.00029999999999996696,0.0004899999999999904,0.0027367265278479547,0.000172726237484655,-0.001269045430907667
150000000000.0,3,0.1218182063,-0.0935946676,-0.23866444105,-0.2249,-0.012683,-0.012486,-0.18077578609999997,-9.535888393499999,2.281419056,-3.0625,1.3353,-1.4563,-0.00039999999999995595,0.00010000000000021103,0.0004899999999999904,0.003410785757713697,0.0004581633559677112,-0.0012703833180820467
150000000000.0,3,0.07561907814999999,-0.16011317455000001,-0.22163028999999998,-0.28149,-0.009034,0.000213,-0.17902039575,-9.5429491815,2.25160684,-3.0623,1.3384,-1.4567,-0.000500000000000167,0.00019999999999997797,0.0005600000000000049,0.002651128425827931,0.0007214547754823553,-0.0007276553185899814
150000000000.0,3,0.17151830849999997,-0.3534120527,-0.0469346269,-0.37021,-0.025359,0.004344,-0.17450933674999997,-9.5516771,2.214733836,-3.063,1.3423,-1.4563,-0.00039999999999995595,9.999999999998899e-05,0.00043999999999999595,0.003288824928286971,0.0007966464392019645,-0.0007106931216913637
150000000000.0,3,0.1707533898,-0.34414476844999997,-0.006639102049999999,-0.43647,-0.041859,-1.2e-05,-0.17374441805,-9.560993417499999,2.1744285045,-3.0619,1.3465,-1.4578,-0.0004999999999999449,0.00019999999999997797,0.00041000000000002146,0.006246158032943816,0.001148123313850835,-0.001607034256205786
150000000000.0,3,0.1971528916,-0.33400469234999997,-0.1628884565,-0.47506,-0.063919,-0.001117,-0.16917451914999998,-9.5719768655,2.1256894539999998,-3.0622,1.3516,-1.4581,-0.0004999999999999449,9.999999999998899e-05,0.0004899999999999904,0.0037363258953673206,4.656258992818962e-06,-0.0006573202305357739
150000000000.0,3,0.14758027585,-0.2755080251,-0.1842277269,-0.49125,-0.072334,0.020211,-0.1667326633,-9.583254513,2.0747929405,-3.0614,1.3569,-1.4597,-0.000500000000000167,9.999999999998899e-05,-9.99999999995449e-06,0.0014222633361253845,0.00382617451979983,-0.00029462811185609894
150000000000.0,3,0.10013570314999999,-0.26602499454999995,-0.33337706674999995,-0.46381,-0.090707,0.050178,-0.16911567924999998,-9.592865029999999,2.0294862174999997,-3.0585,1.3616,-1.4636,-0.0006999999999999229,-9.999999999998899e-05,0.00024999999999997247,0.0029067906405955135,0.0012672966831417387,5.6545546664565904e-05
150000000000.0,3,0.0005295590999999999,-0.31474443174999994,-0.19433838305,-0.4235,-0.10172,0.079087,-0.1741072641,-9.601494881999999,1.988004088,-3.0542,1.3659,-1.4689,-0.0005999999999999339,9.999999999998899e-05,0.00034000000000000696,0.00491743056029903,-0.0001304277146059185,-0.00045105185261462566
150000000000.0,3,-0.0394815729,-0.30174081385,-0.09659550249999999,-0.3969,-0.1009,0.09621,-0.18094249914999996,-9.609242135499999,1.94956202,-3.049,1.3698,-1.4753,-0.001000000000000112,-0.00029999999999996696,4.0000000000040004e-05,-0.0006288302480161878,0.0024727370808290683,0.00045496690350610436
150000000000.0,3,-0.0342055952,-0.40178825715,-0.22275805475,-0.38517,-0.091418,0.11009,-0.18995481049999996,-9.617479721499999,1.907393425,-3.0423,1.3741,-1.483,-0.0009999999999998899,-0.00019999999999997797,0.00014999999999998348,0.0021462405950962715,0.0001434810962623878,0.0002007912737758133
150000000000.0,3,-0.03348970975,-0.45388118194999993,-0.36724923585,-0.35956,-0.083116,0.12186,-0.19980068709999999,-9.62424631,1.8721875515,-3.0353,1.3776,-1.4911,-0.001000000000000112,-0.000300000000000189,-0.0003300000000000525,-0.0005079483345447056,0.0030302995017248424,-0.0009376832069660779
150000000000.0,3,-0.04339442625,-0.43383638934999996,-0.33836865159999996,-0.3285,-0.068454,0.12189,-0.21024476934999997,-9.6302283665,1.8400217394999998,-3.0278,1.3808,-1.4994,-0.0011999999999998678,-0.0004999999999999449,-0.00012000000000000899,-0.005260150696535071,0.0022149489556042568,0.00350560931216215
150000000000.0,3,-0.008973084749999999,-0.21394187639999998,-0.2228463146,-0.31966,-0.036547,0.11118,-0.22042407205,-9.635818157,1.809130792,-3.0204,1.3839,-1.5075,-0.001100000000000101,-0.0005999999999999339,9.999999999998899e-05,0.0020168837900265135,-0.002277319873846606,0.002644741995062816
150000000000.0,3,0.0324992381,0.06846022365,-0.33647596814999997,-0.32556,0.022116,0.10252,-0.23017188214999998,-9.642584745499999,1.771473256,-3.0124,1.3876,-1.5156,-0.0010999999999998789,-0.00029999999999996696,-0.00037999999999993594,-0.00128031084065805,0.003087633050532723,0.0010360441895853612
150000000000.0,3,0.061595568649999995,0.27157555845,-0.3696910917,-0.34684,0.04358,0.12486,-0.24235174144999996,-9.648370668999998,1.7383267789999999,-3.0031,1.3909,-1.5246,-0.0020000000000000018,-0.001000000000000112,-0.000500000000000056,-0.02041516333469673,0.0017806798705395366,0.006561714314849532
150000000000.0,3,-0.08862269604999999,0.49168581769999997,-0.3426835776,-0.32269,0.013515,0.15378,-0.2568950034,-9.65366626,1.7060629005,-2.9921,1.3939,-1.5355,-0.0013000000000000789,-0.00039999999999995595,-0.00020999999999993246,-0.0015648806694750217,0.0009347697825095036,0.0015507132480010455
150000000000.0,3,-0.23572244604999998,0.5822600371,-0.46294252654999996,-0.22042,0.006259,0.17318,-0.27334075545,-9.6574908535,1.681840475,-2.9805,1.3962,-1.5472,-0.0014000000000000679,-0.0004999999999999449,-0.0005100000000000104,-0.002573318287110604,0.002568910208492703,0.0011150081986706084
150000000000.0,3,-0.27532169874999995,0.5691191261,-0.3814982983,-0.093193,0.03931,0.17122,-0.29689632875,-9.659942516,1.6638943054999997,-2.965,1.3976,-1.5625,-0.0016000000000000458,-0.0004999999999999449,-8.000000000008001e-05,-0.000642511855512673,-0.0017818348426512642,0.0011232321786884825
150000000000.0,3,-0.2693886755,0.5625486705999999,-0.3397808092,0.002191,0.074785,0.14251,-0.3125575488,-9.659746383,1.661834909,-2.9557,1.3975,-1.5713,-0.0005999999999999339,-0.00045000000000006146,-0.00011999999999989797,0.01722056604605693,0.00042035483440572285,-0.0037791468942129924
150000000000.0,3,-0.1637906683,0.5665595904499999,-0.5731202393,0.051721,0.10851,0.10624,-0.32537484034999997,-9.658667651499998,1.6656595024999998,-2.9487,1.3969,-1.5774,-0.0024999999999999467,-0.00045000000000006146,-0.0007900000000000684,-0.023817290394700708,0.003464592884103057,0.005710132469589624
150000000000.0,3,-0.03056732805,0.5276173833,-0.624487472,0.068121,0.14144,0.079527,-0.33589737579999995,-9.6572947205,1.6715434925,-2.9433,1.3961,-1.5815,-0.0016000000000000458,-0.00039999999999995595,-0.00021999999999999797,3.515496807038332e-05,0.000263398446393559,0.00031468295890224596
150000000000.0,3,0.0478368387,0.44618296169999994,-0.44446679795,0.069557,0.17768,0.059183,-0.34441935464999995,-9.6572947205,1.6699744284999998,-2.9382,1.396,-1.5849,-0.0016000000000000458,-0.0004999999999999449,-0.00024000000000001798,-0.0007458431234572682,0.0009060731409051836,0.0007675103749971157
150000000000.0,3,0.22033581219999998,0.3031431648,-0.3266791248,0.082438,0.18078,0.048526,-0.3523137079,-9.655823723,1.6768390835,-2.9345,1.3952,-1.5869,-0.0019000000000000128,-0.00029999999999996696,-0.0004999999999999449,-0.004108761066266009,0.0023916224275100095,0.0002903616906042572
150000000000.0,3,0.3703971705,0.16914509919999998,-0.31919665085,0.12163,0.14636,0.05079,-0.35977656854999995,-9.6537643265,1.6868418664999998,-2.9315,1.394,-1.5884,-0.0018000000000000238,-0.000500000000000167,-9.999999999998899e-05,-0.002009175642882166,-0.0014602671393804112,0.0015883229514841446
150000000000.0,3,0.38945149144999996,0.12467194144999999,-0.3507642572,0.18111,0.11815,0.059482,-0.3674551755,-9.650724265,1.70243444,-2.929,1.3923,-1.5896,-0.0019000000000000128,-0.00019999999999997797,-0.0005300000000000304,-0.0050340571377534005,0.0032911434374043314,0.00013071725425106706
150000000000.0,3,0.35212738155,0.16795849454999998,-0.34492930045000003,0.22152,0.10503,0.061687,-0.36783763485,-9.648272602499999,1.716556016,-2.9305,1.3908,-1.5871,-0.0015999999999998238,-0.00019999999999997797,-0.00017000000000000348,0.004380582640592268,0.000949636426607503,-0.0005649802601395137
150000000000.0,3,0.3600609614,0.19455412934999997,-0.36795531465,0.23217,0.10175,0.060644,-0.37546720855,-9.644055743,1.7385229119999999,-2.9289,1.3884,-1.5877,-0.0020000000000000018,-0.00039999999999995595,-0.00048000000000003595,-0.004993195706409992,0.002582498283106416,0.0010639128362059935
150000000000.0,3,0.38421474035,0.11092301815,-0.4112516744,0.21286,0.088055,0.059567,-0.3828712293,-9.6400350165,1.7590188105,-2.9273,1.3862,-1.5884,-0.0020999999999999908,-0.00039999999999995595,-0.00029999999999996696,-0.0009051922502041343,0.0009878970880154991,0.0003774266908722623
150000000000.0,3,0.37612425409999994,-0.039648285949999994,-0.38235147685,0.18704,0.063756,0.062768,-0.39003989045,-9.636406555999999,1.7772591795,-2.9256,1.3842,-1.5894,-0.0020999999999999908,-0.00039999999999995595,-0.00041999999999997595,-0.006180081160199302,0.0032267827130105786,0.00017977857468043368
150000000000.0,3,0.31615658934999996,-0.1268392111,-0.37290767289999993,0.16864,0.038324,0.071299,-0.39053022294999995,-9.6347394255,1.7857909650000001,-2.9263,1.3833,-1.5883,-0.001100000000000101,0.0004999999999999449,-0.003430000000000044,-0.0033924532784368466,0.028936417872993614,-0.00811989218519038
150000000000.0,3,0.2869033524,-0.11639512884999999,-0.3524117744,0.16637,0.030869,0.085184,-0.39897374859999996,-9.631405164499999,1.8017758044999999,-2.9237,1.3815,-1.5906,-0.0022999999999999687,-0.0008000000000001339,0.0010100000000000664,-0.0037728940010757217,-0.010644634632343886,0.0048566068729343215
150000000000.0,3,0.31311652785,-0.0518379519,-0.2893550149,0.16629,0.028725,0.099064,-0.40873136535,-9.6280709035,1.817564511,-2.9204,1.3797,-1.5937,-0.0014000000000000679,-9.999999999998899e-05,-0.0015800000000000258,-0.002854249560847677,0.011109175920833492,-0.0022148777370345485
150000000000.0,3,0.3970516452,0.04029552484999999,-0.233790536,0.16285,0.017001,0.1279,-0.42069547835,-9.6245405095,1.833255151,-2.916,1.3778,-1.5979,-0.0018000000000000238,-0.00039999999999995595,0.00021999999999999797,-0.0017333392510714418,-0.005285290985001634,0.0027386379571776587
150000000000.0,3,0.395600261,0.0883383032,-0.21749188369999997,0.16696,0.018004,0.15776,-0.4267265680999999,-9.622088847,1.8451211975,-2.9143,1.3765,-1.5996,-0.0013999999999998458,9.999999999998899e-05,-0.0009599999999999609,-0.0017049688294941134,0.0056730228908750124,-0.001131214736275865
150000000000.0,3,0.395600261,0.0883383032,-0.21749188369999997,0.16696,0.018004,0.15776,-0.4267265680999999,-9.622088847,1.8451211975,-2.9143,1.3765,-1.5996,-0.0020000000000000018,-0.0007999999999999119,0.0016299999999999093,-0.0017726163256459593,-0.017779045304656238,0.007345484328648233
150000000000.0,3,0.28287281924999996,0.0355392996,-0.16403583454999998,0.18095,0.047702,0.18122,-0.4443393115,-9.6180681205,1.8617925024999997,-2.9073,1.3744,-1.6064,-0.0015000000000000568,-9.999999999998899e-05,-0.00039999999999995595,-0.000835856887171138,-0.00022777139436014338,-0.0007961256347606138
150000000000.0,3,0.12389721609999998,-0.03966789925,-0.1024402659,0.23547,0.073871,0.20262,-0.46476656344999995,-9.612968662499998,1.882680667,-2.8996,1.3717,-1.6136,-0.0013000000000000789,-9.999999999998899e-05,-0.0006700000000000594,-0.001701388789817404,0.004757007782701939,-0.002196801077535504
150000000000.0,3,-0.0238497728,-0.30780132354999995,-0.28138220845,0.30887,0.059391,0.22412,-0.48715514539999993,-9.606398207,1.91033542,-2.8919,1.3684,-1.6207,-0.0011999999999998678,-0.00019999999999997797,-0.0006499999999999284,-2.6944750849189347e-05,0.0035821982519144147,-0.0028349451411084914
150000000000.0,3,-0.21057819544999998,-0.32333505715,-0.26596615464999995,0.35776,0.042991,0.23172,-0.5151629378,-9.5996316185,1.9373037075,-2.8817,1.3649,-1.6305,-0.0014000000000000679,-0.000500000000000167,-0.00046000000000001595,-0.005710682983712356,0.0022859916255724144,-0.0014730723249245514
150000000000.0,3,-0.44662426094999996,-0.08314077869999999,0.09368292745,0.3653,0.045071,0.22105,-0.53768881285,-9.5911978995,1.9722153815,-2.8754,1.3608,-1.6365,-0.0013000000000000789,-0.00039999999999995595,-0.00012000000000000899,0.00046983726384386415,0.0007179733685529488,-0.0013515870334117608
150000000000.0,3,-0.3684750671,0.1577301586,0.42556938339999995,0.32289,0.063561,0.19639,-0.5583808443499999,-9.5833525795,2.004283127,-2.8699,1.357,-1.6415,-0.0013999999999998458,-0.0006999999999999229,-0.0007899999999999574,-0.010130526130743611,0.006819930275904218,-0.002526415705478513
150000000000.0,3,-0.0896131677,0.50248293935,0.5987155958,0.25494,0.082274,0.15995,-0.5762779805999999,-9.576978256999999,2.029780417,-2.865,1.3539,-1.6458,-0.0013000000000000789,-0.000600000000000156,-0.000180000000000069,-0.003009496197332151,0.0016234804996837493,-0.002005144185130092
150000000000.0,3,0.14947295929999999,0.7931814652999999,0.7186116987,0.18991,0.07431,0.13637,-0.5913606083,-9.5719768655,2.0489033845,-2.8606,1.3516,-1.6494,-0.001100000000000101,-0.0005999999999999339,-0.00017999999999995797,-0.0002004686273571199,0.00014623131698088265,-0.0045068532585892385
150000000000.0,3,0.3073109910499999,0.8618280153,0.7899158508499999,0.13093,0.037498,0.1374,-0.60523701805,-9.568152271999999,2.0624365614999998,-2.8562,1.3498,-1.6535,-0.0012999999999998568,-0.0006999999999999229,-0.0007300000000000084,-0.00825148996241265,0.005667906809434964,-0.004011756101870212
150000000000.0,3,0.17854967655,0.6439634788999999,0.62732159385,0.087637,-0.01972,0.16838,-0.62028041915,-9.565210277,2.0718509455,-2.8507,1.3484,-1.6592,-0.0012000000000000899,-0.0005999999999999339,7.00000000000145e-05,0.0011448839026821922,-0.0016572819202023137,-0.0064606966108913255
150000000000.0,3,-0.1408823339,0.37284883299999994,0.266937013,0.069905,-0.071839,0.21754,-0.6385796280499999,-9.5623663485,2.079205933,-2.8436,1.3471,-1.667,-0.0012999999999998568,-0.000700000000000145,-0.00046000000000001595,-0.004974145368517702,0.002857442980247482,-0.008634873050726632
150000000000.0,3,-0.6762469707000001,0.19988894694999998,0.1834039683,0.08419,-0.12209,0.26782,-0.6607622703499999,-9.559130153999998,2.0873454525,-2.835,1.3456,-1.677,-0.001000000000000112,-0.0005999999999999339,-0.00021000000000004349,-6.508524534254434e-05,0.0004701189039182374,-0.008220603358910061
150000000000.0,3,-1.1912137754999998,0.023280987099999997,0.25706171645,0.1434,-0.16312,0.3107,-0.6861713005,-9.554422962,2.1004863635,-2.8258,1.3435,-1.688,-0.0012000000000000899,-0.0006999999999999229,-0.00028999999999990145,-0.0017101336676288437,0.0011778539145708145,-0.009909682703937328
150000000000.0,3,-1.4297115034999999,-0.22356220005,0.26890814965,0.24468,-0.15013,0.34607,-0.7150420781,-9.5474602405,2.1224532595,-2.8166,1.3404,-1.6991,-0.0008999999999999009,-0.0009000000000001229,-0.0002300000000000635,-0.001038933599670111,0.0014939971217313719,-0.007949043051672433
150000000000.0,3,-1.431967033,-0.4062404762499999,0.41522336764999995,0.34196,-0.1243,0.35047,-0.7457565059,-9.538045856499998,2.1539326059999997,-2.8083,1.3362,-1.709,-0.0009999999999998899,-0.0009999999999998899,-0.00024000000000001798,-0.0015168107659575547,-0.001242134836670017,-0.009130177928590832
150000000000.0,3,-1.272118638,-0.6159164599,0.5468776439,0.38977,-0.16729,0.3218,-0.77389178475,-9.5272585415,2.1914920755,-2.8021,1.3315,-1.7169,-0.0008000000000001339,-0.0013000000000000789,-0.00020999999999993246,-0.0003923546994804017,0.00156057337221438,-0.006994600015253205
150000000000.0,3,-0.9565210276999999,-0.8282892722999999,0.27084986634999997,0.37637,-0.25986,0.29419,-0.79723161175,-9.5164712265,2.2297380104999998,-2.7982,1.3269,-1.7234,-0.0007999999999999119,-0.0014000000000000679,-0.0003500000000000725,-9.758381925895065e-05,0.0005040064203254424,-0.008466165646128232
150000000000.0,3,-0.5163593490999999,-0.5736694117,-0.1554354025,0.33308,-0.33941,0.28892,-0.81751176395,-9.506370377,2.265140017,-2.7952,1.3227,-1.7297,-0.000700000000000145,-0.0016000000000000458,-0.00030999999999992145,0.0006324790092917532,0.0002352547270279004,-0.00615756806862322
150000000000.0,3,-0.3549222768,-0.0898485273,-0.32292317784999996,0.27669,-0.44978,0.29542,-0.8358992326999999,-9.4972501925,2.2963251639999998,-2.7925,1.3189,-1.7369,-0.0007999999999999119,-0.0020000000000000018,-0.0005600000000000049,-0.006479324133753739,0.0021349899065565836,-0.004206519964814248
150000000000.0,3,-0.20567487044999996,-0.050062948249999996,-0.5425823312,0.21229,-0.62827,0.29883,-0.85077592075,-9.489502939,2.322999252,-2.7905,1.3158,-1.7449,9.999999999998899e-05,-0.0010999999999998789,-0.0029600000000000737,0.00244880323843244,0.025129476527677275,-0.013970326003683198
150000000000.0,3,0.05470149369999999,-0.18702262215,-0.8802939372499999,0.14813,-0.77268,0.31071,-0.8625929339999999,-9.483030549999999,2.3449661479999997,-2.7891,1.3132,-1.7541,-0.0005999999999999339,-0.0026999999999999247,-0.0005600000000000049,-0.003984030637921521,-0.004121314264002862,-0.0007677052289096764
150000000000.0,3,0.032489431449999995,-0.2850400889,-0.7730680261499999,0.10294,-0.816,0.31605,-0.8734488955499999,-9.4776368925,2.3627161845,-2.7875,1.311,-1.7641,-0.00039999999999995595,-0.0027000000000001467,-0.0006099999999999994,-0.0040418481296153885,-0.000517132972551515,-0.0006490615028695856
150000000000.0,3,-0.45928464609999997,-0.1842669535,-0.35030334465,0.084703,-0.8297,0.31497,-0.8837066514499999,-9.472733567499999,2.378308758,-2.7858,1.3091,-1.7744,-0.0008000000000001339,-0.0028999999999999027,-0.00013999999999991797,-0.0009491755436950022,-0.005848909675067349,-0.0011313982921139498
150000000000.0,3,-1.016165073,0.12479942789999998,-0.13969572925,0.081621,-0.81689,0.31174,-0.8936604011999999,-9.4680263755,2.393410999,-2.7842,1.3072,-1.7846,-0.00029999999999996696,-0.0029000000000001247,-0.0010900000000000354,-0.003658261749267533,0.0022905591992052887,-0.001866445256297311
150000000000.0,3,-1.4740375614999999,0.3380940654,-0.1306834179,0.07351,-0.7678,0.30524,-0.9039769969999999,-9.46341725,2.407532575,-2.7824,1.3055,-1.7946,-0.0012000000000000899,-0.0033999999999998476,0.00043999999999999595,-0.0072941500467154086,-0.014572576081208988,0.003970017787165325
150000000000.0,3,-1.6697782955,0.2516582523,-0.30766403044999996,0.049524,-0.71323,0.28162,-0.9138424869,-9.45949459,2.4194966879999997,-2.7805,1.3039,-1.8041,-0.00019999999999997797,-0.0028000000000001357,-0.0012499999999999734,1.7878818886485348e-05,0.0042189716038743,-0.004347356835500804
150000000000.0,3,-1.638887348,0.11902331105,-0.5006294825,0.037275,-0.65982,0.25588,-0.922413499,-9.4560622625,2.429303338,-2.7787,1.3026,-1.813,-0.0008999999999999009,-0.0031999999999998696,-0.0006300000000000194,-0.0020447369289113837,-0.004042264548772101,-0.001906393466148515
150000000000.0,3,-1.677721682,0.1024598792,-0.60680608205,0.068052,-0.57159,0.21629,-0.92930757395,-9.4525318685,2.440482919,-2.7778,1.3013,-1.8202,-0.0005999999999999339,-0.0034000000000000696,-0.0008500000000000174,-0.0047302595790896795,-0.0013178547217622683,3.758621071447976e-05
150000000000.0,3,-1.8663035614999999,0.18169761119999997,-0.4806141098499999,0.1152,-0.45469,0.14892,-0.9332988805,-9.4484130755,2.4548006279999997,-2.7783,1.2997,-1.8247,-0.0012000000000000899,-0.0040000000000000036,0.0009900000000000464,-0.0036967809875845248,-0.019047327806571923,0.005001679745838317
150000000000.0,3,-1.9637816625,0.3934035714,-0.3474888361,0.16039,-0.33455,0.051649,-0.9315827167499999,-9.4440981495,2.4721583984999995,-2.7812,1.298,-1.8254,-0.0006999999999999229,-0.0038000000000000256,-0.0007600000000000939,-0.0038071511537878244,-0.002826518086741725,0.00023860822072485632
150000000000.0,3,-1.8286460254999999,0.6519755119499999,-0.49356869449999996,0.21487,-0.25072,-0.041269,-0.9230509312499999,-9.439292891,2.493634962,-2.7871,1.2962,-1.8221,-0.000600000000000156,-0.0038000000000000256,-0.00045999999999990493,0.000988099262961617,-0.0049956563113360275,-0.001023836839707748
150000000000.0,3,-1.544351242,0.8490401436999999,-0.51305450805,0.27099,-0.20424,-0.094624,-0.9098806003,-9.433605034,2.5198187174999997,-2.7951,1.2941,-1.816,-9.999999999998899e-05,-0.0034999999999998366,-0.002870000000000039,-0.005155949314281649,0.013820155811010038,-0.004957561717854553
150000000000.0,3,-1.3516505695,0.9018195339999999,-0.32714003734999997,0.31928,-0.18436,-0.12019,-0.8942978334499999,-9.4268384455,2.5506115984999997,-2.8044,1.2916,-1.8083,-0.0008999999999999009,-0.0044000000000001815,0.0013999999999999568,0.005290196309365447,-0.02178972094642928,0.00391158182950857
150000000000.0,3,-1.132668075,0.8378409494,-0.27610623074999996,0.35968,-0.21026,-0.13289,-0.8768616097499999,-9.4189931255,2.5854252059999996,-2.8146,1.2887,-1.7997,-0.0008000000000001339,-0.0040999999999999925,-0.0011299999999999644,-0.005828190366299113,-0.0007124234173989663,-0.0017474489678681593
150000000000.0,3,-0.8307507414499999,0.6331859705499999,-0.36391497485,0.38078,-0.2424,-0.136,-0.85791516195,-9.4103632735,2.6229846754999997,-2.8255,1.2855,-1.7909,-0.0004999999999999449,-0.0041999999999999815,-0.0008599999999999719,-0.002638070824232841,-0.003603608604318076,-0.001797453742804045
150000000000.0,3,-0.6471506401499999,0.3454098263,-0.4830951923,0.36905,-0.24549,-0.14241,-0.8381547622,-9.401635355,2.660348012,-2.8364,1.2824,-1.7821,-0.0006999999999999229,-0.0042999999999999705,-0.0006800000000000139,0.00030162201154682045,-0.005122623579949304,-0.0026105532658826647
150000000000.0,3,-0.62396771955,0.08114022209999999,-0.6823859335999999,0.3106,-0.229,-0.16069,-0.8173450509,-9.3940842345,2.6931022229999995,-2.8469,1.2797,-1.7735,-0.000700000000000145,-0.0043999999999999595,-0.0009400000000000519,-0.002410201337207596,-0.003490218107725429,-0.0036267127532401133
150000000000.0,3,-0.7313407304,-0.06501808949999999,-0.9406342547,0.24047,-0.21347,-0.19393,-0.79407387045,-9.3885925105,2.7190898455,-2.8575,1.2778,-1.7648,-0.0007999999999999119,-0.0045999999999999375,-0.0009899999999999354,-0.003931951503328035,-0.001992710924855201,-0.0037228556901114374
150000000000.0,3,-0.8789406195499999,-0.154356671,-1.2418160894999999,0.20666,-0.19717,-0.23564,-0.7673703624999999,-9.384571784,2.7406644754999996,-2.8686,1.2763,-1.7553,-0.0006999999999999229,-0.0048000000000001375,-0.0009000000000000119,-0.003383542416122376,-0.002546820195061583,-0.004060664304380346
150000000000.0,3,-1.0844193569999998,-0.29071813925,-1.2410315575,0.20593,-0.18007,-0.27624,-0.737263947,-9.3809433235,2.7612584405,-2.8807,1.2751,-1.7446,-0.000500000000000167,-0.004899999999999904,-0.00031999999999998696,0.004749149049586121,-0.00625149081525489,-0.0047656980496713075
150000000000.0,3,-1.2157304004999998,-0.38106680569999996,-1.1079553169999998,0.17978,-0.14358,-0.32225,-0.7038232704999999,-9.3780013285,2.779989142,-2.8936,1.274,-1.7326,-0.0004999999999999449,-0.0050000000000001155,-0.0018099999999999783,-0.005197370839443716,0.005851786487648392,-0.006038070052853506
150000000000.0,3,-1.119527164,-0.26837859054999996,-0.8931308420999999,0.13187,-0.14848,-0.35114,-0.6674209856999999,-9.376334197999999,2.7944049174999996,-2.9071,1.2735,-1.72,-0.0008999999999999009,-0.005499999999999838,-0.0005900000000000905,-0.004841339162750646,-0.00426520342626957,-0.002558495909717351
150000000000.0,3,-0.9871373889999999,-0.02017227905,-0.8144324758499999,0.1025,-0.21219,-0.3404,-0.6296653832,-9.375549666,2.8057806315,-2.9208,1.2732,-1.7077,-0.0014000000000000679,-0.005700000000000038,-0.00012000000000000899,-0.006532904438242948,-0.005980864722983759,-0.0016636002345702394
150000000000.0,3,-1.043819826,0.27861673314999996,-0.7218576998499999,0.10799,-0.30391,-0.30394,-0.5923412733,-9.3744709345,2.8175486115,-2.9344,1.2728,-1.6965,-0.0007999999999999119,-0.005800000000000027,-0.00044999999999995044,-0.0035322156671859783,-0.0030137055073107266,-0.0036256227676219055
150000000000.0,3,-1.163657089,0.48008455074999995,-0.5306770581,0.135,-0.36918,-0.26108,-0.5569196535,-9.372411538,2.8314740544999997,-2.9474,1.2721,-1.6866,-0.001000000000000112,-0.006000000000000005,-0.00032999999999994145,-0.0026401438671297406,-0.003722752871039292,-0.0005686060781391333
150000000000.0,3,-1.177582532,0.42529479719999996,-0.45163545909999997,0.17083,-0.40573,-0.23107,-0.5233024572999999,-9.369175343499998,2.8488318249999995,-2.9599,1.271,-1.6776,-0.0006999999999999229,-0.006000000000000005,-0.00044000000000010697,-0.00018117962096808604,-0.0014682916324733064,-0.004777158667395476
150000000000.0,3,-1.1572827665,0.13918578345,-0.50740587765,0.19491,-0.44965,-0.2096,-0.4906463128,-9.364762351,2.868837391,-2.9722,1.2695,-1.6694,-0.0006999999999999229,-0.006299999999999972,-0.00039000000000000146,-0.00017899208535165911,-0.0019976898592990455,-0.006312148946099327
150000000000.0,3,-1.478254421,-0.48942048154999995,-0.8212480976,0.20308,-0.48383,-0.19138,-0.45850011409999997,-9.359859025999999,2.8901178215,-2.9843,1.2678,-1.6618,-0.000300000000000189,-0.006399999999999961,-0.00032999999999994145,0.001298627508534711,-0.0015846560101142604,-0.007718286356276138
150000000000.0,3,-1.5099299005,-0.49432380654999997,-0.8419107091499999,0.19118,-0.49866,-0.1807,-0.42686386119999997,-9.354955701,2.9108098529999995,-2.996,1.2661,-1.6547,-9.999999999998899e-05,-0.006400000000000183,7.999999999996898e-05,0.010663301473023523,-0.0007996718149603232,-0.007910527191212324
150000000000.0,3,-1.7688254605,-0.6103658959999999,-0.9159214966999999,0.17088,-0.4985,-0.17647,-0.39564929424999995,-9.350542708499999,2.9293444214999997,-3.0073,1.2646,-1.648,-0.00029999999999996696,-0.007099999999999884,-0.00015999999999993797,0.00023100561291844457,-0.0013556290116354397,-0.006106903273026099
150000000000.0,3,-1.971921182,-0.6262036357499999,-0.9628365103,0.15808,-0.49839,-0.17542,-0.3645327937999999,-9.346521982,2.946113793,-3.0185,1.2633,-1.6415,-9.999999999998899e-05,-0.007200000000000095,-0.0002300000000000635,0.005150048446701083,0.00028232063384781014,-0.005117412529515697
150000000000.0,3,-2.0857763885,-0.56177394525,-0.9089783884999999,0.1654,-0.50592,-0.1689,-0.36653335039999996,-9.3460316495,2.9474867239999996,-3.0179,1.2631,-1.6464,5.0000000000105516e-05,-0.007399999999999851,0.00012000000000000899,0.0034528115372292056,0.002635653424951423,-0.005270926381899521
150000000000.0,3,-2.112156277,-0.55224188145,-0.7726659534999999,0.18125,-0.51779,-0.15711,-0.33622099525,-9.341324457499999,2.9659232259999997,-3.0287,1.2615,-1.6404,4.999999999988347e-05,-0.007900000000000018,0.00034000000000000696,0.00542876029933459,-0.0006930151663424589,-0.004606864449040238
150000000000.0,3,-2.0353702075,-0.6404821181499999,-0.6135334439499999,0.18304,-0.54234,-0.12825,-0.30750712405,-9.336323066,2.9848500604999995,-3.0389,1.2598,-1.6353,0.00029999999999996696,-0.008000000000000007,0.0005600000000000049,0.0047607124824244895,0.0032053692988620597,-0.002750447437844805
150000000000.0,3,-1.919161405,-0.8005658727499999,-0.5869770357499999,0.1463,-0.56766,-0.075963,-0.28214712715,-9.331812007,3.0012271659999996,-3.0479,1.2583,-1.6318,0.000400000000000178,-0.008299999999999974,0.0008599999999999719,0.007293802299784602,0.0014178929612687075,-0.0027208355400922812
150000000000.0,3,-1.8720894849999998,-0.91983435005,-0.63475503455,0.06682,-0.59052,-0.011972,-0.2781950472,-9.331125541499999,3.0039730279999994,-3.0492,1.2581,-1.6359,0.0005999999999999339,-0.008399999999999963,0.0011800000000000699,0.007855676533645717,0.0020582118239163005,-0.000537860294250514
150000000000.0,3,-2.142556892,-0.8682807909999999,-0.62465418505,-0.049889,-0.61092,0.03803,-0.26253382714999995,-9.331615873999999,3.003776895,-3.0544,1.2583,-1.6369,0.0008999999999999009,-0.008200000000000207,0.0016899999999999693,0.009013075345282173,0.004253435007331774,-0.001442143584576172
150000000000.0,3,-2.492065898,-0.70922673465,-0.7722540741999999,-0.16749,-0.62171,0.067732,-0.2496380824,-9.335636600499999,2.9923031145,-3.0584,1.2596,-1.6393,0.0008000000000001339,-0.008199999999999985,0.0017800000000000038,0.010530335661830037,0.004404875532943775,0.00040639492299199276
150000000000.0,3,-2.6990842794999996,-0.5203506556499999,-0.9136267405999999,-0.26035,-0.60818,0.096367,-0.23964510605,-9.342599322,2.9714149499999998,-3.0611,1.2619,-1.6428,0.0010999999999998789,-0.008000000000000007,0.0019200000000000328,0.0145496881620919,0.004128095462149428,-0.0018187576125265892
150000000000.0,3,-2.9402298029999994,-0.41240885909999997,-0.80803854005,-0.31779,-0.5598,0.13888,-0.23450642145,-9.3513272405,2.9442505294999997,-3.0621,1.2649,-1.6478,0.001100000000000101,-0.008000000000000007,0.0020799999999999708,0.0121861765051261,0.004606598209217605,-0.0011488525159633056
150000000000.0,3,-3.2025576905,-0.51407439965,-0.58650631655,-0.35905,-0.48705,0.18564,-0.23595780564999996,-9.3611338905,2.912771183,-3.0608,1.2682,-1.6545,0.0012999999999998568,-0.007699999999999818,0.0022299999999999542,0.014830448040101363,0.005863023427319147,-0.0022810644315347517
150000000000.0,3,-3.468023706,-0.8668097934999999,-0.2884724164,-0.40014,-0.39299,0.23131,-0.24458765765,-9.371823138999998,2.8773691765,-3.0568,1.2719,-1.6631,0.0023000000000001908,-0.007400000000000073,0.002589999999999981,0.0397846390801424,0.003820545946229048,-0.007768688249059075
150000000000.0,3,-3.5781523855,-1.303696051,-0.11070727185,-0.46784,-0.30508,0.25665,-0.2589740132,-9.3840814515,2.83608318,-3.0505,1.2762,-1.673,0.0007999999999999119,-0.00770000000000004,0.0018600000000000838,-0.0021269151784810703,0.005899036727347706,0.006623295314330591
150000000000.0,3,-3.6202229139999997,-1.92406473,-0.05832014755,-0.58676,-0.23057,0.25952,-0.2763710103,-9.398889493,2.784696334,-3.0427,1.2814,-1.6838,0.0024999999999999467,-0.006999999999999895,0.0023699999999999832,0.04253258800685811,0.00347813573222866,-0.00740957262975428
150000000000.0,3,-3.4235995814999995,-2.3134868015,0.2833141185,-0.72886,-0.11859,0.26548,-0.2968669088,-9.4172279285,2.7198743774999996,-3.0329,1.288,-1.6956,0.0016000000000000458,-0.007100000000000106,0.0019500000000000073,0.01785549779257689,0.006010935444288101,-0.003072038580277159
150000000000.0,3,-2.8684451249999996,-2.40262925,0.8375957831499999,-0.85701,0.026282,0.30556,-0.32419804234999994,-9.438508359,2.6419115099999995,-3.0195,1.2959,-1.7096,0.0013000000000000789,-0.007199999999999873,0.0020000000000000018,0.018878815531210513,0.0049720217353188545,-0.0025852714987140146
150000000000.0,3,-2.1184325329999996,-2.5860136049999998,1.239756693,-0.96864,0.11771,0.37245,-0.36030612765000003,-9.4617501195,2.552474862,-3.0014,1.3048,-1.7274,0.0011999999999998678,-0.00670000000000015,0.0017500000000000293,0.015300492527494436,0.008991909728116143,-0.004358725375399608
150000000000.0,3,-1.241718023,-2.7970527129999994,1.2415218899999998,-1.0821,0.12389,0.44803,-0.4042497263,-9.486560943999999,2.452054766,-2.9782,1.3146,-1.7501,0.0009000000000001229,-0.006999999999999895,0.0017199999999999438,0.016613370021276053,0.00630697738088748,-0.002170752380184382
150000000000.0,3,-0.66766615195,-2.5639486425,1.068140318,-1.1968,0.092804,0.51086,-0.45387137529999994,-9.5123524335,2.3407492885,-2.9501,1.3252,-1.7781,0.0006999999999999229,-0.007000000000000117,0.0018000000000000238,0.011014448255259213,0.00823979307940359,-0.0008768846811531006
150000000000.0,3,-0.37939967519999995,-2.1232377915,1.0867729529999999,-1.357,0.089835,0.53514,-0.506611539,-9.539712987,2.215322235,-2.9168,1.3369,-1.8115,0.00039999999999995595,-0.007099999999999884,0.0020700000000000163,0.006178459543523918,0.007394064439615322,0.0022677084183042595
150000000000.0,3,-0.042413761249999994,-1.506105307,1.1670894165,-1.586,0.13009,0.52613,-0.55973416205,-9.5696232695,2.068810884,-2.8774,1.3505,-1.8507,0.00019999999999997797,-0.007300000000000084,0.0018599999999999728,0.009589866998712226,0.007169004296655901,0.0035693751212635405
150000000000.0,3,0.5339917058,-0.8057339773,0.8148345484999999,-1.7958,0.17552,0.52142,-0.6131509846,-9.601298749,1.9000384375,-2.8294,1.3658,-1.898,0.000500000000000167,-0.007399999999999851,0.0020700000000000163,0.009871291931726534,0.004985812273212709,0.0052642757773542215
150000000000.0,3,0.9333577203999999,-0.2586602004,0.34367404925,-1.9024,0.18279,0.51375,-0.6661068945999999,-9.63209163,1.7174386145,-2.7716,1.3818,-1.9551,0.00029999999999996696,-0.007600000000000051,0.0019399999999999418,0.008810729072135981,0.005804185800155182,0.009662951460363445
150000000000.0,3,1.12188076,0.25071681389999995,0.5614699391,-1.9074,0.1029,0.5331,-0.7190628045999999,-9.6594521835,1.5322890624999999,-2.7028,1.3973,-2.0238,0.0005999999999999339,-0.00770000000000004,0.0022199999999999998,0.009957303542472706,0.003383865943551223,0.00894580419732982
150000000000.0,3,1.2659404485,0.64042327825,0.9402419887,-1.8605,-0.008362,0.58034,-0.77426443745,-9.682301678,1.3506699045,-2.6211,1.4114,-2.1064,0.0006999999999999229,-0.00770000000000004,0.0021700000000000053,0.011795790326403433,0.0033128533244812797,0.009741566839252869
150000000000.0,3,1.308010977,0.74992433215,0.80007554025,-1.7614,-0.097711,0.66499,-0.83559522655,-9.699757515,1.1776805985,-2.5245,1.423,-2.2049,0.0008000000000001339,-0.007800000000000029,0.0020600000000000618,0.013557534024203122,0.002000904859591701,0.009336923696993349
150000000000.0,3,1.3192886245,0.47775056805,0.36161041209999994,-1.5919,-0.074681,0.7453,-0.9052126348999999,-9.711427428499999,1.0192051345,-2.4154,1.4313,-2.3161,0.0009999999999998899,-0.00749999999999984,0.0020000000000000018,0.012731393633405919,0.0012349042092101303,0.010880828591186997
150000000000.0,3,1.2002358935,-0.07375581465,0.33404391895,-1.342,-0.020305,0.7862,-0.9807630665,-9.717507551499999,0.88266714655,-2.3036,1.4358,-2.4293,0.0008000000000001339,-0.007600000000000051,0.0019099999999999673,0.013403999936816291,0.0007548750305221841,0.010098317671681123
150000000000.0,3,0.9089587752,-0.6246639917,0.56938390565,-1.0786,0.076667,0.74699,-1.05519554,-9.719174681999998,0.7710674695499999,-2.2019,1.4371,-2.5315,0.0008999999999999009,-0.007500000000000062,0.0017099999999999893,0.010551688220201694,7.919024493996396e-05,0.011320751674994245
150000000000.0,3,0.7528172939,-0.9590805633499999,0.7322233289,-0.88343,0.27868,0.66051,-1.1231556245,-9.718488216499999,0.6785613401,-2.1143,1.4366,-2.6176,0.0006999999999999229,-0.007500000000000062,0.0015800000000000258,0.009949383859665373,0.0005605531860972679,0.010544683970132862
150000000000.0,3,0.09480088554999999,-0.5881832536999999,0.5735909585,-0.8031,0.53385,0.57801,-1.1843491204999999,-9.7167230195,0.59358671785,-2.0354,1.4353,-2.6924,0.0008000000000001339,-0.007299999999999862,0.0013499999999999623,0.007993952947714433,0.0006274752471262524,0.01044272830052817
150000000000.0,3,0.1477469889,-0.5898111576,0.66138989595,-0.82429,0.7579,0.48045,-1.2373050305,-9.7151539555,0.50577797375,-1.9589,1.4341,-2.7625,0.0004999999999999449,-0.007400000000000073,0.0011400000000000299,0.008655020638636213,0.0003254471700697703,0.008962119363055798
150000000000.0,3,-0.5735713452,-0.44072065765,0.3097332336,-0.89431,0.89389,0.40323,-1.2821214209999998,-9.713879090999999,0.40987874339999997,-1.8802,1.4331,-2.8332,0.0005999999999999339,-0.007400000000000073,0.0011200000000000099,0.006770106798082098,-0.0013634845157584063,0.009532813593834177
150000000000.0,3,-0.7205534154,-0.3406045678,0.19615261329999997,-0.9744,0.97667,0.33677,-1.3198770234999997,-9.7126042265,0.30453570909999994,-1.7976,1.4322,-2.907,0.000700000000000145,-0.007299999999999862,0.0008799999999999919,0.008136745206974272,-0.0008611635268200857,0.010324145426450215
150000000000.0,3,-0.7355772032,-0.1737346114,0.23490849409999998,-1.0375,1.0444,0.25542,-1.3494931065,-9.711525494999998,0.19125909494999999,-1.7116,1.4314,-2.9834,0.0005999999999999339,-0.007300000000000084,0.0008299999999999974,0.009089763339916512,-0.0018403065754406533,0.008768949463581865
150000000000.0,3,-0.35311785319999994,-0.06289004645,0.36028651435,-1.0452,1.0829,0.16034,-1.3686160739999997,-9.710348696999999,0.0748639661,-1.6254,1.4306,-3.0595,0.0004999999999999449,-0.007400000000000073,0.0008599999999999719,0.0038156232119934685,0.00033135582551602205,0.011105110451448574
150000000000.0,3,0.22551372339999998,0.13267416785,0.6972430083499999,-1.0169,1.1169,0.099486,-1.3796975885,-9.7090738325,-0.040040551949999996,-1.5418,1.4296,-3.1328,0.000500000000000167,-0.007199999999999873,0.0005800000000000249,0.006521013115250662,-0.0016873803277848154,0.00911436556455758
150000000000.0,3,0.6455325429,0.4419268756,1.1807206599999998,-0.95684,1.1303,0.056871,-1.385091246,-9.707210568999999,-0.1501594248,-1.4628,1.4283,3.082,0.0004999999999999449,-0.007200000000000095,0.00039999999999995595,0.00449893866084472,-0.001386700895442683,0.009203403234949725
150000000000.0,3,0.96633748435,0.8519527187499999,1.3802859874999998,-0.87992,1.1307,0.036723,-1.38666031,-9.704856973,-0.25339402935,-1.3901,1.4266,3.02,0.00029999999999996696,-0.007399999999999851,0.0003500000000000725,0.005270538712561557,-0.0019914960916043167,0.006935937245125423
150000000000.0,3,1.1535562394999999,1.3520428354999998,1.3697928719999999,-0.80115,1.0992,0.023038,-1.3859738445,-9.7020130445,-0.34833220800000003,-1.3246,1.4246,2.965,9.999999999998899e-05,-0.007200000000000095,-3.0000000000085514e-05,0.003733564431248393,-0.0013744411311416016,0.006083484255122507
150000000000.0,3,1.1282550825,1.6507533945,1.1914099084999998,-0.72259,1.0421,0.010466,-1.383129916,-9.6988749165,-0.43483666764999995,-1.2662,1.4224,2.9167,0.00019999999999997797,-0.007199999999999873,-0.00020999999999993246,0.005510433771904744,-0.0016672777316597553,0.004275521011041672
150000000000.0,3,1.0996196644999998,1.6821346744999999,0.9692990926499999,-0.65026,1.0053,-0.004287,-1.378226591,-9.6957367885,-0.51379981345,-1.214,1.4202,2.8741,-9.999999999998899e-05,-0.007300000000000084,-0.00048000000000003595,3.707536129216038e-06,-0.00227342150383536,0.005272593767444267
150000000000.0,3,0.89547463145,1.5404285819999999,0.9173728809,-0.57329,1.0142,-0.019113,-1.3710677365,-9.692696727,-0.5850255124,-1.1675,1.4182,2.8373,-0.00019999999999997797,-0.007300000000000084,-0.0008899999999999464,0.00014771233912425075,-0.0016824204056644643,0.003072055376893701
150000000000.0,3,0.5584494909,1.36116302,0.9835089284999999,-0.5209,1.0245,-0.025445,-1.3624378844999998,-9.689754731999999,-0.65060258095,-1.1253,1.4162,2.8049,-0.00029999999999996696,-0.007399999999999851,-0.0010000000000000009,-0.0019089686415556528,-0.0018743625947299503,0.0036158403690733643
150000000000.0,3,0.37348626525,1.1180561665,0.97794855795,-0.49188,1.0402,-0.042501,-1.3516505695,-9.686812736999999,-0.712943455,-1.0854,1.4143,2.7751,-0.0004999999999999449,-0.007500000000000062,-0.0012600000000000389,-0.0009911533693047758,-0.0015304576779497925,0.0022788698979789856
150000000000.0,3,0.3651800327,1.0097907505,0.6568886436,-0.45774,1.0272,-0.062699,-1.338411592,-9.684164941499999,-0.77210697445,-1.0476,1.4126,2.7472,-0.000400000000000178,-0.007500000000000062,-0.0014999999999999458,-0.0011856398027507709,-0.00196302801165249,0.002840120952741998
150000000000.0,3,0.5651376262,0.9866470565,0.47588730455,-0.41753,0.97145,-0.086014,-1.3227209519999998,-9.6818113455,-0.8266417550999999,-1.0122,1.4111,2.7215,-0.0005999999999999339,-0.007800000000000029,-0.0015900000000000913,-0.002886536228993153,-0.0012108763641052178,0.001703516219503598
150000000000.0,3,0.78748380165,1.0904014135,0.32726752379999996,-0.3756,0.86244,-0.1103,-1.3050689819999999,-9.6798500155,-0.8758319115,-0.97973,1.4098,2.6976,-0.0004999999999999449,-0.007900000000000018,-0.0016999999999999238,-0.005623697685130491,-0.002141391178817953,0.0028973356137935724
150000000000.0,3,0.8221699226999999,1.3517486359999997,0.10765740369999999,-0.32525,0.73845,-0.13561,-1.2855537485000001,-9.678477084499999,-0.91869677865,-0.95034,1.409,2.6756,-0.000600000000000156,-0.008099999999999996,-0.0018099999999999783,-0.002992555124697871,-0.0014476631293749431,0.0011379549530152744
150000000000.0,3,0.83161372665,1.7972647454999997,-0.06069335685,-0.25257,0.6185,-0.14061,-1.2660385149999998,-9.677790619,-0.9532456065999999,-0.92541,1.4085,2.6569,-0.0005999999999999339,-0.008299999999999974,-0.0019200000000000328,-0.0018118414445871256,-0.00211340672042315,0.002476675815543672
150000000000.0,3,0.9752321159,2.1458911529999996,-0.0030596748,-0.1691,0.51871,-0.13602,-1.24740588,-9.677594486,-0.97855657025,-0.9056,1.4084,2.6423,-0.0007999999999999119,-0.008599999999999941,-0.0019400000000000528,-0.0038040480088568085,-0.0001900539849555294,0.0024071915040968506
150000000000.0,3,1.1118779769999998,2.3889980064999996,0.10570588035,-0.071588,0.43373,-0.14211,-1.229361644,-9.678477084499999,-0.9935117115,-0.89111,1.4089,2.6323,-0.000700000000000145,-0.008799999999999919,-0.0020700000000000163,-0.00440794674895284,-0.0021296257112748407,0.004664213172490328
150000000000.0,3,1.1701294779999998,2.7215415079999996,0.11676778154999999,0.032479,0.3615,-0.15888,-1.2105328759999998,-9.6804384145,-0.997532438,-0.88157,1.4102,2.6264,-0.0006999999999999229,-0.009100000000000108,-0.0020099999999999563,-0.0025410088676027787,-0.0011335189088377273,0.004016809198086779
150000000000.0,3,1.0684345175,2.8497144235,0.04833697785,0.13448,0.31057,-0.15434,-1.192292507,-9.6833804095,-0.9907658494999999,-0.87745,1.4121,2.6255,-0.0009999999999998899,-0.009300000000000086,-0.0022900000000000142,-0.003308303640229493,-0.0009053112331081081,0.0038753498827550636
150000000000.0,3,0.6964388630499999,2.7057528014999996,-0.03078307435,0.21944,0.27681,-0.13065,-1.1763076675,-9.686910803499998,-0.97478101,-0.87882,1.4144,2.6298,-0.0008000000000001339,-0.009599999999999831,-0.0021299999999999653,-0.002935507530525072,0.001184635016345803,0.0054049706118650676
150000000000.0,3,0.1119527164,2.4462688425,-0.03437230825,0.28308,0.23047,-0.12939,-1.1616957589999999,-9.6910295965,-0.9515980893999999,-0.88448,1.4171,2.6379,-0.0009999999999998899,-0.009800000000000031,-0.0019299999999999873,-0.0012293922215516062,0.001572508744745349,0.005320089075203871
150000000000.0,3,-0.36904385279999996,2.1960031344999997,-0.16582064485,0.32978,0.19599,-0.13565,-1.146789651,-9.6955406555,-0.9229332514499999,-0.89313,1.4201,2.6488,-0.001000000000000112,-0.010000000000000009,-0.0017300000000000093,-0.0014347496737878718,0.002345029792460762,0.006167088852707003
150000000000.0,3,-0.70775573715,1.9029804325,-0.5053759011,0.3542,0.17555,-0.14305,-1.1314912769999999,-9.700345914,-0.8908949258999999,-0.90379,1.4234,2.6613,-0.0009999999999998899,-0.010099999999999998,-0.0015399999999999858,0.0009484388319422887,0.00327057030429434,0.008287527053740362
150000000000.0,3,-1.0311692474999998,1.5232669444999998,-0.8713012391999999,0.35531,0.17874,-0.14732,-1.1157025704999999,-9.705151172499999,-0.8582191680999999,-0.91509,1.4268,2.6745,-0.0009000000000001229,-0.010399999999999965,-0.0012100000000000444,-0.0012045187235789623,0.004845741760535871,0.0093890261514753
150000000000.0,3,-1.1845452534999998,1.1729734065,-1.1788573965,0.3578,0.22348,-0.1474,-1.0996196644999998,-9.709760297999999,-0.8258866430499999,-0.92659,1.4301,2.6883,-0.0009999999999998899,-0.010700000000000154,-0.0006099999999999994,0.001102443785025553,0.0030838178587024867,0.009225853520134386
150000000000.0,3,-1.339980656,0.9941981769999999,-1.2982043269999999,0.37768,0.30856,-0.14644,-1.0831444925,-9.714369423499999,-0.7927107461,-0.93898,1.4335,2.7037,-0.000700000000000145,-0.01089999999999991,-0.0006699999999999484,0.004826708193937268,0.005171181589402218,0.010573667706931023
150000000000.0,3,-1.492375997,1.0198915999999998,-1.3784227239999998,0.4007,0.38935,-0.14014,-1.0664731875,-9.718978549,-0.7581521115,-0.95278,1.437,2.7213,-0.0008999999999999009,-0.011200000000000099,-0.0006200000000000649,0.004171501076700723,0.005094868729680346,0.009572661747683675
150000000000.0,3,-1.6825269404999998,1.075004973,-1.6451636039999997,0.39015,0.42244,-0.1114,-1.0515670795,-9.723195408499999,-0.7241622626,-0.9677,1.4402,2.7406,-0.001000000000000112,-0.01179999999999981,-0.00026999999999999247,0.001327387683129011,0.004609976099844593,0.012613471916485874
150000000000.0,3,-2.036645072,1.00616229,-2.011932314,0.34275,0.41529,-0.031413,-1.043231427,-9.726235469999999,-0.6939675872499999,-0.98379,1.4427,2.761,-0.0012999999999998568,-0.0121,-0.00039999999999995595,0.005829076975155889,0.0038727536228353454,0.012387553503507842
150000000000.0,3,-2.3531056675,0.7528172939,-2.2915199055,0.29323,0.43262,0.084818,-1.0456830895,-9.727804533999999,-0.66860759035,-1.0019,1.4439,2.7836,-0.0015000000000000568,-0.012700000000000156,-9.00000000000345e-05,0.001779537384334784,0.0051843042626911195,0.013840988982321
150000000000.0,3,-2.5363919559999997,0.1412942132,-2.2542546354999997,0.24219,0.52244,0.19558,-1.058922067,-9.7277064675,-0.649004097,-1.021,1.4438,2.8078,-0.0018000000000000238,-0.013199999999999878,0.00029999999999996696,-0.000679652427721722,0.003333537176295698,0.015283807023442009
150000000000.0,3,-2.6046462399999997,-0.7706457835999999,-2.0541009089999998,0.18632,0.66666,0.28916,-1.0807908965,-9.7261374035,-0.636059319,-1.0389,1.4426,2.8322,-0.0020000000000000018,-0.013600000000000056,0.000300000000000078,-0.0017989034345500254,0.002601879966193099,0.010199814578240485
150000000000.0,3,-2.5888575334999997,-1.7498005595,-1.896802243,0.12392,0.79601,0.38596,-1.1111915115,-9.723097341999999,-0.63075392135,-1.0545,1.4401,2.8557,-0.0019000000000000128,-0.013900000000000023,0.0007300000000000084,-0.007253113937989442,0.00030321509026265403,0.010094683395870607
150000000000.0,3,-2.814116284,-2.5898381985,-1.7417591064999998,0.040948,0.88291,0.47639,-1.149927779,-9.7182920835,-0.6343529618999999,-1.0667,1.4365,2.8767,-0.0018000000000000238,-0.013900000000000023,0.0008099999999999774,-0.006383893403744789,-0.0034669533505446992,0.006908168694628181
150000000000.0,3,-3.2446282189999995,-2.984359728,-1.6907645265,-0.059144,0.94654,0.53801,-1.1949403024999998,-9.711917760999999,-0.6485529911,-1.0735,1.4317,2.893,-0.0014999999999998348,-0.013399999999999856,0.0009399999999999409,-0.007402669829698949,-0.0062671287482043425,0.0040955565444087405
150000000000.0,3,-3.3622099524999998,-2.695651952,-1.880523204,-0.17601,1.0221,0.56009,-1.242110289,-9.7041705075,-0.67527611235,-1.0729,1.4261,2.9025,-0.0013000000000000789,-0.012900000000000134,0.0013900000000000023,-0.004863731584028086,-0.010787207465972282,0.0063920424588439495
150000000000.0,3,-3.0737963759999998,-1.96917532,-2.4082190405,-0.25754,1.091,0.54382,-1.2882015439999999,-9.6955406555,-0.7120412432000001,-1.0658,1.4201,2.9062,-0.0015000000000000568,-0.01200000000000001,0.0018799999999999928,-0.00177919418775363,-0.011544989803434547,0.006953201968146416
150000000000.0,3,-2.6551504875,-1.2162207329999999,-2.9547436449999998,-0.27376,1.1796,0.51482,-1.3305662719999998,-9.6867146705,-0.7538273788500001,-1.0553,1.4142,2.9073,-0.0018000000000000238,-0.011299999999999866,0.0025000000000000577,0.003115411524140743,-0.008441319971536965,0.006629670455887915
150000000000.0,3,-2.2722988715,-0.7278103364,-3.3829019839999996,-0.18751,1.2769,0.49238,-1.3691064065,-9.6782809515,-0.791592788,-1.0466,1.4088,2.9112,-0.0018000000000000238,-0.010099999999999998,0.0024999999999999467,0.00440406885676925,-0.0032059742343513165,0.008412442376886098
150000000000.0,3,-2.0312514145,-0.741971139,-3.7213294754999997,-0.001284,1.3415,0.47978,-1.4051948785,-9.671122097,-0.8152464277999999,-1.0451,1.4044,2.9231,-0.0016999999999998128,-0.009300000000000086,0.0023400000000000087,0.011337003821517255,-0.000374662137878623,0.005374854868203105
150000000000.0,3,-1.983493029,-1.1380617325,-3.845383598,0.2621,1.2861,0.42163,-1.437066491,-9.6665129715,-0.8150895213999999,-1.0549,1.4015,2.9463,-0.0020999999999999908,-0.009200000000000097,0.0020000000000000018,0.005620392076809422,0.005112339511046837,-0.0007067326248888506
150000000000.0,3,-1.968390788,-1.578674517,-3.5107806999999998,0.49356,1.069,0.30073,-1.4608966504999998,-9.665041974,-0.78889595925,-1.0757,1.4007,2.9789,-0.0025000000000001688,-0.009199999999999875,0.0013699999999999823,0.0028568309692267313,0.005229183137327231,-0.001188462920456601
150000000000.0,3,-1.4675651725,-1.7517618895,-2.3907632034999997,0.63232,0.78791,0.052757,-1.4659961085,-9.667983969,-0.74276547765,-1.1018,1.4024,3.0142,-0.0022999999999999687,-0.009400000000000075,0.0008100000000000884,-0.0026101865324918982,0.004058001752059948,0.0010693058917987663
150000000000.0,3,-0.39787540379999997,-1.3566519609999999,-0.6418942757499999,0.65351,0.576,-0.25745,-1.444323412,-9.67524089,-0.68869160955,-1.1259,1.4069,3.0449,-0.0025999999999999357,-0.009500000000000064,0.00044999999999995044,-0.01014339541256759,0.002478373113487198,0.0017800157266849581
150000000000.0,3,1.4503054684999999,-1.2294597105,1.1721888745,0.63195,0.48593,-0.57221,-1.393132699,-9.6865185375,-0.63377436955,-1.1438,1.4141,3.0682,-0.0025999999999999357,-0.009499999999999842,0.00021000000000004349,-0.01508499860503898,0.00047781393982027076,0.0009014940868978805
150000000000.0,3,3.1162591705,-1.5024768465,3.0599689994999997,0.52892,0.62349,-0.8715,-1.3121297699999999,-9.700738179999998,-0.5868985825499999,-1.1502,1.4237,3.0804,-0.0028000000000001357,-0.009700000000000042,1.999999999990898e-05,-0.019008836630273418,0.00015359704195661017,0.00015186737380723514
150000000000.0,3,4.9672643579999995,-2.7997005085,4.100552631,0.2565,0.90504,-0.99309,-1.2120038735,-9.715055888999999,-0.5649512998499999,-1.1346,1.434,3.0731,-0.0026999999999999247,-0.009400000000000075,0.00010000000000010001,-0.020770977353388176,-3.1843100472883634e-05,0.0003268066507922107
150000000000.0,3,6.716182319,-5.241066026,3.5868803039999997,-0.093414,1.0239,-0.81138,-1.1209000949999999,-9.725254805,-0.5769154128499999,-1.0955,1.4419,3.0438,-0.0025999999999999357,-0.008999999999999897,-2.0000000000020002e-05,-0.019963043176934647,0.0012471388675738826,0.0005691145709474377
150000000000.0,3,6.1692654485,-6.734814954,2.4599000859999998,-0.41008,0.82778,-0.3131,-1.072062978,-9.7280987335,-0.6201137060999999,-1.0464,1.4442,3.0034,-0.0023000000000001908,-0.008539999999999992,-2.0000000000020002e-05,-0.015432421916933281,0.0019246214228021419,0.0016922426143461955
150000000000.0,3,3.3611312209999995,-5.169477481,1.8953312454999998,-0.52775,0.42438,0.17307,-1.074416574,-9.724176073499999,-0.6752957256500001,-1.0097,1.441,2.9716,-0.0020999999999999908,-0.008110000000000062,-4.0000000000040004e-05,-0.012099152932431023,0.002928326713935281,0.00031222460590463186
150000000000.0,3,-0.2178449231,1.81815291,1.7276375304999998,-0.43007,0.14196,0.45767,-1.1121721764999999,-9.716526886499999,-0.7232600507999999,-0.99418,1.4351,2.958,-0.0016999999999998128,-0.007800000000000029,-0.00010999999999994348,-0.007450950137887435,0.0034083605565693453,-0.002206312399162691
150000000000.0,3,-0.16925297235,1.811092122,1.7463682319999998,-0.088726,0.02402,0.49903,-1.160715094,-9.709368031999999,-0.7419515257,-1.002,1.4299,2.9664,-0.0017000000000000348,-0.007549999999999946,-0.00017000000000000348,-0.005747479593596561,0.0015339320477922858,-0.0030015902647275716
150000000000.0,3,0.8643385176999999,4.359252058,2.1216687275,0.40792,0.009408,0.37076,-1.2006281595,-9.7065241035,-0.71513033795,-1.0336,1.4278,2.9984,-0.0009000000000001229,-0.005099999999999993,-0.00389000000000006,-0.003156254217164589,-0.000828006822269467,-0.0016869654802573741
150000000000.0,3,1.8798367384999999,5.6130322605,2.867660593,0.91744,-0.037213,0.17852,-1.222693122,-9.709171899,-0.6376087697,-1.0901,1.4297,3.0553,-0.0008999999999999009,-0.007369999999999988,-0.00021999999999999797,-0.00840766357543421,-0.0005841828373254199,-0.005335581858573413
150000000000.0,3,2.412239767,5.287157280999999,3.418990456,1.3133,-0.12345,0.041668,-1.2301461759999999,-9.715448154999999,-0.51752634045,-1.1726,1.4343,3.1375,-0.0019000000000000128,-0.007380000000000053,-0.00024000000000001798,-0.007218294987132889,-0.0006304630111162446,-0.009181016504415496
150000000000.0,3,2.3446719485,3.8895135229999993,3.4302681034999996,1.5435,-0.1807,-0.010135,-1.2306365084999997,-9.722116676999999,-0.36987741804999996,-1.2788,1.4394,-3.0402,-0.0021999999999999797,-0.007329999999999948,-0.00026999999999999247,-0.008995522113053767,-0.001323563667077421,-0.008501745171938246
150000000000.0,3,1.7811818395,2.1638373225,3.436446293,1.6117,-0.17064,0.023055,-1.2322055725,-9.726627736,-0.21161770035,-1.4007,1.443,-2.9191,-0.0020000000000000018,-0.007010000000000072,-0.0007499999999999174,-0.009279058144905594,0.00011288335251724568,-0.010896817560978711
150000000000.0,3,1.0727494435,0.5202231692,3.2998396585,1.5444,-0.13287,0.10399,-1.240345092,-9.7277064675,-0.05704528305,-1.5248,1.4438,-2.7954,-0.0021999999999999797,-0.007179999999999964,-0.0005399999999999849,-0.007613205194654693,0.00038510466855457004,-0.010263823347965051
150000000000.0,3,0.42249990195000003,-0.5851235788999999,2.8106839564999997,1.3542,-0.11649,0.19863,-1.2575067295,-9.725352871499998,0.08147364819999998,-1.6355,1.4419,-2.685,-0.0020000000000000018,-0.00712999999999997,-0.0008400000000000629,-0.010078720193174018,0.0003576559799989276,-0.009848048737007176
150000000000.0,3,0.08210127379999999,-1.0129288785,2.0592984335,1.1166,-0.16148,0.25594,-1.2811407559999999,-9.7206456795,0.19778051719999998,-1.724,1.4382,-2.5973,-0.0018000000000000238,-0.007160000000000055,-0.001040000000000041,-0.009791653079723073,-0.00036321128799565727,-0.00943577542240881
150000000000.0,3,0.11261956859999998,-0.97149578225,1.1446321879999999,0.91522,-0.27702,0.23872,-1.304676716,-9.715055888999999,0.29442505295,-1.7928,1.434,-2.5303,-0.0019000000000000128,-0.007510000000000017,-0.0008799999999999919,-0.010036320465333981,-0.0013302883120893672,-0.007581018800756567
150000000000.0,3,0.54351396295,-0.5555663357999999,0.50097271525,0.77147,-0.43025,0.15121,-1.3202692894999999,-9.7100544975,0.37769331809999995,-1.8494,1.4303,-2.4771,-0.0016000000000000458,-0.00766,-0.0011799999999999589,-0.011466149919303614,-0.003011889177683802,-0.007558389050833281
150000000000.0,3,1.1790535295,-0.02015266575,0.1369792872,0.69596,-0.59044,0.0585,-1.3258590799999999,-9.706033771,0.4540871216,-1.9008,1.4274,-2.4308,-0.0017000000000000348,-0.008079999999999976,-0.0010000000000000009,-0.012512595093716827,-0.004237372213676371,-0.005074317764390823
150000000000.0,3,1.764020202,0.39181489410000003,-0.13920539675,0.67259,-0.75109,-0.005301,-1.323113218,-9.702601443499999,0.5290099276,-1.9511,1.425,-2.3871,-0.0013999999999998458,-0.00810999999999995,-0.0014199999999999768,-0.012745646397601895,-0.0060277261627195156,-0.004921343431368186
150000000000.0,3,1.9349501115,0.68822089035,-0.2481866982,0.68847,-0.90998,-0.021005,-1.316248563,-9.698972982999999,0.60686492195,-2.0028,1.4225,-2.3436,-0.0015000000000000568,-0.008369999999999989,-0.0012199999999999989,-0.013215940845559437,-0.006666268774780271,-0.0029171449312945796
150000000000.0,3,1.854633648,0.9362212621999999,-0.11660106849999999,0.71189,-1.0296,0.012336,-1.309776174,-9.694363857499999,0.6886621895999999,-2.0549,1.4193,-2.3012,-0.0014000000000000679,-0.008469999999999978,-0.0014300000000000423,-0.012279861798939473,-0.006954042065022037,-0.0031968414744163454
150000000000.0,3,1.531014198,1.002631896,0.05757484215,0.72537,-1.051,0.056161,-1.3065399795,-9.6884798675,0.7724698205,-2.1047,1.4154,-2.2613,-0.0013000000000000789,-0.008480000000000043,-0.0015699999999999603,-0.012722068251417973,-0.007321772786510916,-0.0033669126540241123
150000000000.0,3,0.9162745361,1.072259111,0.24064538434999996,0.73932,-1.0256,0.081758,-1.305657381,-9.681517146,0.8571012100000001,-2.1517,1.4109,-2.2242,-0.0011999999999998678,-0.008489999999999998,-0.0018799999999999928,-0.012906595632289353,-0.007041587015690354,-0.004519771317043286
150000000000.0,3,0.1596130354,1.2212221245,0.38219457045,0.7726,-0.99922,0.082837,-1.3047747825,-9.673475692999999,0.94419406865,-2.1972,1.4058,-2.1883,-0.0012000000000000899,-0.008610000000000007,-0.0018500000000000183,-0.01299643924342031,-0.0068483422115950265,-0.003052566316258165
150000000000.0,3,-0.5497509923499999,1.3742058645,0.40420069304999995,0.84037,-0.96137,0.031652,-1.2997733909999998,-9.6647477745,1.0363667719999998,-2.2439,1.4005,-2.1508,-0.0012999999999998568,-0.00880000000000003,-0.0018799999999999928,-0.012272652057991218,-0.007211428790494301,-0.003329436562443
150000000000.0,3,-0.9991995684999999,1.3895042385,0.34051630794999993,0.93539,-0.8917,-0.083586,-1.2850634159999998,-9.655529523499998,1.1361004024999999,-2.2948,1.395,-2.1085,-0.0013000000000000789,-0.009009999999999962,-0.0020799999999999708,-0.01474664999520825,-0.008693870093315903,-0.0004599581031614619
150000000000.0,3,-1.1830742559999998,1.3227209519999998,0.24714719329999998,1.0436,-0.79226,-0.23621,-1.256427998,-9.64582094,1.2447580844999997,-2.3515,1.3895,-2.0591,-0.0014000000000000679,-0.009199999999999986,-0.002080000000000082,-0.0170132312488096,-0.0072245419735121885,-0.0027443257753914096
150000000000.0,3,-1.1257053535,1.2510343404999997,0.21526577414999998,1.1293,-0.7129,-0.38244,-1.213474871,-9.635622024,1.3608688205,-2.4134,1.3838,-2.0036,0.0009000000000001229,-0.009929999999999994,0.0016900000000000803,0.033252923091468656,-0.027266606431433527,0.008925869545003629
150000000000.0,3,-1.044604358,1.2137690705,-0.0798065177,1.1901,-0.6387,-0.486,-1.1595382959999998,-9.624442443,1.4818828814999998,-2.4776,1.3777,-1.9449,-0.0012000000000000899,-0.009340000000000015,-0.0023700000000000943,-0.01588826085817452,-0.010635412895434238,0.00032114014040285355
150000000000.0,3,-0.9645624807,1.0080255535,-0.30044633605,1.2293,-0.58355,-0.54047,-1.0994235315,-9.6115957315,1.606133137,-2.5414,1.371,-1.8859,-0.0009999999999998899,-0.00934999999999997,-0.0022199999999999998,-0.011739711724667812,-0.010117726110675074,-0.0017702708030400416
150000000000.0,3,-1.0421526955,0.8787935197999999,-0.28210790055,1.2327,-0.57609,-0.57036,-1.0355822399999999,-9.596983823,1.7308737249999997,-2.6024,1.3636,-1.8294,-0.0012000000000000899,-0.00931000000000004,-0.0019599999999999618,-0.009873077410133435,-0.009417448356532576,-0.0027412914069255834
150000000000.0,3,-0.9762127808999999,0.8072540080499999,-0.4484188779,1.2154,-0.6079,-0.58742,-0.9687793402,-9.580900917,1.8539471824999998,-2.6601,1.3558,-1.7766,-0.005400000000000071,-0.010820000000000052,-0.0008500000000000174,-0.05205962032808542,0.005122948017932449,-0.014651980739746051
150000000000.0,3,-0.8954059848999999,0.90061331605,-0.69653692955,1.2046,-0.63231,-0.6002,-0.8994953579499999,-9.56344508,1.9753535094999999,-2.7143,1.3476,-1.7275,-0.0011999999999998678,-0.009149999999999991,-0.0015600000000000058,-0.005645834529359961,-0.004381187302173295,-0.006351549830051262
150000000000.0,3,-0.83869412795,0.9391926771499999,-0.8028900487999999,1.2303,-0.62824,-0.61084,-0.8285638584999999,-9.54383178,2.0975443685,-2.7654,1.3387,-1.6816,-0.0013000000000000789,-0.008959999999999968,-0.0012299999999999534,-0.0037129874820263087,-0.002511315638512368,-0.00815315906323022
150000000000.0,3,-0.8234251738999999,0.9364664284499999,-0.7426379912,1.2851,-0.59244,-0.63429,-0.755700449,-9.5213745515,2.2234617544999997,-2.814,1.329,-1.6378,-0.0010999999999998789,-0.008950000000000014,-0.0016200000000000658,-0.003718766993337397,-0.0013906593350059282,-0.007091230338123644
150000000000.0,3,-0.996159507,0.9226292452999999,-0.6012653248,1.3517,-0.56844,-0.67691,-0.6793262588,-9.495484995499998,2.3545766649999997,-2.8607,1.3182,-1.5955,-0.0009000000000001229,-0.008889999999999953,-0.0016199999999999548,-0.0035611081703381675,-0.001551630028414408,-0.006453064068476344
150000000000.0,3,-1.038916501,0.93807471905,-0.6251445175499999,1.3851,-0.55907,-0.73024,-0.5976662842499999,-9.4666534445,2.4890258364999998,-2.9059,1.3067,-1.5545,-0.0015000000000000568,-0.00884000000000007,-0.0012499999999999734,-0.005014597097989348,0.0035849973460393425,-0.010751089450470985
150000000000.0,3,-0.85718946985,0.8353696735999999,-0.7365970947999999,1.3726,-0.5621,-0.78896,-0.5100438665,-9.4356644305,2.6227885425,-2.9495,1.2948,-1.5151,-0.0008999999999999009,-0.008799999999999919,-0.0014199999999999768,-0.0026123438106444574,0.0010922154184971333,-0.008429370257569957
150000000000.0,3,-0.6897213078,0.6427670676,-0.9239531430499999,1.2809,-0.56877,-0.82113,-0.41804768285,-9.404185084,2.7489020615,-2.9907,1.2833,-1.4782,-0.001000000000000112,-0.008740000000000081,-0.0010100000000000664,-0.0008315383992230085,0.004683887206178516,-0.011333927853976355
150000000000.0,3,-0.5427784642,0.20349779414999997,-1.12384209,1.1002,-0.60247,-0.79363,-0.32586517285,-9.374961267,2.8591288074999994,-3.0281,1.273,-1.4453,-0.0005999999999999339,-0.008709999999999996,-0.0011299999999999644,0.0027681086292699053,0.003969728289632712,-0.011873937056104289
150000000000.0,3,-0.5953323015499999,-0.5167123885,-1.4192183879999998,0.85069,-0.65593,-0.69257,-0.23949800629999998,-9.3503465755,2.946702192,-3.0605,1.2646,-1.4181,-0.00029999999999996696,-0.009000000000000008,-0.0022600000000000398,-0.007886339899502604,-0.00277803717511782,-0.003465342121971915
150000000000.0,3,-0.8738607748499999,-1.1714043425,-1.61025193,0.59432,-0.71688,-0.51572,-0.16582064485,-9.3319100735,3.0096608849999997,-3.0866,1.2584,-1.3981,-0.00029999999999996696,-0.009379999999999944,-0.00024999999999997247,0.0009030445304003543,0.004915867488409553,-0.01277090916819823
150000000000.0,3,-1.4271617744999998,-1.415295728,-1.4971812555,0.3975,-0.77303,-0.29074,-0.11007964625,-9.318965295499998,3.0519275464999995,-3.1055,1.2541,-1.3861,-0.00019999999999997797,-0.009519999999999973,0.0008700000000000374,0.01796658351927327,0.005083411161301399,-0.019801109108956716
150000000000.0,3,-2.0340953429999997,-1.456483658,-1.053822609,0.31066,-0.81092,-0.053856,-0.0749031927,-9.309158645499998,3.0829165604999997,-3.1173,1.2509,-1.3822,9.999999999998899e-05,-0.010420000000000096,0.00012000000000000899,0.0020247587150408197,0.003846799886117802,-0.008619478605399244
150000000000.0,3,-2.294167701,-1.3810705195,-0.54051312805,0.32231,-0.8219,0.15966,-0.05951655884999999,-9.299351995499999,3.1128268429999997,-3.1225,1.2477,-1.3854,0.0006999999999999229,-0.010869999999999935,-0.0001300000000000745,0.004223039683473706,-0.001746018014644246,-0.00357167038503281
150000000000.0,3,-1.6897838614999998,-1.0682383844999999,0.14141189299999998,0.3515,-0.801,0.33153,-0.061262142549999996,-9.288270481,3.1455810539999995,-3.1221,1.2442,-1.3943,0.0006999999999999229,-0.011199999999999988,0.0008200000000000429,0.006302477708839183,-0.00017676261296095674,-0.003283883244049157
150000000000.0,3,-1.6744854875,-1.078535367,0.11166832354999999,0.29359,-0.76123,0.45411,-0.07658012985,-9.278071565,3.1752952035,-3.1175,1.241,-1.4074,0.0019000000000000128,-0.012510000000000021,-0.0018599999999999728,0.054433854131531234,-0.0075029460261306635,0.07038748096335645
150000000000.0,3,-1.4336341634999998,-0.7476393827,0.27010456095,0.14369,-0.77181,0.54353,-0.10057700239999999,-9.271599175999999,3.193241373,-3.1101,1.239,-1.4233,0.0020000000000000018,-0.01104000000000005,0.0011499999999999844,0.0057935561330824115,-0.00315501530792206,-0.003519515337506718
150000000000.0,3,-1.284082751,-0.41597847969999996,0.1976236108,-0.067298,-0.82662,0.61585,-0.1301930854,-9.271403043,3.192849107,-3.1008,1.2389,-1.4417,0.0017000000000000348,-0.01088,0.0018299999999999983,0.01966033267197531,0.004126366414476168,0.0017319299301306046
150000000000.0,3,-1.3152678979999999,-0.5414545664499999,-0.096301303,-0.26656,-0.90388,0.65513,-0.16236870404999998,-9.277483166,3.1737261394999994,-3.0905,1.2408,-1.462,0.0020999999999999908,-0.010559999999999903,0.0015300000000000313,0.017348811622363236,0.003473925379499976,0.0018217808073437425
150000000000.0,3,-1.6770352164999998,-1.174640537,-0.2603469442,-0.38315,-0.95085,0.63793,-0.19250453950000002,-9.287682082,3.1419525935,-3.0804,1.244,-1.4826,0.0018000000000000238,-0.008830000000000005,0.004830000000000001,-0.03080728868795979,0.014321658512358892,-0.08022635694686553
150000000000.0,3,-2.285145583,-1.7853006324999998,-0.22499397095,-0.42648,-0.93551,0.57912,-0.218492162,-9.2995481285,3.1048834564999996,-3.0713,1.2478,-1.5021,0.0021999999999999797,-0.009570000000000078,0.0021599999999999397,0.01669897765045847,0.00866762381394337,-0.008359417719988826
150000000000.0,3,-3.1717648095,-2.1406936285,-0.0475818658,-0.45166,-0.8201,0.46466,-0.23831140164999998,-9.312198706999999,3.065362657,-3.064,1.2519,-1.5189,0.0022999999999999687,-0.009220000000000006,0.0023900000000000032,0.0178850293232502,0.009357955313229915,-0.007560306221336077
150000000000.0,3,-4.0514213145,-2.2177738975,-0.00803164635,-0.48455,-0.62786,0.30843,-0.2501676415,-9.3258299505,3.0226056629999998,-3.059,1.2564,-1.5313,0.0027000000000001467,-0.008639999999999981,0.0019799999999999818,0.022159542478082495,0.00855663663593731,-0.003248814818677559
150000000000.0,3,-4.531456832,-2.0455691235,0.01203275955,-0.56159,-0.36597,0.12958,-0.2532469296,-9.341618657,2.97337628,-3.0566,1.2616,-1.5383,0.0026999999999999247,-0.008379999999999943,0.0021400000000000308,0.024847678821712238,0.010938158531426323,-0.0018990991326282014
150000000000.0,3,-4.3752368975,-2.1891384795,0.19137677475,-0.69346,-0.10584,0.031755,-0.2527958237,-9.360839691,2.912378917,-3.055,1.2681,-1.5418,0.0016000000000000458,-0.007879999999999998,0.003750000000000031,0.033535097687783066,0.024847056442992788,-0.013969147836388807
150000000000.0,3,-3.601394146,-2.581894812,0.9162745361,-0.89204,0.032157,0.064257,-0.25759127555,-9.384767917,2.8336315174999998,-3.0509,1.2764,-1.5459,0.0021999999999999797,-0.00821000000000005,0.0025100000000000122,0.02421431642572003,0.014162283023334998,-0.004084571507416257
150000000000.0,3,-3.071246647,-2.5771876199999997,2.3261373799999996,-1.1486,0.038413,0.18015,-0.27256603009999997,-9.4144820665,2.7319365569999996,-3.0422,1.287,-1.5547,0.0016000000000000458,-0.00831000000000004,0.002589999999999981,0.01869902338559859,0.015421790879535102,-0.0032873873637120354
150000000000.0,3,-2.319272725,-2.4197908875,2.6839820385,-1.4001,-0.048183,0.39335,-0.30355504409999995,-9.449295674,2.605430772,-3.0256,1.3,-1.5721,0.0013999999999998458,-0.00873999999999997,0.0022299999999999542,0.013331721260268603,0.012870287821910908,-0.0018104442710384916
150000000000.0,3,-1.4371645575,-2.1769782335,2.1527558079999998,-1.5532,-0.20918,0.67196,-0.35644230754999995,-9.485972545,2.4617633494999995,-2.9978,1.3143,-1.6026,0.0009000000000001229,-0.009299999999999975,0.0025399999999999867,0.011101140179844426,0.009753224363023616,0.00195658568492707
150000000000.0,3,-1.156792434,-2.1048993559999998,2.086658987,-1.6209,-0.39215,0.90592,-0.42926649045,-9.520884219,2.3105448065,-2.9579,1.3288,-1.6474,0.0008999999999999009,-0.009680000000000022,0.00273000000000001,0.008092885244531223,0.006648747268874322,0.0041748926854090485
150000000000.0,3,-0.32686545115,-2.174722704,2.5137385945,-1.7475,-0.40296,1.0327,-0.51619263605,-9.554226829,2.149421547,-2.9059,1.3434,-1.7051,0.001000000000000112,-0.009949999999999959,0.00268999999999997,0.009561548003378828,0.003477676838525623,0.00900892677693843
150000000000.0,3,1.3012443885,-1.933282981,2.4569580909999997,-1.9867,-0.25189,1.11,-0.6145435289,-9.5876675055,1.9671159234999998,-2.8388,1.3591,-1.7769,0.0010999999999998789,-0.010170000000000012,0.0031800000000000717,0.011670205737353445,0.003284434043160589,0.01020850443430188
150000000000.0,3,2.4962827575,-1.3538080325,1.862282835,-2.2713,-0.034367,1.1817,-0.72474085495,-9.620912049,1.7558806824999997,-2.7501,1.3759,-1.8683,0.0015000000000000568,-0.010160000000000002,0.0028599999999999737,0.014189838183310322,0.001736541902345401,0.013420964825269888
150000000000.0,3,2.6790787134999996,-0.6960269837499999,1.4222584495,-2.4502,0.052272,1.2613,-0.8449998039000001,-9.6508223315,1.522580479,-2.6349,1.3923,-1.9852,0.0017000000000000348,-0.010149999999999992,0.002789999999999959,0.015996387286582703,0.00017727115757537604,0.01699167646780353
150000000000.0,3,2.381446886,-0.22326800054999998,1.4268675749999997,-2.4577,0.099153,1.3252,-0.9731923327,-9.673475692999999,1.283494352,-2.4929,1.4058,-2.1285,0.0017000000000000348,-0.010250000000000037,0.003030000000000088,0.01762895745277948,0.0006023441222104964,0.01641788814801215
150000000000.0,3,1.9035688315,-0.1139336597,1.2952623319999998,-2.2296,0.067428,1.3353,-1.1036403909999999,-9.686616604,1.0596085325,-2.3358,1.4142,-2.2867,0.0020000000000000018,-0.010169999999999957,0.002789999999999959,0.015750170514081008,-0.0009739273204469878,0.01853921914306511
150000000000.0,3,1.468643904,-0.5049444085,0.6594285659499999,-1.83,0.081284,1.241,-1.2274983805,-9.690441197499998,0.87091877985,-2.1879,1.4167,-2.4358,0.0019000000000000128,-0.010270000000000001,0.0025800000000000267,0.015464154058895785,-0.0006999033162615742,0.019271243625620382
150000000000.0,3,1.0413681635,-1.3039902505,-0.24937330284999998,-1.3715,0.19811,1.059,-1.336450262,-9.6880876015,0.72446626875,-2.0675,1.4152,-2.5559,0.0018000000000000238,-0.010340000000000016,0.002529999999999921,0.01330380271253806,-0.001911982077350105,0.020031989992461252
150000000000.0,3,0.63583376605,-1.5903444305,-0.52629348555,-0.976,0.40291,0.80744,-1.4233371809999997,-9.683184276499999,0.6165244722,-1.9795,1.412,-2.6415,0.0015999999999998238,-0.010270000000000001,0.0021600000000000508,0.010153365477017395,-0.002596615412226555,0.02032135425098236
150000000000.0,3,0.07697239585,-1.3316450034999998,-0.13070303119999999,-0.81917,0.6459,0.55751,-1.4865900735,-9.678967416999999,0.5267936247,-1.9114,1.4093,-2.7047,-0.010199999999999987,0.006359999999999977,-0.013560000000000016,-0.15844271401217935,-0.93183218180065,-3.0260111124954303
150000000000.0,3,-0.35228428794999994,-0.9590315301,0.38592109745,-0.87664,0.93005,0.34023,-1.5283664024999999,-9.67720222,0.4313945335,-1.8459,1.4081,-2.7623,0.001000000000000112,-0.010429999999999995,0.0018200000000000438,-0.008848669007899268,0.004443365748236672,0.022563249204694547
150000000000.0,3,-0.6210355311999999,-0.5865749630999999,0.1537290454,-1.0343,1.2523,0.15793,-1.5522946284999999,-9.677790619,0.31717648094999995,-1.7724,1.4085,-2.825,0.013700000000000045,-0.026029999999999998,0.016309999999999936,0.1876190155512365,0.9178685553117096,3.0565013071401506
150000000000.0,3,-0.6086006989999999,-0.49722657494999994,0.21591301304999996,-1.1882,1.5414,0.044005,-1.562591611,-9.679653882499998,0.18241349664999998,-1.687,1.4097,-2.8965,0.006399999999999961,-0.007369999999999988,-0.008019999999999916,0.013007832946390518,-0.0022189145039506197,0.01866552499806806
150000000000.0,3,-0.6536034158499999,-0.47177831819999994,0.4843896701,-1.2856,1.7192,-0.035466,-1.5626896774999999,-9.681321013,0.0336564228,-1.5923,1.4107,-2.9754,0.0015000000000000568,-0.009550000000000003,0.00036999999999998145,0.004915645790086298,-0.0014308205959046028,0.018420033180525763
150000000000.0,3,-0.7093444144499998,-0.1349591173,0.7561123283,-1.3219,1.8324,-0.074155,-1.555530823,-9.681713279,-0.1222496989,-1.4924,1.411,-3.0583,0.0013999999999998458,-0.009419999999999984,0.00032999999999994145,0.009189695705285938,-0.002173771135389968,0.01688156681590769
150000000000.0,3,-0.74334407,0.49433361319999997,1.050684481,-1.2423,1.9043,-0.091222,-1.5430763774999998,-9.680634547499999,-0.2744881335,-1.3948,1.4103,-3.1381,0.0013000000000000789,-0.00939000000000001,-5.999999999994898e-05,0.005212399950940805,-0.002153218244316024,0.014951550567389393
150000000000.0,3,-0.62200638955,0.9283171022999999,1.3698909385,-1.0656,1.9742,-0.11239,-1.5262089394999998,-9.678379018,-0.4124873123,-1.3068,1.4089,3.0759,0.001100000000000101,-0.00939000000000001,-0.00026999999999999247,0.006221635528494973,-0.0035671504576502144,0.012179831683271747
150000000000.0,3,-0.26407347119999997,1.403135482,1.8360990795,-0.83674,2.0193,-0.13982,-1.5038497774999997,-9.676123488499998,-0.52986310615,-1.2321,1.4075,3.0205,0.0006999999999999229,-0.00939000000000001,-0.000520000000000076,0.003256336612258881,-0.003121171414246282,0.009449521163946262
150000000000.0,3,0.32519832065,1.919161405,2.1409878279999996,-0.61333,1.9077,-0.18834,-1.4758027585,-9.674946690499999,-0.6233695139,-1.1711,1.4067,2.9785,0.00029999999999996696,-0.009419999999999984,-0.0006199999999999539,-0.000210601957959744,-0.0016272354027504488,0.005365141680350849
150000000000.0,3,1.067748052,2.2259134169999997,2.0574351699999998,-0.44536,1.8019,-0.23589,-1.441773683,-9.675044757,-0.69690958225,-1.1206,1.4068,2.9457,-9.999999999998899e-05,-0.00936999999999999,-0.0009500000000000064,-0.0024489826555227356,-0.0003407045209797843,0.002048649239655198
150000000000.0,3,2.0506685814999996,2.4658821425,1.6152533214999998,-0.32411,1.7573,-0.23027,-1.406077477,-9.675829289,-0.7560534884,-1.0774,1.4073,2.9199,-0.00029999999999996696,-0.009340000000000015,-0.0012499999999999734,-0.00440068102569624,0.0005385310051919667,0.0008991785479501857
150000000000.0,3,2.2830861865,2.708792863,1.7487218279999999,-0.28581,1.7952,-0.14701,-1.3756768619999997,-9.6759273555,-0.8088819119499999,-1.0392,1.4073,2.8993,-0.00039999999999995595,-0.00929000000000002,-0.0015200000000000768,-0.0045444025624625795,0.0006332485920235165,-0.0013450871873512682
150000000000.0,3,1.7379345129999997,2.859030741,1.935636577,-0.31272,1.8156,-0.068106,-1.3522389685,-9.6745544245,-0.86287732685,-1.0028,1.4065,2.8808,-0.000500000000000167,-0.009419999999999984,-0.0015299999999999203,-0.005655590215232875,0.0011360351679585712,-0.003947967191545221
150000000000.0,3,1.1196252304999998,2.8740349155,1.7935382185,-0.36555,1.7649,-0.038221,-1.3324295354999998,-9.671906629,-0.921040568,-0.96595,1.4049,2.8615,-0.0005999999999999339,-0.009519999999999973,-0.0018500000000000183,-0.006454295584305214,-0.00016693798636313595,-0.003766553964709818
150000000000.0,3,0.8520802052,2.8086245599999997,1.262900387,-0.39113,1.6138,-0.072156,-1.310756839,-9.6690627005,-0.9804296403999999,-0.92857,1.4031,2.8404,-0.0004999999999999449,-0.009770000000000029,-0.0021100000000000563,-0.006117913738552749,0.000202636657215427,-0.006105635050490221
150000000000.0,3,1.2663327144999998,2.607392102,0.46847347715,-0.36038,1.408,-0.15073,-1.2833962854999998,-9.667003304,-1.0355822399999999,-0.89185,1.4018,2.818,-0.0004999999999999449,-0.010069999999999996,-0.0019399999999999418,-0.006858335596263476,-0.0006790514091015165,-0.003465750535267098
150000000000.0,3,1.931321651,2.4047867129999996,-0.18910163195000002,-0.23977,1.1257,-0.18311,-1.25328987,-9.666414905,-1.0774566355,-0.8607,1.4015,2.7986,-0.000400000000000178,-0.01046999999999998,-0.0021700000000000053,-0.006026882218372442,-0.0009393258290506523,-0.004538354599049832
150000000000.0,3,2.405963511,2.2054175185,-0.52066446845,-0.058926,0.81406,-0.14702,-1.2281848459999998,-9.667199436999999,-1.0985409329999998,-0.84103,1.402,2.7877,-0.00019999999999997797,-0.010820000000000024,-0.0023400000000000087,-0.0036201785784615303,-0.0008601874469744697,-0.001072418494310945
150000000000.0,3,2.6406366455,1.9793742359999997,-0.5885362931,0.1142,0.48543,-0.087436,-1.2118077404999998,-9.669258833499999,-1.0986389994999999,-0.83434,1.4032,2.7867,9.999999999998899e-05,-0.011179999999999995,-0.0022600000000000398,-0.0034120786388569524,-0.0007820125564523828,0.0005563018197363157
150000000000.0,3,2.703301139,2.1856080855,-0.49464742599999995,0.26591,0.16229,-0.004414,-1.2069044155,-9.672102762,-1.0792218324999998,-0.84118,1.4049,2.796,0.00029999999999996696,-0.011509999999999992,-0.0021200000000000108,0.0002355902231852003,-0.002048113092583126,0.005405943572100558
150000000000.0,3,2.3229011854999997,2.444993978,-0.33140593009999997,0.38224,-0.063572,0.053826,-1.211121275,-9.6753389565,-1.0447024244999998,-0.85905,1.407,2.8141,0.000600000000000156,-0.011670000000000014,-0.0019999999999998908,0.002875267011877014,-0.001857372430301485,0.0070403857996304
150000000000.0,3,1.8207026389999998,2.3552631305,-0.18512993869999997,0.44789,-0.26018,0.054286,-1.2188685284999998,-9.6790654835,-0.9999841005,-0.88373,1.4093,2.837,0.0008999999999999009,-0.01172999999999999,-0.0016200000000000658,0.007350995667698035,0.0006703747284528827,0.007678207303971174
150000000000.0,3,1.3599862219999999,2.305935681,-0.1632022693,0.48757,-0.38728,0.022557,-1.225438984,-9.6833804095,-0.94935236655,-0.91167,1.4121,2.8616,0.0009000000000001229,-0.011789999999999995,-0.0011099999999999444,0.007472428469825987,0.0027121295039131965,0.009035693608601125
150000000000.0,3,1.1788573965,2.233758737,-0.57454220355,0.5267,-0.45789,-0.019947,-1.228773245,-9.688283734499999,-0.89355252805,-0.94204,1.4152,2.8878,0.0007999999999999119,-0.012009999999999993,-0.0007400000000000739,0.007373959075271275,0.0031067622757507962,0.011186274662108087
150000000000.0,3,0.3420755653,2.0981327675,-0.7327626946499999,0.53014,-0.46213,-0.074371,-1.2269099815,-9.693579325499998,-0.8363307253,-0.97247,1.4188,2.9139,0.0007999999999999119,-0.012300000000000005,-0.0005199999999999649,0.007075766551805307,0.002507714340632461,0.013766113731418894
150000000000.0,3,-0.76922381935,1.867578426,-1.30624578,0.5079,-0.46191,-0.10857,-1.2206337255,-9.698972982999999,-0.78087411955,-1.0017,1.4225,2.9388,0.000600000000000156,-0.012770000000000004,-0.00043999999999999595,0.005701570406019485,0.0017799370785116508,0.013435017379174408
150000000000.0,3,-1.8280576265,1.6517340594999999,-1.9531904805,0.49708,-0.35312,-0.11732,-1.2125922724999998,-9.7041705075,-0.7275749767999999,-1.0304,1.4261,2.9638,0.00029999999999996696,-0.013249999999999998,-0.00026999999999999247,0.0033255077012110945,0.0012652983779237736,0.013526151521389362
150000000000.0,3,-2.834514116,1.5303277324999998,-1.8098172574999998,0.44605,-0.089449,-0.16057,-1.199353295,-9.709171899,-0.6803265371,-1.0548,1.4297,2.9869,0.00019999999999997797,-0.013585,-0.00036999999999998145,0.0012254212736309,0.002628186056170101,0.01271933222176802
150000000000.0,3,-3.5263732735,1.4006838195,-1.4739394949999998,0.25278,0.26915,-0.19569,-1.1798380615,-9.7135848915,-0.6522795181,-1.0658,1.4329,2.9997,-0.00019999999999997797,-0.013947000000000001,-0.0004899999999999904,0.00038742368595645615,0.003980976104747569,0.013990879574822479
150000000000.0,3,-3.7115228254999995,1.0448985575,-2.209438245,-0.044923,0.55396,-0.16255,-1.159342163,-9.715840421,-0.6547900204999999,-1.0567,1.4346,2.9955,-0.00019999999999997797,-0.014365000000000003,-0.0006000000000000449,-0.002297797286552994,0.005689129346364341,0.011665287730366014
150000000000.0,3,-4.095453173,0.04990604184999999,-2.7949933165,-0.34218,0.68627,-0.034144,-1.1480645154999998,-9.714859756,-0.6885641230999999,-1.0305,1.4339,2.9758,-0.000600000000000156,-0.01464,-0.00046999999999997044,-0.006108757528979103,0.006285862640954987,0.00855881182114171
150000000000.0,3,-4.597161387,-1.4490306039999998,-2.4813766494999996,-0.56308,0.79872,0.15421,-1.152869774,-9.709858364499999,-0.7476393827,-0.99547,1.4302,2.9481,-0.0006999999999999229,-0.014762999999999998,-0.00045000000000006146,-0.010211711188982786,0.00501516073973729,0.004416637673172019
150000000000.0,3,-4.707388132999999,-3.0178004045,-1.8096211244999998,-0.62186,1.0196,0.31489,-1.1724830739999998,-9.7018169115,-0.81874740185,-0.96121,1.4245,2.9232,-0.0005999999999999339,-0.014599999999999998,0.000140000000000029,-0.012919882567120844,-0.0017254292940576121,0.0030661376160820986
150000000000.0,3,-4.178417432,-4.0606395655,-1.2784929605000002,-0.57343,1.2419,0.37222,-1.197784231,-9.692402527499999,-0.8899534874999999,-0.9318,1.418,2.9055,-4.999999999988347e-05,-0.0144416,0.0013100000000000334,-0.010895118956396388,-0.019973084498769778,0.006743512577890964
150000000000.0,3,-3.0636955265,-4.056226573,-1.0486250844999998,-0.47003,1.3295,0.31781,-1.218182063,-9.683772675499998,-0.9543243381,-0.90626,1.4123,2.893,-5.0000000000105516e-05,-0.0130436,0.0012299999999999534,-0.006192827723900285,-0.010049976571004926,0.005391843756227921
150000000000.0,3,-1.6721318914999999,-2.953959113,-1.8708146204999998,-0.30445,1.3261,0.27007,-1.2320094394999999,-9.676908020499999,-1.0044951594999998,-0.8868,1.408,2.8867,-0.00039999999999995595,-0.0118118,0.0024600000000000177,0.00571298904162254,-0.010599087463383894,0.008576821256230716
150000000000.0,3,-1.048134752,-1.2679017784999997,-2.5245259095,-0.10731,1.317,0.30458,-1.246817481,-9.671808562499999,-1.0358764395,-0.87755,1.4047,2.8907,-0.0009000000000001229,-0.010585999999999998,0.0022799999999999487,0.007616569930033679,0.005642463026977129,0.004993624128147189
150000000000.0,3,-1.1368849345,0.025879749349999998,-2.5105024,0.069019,1.2898,0.41915,-1.2706476404999998,-9.667199436999999,-1.049507683,-0.8804,1.4019,2.9068,-0.0008999999999999009,-0.010105000000000003,0.0025700000000000722,0.009378466201954039,0.000946603689587322,0.005631682033763852
150000000000.0,3,-1.5203249495,0.7110409649,-2.4032176489999997,0.23471,1.1753,0.6011,-1.311345238,-9.662099978999999,-1.0465656879999998,-0.89721,1.3989,2.9362,-0.001100000000000101,-0.010103000000000001,0.0024399999999999977,0.004257491149087356,0.00509779914574926,0.0038884800012981557
150000000000.0,3,-1.8959196445,0.9486168677999999,-2.441071318,0.44753,0.92724,0.746,-1.3702832044999997,-9.656510188499999,-1.022441329,-0.92977,1.3956,2.9794,-0.0012999999999998568,-0.010222999999999996,0.0015899999999999803,-0.001196627227895819,0.006740981678097668,0.0019260285892834794
150000000000.0,3,-1.8286460254999999,0.8809804027499999,-2.2611192905,0.75007,0.56783,0.69272,-1.4334380304999998,-9.653077861,-0.96672975035,-0.97745,1.3936,3.0345,-0.0009000000000001229,-0.010958999999999997,0.0017700000000000493,-0.006060086050680091,-0.010781668868025784,0.003814571677522416
150000000000.0,3,-0.62889065785,0.3336614596,-1.5114989644999999,0.93505,0.28532,0.37332,-1.475508559,-9.654548858499998,-0.88453041005,-1.0307,1.3945,3.0922,-0.0013000000000000789,-0.011013000000000009,0.00040999999999991044,-0.01175019009914946,-0.0006482118455033437,0.0011010305906320461
150000000000.0,3,1.6168223855,-0.7623101310999999,-0.026517181599999995,0.88261,0.21808,-0.13046,-1.4739394949999998,-9.662198045499998,-0.7999284405,-1.0736,1.3989,3.1379,-0.0013999999999998458,-0.011012999999999995,0.000260000000000038,-0.014066366872398373,-0.0035218390983715597,0.002382732821156086
150000000000.0,3,4.035436474999999,-2.660544145,1.4099020705,0.66491,0.41969,-0.65636,-1.4197087205,-9.675437023,-0.7347142179999999,-1.0933,1.4071,-3.1217,-0.0014000000000000679,-0.010960999999999999,4.0000000000040004e-05,-0.020667320619631502,-0.0007583735605627417,0.003891037793653851
150000000000.0,3,7.1660133544999995,-8.407241045,3.7309399924999997,0.25498,0.74092,-0.95224,-1.3277223435,-9.690539264,-0.7079812900999999,-1.0809,1.4168,-3.1275,-0.0009999999999998899,-0.011050000000000004,-0.0003700000000000925,-0.02554234416225265,-0.004713804877392924,0.004352095929668565
150000000000.0,3,7.072359847,-8.39645373,3.7520242899999996,-0.21598,0.88641,-0.8455,-1.234068836,-9.701326579,-0.72901655435,-1.0372,1.4241,3.1203,-0.000700000000000145,-0.013999999999999985,-0.00010999999999994348,-0.052421484467923385,-0.03420989425712251,0.013894429561009947
150000000000.0,3,6.278315396499999,-10.032202949999999,2.7603758419999997,-0.49228,0.68142,-0.32366,-1.1831723225,-9.703680175,-0.78101141265,-0.98735,1.4257,3.0775,0.0001500000000000945,-0.014420000000000016,-0.00038000000000004697,-0.04327867162358201,-0.031634283257418794,0.0082200304353508
150000000000.0,3,3.1756874694999997,-7.564163344499999,3.155583837,-0.46898,0.4303,0.16462,-1.184447187,-9.699071049499999,-0.8344086218999999,-0.95708,1.4225,3.0518,0.00014999999999987246,-0.01321,-9.999999999998899e-05,-0.02518802031084033,-0.023882606983058885,5.2663943226338716e-05
150000000000.0,3,0.17257742669999998,-2.7890112599999997,3.0562424724999997,-0.21753,0.25857,0.38738,-1.215828467,-9.692304460999999,-0.8667215336499999,-0.9515,1.4179,3.0492,-9.999999999998899e-05,-0.01200000000000001,-5.999999999994898e-05,-0.008400580436488614,-0.013427986553246951,-0.00147401300276373
150000000000.0,3,-0.4199893995499999,1.816387713,2.242192456,0.19012,0.11353,0.35205,-1.2508382075,-9.688381801,-0.8604746976,-0.96824,1.4154,3.0676,0.0032000000000000917,-0.004839999999999983,-0.0008000000000000229,-0.003304508615204149,0.018578579991155086,-0.07805170487207924
150000000000.0,3,0.6990964652,4.978247806,1.821683304,0.67044,0.030894,0.18011,-1.272707037,-9.6900489315,-0.8083033195999999,-1.0049,1.4164,3.1053,-0.00039999999999995595,-0.007800000000000001,0.0014399999999999968,-0.004028569760249123,-0.012134644266897476,-0.01257128692952092
150000000000.0,3,1.3267416785,6.501024417999999,1.8812096694999998,1.1613,0.048371,-0.019739,-1.2751586995,-9.697600051999999,-0.70761844405,-1.0642,1.4215,-3.1176,0.0006999999999999229,-0.01072999999999999,0.0014399999999999968,0.022501750132710274,0.012121512779323496,0.019698391472644072
150000000000.0,3,1.36116302,6.203588723499999,3.0561444059999996,1.5553,0.14223,-0.15158,-1.262311988,-9.7084854335,-0.56687340325,-1.1487,1.4292,-3.031,-0.0032000000000000917,-0.004170000000000007,-0.0018000000000000238,0.008583219958703259,0.022218841760446084,-0.0016899223494561966
150000000000.0,3,1.5562172884999999,4.610204231499999,3.9821863654999996,1.8113,0.23502,-0.20253,-1.2424044884999998,-9.7194688815,-0.39865012915,-1.2603,1.4373,-2.9162,-0.00029999999999996696,-0.005150000000000016,0.000280000000000058,-4.221381230795629e-06,0.0023195729851097635,-0.003957699048108054
150000000000.0,3,1.483942278,2.5025590134999995,4.157823467,2.0026,0.29862,-0.3699,-1.2130826049999999,-9.728981331999998,-0.21281411165,-1.3971,1.4449,-2.7753,-0.0020999999999999908,-0.00766,-0.00041999999999997595,-0.0034951857465290725,0.007082174027514432,-0.010394206556579189
150000000000.0,3,0.96800461485,0.46784585154999997,3.450764002,4.1334,0.78956,-2.6129,-1.0201857994999999,-9.752517292,0.13055593145,-1.6981,1.4657,-2.4648,-0.0026999999999999247,-0.005989999999999995,-0.0021400000000000308,-0.010346041007058826,0.0009421753649052622,-0.01926799039748106
150000000000.0,3,0.1514735159,0.8431953803,2.9220875005,3.6896,0.1851,-2.9435,-0.71830769255,-9.7665408015,0.5188502382,-2.1964,1.4803,-1.9615,-0.0039000000000000146,-0.008349999999999996,-0.0024600000000000177,-0.03947827001649418,-0.003391250846301652,-0.01781190915762565
150000000000.0,3,0.48355610484999995,4.407500776,-2.0469420544999997,2.4526,-1.1792,-2.0413,-0.4911954852,-9.7620297425,0.7950937620499999,-2.5882,1.4754,-1.5767,-0.0012000000000000899,-0.009830000000000005,-0.0009599999999999609,-0.008933937654599822,0.0006829488445658782,-0.015413155863876593
150000000000.0,3,-4.056618839,-0.8624948674999999,-4.951573718,0.89237,-2.3217,-0.80485,-0.3628068234,-9.755459286999999,0.93232802215,-2.7705,1.4686,-1.4141,-0.0006999999999999229,-0.00874999999999998,-0.0015500000000000513,-0.012015850107353065,-0.007546435357335124,-0.010048910921540699
150000000000.0,3,-0.44304483370000003,-1.5938748245,4.327184312499999,-0.11861,-1.9169,0.1747,-0.34270319089999995,-9.755557353499999,0.9397320428999999,-2.7919,1.4686,-1.4141,-0.00019999999999997797,-0.008900000000000019,-0.0015899999999999803,-0.0077689726775937995,-0.006254371273354931,-0.0010011243499468137
150000000000.0,3,-0.41713566439999994,-1.5986800829999999,4.2887422445,0.35329,-1.399,0.5151,-0.3686123602,-9.750752095,0.9782525640999999,-2.7812,1.464,-1.4382,-0.001000000000000112,-0.00988,-0.0017300000000000093,-0.00030928774345717613,-0.010034816097513444,0.007695376827885347
150000000000.0,3,4.153508541,-0.9370352141499999,6.542310414499999,-0.49519,-0.87547,0.76462,-0.43066884139999995,-9.7506540285,0.9534613529,-2.7173,1.4639,-1.5131,0.000300000000000189,-0.010170000000000012,-0.0017099999999999893,-0.02342269145867082,-0.004989694090909769,0.008020752887516025
150000000000.0,3,8.250923044,-1.792459487,0.1207590881,-0.33202,-0.031653,0.63319,-0.49478471909999994,-9.7516346935,0.9112927578999999,-2.6442,1.4649,-1.5886,0.00029999999999996696,-0.009899999999999964,-0.0017099999999999893,-0.01380440631323987,-0.00564894330336152,0.00532701055507756
150000000000.0,3,8.0346864115,-0.7257313266,0.59003671055,0.25712,-0.45308,0.5613,-0.54651479785,-9.7477120335,0.92414927605,-2.6075,1.4611,-1.6285,0.00039999999999995595,-0.01041000000000003,-0.0019299999999999873,-0.01926673172576554,-0.007429570781542161,0.008252995266986307
150000000000.0,3,4.8328151864999995,2.2456247835,2.3308445719999997,0.80915,-1.048,0.59426,-0.5971465318,-9.737807317,0.99439431,-2.6008,1.4522,-1.644,0.0009999999999998899,-0.01036999999999999,-0.0020499999999999963,-0.009878124435547475,-0.00907022033831928,0.007464832369550312
150000000000.0,3,0.85915079985,1.9200440034999997,-1.30624578,1.3611,-1.7065,0.32419,-0.6191330410999999,-9.722214743499999,1.124626622,-2.6384,1.4395,-1.6221,0.001100000000000101,-0.010280000000000011,-0.0022199999999999998,-0.007591939229130595,-0.007771764700418071,0.007095495592764678
150000000000.0,3,-1.542193779,2.3953723289999997,-2.5905246639999997,1.6298,-1.7511,0.077098,-0.6111210080499999,-9.702307244,1.288986076,-2.6989,1.4248,-1.5789,0.0009999999999998899,-0.010280000000000011,-0.0024500000000000632,-0.0018973098247765385,-0.008660863440528743,0.0018145595115419688
150000000000.0,3,-2.467941539,3.3501477729999998,-1.610644196,1.6664,-1.326,-0.16055,-0.5813774386,-9.679948082,1.4597198525,-2.7626,1.4099,-1.5292,0.001000000000000112,-0.01038,-0.0022199999999999998,-0.010353232322745765,-0.006585952581682486,0.0052020822759133445
150000000000.0,3,-2.791560989,2.9767105409999997,0.18559085125,1.5143,-0.72035,-0.36576,-0.53712002715,-9.6576869865,1.6156455875,-2.8206,1.3963,-1.4792,0.0007999999999999119,-0.010429999999999995,-0.0022900000000000142,-0.021028367619591037,-0.011986630608603388,0.009734380775749507
150000000000.0,3,-2.951997783,2.0816575955,1.132668075,1.2887,-0.21643,-0.51968,-0.48504671564999996,-9.637583353999998,1.747152764,-2.8708,1.3848,-1.4315,0.000600000000000156,-0.010279999999999956,-0.0020299999999999763,-0.017026535335632254,-0.007492842950224343,0.005238272501876473
150000000000.0,3,-3.4899906019999993,1.003024162,1.1984706964999998,1.1735,-0.01929,-0.6355,-0.42528499055,-9.6188526525,1.8621847685,-2.9171,1.3748,-1.385,0.00039999999999995595,-0.010030000000000039,-0.0020299999999999763,-0.00999802320670673,-0.00879945620146283,-0.0004216289808014473
150000000000.0,3,-3.9209928695,0.25391378179999996,0.45372427555,1.213,0.07318,-0.72099,-0.35890377669999995,-9.5986509535,1.976824507,-2.962,1.3645,-1.3386,0.00029999999999996696,-0.00985999999999998,-0.0018599999999999728,-0.010984976638185318,-0.006594019614900359,-0.002272520103393738
150000000000.0,3,-3.9778714395,0.0998513103,-0.28280417269999997,1.3426,0.20861,-0.81707,-0.28632476005,-9.574428527999999,2.1019573609999997,-3.0062,1.3528,-1.2916,0.00029999999999996696,-0.009419999999999984,-0.0018600000000000838,-0.0003056985291942649,-0.007400037210695931,-0.007885337373386925
150000000000.0,3,-3.6239494409999997,0.4578724885,-0.30429054285,1.4429,0.39652,-0.93464,-0.20734200094999997,-9.54579311,2.2371910644999997,-3.0492,1.3396,-1.244,0.00019999999999997797,-0.00940000000000002,-0.0015799999999999148,-0.007490964462052441,-0.004667703452566396,-0.004904884539358001
150000000000.0,3,-2.623278875,1.0598046655,-0.2766848231,1.4615,0.52861,-1.0416,-0.12196530605,-9.513725364499999,2.3756609624999996,-3.0903,1.3258,-1.1965,0.00019999999999997797,-0.00927,-0.0013500000000000734,-0.006680444449717715,-0.002052497979653456,-0.005613558754334669
