Time,placement_label,user_acc_x(m/s^2),user_acc_y(m/s^2),user_acc_z(m/s^2),rotation_rate_x(rad/s),rotation_rate_y(rad/s),rotation_rate_z(rad/s),gravity_x(m/s^2),gravity_y(m/s^2),gravity_z(m/s^2),attitude_roll(rad),attitude_pitch(rad),attitude_yaw(rad),target_delta_x,target_delta_y,target_delta_z,target_delta_roll,target_delta_pitch,target_delta_yaw
150000000000.0,3,-3.3125883034999997,-1.057549136,0.659791412,0.17855,0.061014,-0.47386,1.243875486,-9.1347964085,3.343283118,2.7854,1.1985,1.7345,0.0,0.0,0.0,0.0,0.0,0.0
150000000000.0,3,-3.049279751,-1.1082495165,0.97847811705,0.049377,0.097167,-0.40157,1.2792774925000001,-9.1269510885,3.3516187705,2.777,1.1963,1.7445,-0.008070000000000022,0.0023999999999999577,0.0014699999999999713,0.013319390389932906,0.008694743656192827,0.0016391128792669907
150000000000.0,3,-2.8785459745,-0.9525787544,0.80046780625,0.003754,0.044183,-0.32364,1.3083051765,-9.122243896499999,3.3531878345,2.7696,1.195,1.7531,-0.00831000000000004,0.0018000000000000238,0.0017200000000000548,0.01786922078673081,0.009669092548592495,0.0009985452992409272
150000000000.0,3,-2.8322585865,-0.8925032164999999,0.34617474499999995,0.048159,-0.094786,-0.25073,1.3347831315,-9.117536704499999,3.3555414304999998,2.763,1.1937,1.7596,-0.00824999999999998,0.0016000000000000458,0.0020299999999999763,0.021588561942789575,0.009631453475458462,-0.000998476435652318
150000000000.0,3,-2.3036801515,-1.1011887285,-0.49120529185,0.10649,-0.21577,-0.15969,1.3580248919999998,-9.1118488475,3.3615234869999995,2.7577,1.1921,1.7633,-0.007929999999999993,0.0012999999999998568,0.0018500000000000183,0.01920236047846302,0.010581410046737183,-0.004022612815695159
150000000000.0,3,-1.2647636505,-1.5139506269999998,-1.611036462,0.11778,-0.31725,-0.01859,1.3729310000000001,-9.107043589,3.368584275,2.7546,1.1908,1.7635,-0.007939999999999947,0.001100000000000101,0.0020999999999999908,0.0237957106915061,0.008010000929660865,-0.007503963117176937
150000000000.0,3,-0.48507613559999996,-1.959172537,-2.229443811,-0.007886,-0.43895,0.16714,1.375872995,-9.1075339215,3.366034546,2.7536,1.1909,1.7602,-0.007510000000000017,0.0013000000000000789,0.0019099999999999673,0.02148238593299756,0.007180408623934209,-0.009796280510468214
150000000000.0,3,-0.5462990515499999,-2.5784624844999997,-1.9371075745,-0.27292,-0.51367,0.3472,1.365281813,-9.118419303,3.3408314554999996,2.7536,1.1939,1.7547,-0.007299999999999973,0.0009999999999998899,0.0016200000000000658,0.022230069130953822,0.010486631381859013,-0.014738449085673122
150000000000.0,3,-1.2038643539999998,-3.3345551995,-0.86987927495,-0.62259,-0.37244,0.51606,1.335861863,-9.142543662,3.2864045479999997,2.7555,1.2007,1.7481,-0.006720000000000059,0.0012000000000000899,0.0012299999999999534,0.02517494093803707,0.009273271348145373,-0.017020240436443124
150000000000.0,3,-1.8769928099999997,-3.8711750874999997,0.73513590395,-1.0088,-0.012434,0.65886,1.2821214209999998,-9.1802992645,3.2011847595,2.7606,1.2115,1.7414,-0.00651999999999997,0.0014999999999998348,0.0011700000000000044,0.026267776631422768,0.01657092277466754,-0.020455413352055474
150000000000.0,3,-2.7304655595,-4.041320465,2.4531334974999996,-1.3735,0.357,0.791,1.2037662875,-9.230215112999998,3.086348888,2.7697,1.2262,1.7347,-0.006350000000000022,0.0013000000000000789,0.00036000000000002697,0.015045879493475578,0.010431136551085185,-0.008449500210285565
150000000000.0,3,-3.20873588,-3.639836214,3.6480737999999997,-1.6933,0.46927,0.90553,1.1083475829999998,-9.2891530795,2.941602734,2.7812,1.2445,1.7274,-0.00652999999999998,0.0018000000000000238,0.00041999999999997595,0.01309987553958547,0.013947513838597159,-0.006183551809572974
150000000000.0,3,-3.0368253055,-3.3982984244999996,3.3843729814999994,-1.9132,0.24294,1.0048,1.007731354,-9.3528963045,2.7709670239999995,2.7928,1.2654,1.7186,-0.007039999999999991,0.0025999999999999357,0.0007699999999999374,0.011772084166498997,0.014404959651922233,-0.00224650951807126
150000000000.0,3,-2.083716992,-3.163821423,1.570829197,-2.0411,-0.098123,1.0607,0.9094000744499999,-9.416933729,2.5816006124999995,2.8029,1.2879,1.7078,-0.007440000000000002,0.0024999999999999467,0.0011100000000000554,0.017151525047278682,0.017509140477123708,-0.0005468091714695422
150000000000.0,3,-0.5547916104499999,-2.5622815119999998,0.08065969625,-2.0833,-0.43771,1.0698,0.8171096912999999,-9.477734959,2.382231418,2.8112,1.3111,1.6956,-0.008440000000000003,0.0028000000000001357,0.0017099999999999893,0.0174381956045615,0.014944680693883772,0.0049728409804281615
150000000000.0,3,1.2726089704999999,-1.1450244539999999,-0.2205319452,-2.1234,-0.77837,1.066,0.73119363065,-9.534221263,2.1759975684999997,2.8174,1.3345,1.682,-0.008420000000000039,0.0022999999999999687,0.0015500000000000513,0.014397582102571693,0.009762544562655462,0.013702877836921146
150000000000.0,3,2.699378479,0.25722842949999997,-0.18653228965,-2.206,-1.0921,1.0867,0.6490433236,-9.5868829735,1.9600551354999998,2.8218,1.3587,1.667,-0.008809999999999985,0.0022999999999999687,0.0019299999999999873,0.013627034335394583,0.008857953029625332,0.013610463092394998
150000000000.0,3,3.4602764524999996,1.5520984955,-0.63665752465,-2.2445,-1.2997,1.198,0.56032256105,-9.635425890999999,1.7366596484999999,2.8295,1.3836,1.6464,-0.008510000000000018,0.0024999999999999467,0.0020499999999999963,0.016830400923793398,0.005687679093949738,0.013321844731755683
150000000000.0,3,3.334064867,2.6410289115,-1.2501517420000001,-2.141,-1.3284,1.3648,0.4539890551,-9.677594486,1.5193442845,2.8512,1.4084,1.6108,-0.008389999999999953,0.0023000000000001908,0.0022199999999999998,0.009720053327510136,0.006911701255495117,0.013062383678256073
150000000000.0,3,2.2644535515,2.9948528435,-1.5033594449999998,-1.8948,-1.1537,1.4972,0.32872871465,-9.711329362,1.324093883,2.8982,1.4312,1.551,-0.007880000000000054,0.0025999999999999357,0.0020099999999999563,0.01279177643574858,0.008490170788133966,0.006799565482039416
150000000000.0,3,0.6612035695999999,2.35947999,-1.2951642654999997,-1.6706,-0.71119,1.5374,0.19008229695,-9.736630518999998,1.154242705,2.9784,1.4512,1.4617,-0.00766,0.0025999999999999357,0.0019200000000000328,0.010983549872032539,0.007153750839284045,0.003733384938178985
150000000000.0,3,-0.9141955262999999,1.017341871,-0.9253456873499999,-1.5124,-0.15409,1.5079,0.04510078334999999,-9.7551650875,1.0025338295,3.0966,1.4683,1.3398,-0.00710999999999995,0.0029000000000001247,0.0017300000000000093,0.007155716674424939,0.010803039282157867,0.004441063701369097
150000000000.0,3,-2.6247498725,-0.8353892868999999,-0.9523237815,-1.3972,0.45139,1.4099,-0.09840973274999999,-9.7681098655,0.8632892061499999,-3.0281,1.4821,1.1836,-0.007020000000000026,0.0034999999999998366,0.0020899999999999253,-0.004791916409259356,0.002593373692650447,0.008569236820435422
150000000000.0,3,-4.1439960905,-2.6019984445,-0.64518931015,-1.3204,1.004,1.2265,-0.23024052869999997,-9.776641651,0.73107595085,-2.8365,1.4926,1.0001,-0.007010000000000016,0.0033000000000000806,0.0013200000000000989,0.0037557271930497294,0.007507521165545539,0.0024521506987433828
150000000000.0,3,-4.400636121,-3.606689737,0.08761261109999999,-1.2885,1.3705,0.98469,-0.34124200005,-9.782231441499999,0.6008730588,-2.6251,1.5003,0.80111,-0.006929999999999992,0.0035000000000000586,0.0012199999999999989,-0.00168094345356673,0.005504801770070733,0.004043033566801801
150000000000.0,3,-3.2247207195,-3.6936747224999995,0.5837114213,-1.3046,1.5083,0.78802,-0.43060019484999995,-9.786056035,0.46778701165,-2.3976,1.5059,0.58799,-0.006969999999999976,0.0033999999999998476,0.0009599999999999609,0.003309975413186894,0.0036578896322689847,0.004255411050335223
150000000000.0,3,-1.188173714,-2.777635546,0.2509717868,-1.2807,1.3878,0.73063,-0.5083865426499999,-9.7877231655,0.33455386475,-2.1528,1.5087,0.35712,-0.00720000000000004,0.0035000000000000586,0.0006300000000000194,-0.0035619536986082334,0.004667873022033087,0.006554832781415221
150000000000.0,3,0.5663536508,-1.879150273,-0.1828351826,-1.1881,1.1163,0.76757,-0.58566294465,-9.7869386335,0.2090189381,-1.9136,1.5073,0.12937,-0.007309999999999983,0.0033000000000000806,0.00042999999999993044,0.005937586237416692,0.0016379269918194161,0.0010542648680348377
150000000000.0,3,1.8132495849999999,-1.116977435,0.04297274029999999,-1.033,0.78787,0.81111,-0.66537139585,-9.7836043725,0.09842934605,-1.7177,1.5022,-0.058284,-0.007529999999999981,0.0031999999999998696,9.999999999998899e-05,0.0002711458317572468,0.000600140613829625,0.007883971182622407
150000000000.0,3,3.0199578674999996,-0.37966445475,0.29043374639999997,-0.83994,0.52733,0.82791,-0.74660968445,-9.778210715,0.0070411747,-1.5802,1.4946,-0.19017,-0.007950000000000013,0.0029000000000001247,-0.00029999999999996696,0.0020368768492697864,-0.0024276264712532747,0.00590150996799077
150000000000.0,3,3.8194940419999996,0.2461861416,0.2060377165,-0.61592,0.3827,0.81788,-0.8270144078,-9.771542192999998,-0.062233000899999995,-1.4957,1.4861,-0.27083,-0.007840000000000014,0.0030999999999998806,-0.00010999999999994348,0.0031371516225466856,-0.0036360973173019673,0.006354053498311973
150000000000.0,3,3.8564651124999996,0.80617527655,0.07773731454999999,-0.3781,0.33711,0.76607,-0.9031140117999998,-9.764383338499998,-0.10796140985,-1.4518,1.4779,-0.31142,-0.00816,0.0036000000000000476,-0.000260000000000038,-0.0014864187763081738,-0.00508876495453503,0.0057800678695899554
150000000000.0,3,3.3800580554999997,1.4666825739999998,0.1245052284,-0.18658,0.3399,0.66179,-0.97026014435,-9.757616749999999,-0.1334881198,-1.4341,1.4708,-0.32585,-0.007739999999999969,0.0026999999999999247,-0.0012499999999999734,0.009779802376216562,-0.0030654865539365694,0.0031313843704342537
150000000000.0,3,2.7014378755,2.196885733,0.18233504344999998,-0.068544,0.36566,0.56909,-1.027344654,-9.7516346935,-0.14597198525,-1.4297,1.4648,-0.32669,-0.008360000000000034,0.0038000000000000256,-0.0005300000000000304,-0.0038034542250917625,-0.006539309111461833,0.0034746137000449817
150000000000.0,3,1.8633615665,2.7492943275,0.027811659399999997,-0.039101,0.39534,0.48903,-1.0765740369999999,-9.7461429695,-0.1541016981,-1.4286,1.4597,-0.32382,-0.007769999999999999,0.0032000000000000917,-0.0013199999999999878,0.00023578497118492692,-0.00435054691849901,0.003631491625866179
150000000000.0,3,0.7920929271499999,2.9734743464999998,-0.22981884275,-0.069269,0.42022,0.37366,-1.1155064375,-9.741631910499999,-0.1643202274,-1.4245,1.4556,-0.32376,-0.007869999999999988,0.0037000000000000366,-0.0014800000000000368,-0.006204857895075522,-0.0036994512661574497,0.0038599729908067593
150000000000.0,3,0.08489616905,3.107531252,-0.4711604992499999,-0.10564,0.44519,0.21878,-1.1400230625,-9.738493782499999,-0.1787163896,-1.4153,1.4529,-0.32865,-0.007790000000000019,0.0039000000000000146,-0.0016499999999999293,-0.004372087603085051,-0.001680251345945516,0.0002705797674861232
150000000000.0,3,-0.20755774724999998,3.0637935929999998,-0.5459754321,-0.1181,0.50303,0.027588,-1.1464954514999999,-9.737415051,-0.19547595445,-1.4019,1.4519,-0.3372,-0.007929999999999993,0.0040999999999999925,-0.001960000000000073,-0.006043905279510042,-0.001318394490671615,0.00048750719989087976
150000000000.0,3,-0.32405094259999995,2.9336593475,-0.46153036895,-0.10815,0.55644,-0.17103,-1.1335506734999998,-9.738591849,-0.21258855869999999,-1.3854,1.4529,-0.34834,-0.007739999999999969,0.0042999999999999705,-0.0021299999999999653,-0.009386327103723335,-0.0014714601394116844,0.0015799565801475346
150000000000.0,3,-0.17623530715,2.671527593,-0.4651882494,-0.070791,0.58614,-0.33966,-1.103051992,-9.741729977,-0.22719066054999998,-1.3677,1.4557,-0.36033,-0.007890000000000008,0.0044999999999999485,-0.0025600000000000067,-0.008805247837097463,-0.0023576258943163175,0.0020369407649046822
150000000000.0,3,0.10165573389999999,2.3940974645,-0.60829669285,0.002193,0.5718,-0.44945,-1.060098865,-9.7463391025,-0.23521250024999998,-1.3525,1.4598,-0.36982,-0.008400000000000019,0.0044999999999999485,-0.0030400000000000427,-0.00924271460112247,-0.002866839772339258,0.0017114261173060141
150000000000.0,3,0.34208537194999994,2.114902139,-0.6679799647499999,0.098015,0.52523,-0.48336,-1.0120462799999999,-9.751536627,-0.2337316961,-1.3438,1.4647,-0.37308,-0.008399999999999963,0.0048000000000001375,-0.003049999999999997,-0.014393896715102494,-0.004251904513528304,0.002133689463453048
150000000000.0,3,0.43795518234999997,2.056062239,-0.6830723991,0.18786,0.4275,-0.47023,-0.9645330607499999,-9.7565380185,-0.22193429614999996,-1.3446,1.4697,-0.36764,-0.008670000000000011,0.0046999999999999265,-0.0034199999999999786,-0.009418447088797466,-0.004226756592027758,0.001625632540315447
150000000000.0,3,0.3133028542,2.2305225425,-0.7432852300999999,0.27087,0.30315,-0.41222,-0.9217270335,-9.761147143999999,-0.20078135209999998,-1.3563,1.4745,-0.35256,-0.00913,0.0046999999999999265,-0.0033400000000000096,-0.013463536440752044,-0.006993050916178412,-0.000483625209178995
150000000000.0,3,0.31152785054999993,2.5859155384999997,-0.87897984615,0.37098,0.20739,-0.31581,-0.8879333175999999,-9.764873670999998,-0.16923335905,-1.3825,1.4785,-0.32399,-0.009690000000000004,0.0049000000000001265,-0.0030000000000000027,-0.011586826542181239,-0.008809136752328639,0.003538070227128154
150000000000.0,3,0.13106587725,2.7611603739999997,-0.75245444785,0.49683,0.12101,-0.23005,-0.8632401728999999,-9.767815666,-0.12517208059999999,-1.4268,1.4817,-0.27805,-0.009800000000000003,0.0046999999999999265,-0.0031999999999999806,-0.008048269481749415,-0.00941325486162814,0.0031024207142604787
150000000000.0,3,-0.07065691325,2.7502749924999996,-0.8709678131,0.642,0.036634,-0.16561,-0.8455783962499999,-9.769875062499999,-0.0665087003,-1.4923,1.4842,-0.21174,-0.010020000000000001,0.0049000000000001265,-0.0024100000000000232,-0.013388932145998123,-0.009267727065540798,0.008508661090711689
150000000000.0,3,-0.07068633319999999,2.745469734,-0.9560110819,0.79182,-0.020047,-0.13109,-0.8322315455999999,-9.7712479935,0.0073157609,-1.5796,1.4858,-0.12424,-0.010050000000000003,0.005199999999999871,-0.0018099999999999783,-0.009031765657880664,-0.005913496704168741,0.007966747084355519
150000000000.0,3,-0.16729164235,2.9995600354999996,-1.051469013,0.93614,0.001166,-0.15436,-0.8182276493999999,-9.772032525499998,0.09545793109999999,-1.6869,1.4867,-0.016566,-0.009860000000000008,0.0049000000000001265,-0.0014300000000000423,-0.008501912035028925,-0.0018354702553382563,0.01248872555903957
150000000000.0,3,-0.39298188544999996,3.4045746804999997,-1.147181917,1.0663,0.083297,-0.23754,-0.7973787114999998,-9.7722286585,0.19610358005,-1.8119,1.487,0.10948,-0.009940000000000004,0.004899999999999904,-0.00030999999999992145,0.00045548880245749324,0.0006999738383022258,0.007672201886164132
150000000000.0,3,-0.4894302882,3.5350031255,-1.3493950399999999,1.169,0.16252,-0.3848,-0.76408513475,-9.772032525499998,0.30690891839999995,-1.9527,1.4867,0.25225,-0.009799999999999975,0.0043999999999999595,-7.999999999996898e-05,0.0017146423599074812,0.0052718037594663425,0.004929679823189148
150000000000.0,3,-0.7835905616,3.1720590090000003,-1.4846287434999998,1.2107,0.17518,-0.58435,-0.7124825424499999,-9.771542192999998,0.42356882679999996,-2.1072,1.4862,0.40898,-0.009790000000000021,0.0043999999999999595,0.00031999999999998696,-0.0004362874458996302,0.007972869949303796,0.0019049105166536462
150000000000.0,3,-1.2174955975,2.5645370415,-1.556315355,1.175,0.13942,-0.753,-0.6434339198,-9.7706595945,0.5387381243999999,-2.2679,1.4851,0.57178,-0.009709999999999996,0.0042999999999999705,0.0013499999999999623,0.0007221523893714554,0.005397675995046702,0.0012315493862639082
150000000000.0,3,-1.8647344975,1.660854244,-1.8937621814999999,1.1007,0.13268,-0.85772,-0.56220543785,-9.7690905305,0.6472585133000001,-2.4264,1.4833,0.73218,-0.009580000000000005,0.0044000000000001815,0.0021900000000000253,0.00010440331897854094,0.003133894299704121,0.00099291851405936
150000000000.0,3,-2.6531891575,0.2731152025,-2.1654063865,1.0705,0.35245,-0.8667,-0.47898620594999997,-9.7661485355,0.7508853838499999,-2.5738,1.4799,0.88294,-0.009050000000000002,0.0041999999999999815,0.003070000000000017,-0.001795519589579797,0.0003293648160629381,0.004132834470381708
150000000000.0,3,-2.9306192859999998,-1.6452616704999998,-2.246507382,1.0636,0.73604,-0.78734,-0.40484793194999996,-9.761147143999999,0.8523547913999999,-2.6982,1.4744,1.0143,-0.008739999999999984,0.0042999999999999705,0.003610000000000002,-0.0011640384711499863,-0.0010524033663925625,0.005559130381789679
150000000000.0,3,-2.576010822,-4.151351077999999,-2.679961312,0.92543,0.93941,-0.56912,-0.35087213035,-9.7547728215,0.9442823284999999,-2.7858,1.4679,1.1115,-0.008349999999999996,0.0040999999999999925,0.003289999999999904,0.0007154123410719748,-0.003647751824354284,0.007701324385029129
150000000000.0,3,-2.3246663825,-6.231635742499999,-3.3643674155,0.47933,0.90325,-0.17489,-0.33244543499999996,-9.7498694965,1.000474433,-2.8208,1.4631,1.156,-0.007640000000000008,0.0040999999999999925,0.0025900000000000922,0.0017305402076370768,-0.0006880930176451638,0.00577449936499741
150000000000.0,3,-3.1866709175,-7.0918750804999995,-3.7497687605,0.01292,0.65085,0.30828,-0.35808001809999995,-9.748006233,1.009104285,-2.8006,1.4614,1.143,-0.007415000000000005,0.0045999999999999375,0.0020399999999999308,-0.0014453078044545098,-0.003277706209429354,0.004891575087828337
150000000000.0,3,-4.6462927034999995,-6.978510206499999,-4.490563101499999,-0.16381,0.38766,0.66709,-0.42028359904999996,-9.7471236345,0.994002044,-2.7416,1.4605,1.0882,-0.007186999999999999,0.0045999999999999375,0.0009100000000000774,-0.004138149128345203,-0.002382492226842503,0.005008900377202141
150000000000.0,3,-5.065134724999999,-6.380794889,-2.698201681,-0.13849,0.16674,0.79774,-0.4984327929,-9.745064238,0.97792894465,-2.6702,1.4586,1.0185,-0.006990999999999997,0.0048000000000001375,0.00011999999999989797,-0.00941033756678733,-0.0029516423830777683,0.0029187054098462895
150000000000.0,3,-3.136558936,-5.8948753815,-0.16554605865,-0.003225,0.076214,0.69994,-0.5712962024,-9.7414357775,0.9735845987,-2.6109,1.4554,0.95978,-0.006974999999999995,0.0045999999999999375,-0.0009500000000000064,-0.015621139290738828,-0.007142444683903237,0.007829800320960478
150000000000.0,3,-0.47274917655,-6.483568580999999,0.7888567326499999,0.095471,0.12467,0.45559,-0.6232028008499999,-9.737611183999999,0.9803021539499999,-2.5753,1.4521,0.92494,-0.007146,0.0050000000000001155,-0.0010499999999999954,-0.01828802764819626,-0.009670998878342552,0.01238481495051591
150000000000.0,3,2.2617076894999997,-8.540415352,0.9472635501,0.16469,0.29815,0.1181,-0.6458169357499999,-9.7347672555,0.9935117115,-2.5652,1.4497,0.91727,-0.007090000000000006,0.0045999999999999375,-0.0013599999999999168,-0.015939111540289375,-0.01133597772958539,0.010762293166109438
150000000000.0,3,4.9008733375,-9.7065241035,1.2029817555,0.040912,0.54983,-0.11845,-0.6436398594499999,-9.734473055999999,0.9984150365,-2.569,1.4494,0.92603,-0.007221999999999999,0.0043999999999999595,-0.0013800000000000479,-0.017976838263968897,-0.011850151560652611,0.010893141433515274
150000000000.0,3,6.5611391825,-7.2470162835,0.6759723845,-0.048787,0.59652,-0.24251,-0.62873375145,-9.736140186499998,0.9911581154999999,-2.5763,1.4508,0.93945,-0.006970999999999998,0.0039000000000000146,-0.0008099999999999774,-0.011501269114635893,-0.01216261538532204,0.013336570250317759
150000000000.0,3,6.282336122999999,-1.6807617434999997,-0.6483568581,0.013977,0.53745,-0.29994,-0.6056979306,-9.738101516499999,0.986352857,-2.5909,1.4525,0.95974,-0.006629999999999997,0.0028999999999999027,-0.0006000000000000449,-0.0022523173554067633,-0.00777144323355472,0.007793846573670771
150000000000.0,3,5.4765236925,3.869900223,-0.15460183725,0.22325,0.42916,-0.29084,-0.5815931848999999,-9.738199583,0.9994937679999999,-2.6146,1.4526,0.98823,-0.006281000000000002,0.0028000000000001357,0.0001300000000000745,0.0010086580721551108,-0.005809962311099426,0.010327186675335831
150000000000.0,3,4.4742840625,7.536410524999999,0.922413499,0.58666,0.35374,-0.32744,-0.5549387102,-9.735061455,1.0447024244999998,-2.6533,1.4499,1.0309,-0.005933000000000001,0.0022999999999999687,0.00046000000000001595,0.004432751706879179,-0.0018342145376171182,0.007634576512148272
150000000000.0,3,3.6150253895,9.273658572499999,1.5122834965,1.0376,0.477,-0.48699,-0.5169477481,-9.727314201499999,1.132079676,-2.7132,1.4435,1.0957,-0.005717,0.0024999999999999467,0.0008099999999999774,0.0075798314724830895,0.0007254948501982383,0.002927199460054819
150000000000.0,3,3.5975695525,9.440371622499999,2.233562604,1.501,0.74733,-0.75991,-0.45815688134999993,-9.714075224,1.2639791185,-2.7938,1.4333,1.1838,-0.005652000000000001,0.0020999999999999908,0.00025999999999992696,0.006352755429207102,0.0006461723636375094,0.0014927515772392708
150000000000.0,3,3.6064936039999997,8.128536052,2.8924714175,1.8123,0.95709,-1.0223,-0.3770460792,-9.694461923999999,1.430005703,-2.8838,1.4194,1.284,-0.005785,0.0027000000000001467,8.000000000008001e-05,0.0017576352023573882,0.00044097044615476477,0.0002146993300802258
150000000000.0,3,2.9609218344999997,5.8640825004999995,2.816077614,1.8243,1.003,-1.2017,-0.2796660447,-9.670337564999999,1.6055447379999999,-2.9691,1.4038,1.3806,-0.006088699999999999,0.0031999999999998696,-4.999999999999449e-05,-0.008763683051582039,-0.0010215573355039087,0.0046272549029144905
150000000000.0,3,1.6402602789999998,3.376821861,1.7025325064999999,1.4608,0.99648,-1.2813,-0.17370519145,-9.646703538499999,1.755194217,-3.0429,1.39,1.4657,-0.005965590000000001,0.0009000000000001229,-0.0010999999999999899,0.018976175689807917,-0.004071442307899353,0.005510082920849424
150000000000.0,3,0.39829708974999994,0.6098265302499999,-0.1852476185,0.91141,0.94016,-1.1797,-0.0737263947,-9.629247701499999,1.8555162464999997,-3.1019,1.3803,1.5354,-0.00669741,0.006399999999999961,-3.0000000000085514e-05,-0.047139553745552565,-0.0014082279018681199,0.0055882578997791255
150000000000.0,3,-0.7121393097,-2.4777481889999997,-1.4769795565,0.33459,0.89561,-0.90309,0.0035990405499999995,-9.620617849499999,1.9012152354999998,3.1397,1.3757,1.587,-0.0064323,0.0037000000000000366,-0.0010299999999999754,-0.021061417374525604,-0.0031288571939034338,0.00683330775163038
150000000000.0,3,-1.7867716299999998,-4.913327783,-1.3013424550000001,-0.1619,0.80556,-0.54728,0.049337256149999995,-9.621304315,1.8971945089999998,3.1156,1.376,1.62,-0.006200999999999998,0.0033999999999998476,-0.0008200000000000429,-0.016044257293685416,-0.00282353015551573,0.00427579344115081
150000000000.0,3,-2.1555997365,-5.9101737555,-0.49175446424999997,-0.49367,0.61827,-0.2145,0.06452775699999999,-9.6290515685,1.8565949779999997,3.1069,1.3802,1.6358,-0.005971000000000001,0.0035000000000000586,-0.0005899999999999794,-0.012224694107793255,-0.001780834540870968,0.003633642723492203
150000000000.0,3,-1.735384784,-5.075627840499999,-0.3965613127,-0.57164,0.30652,-0.053973,0.0655476486,-9.639446617499999,1.8019719374999998,3.1052,1.3859,1.6414,-0.005753999999999999,0.0032000000000000917,-0.0005499999999999394,-0.008643557183966477,-0.00048797767013697424,-0.000358025290943087
150000000000.0,3,-1.0445062914999999,-2.744685202,-1.0541168085,-0.3908,0.12917,-0.017056,0.0646454368,-9.6474880705,1.7582342785,3.1048,1.3904,1.6434,-0.005505000000000003,0.0024999999999999467,-0.0009400000000000519,-0.007141488432027332,0.0018810573566403477,0.0002708921201922676
150000000000.0,3,-0.2696240351,0.14789408865,-0.7549943701999999,0.1001,0.12409,-0.046083,0.0661164343,-9.648272602499999,1.7543116184999998,3.1039,1.3908,1.6455,-0.0055740000000000026,0.0028999999999999027,-0.00031999999999998696,-0.000826221342078437,0.000629195781750358,-0.00188050773901971
150000000000.0,3,0.035137226949999996,2.2595502265,0.24010601859999997,0.74742,0.30106,-0.12853,0.07155912504999999,-9.637779487,1.8106998559999998,3.1021,1.3849,1.65,-0.0055539999999999964,0.0024000000000001798,-0.0005800000000000249,-0.002306051037328949,0.0011187369560643479,-0.004640701613614406
150000000000.0,3,0.14810983495,3.0403556994999996,1.062452461,1.3499,0.4401,-0.26649,0.08607296704999999,-9.6149299925,1.9274970574999999,3.097,1.3728,1.6594,-0.005734000000000003,0.0023999999999999577,-0.0005199999999999649,-0.0014674159085208416,-0.0007909796436613714,-0.001394927998049078
150000000000.0,3,0.5984410096,2.690160228,1.3191905579999998,1.6812,0.44814,-0.37054,0.11069746519999998,-9.5821757815,2.083324726,3.0885,1.3564,1.6727,-0.005934999999999996,0.0023999999999999577,-0.0005500000000000504,-0.0008953438689409676,-0.0020952514531544786,-0.0009033241738134468
150000000000.0,3,0.8990834786499999,1.7469566309999998,0.8697714017999999,1.7126,0.36263,-0.3682,0.13836202485,-9.544420179,2.2485667785,3.0801,1.339,1.6852,-0.005929000000000004,0.0023999999999999577,-0.00030999999999992145,-0.002435233302293671,-0.002668234013409876,-0.001453826547277881
150000000000.0,3,0.5528498937499999,0.6756095384499999,-0.06091890979999999,1.5287,0.24469,-0.26691,0.16017201444999998,-9.507056842499999,2.400079521,3.075,1.323,1.6934,-0.006138999999999992,0.0023999999999999577,-0.0006300000000000194,-0.0021001892644825215,-0.00388218829485254,-0.0011702447770692848
150000000000.0,3,0.0732360622,-0.10052796915,-0.9102924796,1.2228,0.10854,-0.12843,0.1723224538,-9.474596831,2.52423171,3.0734,1.3098,1.6965,-0.006049000000000013,0.0023999999999999577,-0.00046000000000001595,-0.002362799719606734,-0.0036757999598098223,-0.0017841459818248584
150000000000.0,3,-0.22591579604999998,-0.41177142684999996,-1.3732251994999998,0.86359,-0.02186,0.021676,0.17354828505,-9.450080205999999,2.6145509565,3.0753,1.3003,1.6946,-0.006166999999999992,0.0025000000000001688,-0.0007300000000000084,-0.00211041407291801,-0.003618630597138184,-0.0014903209135564977
150000000000.0,3,-0.28392213079999995,-0.53204018245,-1.7003750434999998,0.5378,-0.13544,0.12805,0.1664580771,-9.4339973,2.6726063245,3.0794,1.2942,1.6893,-0.0054600000000000065,-0.000700000000000145,-0.0014699999999999713,0.030874841004828513,-0.001755606080880323,-0.003326336342814651
150000000000.0,3,-0.5208115682,-0.6191526543999999,-1.8493380569999998,0.30234,-0.2177,0.14487,0.1579459049,-9.424680982499998,2.7057528014999996,3.0833,1.2908,1.6831,-0.006586999999999996,0.0028000000000001357,-0.0008200000000000429,-0.0016355222330306507,-0.00706322937852244,-0.0028174867856185504
150000000000.0,3,-0.7570341533999999,-0.56218582455,-1.8383546089999998,0.18828,-0.24972,0.072143,0.15564134215,-9.419091192,2.7252680349999996,3.0845,1.2887,1.6793,-0.006741999999999998,0.0024999999999999467,-0.0009700000000000264,-0.005700722431930094,-0.00387604078853121,-2.9677796206106777e-06
150000000000.0,3,-0.75188566215,-0.45850992074999997,-1.6986098465,0.16879,-0.22599,-0.047482,0.16350627545,-9.4144820665,2.7408606085,3.082,1.287,1.6795,-0.007769999999999999,0.0044999999999999485,-0.0005499999999999394,-0.03857501880585201,-0.008278192376369287,0.019542859839633553
150000000000.0,3,-0.5542522447,-0.40884904515,-1.3891119724999998,0.17938,-0.18332,-0.17669,0.1825605964,-9.409284542,2.7571396475,3.0755,1.2852,1.6842,-0.007110000000000005,0.0038000000000000256,-0.0006700000000000594,-0.003064056735857301,-0.007516461178163736,-0.014380733108476318
150000000000.0,3,-0.19703521179999997,-0.5044736893,-1.0950105389999998,0.18418,-0.1758,-0.2717,0.21095084814999998,-9.403792818,2.773909019,3.0657,1.2832,1.6926,-0.007290000000000005,0.0025999999999999357,-0.0010099999999999554,-0.0015897542672951293,-0.006031410107365076,-0.0007768230000845255
150000000000.0,3,0.1152281375,-0.5081609897,-1.014596009,0.20547,-0.21322,-0.32176,0.24584290884999999,-9.397516562,2.7921493879999995,3.0538,1.2809,1.703,-0.007569999999999993,0.0024000000000001798,-0.0011900000000000244,0.0001530425325020346,-0.005890996482370792,-0.0008823419894921081
150000000000.0,3,0.1206414083,-0.28625611349999996,-0.97027975765,0.27476,-0.24678,-0.36321,0.28577558765,-9.389475109,2.815489215,3.0404,1.2781,1.7143,-0.007810000000000011,0.0024999999999999467,-0.0012099999999999334,-0.0010213774529350683,-0.005914194125865135,-0.0015585017842384419
150000000000.0,3,-0.11197232969999998,0.0909076455,-0.9781054643499999,0.36903,-0.23152,-0.41538,0.33014087225,-9.378491661,2.847066628,3.0262,1.2742,1.7268,-0.007919999999999983,0.0024999999999999467,-0.0013000000000000789,0.0006844970874042566,-0.004069750928041405,-0.002941493637067305
150000000000.0,3,-0.34877350724999995,0.4637172519,-1.0834386919999999,0.44752,-0.19587,-0.47828,0.37944870844999995,-9.3644681515,2.8867835605,3.0109,1.2694,1.7406,-0.008129999999999998,0.001100000000000101,-0.0015899999999999803,0.0212432278365684,-0.006961759516621813,-0.007551449513765407
150000000000.0,3,-0.60258922255,0.62861607165,-1.268588244,0.4662,-0.16399,-0.53701,0.43334605684999994,-9.3487775115,2.9297366875,2.9947,1.264,1.7557,-0.008739999999999998,0.0041999999999999815,-0.0009899999999999354,-0.025087326928207032,-0.0003268090010299929,0.0052392821346344265
150000000000.0,3,-0.92579679325,0.63085198785,-1.5389575844999999,0.41195,-0.16245,-0.567,0.4905090197,-9.3334791375,2.9691594204999996,2.9779,1.2589,1.7718,-0.008870000000000017,0.0027999999999999137,-0.0011300000000000754,-0.005272586154068781,-0.0030711785385157953,-0.00014301429766150342
150000000000.0,3,-1.346453045,0.4925193829499999,-1.8636557659999997,0.31794,-0.18298,-0.57673,0.5494665995,-9.320240159999999,3.000246501,2.9605,1.2545,1.7882,-0.00877,0.0025999999999999357,-0.0011700000000000044,0.00033744263825230547,-0.0005702602942443402,0.0015903495818713198
150000000000.0,3,-1.713614021,0.23809565534999996,-2.192374674,0.21854,-0.20879,-0.58113,0.609581364,-9.309550911499999,3.0217230645,2.9425,1.251,1.805,-0.009039999999999992,0.0024000000000001798,-0.0011399999999999189,-0.003621233354093256,-0.001955380690352948,0.0012048916211723215
150000000000.0,3,-1.9802568344999998,-0.04778780544999999,-2.443621047,0.1339,-0.24647,-0.5716,0.67031394745,-9.3013133255,3.0343736429999995,2.9242,1.2484,1.8218,-0.008869999999999989,0.0022999999999999687,-0.0011800000000000699,-0.00019714612437082835,-0.00014666666345752866,0.002217210251581725
150000000000.0,3,-2.1758014355,-0.2277692529,-2.6414211775,0.075845,-0.28544,-0.54601,0.73027180555,-9.294742869999999,3.040649899,2.9059,1.2463,1.8382,-0.008830000000000005,0.0006999999999999229,-0.0012199999999999989,0.0040226038335811065,0.0006783362271687299,0.010180891427920336
150000000000.0,3,-2.3534979335,-0.25519845295,-2.6708411274999997,0.050915,-0.30766,-0.50332,0.7873955417999999,-9.2891530795,3.0433957609999998,2.8884,1.2445,1.8535,-0.008879999999999999,0.0024999999999999467,-0.0007399999999999629,0.005714196762769408,-0.0025173047093491885,-0.011039856317396346
150000000000.0,3,-2.5727746275000003,-0.26681933319999995,-2.5620853789999996,0.071803,-0.32069,-0.43388,0.8392138803999999,-9.283465222499999,3.0467300219999998,2.8728,1.2427,1.8666,-0.008720000000000006,0.0012000000000000899,-0.0007200000000000539,0.007608529518893237,-0.0019217329684126927,-0.000836319606543845
150000000000.0,3,-2.8834492995,-0.27175207814999996,-2.272396938,0.13885,-0.29256,-0.35376,0.8832065123,-9.2766005675,3.0552618074999995,2.8602,1.2405,1.8767,-0.008230000000000015,-0.0009000000000001229,-0.00030999999999992145,0.015086874535373163,-0.004417644411487398,-0.018596156983429202
150000000000.0,3,-3.251296741,-0.5408465541499999,-1.802658403,0.21819,-0.19206,-0.27161,0.91704926145,-9.267872649,3.0717369795,2.8515,1.2378,1.8836,-0.008719999999999978,0.0016000000000000458,-7.00000000000145e-05,0.022825157965657095,0.0015266795050725701,0.010121063401029029
150000000000.0,3,-3.3742721319999998,-1.0840270909999998,-1.2631945865,0.25636,-0.045397,-0.20135,0.9398301094,-9.258164065499999,3.0941942080000002,2.8467,1.2348,1.8877,-0.00878000000000001,0.0020999999999999908,0.0005699999999999594,-0.013358272333282795,0.004538760195558655,0.005236665893993853
150000000000.0,3,-3.0470242214999996,-1.4628579805,-0.93544653685,0.21757,0.075278,-0.14613,0.9529612137499999,-9.249436146999999,3.1161611039999997,2.8448,1.2321,1.8903,-0.008390000000000009,0.00019999999999997797,0.0010700000000000154,0.01038045732438575,0.005961973155153677,0.0013717225773369757
150000000000.0,3,-2.4091016389999997,-1.2314210405,-0.9790174828,0.087494,0.11041,-0.10799,0.96031620125,-9.2444347555,3.1287136159999998,2.8438,1.2305,1.8925,-0.008039999999999992,0.00020000000000020002,0.0014300000000000423,0.010905554800165751,0.006665881896545489,0.0008336820051292326
150000000000.0,3,-1.844042466,-0.51305450805,-0.9032611115499999,-0.11557,0.075836,-0.093337,0.9664453574999999,-9.245415420499999,3.1239083575,2.8416,1.2308,1.8958,-0.007769999999999999,-0.000300000000000189,0.0020000000000000018,-0.0031768646970622427,0.007496733655953047,-0.012606979136609242
150000000000.0,3,-1.3573384265,0.1320759622,-0.54010124875,-0.33786,0.02227,-0.1075,0.9748202366000001,-9.2532607405,3.0980188015,2.8367,1.2332,1.9013,-0.007699999999999985,0.0009000000000001229,0.0022699999999999942,0.025385834593183887,0.00910485087170998,0.003309225028347851
150000000000.0,3,-0.9708975765999999,0.21314753775,0.044090698399999996,-0.5353,-0.004842,-0.13875,0.9869412559999998,-9.266990050499999,3.052810145,2.8289,1.2375,1.9096,-0.007070000000000021,-0.0008000000000001339,0.0027199999999999447,0.017073407910510152,0.009411605403820689,-0.00028500707652645563
150000000000.0,3,-0.5069155451499999,-0.43256152485,0.5847116996,-0.68042,-0.016419,-0.15393,1.0014550979999999,-9.2850342865,2.9924992474999996,2.8187,1.2432,1.9203,-0.006919999999999982,-9.999999999998899e-05,0.0029200000000000337,0.0038358669209412888,0.0038305327223981944,-0.0353993254593743
150000000000.0,3,0.12039624204999999,-1.651047594,0.4549304935,-0.77559,-0.012489,-0.105,1.013419211,-9.306118584,2.9222836334999998,2.8078,1.2499,1.9316,-0.006790000000000018,-0.0007999999999999119,0.0025800000000000267,0.024783202965322104,0.007579958232802886,-0.014382030968477344
150000000000.0,3,0.29842616615,-2.784304068,0.29522919825,-0.8846,0.05539,0.040927,1.0125366125,-9.3307332755,2.8428497685,2.7994,1.258,1.9407,-0.006670000000000009,-0.00019999999999997797,0.0021700000000000053,0.03247636250050867,0.008775741122516445,-0.00499779522087096
150000000000.0,3,-0.667244466,-3.5432407115,1.11991943,-0.97139,0.15177,0.26903,0.9895890515,-9.3595648265,2.7547860514999996,2.7967,1.2677,1.9449,-0.006369999999999987,-0.0012000000000000899,0.0020699999999999052,0.010234817390116335,0.007002465739914809,-0.02404436876289695
150000000000.0,3,-1.9456393599999997,-4.243141322,2.3140752005,-1.0261,0.2894,0.54408,0.93799626585,-9.3917306385,2.6621132089999997,2.8028,1.2789,1.9412,-0.006919999999999982,0.00029999999999996696,0.0010200000000000209,0.030434840655215956,0.010925023223024688,-0.003668498234056683
150000000000.0,3,-2.2232656215,-4.816732280499999,2.5820909449999996,-1.0309,0.22528,0.7566,0.86444639085,-9.424975182,2.5674790364999995,2.8168,1.2909,1.9293,-0.006900000000000017,-0.00019999999999997797,0.0008799999999999919,0.014521720330711752,0.010745139173507612,-0.009940610162974095
150000000000.0,3,-0.9321809224,-4.9605958359999995,1.5925018935,-1.0808,-0.08769,0.84993,0.7855420849499999,-9.4586119915,2.4672550734999996,2.8334,1.3036,1.9122,-0.007029999999999981,-0.00019999999999997797,0.001080000000000081,0.035641259411198334,0.012105000732770543,-0.016408109326678244
150000000000.0,3,1.2203395259999998,-4.6974834165,0.3560402349,-1.2733,-0.53475,0.8792,0.7128748084499998,-9.4945043305,2.3487907415,2.8469,1.3178,1.8937,-0.00828000000000001,0.0015000000000000568,-0.0001500000000000945,-0.01585992056672758,0.011026900418444896,0.009589329965804971
150000000000.0,3,2.5589472509999998,-4.3454246815,-0.2260040559,-1.558,-0.90325,0.89431,0.64671914755,-9.5343193295,2.2017890579999997,2.8559,1.3346,1.876,-0.007809999999999984,-0.00029999999999996696,0.0009100000000000774,0.031722544818594045,0.009294473770559142,-0.0020487333233044636
150000000000.0,3,2.3766416274999997,-3.5006798505,-0.051377039349999994,-1.8149,-1.143,0.89215,0.58425078705,-9.577076323499998,2.027230688,2.861,1.354,1.8596,-0.008950000000000014,0.0005999999999999339,0.0006099999999999994,0.008308557201768041,0.006792867256788071,0.007577552628825424
150000000000.0,3,1.8355106804999999,-1.859733106,0.6558785586499999,-1.9503,-1.2804,0.86547,0.5245577084999999,-9.6190487855,1.8353145475,2.8632,1.3749,1.8446,-0.009170000000000011,0.0006999999999999229,0.0005100000000000104,-0.024034946479702723,0.0023712186317839112,0.01362861868069809
150000000000.0,3,1.7256762004999997,0.31415603275,0.9255124003999999,-1.9441,-1.3167,0.841,0.46591394149999993,-9.657196654,1.640456412,2.8649,1.396,1.8295,-0.00878000000000001,-0.0008999999999999009,0.0015999999999999348,0.03410243601928764,0.0023248396564159446,0.004740840293709692
150000000000.0,3,1.6905683934999998,2.416946959,0.36524867925,-1.8507,-1.2258,0.87409,0.40213148989999997,-9.6900489315,1.4529532639999998,2.8716,1.4165,1.8099,-0.00988,0.0012000000000000899,0.0005399999999999849,0.000369611047346563,0.0014579718421885435,0.027356125094259887
150000000000.0,3,1.0704939139999998,3.8351846819999995,-0.75896606345,-1.6301,-1.0509,0.9873,0.32443340195,-9.7167230195,1.2846711499999999,2.8942,1.4353,1.7759,-0.008840000000000015,-0.000400000000000178,0.0016000000000000458,0.017413222790908733,-9.690411914120567e-05,0.005862319594496679
150000000000.0,3,-0.3569228334,4.2844273185,-1.6433003405,-1.3246,-0.81373,1.0867,0.23137810009999998,-9.7367285855,1.1454167199999998,2.9423,1.4513,1.7186,-0.00812999999999997,-0.0004999999999999449,0.0019599999999999618,0.011476965647596593,0.0013537735730095868,-0.004210870072390627
150000000000.0,3,-2.1318676434999997,3.878726208,-1.7994222084999998,-1.0313,-0.40806,1.1196,0.12824156204999998,-9.750752095,1.037347437,3.0186,1.464,1.6365,-0.008500000000000008,0.00039999999999995595,0.0011600000000000499,0.021629526277303857,0.0026753748056032034,0.01944748538764629
150000000000.0,3,-2.978279605,3.0572231375000003,-1.43569356,-0.86984,0.13732,1.0644,0.02246703515,-9.760558744999999,0.94950927295,3.1179,1.4738,1.5366,-0.007940000000000003,9.999999999998899e-05,0.0013100000000000334,-0.0030307204207589145,0.0026967193190348127,-7.241166522187203e-05
150000000000.0,3,-3.492540331,1.9147484125,-1.2008242925,-0.87523,0.69059,0.89161,-0.07450112005,-9.768207932,0.8646032972499998,-3.0556,1.4822,1.4321,-0.007790000000000019,0.00020000000000020002,0.0011200000000000099,0.003523334307001802,0.001994901182302833,0.010113777815566993
150000000000.0,3,-3.3982003579999995,0.42195072955,-1.1859181845,-0.95819,1.0965,0.63244,-0.15131660949999998,-9.775072586999999,0.7719794879999999,-2.948,1.4905,1.3342,-0.008299999999999974,0.0011999999999998678,0.00030999999999992145,-0.018605118008860222,0.0026845398883721394,0.015641545691129077
150000000000.0,3,-2.4084151735,-1.0362687055,-0.8165409056,-1.0164,1.2613,0.37801,-0.2030368816,-9.781544976,0.6713926789499999,-2.8479,1.4992,1.2462,-0.008020000000000027,0.001100000000000101,0.0007599999999999829,0.01748408977041427,0.0033165967865464996,0.01929594536690693
150000000000.0,3,-1.2471116805,-2.1428510915,-0.45919638625,-1.0266,1.2243,0.21794,-0.23517327365,-9.787330899499999,0.5682855608499999,-2.7492,1.508,1.1598,-0.007189999999999974,-0.000300000000000189,0.001960000000000073,0.015524754303255062,-0.0004572292717479609,-0.0051252897621815174
150000000000.0,3,-0.40271988889999993,-2.5304098994999995,-0.15193442845,-1.001,1.06,0.18092,-0.2589740132,-9.792136158,0.46662002029999994,-2.6349,1.5164,1.0563,-0.008050000000000002,0.000500000000000167,0.0007599999999999829,0.002377494478757569,3.9221950224765934e-05,0.010092820534076008
150000000000.0,3,0.28342199165,-2.2240501535,0.05781020175,-0.94976,0.94873,0.20362,-0.28222558034999995,-9.795666552,0.36940669885,-2.4892,1.5234,0.92019,-0.00816,0.0006999999999999229,0.0012799999999999478,0.0023454851227628915,-0.00047853180021273367,0.006816062401981737
150000000000.0,3,1.0898130145,-1.354690631,0.28018579714999997,-0.86286,0.90747,0.25401,-0.30867411539999995,-9.797824015,0.27960720479999995,-2.3068,1.5283,0.7468,-0.008740000000000026,0.0013000000000000789,0.0003500000000000725,-0.021184711597438177,-0.000773820817386639,0.016940914847919264
150000000000.0,3,1.9362249759999999,-0.37571237479999997,0.76165308555,-0.75614,0.93745,0.2979,-0.33916299024999996,-9.7987066135,0.19962416739999997,-2.1028,1.5307,0.55187,-0.00763999999999998,-0.00019999999999997797,0.0015999999999999348,0.023492167171126344,-0.0008482483895120296,0.0033993208137126363
150000000000.0,3,2.4689222039999996,0.3161467827,0.9391632572,-0.62684,0.98323,0.3322,-0.37260366675,-9.7987066135,0.13164446959999998,-1.9104,1.5305,0.36911,-0.00824999999999998,0.0006999999999999229,0.0009200000000000319,0.007915954047113427,0.00017517265225541756,0.010285273471595857
150000000000.0,3,2.65564082,0.6944186931499999,0.8901103938999999,-0.50079,1.0046,0.33559,-0.40675042204999995,-9.7979220815,0.0756484981,-1.7547,1.5286,0.22325,-0.008670000000000067,0.0014000000000000679,4.999999999999449e-05,-0.019907161074836477,0.0003576046823849932,0.014983964650895076
150000000000.0,3,2.4344027959999996,0.9459102323999999,0.63944261325,-0.39185,0.99732,0.30057,-0.43783750255,-9.79684335,0.0304790682,-1.6403,1.526,0.11879,-0.007459999999999911,9.999999999998899e-05,0.0011299999999999644,0.026494831274183728,0.0010924265227056917,0.0012316155444866972
150000000000.0,3,1.92798739,0.97520269595,0.17427397714999998,-0.30641,0.96259,0.22819,-0.4623050943,-9.795764618499998,-0.005933023249999999,-1.558,1.5236,0.046107,-0.008560000000000012,0.0013999999999998458,-0.0006699999999999484,-0.02068974006374935,0.0015647397593385737,0.011265998323786108
150000000000.0,3,1.167775882,0.79001391735,-0.38772552105,-0.24754,0.93555,0.14722,-0.47852529339999994,-9.79488202,-0.03590214565,-1.4959,1.5218,-0.006575,-0.008120000000000016,0.0008000000000001339,-0.00045000000000006146,0.019616417431253863,0.002132180690248786,0.010589466969922134
150000000000.0,3,0.32387442289999996,0.37044620375,-0.8673197393000001,-0.22161,0.9354,0.082153,-0.48757683134999996,-9.794293621,-0.0625272004,-1.4433,1.5206,-0.049916,-0.008260000000000045,0.0009999999999998899,-0.0007699999999999374,-0.016332427447422138,-0.0010707845043591568,-0.0002904490983660635
150000000000.0,3,-0.40522058464999994,-0.10286195185,-1.1043268565,-0.23197,0.95576,0.052211,-0.4924507363999999,-9.793901355,-0.08929935489999999,-1.3914,1.5197,-0.092319,-0.007789999999999964,0.000400000000000178,-0.00012999999999996348,0.019399866565638968,-0.0012444248256433532,-0.0044747676934664415
150000000000.0,3,-0.8162270927999999,-0.3164802088,-1.1248227549999998,-0.26366,0.99864,0.057418,-0.4966872092,-9.793312956,-0.11909195759999999,-1.3355,1.5187,-0.13845,-0.008850000000000025,0.0011999999999998678,-0.0014399999999999968,-0.0025237253077960986,3.802530184304764e-05,0.017596357217841196
150000000000.0,3,-0.78799374745,-0.1581420379,-1.1335506734999998,-0.28487,1.0265,0.075478,-0.5021887398499999,-9.792626490499998,-0.1516892622,-1.2774,1.5173,-0.18633,-0.009109999999999951,0.0014000000000000679,-0.0018100000000000893,-0.008676144806765596,-0.0008036422787078834,0.004669051495621912
150000000000.0,3,-0.41588041319999997,0.3959336871,-1.081085096,-0.28944,0.99882,0.092597,-0.5090239749,-9.7916458255,-0.18512013205,-1.222,1.5155,-0.2317,-0.009419999999999984,0.0016000000000000458,-0.0021999999999999797,-0.012860302283870029,-0.0010360121757353458,0.0049179699766671026
150000000000.0,3,0.15013000485,1.0488212175,-1.0178322034999998,-0.2983,0.8486,0.13127,-0.5189875313,-9.790469027499999,-0.21837448219999997,-1.1725,1.5133,-0.27231,-0.009750000000000036,0.0023999999999999577,-0.0026599999999999957,0.012483118807247173,-0.001265963598639397,0.012854802154130651
150000000000.0,3,0.5319126959999999,1.6636981725,-0.8825985,-0.32249,0.64737,0.16574,-0.53296200755,-9.7888999635,-0.25300176334999996,-1.1276,1.5106,-0.31037,-0.010059999999999958,0.0019000000000000128,-0.0023299999999999432,-0.007840414119137717,-0.0033416943294806156,0.0066280249860271034
150000000000.0,3,0.5920274605,2.3339827,-0.6376283829999999,-0.30604,0.56944,0.16591,-0.54788772885,-9.7871347665,-0.28728581175,-1.0879,1.5077,-0.3443,-0.010170000000000012,0.0017000000000000348,-0.0029600000000000737,-0.009014685784792587,-0.001754970684178847,0.007537858458164348
150000000000.0,3,0.65295617695,3.1421487264999994,-0.6807776429999999,-0.18302,0.57488,0.11061,-0.5586848504999999,-9.785761835499999,-0.31192011655,-1.0616,1.5055,-0.36494,-0.010580000000000034,0.0017999999999998018,-0.0028799999999999937,-0.006744910083306133,-0.004239627450265848,0.008306588238204404
150000000000.0,3,0.5498098322499999,3.8252799654999996,-0.7659091716499999,0.020151,0.58075,0.028759,-0.5617837519,-9.7853695695,-0.31851018535,-1.055,1.5049,-0.36566,-0.011369999999999991,0.0020000000000000018,-0.003089999999999926,-0.013566096066148559,-0.005044052007055155,0.010796521236962175
150000000000.0,3,0.27959739815,4.2755032669999995,-0.85595383195,0.24843,0.52142,-0.056133,-0.5565764207499999,-9.7861541015,-0.30268225225,-1.0727,1.5061,-0.34254,-0.01151000000000002,0.0019000000000000128,-0.002950000000000008,-0.011795059661957596,-0.005837105201673465,0.012975624331089786
150000000000.0,3,-0.15852449724999998,4.412404101,-1.1233517574999998,0.44422,0.42608,-0.10473,-0.5459656254499999,-9.787821231999999,-0.2660740278,-1.1173,1.5088,-0.29334,-0.01161000000000001,0.0016000000000002679,-0.00273000000000001,-0.012054059731267275,-0.002230506138301669,0.014461986924519499
150000000000.0,3,-0.6642632444,4.3460130805,-1.35920169,0.5807,0.41856,-0.099139,-0.5349331441999999,-9.7896844955,-0.21440278894999998,-1.1896,1.512,-0.21678,-0.011839999999999962,0.0017000000000000348,-0.0025600000000000067,-0.00817969600593571,-0.004925037567770518,0.012765922448696898
150000000000.0,3,-1.115212238,4.075839873,-1.3897984380000001,0.68785,0.48267,-0.087325,-0.5254206937,-9.791351625999999,-0.15204230159999998,-1.2891,1.515,-0.11244,-0.012419999999999987,0.0014999999999996128,-0.003310000000000035,-0.05341888816803486,0.0055379895530520695,0.0321428661606844
150000000000.0,3,-1.3325276019999999,3.632579293,-1.3141891664999998,0.76232,0.5684,-0.12044,-0.51413323955,-9.7928226235,-0.0817678477,-1.4131,1.5177,0.017174,-0.011500000000000066,0.001100000000000101,-0.0015600000000000058,-0.015519389300403752,-0.007132428620321818,0.007242150740947473
150000000000.0,3,-1.4355954935,3.2146198699999995,-1.3249764815,0.82191,0.63831,-0.18984,-0.49698140869999996,-9.794097488,-0.005727083599999999,-1.5593,1.5201,0.16977,-0.011560000000000015,0.0013000000000000789,-0.0015899999999999803,-0.005399144927877408,0.000677583479600008,0.0172665952653972
150000000000.0,3,-1.5113028314999999,2.8306895225,-1.5932864254999999,0.89794,0.75605,-0.2721,-0.47271975659999993,-9.794980086499999,0.07665858304999999,-1.7316,1.5219,0.34951,-0.01150999999999991,0.0013999999999998458,-0.0012100000000000444,0.0007344520841932045,0.003313611482368417,0.018010158422315903
150000000000.0,3,-1.87110882,2.408120974,-1.9902596174999998,1.0108,0.93531,-0.36509,-0.44007341874999995,-9.795274286,0.16876263984999998,-1.937,1.5227,0.56409,-0.011240000000000028,0.00140000000000029,-0.0006899999999999684,0.0002013013233430616,0.003713695723883692,0.012168874721751322
150000000000.0,3,-2.272396938,1.826782762,-2.462645948,1.1285,1.0825,-0.4025,-0.4035632608,-9.7945878205,0.2722522173,-2.1643,1.5211,0.80219,-0.011079999999999979,0.0013999999999998458,4.999999999999449e-05,-0.004149993756930259,0.005168125760382614,0.01087111264194085
150000000000.0,3,-2.5962125209999996,1.0695132489999999,-2.5753243565,1.1867,1.1768,-0.38656,-0.36868100675,-9.7922342245,0.38299871575,-2.3752,1.5166,1.025,-0.011230000000000073,0.0015999999999998238,0.00038000000000004697,0.002129929406650355,0.006509389725174453,0.011270939251845191
150000000000.0,3,-2.8567752115,0.23658543125,-2.201200659,1.1744,1.2696,-0.32377,-0.34071244095000003,-9.788213498,0.49443167969999996,-2.5382,1.5095,1.2007,-0.01095999999999997,0.0015000000000000568,0.0016699999999999493,-0.0036491705407941666,0.0049099712787625815,0.00430081546739336
150000000000.0,3,-2.8390251749999997,-0.6765803967999999,-1.5254244074999999,1.0858,1.428,-0.27296,-0.32054016189999995,-9.78311404,0.5990392152499999,-2.6503,1.5015,1.3269,-0.010179999999999967,0.000700000000000145,0.0028599999999999737,-0.005982144560747749,0.0045985253507048185,0.005739550590359688
150000000000.0,3,-2.4101803704999996,-1.7124372229999998,-1.3034018514999999,0.88209,1.6118,-0.216,-0.30781113019999995,-9.777818449,0.68618110715,-2.7199,1.494,1.4125,-0.009660000000000002,0.00039999999999995595,0.003269999999999995,0.0061431269935487975,0.003744494958594302,0.010082875998281282
150000000000.0,3,-1.6005433464999999,-2.923754631,-1.925633794,0.58837,1.6461,-0.098088,-0.3068893051,-9.773405456499999,0.7463252916,-2.7515,1.4884,1.4607,-0.008879999999999999,0.00010000000000021103,0.00387000000000004,0.012029576134626074,0.002559979680693436,0.016603906196681284
150000000000.0,3,-0.89508236545,-3.961690467,-2.4069441759999997,0.29249,1.5716,0.063776,-0.3210304944,-9.770561528,0.7769220396,-2.7498,1.485,1.4749,-0.008670000000000067,0.0007999999999999119,0.0034600000000000186,0.048004219525141334,-0.007043742755282301,-0.011180118179027865
150000000000.0,3,-0.5274800902,-4.5513643315,-2.5684597014999997,0.054687,1.4593,0.28772,-0.35508898985,-9.768992464,0.78224705055,-2.7155,1.4831,1.4555,-0.008579999999999921,0.0002999999999997449,0.0024899999999999922,0.006930036567963649,-0.00022375315358735826,0.013422116177084331
150000000000.0,3,-0.411487034,-4.9039133989999995,-2.61445289,-0.023119,1.3308,0.49382,-0.40927073109999995,-9.7673253335,0.7756864016999999,-2.6561,1.4812,1.4096,-0.009029999999999982,0.000800000000000356,0.0013900000000000023,0.0018000196722087747,0.0001758464752616984,0.017585723823236754
150000000000.0,3,-0.44391762555,-4.686205769,-2.4428365149999998,0.039148,1.1853,0.6116,-0.47634821709999997,-9.7645794715,0.7722540741999999,-2.5889,1.4781,1.3544,-0.008600000000000052,0.0006999999999997009,0.0012199999999999989,-0.017571889596774026,0.002166053262442791,0.02763163238162758
150000000000.0,3,-0.20623384949999998,-5.206742750999999,-2.026838422,0.099237,0.87353,0.6859,-0.5492802731499999,-9.7604606785,0.7763042206499999,-2.5258,1.4737,1.3007,-0.010009999999999963,0.000700000000000145,-0.00043000000000004146,-0.014368374547232943,-0.003040420922643783,0.019047055430905013
150000000000.0,3,0.12510343405,-6.927711759499999,-0.4719156112999999,0.094421,0.64238,0.63933,-0.6192114943,-9.755851553,0.78181555795,-2.4717,1.4689,1.2533,-0.010290000000000021,0.0015000000000000568,-0.0011700000000000044,-0.016720928574978977,-0.010526422686859993,0.015947826750366434
150000000000.0,3,0.48913608869999997,-9.15744977,2.3736996324999997,-0.024256,0.64778,0.48328,-0.6755801185,-9.7522230925,0.7797267414999999,-2.4276,1.4654,1.2152,-0.01092000000000004,0.0019999999999997797,-0.0018799999999999928,-0.016313636865308734,-0.019232234012451332,0.005077358052333558
150000000000.0,3,2.0578274359999997,-11.417882594999998,4.3462092135,-0.36717,1.0163,0.30271,-0.7160227430999999,-9.751928892999999,0.7468842706500001,-2.3773,1.4651,1.1737,-0.01034999999999997,0.00039999999999995595,-0.0019699999999999163,-0.02246288104155747,-0.01442949299226326,0.023729945280146936
150000000000.0,3,3.8494043244999996,-9.5013689855,4.371216171,-0.70667,1.2952,0.15006,-0.74339310325,-9.754968954499999,0.67653136355,-2.3091,1.4681,1.1177,-0.009909999999999974,-0.0002999999999997449,-0.0016599999999999948,-0.009474541597074282,-0.015647678784381114,0.02262515834913048
150000000000.0,3,4.4427066495,-3.9704183855,1.469232303,-0.83816,1.451,0.022536,-0.7572302864,-9.7598722795,0.58530990525,-2.2288,1.473,1.0512,-0.009639999999999982,-0.0009000000000001229,-0.0011800000000000699,-0.02194663283768583,-0.014531941323080222,0.02106037768692437
150000000000.0,3,4.1232059925,1.7860851644999998,-0.6966448027,-0.61769,1.4929,-0.04547,-0.76220225795,-9.763893006,0.5060035266999999,-2.1569,1.4774,0.99389,-0.009360000000000035,-0.001100000000000101,-0.0007500000000000284,-0.008408010335215321,-0.011868345988736317,0.02275848025908933
150000000000.0,3,3.2715965065,6.412372302,-0.2183940955,-0.045634,1.4744,-0.11063,-0.76065280725,-9.7655601365,0.4741319142,-2.1282,1.4793,0.97999,-0.008220000000000005,-0.0023999999999997357,0.00036000000000002697,-0.016618937183872085,0.0008295919845384692,0.03462425014864878
150000000000.0,3,2.399687255,9.115281175,0.7331451539999999,0.76368,1.4402,-0.27995,-0.7454230797999999,-9.7645794715,0.5173694340499999,-2.1775,1.4781,1.0441,-0.00814999999999999,-0.00140000000000029,0.000140000000000029,0.001803563780397921,-0.003835528688969303,0.019088423442745528
150000000000.0,3,1.8837593985,10.3165958,1.9006268365,1.5002,1.5357,-0.61614,-0.70293086535,-9.7606568115,0.6366281047,-2.3067,1.4739,1.1889,-0.007530000000000037,-0.0015000000000000568,0.00041999999999997595,0.004934499617457178,0.0003702074457447857,0.010923603746666455
150000000000.0,3,1.929752587,10.233239275,2.8489298914999996,1.9449,1.7999,-1.0022,-0.6265959017499999,-9.753399890499999,0.8062243097999999,-2.4809,1.4665,1.3814,-0.007589999999999986,-0.0010999999999996568,0.00046999999999997044,-0.0013081270215182794,0.0026341866423076343,0.012894109140051624
150000000000.0,3,2.016835639,8.543161214,3.267771913,2.0969,2.0697,-1.3173,-0.52329265065,-9.741729977,0.9972382384999999,-2.6583,1.4557,1.5801,-0.00710999999999995,-0.001100000000000101,9.999999999998899e-05,0.007575746483595491,0.00421759654994025,0.007291649908035325
150000000000.0,3,1.2145536024999999,5.7488543629999995,2.917282242,2.0165,2.1718,-1.5183,-0.40302389504999997,-9.726235469999999,1.1869969159999998,-2.8143,1.4426,1.7589,-0.00723000000000007,-0.0009000000000001229,0.00012000000000000899,-0.008798106961205088,0.0041378975885073555,0.005673087771913332
150000000000.0,3,-0.04201168859999999,2.54776767,2.384388881,1.7366,2.0985,-1.5603,-0.27850886,-9.708387366999998,1.3566519609999999,-2.9391,1.4291,1.9064,-0.007610000000000006,-0.0004999999999997229,-0.00025999999999992696,-0.006399326759554791,0.005155219021526269,0.012109244547004794
150000000000.0,3,-1.2131806715,-0.77391139805,1.57690932,1.2731,1.9743,-1.4435,-0.16304536289999996,-9.691716062,1.4879630044999999,-3.0325,1.4176,2.021,-0.007369999999999988,-0.000700000000000145,-0.00043000000000004146,-0.0006614131329296669,0.0021701076365550076,0.008248024274702281
150000000000.0,3,-1.9584860714999999,-3.6472892679999993,0.42199976279999996,0.73528,1.8666,-1.1784,-0.07077459305,-9.679948082,1.5699465985,-3.0965,1.4098,2.1051,-0.007580000000000031,-0.000500000000000167,-0.0005600000000000049,-0.020195532902402613,0.0011100928793383869,0.009533480508234993
150000000000.0,3,-2.1469698845,-5.4067984110000005,-0.48665500625,0.25551,1.7401,-0.80865,-0.01126784085,-9.674456357999999,1.6048582724999998,-3.1346,1.4064,2.1616,-0.007419999999999982,-0.00039999999999995595,-0.0006399999999999739,-0.008334920743088281,-7.089864033682503e-05,0.008192953889437637
150000000000.0,3,-2.0134033115,-5.5930266945,-0.88480499625,-0.060588,1.5569,-0.40326,0.0117483667,-9.674260225,1.6056428044999997,3.1343,1.4063,2.1925,-0.007359999999999922,-0.0005999999999999339,-0.0007800000000000029,-0.011623703967118093,0.0005457970778677268,0.00784510836363328
150000000000.0,3,-1.4801176845,-4.715625719,-0.4963145565,-0.21671,1.3372,-0.042366,0.00171616375,-9.6773002865,1.587500502,3.1405,1.4082,2.2003,-0.007000000000000006,-0.000500000000000167,-0.0006500000000000394,-0.007847427445643262,0.001592163242629896,0.00697078291034714
150000000000.0,3,-0.6373145702,-2.9864191245000002,-0.04573821559999999,-0.21457,1.1036,0.22383,-0.032607111249999994,-9.6808306805,1.5654355395,-3.1208,1.4104,2.1899,-0.006759999999999988,-0.0008999999999996788,-0.0006300000000000194,-0.004999226018592484,5.0105293795787986e-05,0.00411505941784629
150000000000.0,3,0.09615420324999999,-0.9256006602499999,0.119444997,-0.048232,0.90386,0.35256,-0.07909063224999999,-9.6822036115,1.5553346899999998,-3.0908,1.4113,2.1691,-0.006230000000000069,-0.0013000000000000789,-0.0010499999999999954,-0.004832739463699998,0.0013608511826912473,0.008271334410146824
150000000000.0,3,0.6436496661,0.8553948529,0.25443353425,0.23473,0.80774,0.3671,-0.12784929605,-9.679359683,1.569652399,-3.0603,1.4095,2.1466,-0.00710999999999995,-0.0005999999999999339,-0.0009199999999999209,-0.021549403017317115,0.003583649482920004,0.0033956942737991547
150000000000.0,3,1.38862164,1.8837593985,0.6926044628999999,0.57889,0.81993,0.26627,-0.16952755854999998,-9.671122097,1.6161359199999998,-3.0371,1.4043,2.1313,-0.006220000000000114,-0.0015000000000000568,-0.0007000000000000339,-0.004504712272009881,-0.0014206530715394905,0.004060645407202523
150000000000.0,3,1.962702931,2.181587359,0.9470478038,0.86921,0.87204,0.11404,-0.19849640265,-9.6574908535,1.692431657,-3.0248,1.3961,2.1276,-0.006299999999999972,-0.0015000000000000568,-0.0009099999999999664,0.0033755080276538507,-0.0039483602527461414,0.0027238710393171495
150000000000.0,3,2.4786307874999998,1.88091547,1.0239123264999999,1.0296,0.84739,0.003354,-0.21600127289999999,-9.6400350165,1.7869677629999998,-3.0213,1.3862,2.1328,-0.006599999999999939,-0.0013999999999998458,-0.0005800000000000249,-0.0010598407470550075,-0.002984912611511348,0.004854837489265185
150000000000.0,3,2.452054766,1.4503054684999999,0.8384783816499999,1.0545,0.7364,-0.031632,-0.22738679354999997,-9.620617849499999,1.887191726,-3.0217,1.3757,2.141,-0.00649999999999995,-0.0018000000000002458,-0.00046000000000001595,0.0007006032559917497,-0.0031333768164898412,0.002139260301299961
150000000000.0,3,1.9267125255,0.9746437169,0.40184709705,0.97019,0.61453,-0.009147,-0.2382231418,-9.6013968155,1.9815316989999998,-3.0219,1.3658,2.1478,-0.006800000000000139,-0.0016999999999998128,-0.0007699999999999374,-1.607382097024157e-05,-0.005420581279210301,0.005272026630084081
150000000000.0,3,1.324290016,0.53327582035,0.009316317499999999,0.82117,0.54114,0.016341,-0.25048145429999996,-9.5839409785,2.0628288275,-3.0208,1.3573,2.1523,-0.006299999999999972,-0.0025000000000001688,-0.000540000000000096,-0.005809065123199897,0.0005282845678267201,0.0026950992912149196
150000000000.0,3,0.7751078093499999,0.42530460384999996,-0.1765785399,0.64266,0.49999,0.016105,-0.26290647985,-9.569525203,2.1273565845,-3.0186,1.3504,2.1553,-0.007099999999999884,-0.0020000000000000018,-0.0013599999999999168,-0.00656088270131594,-0.006205962156910605,0.0054111741627065335
150000000000.0,3,0.42601068264999997,0.38494043245,-0.19142580799999998,0.45393,0.48986,-0.023698,-0.2723306705,-9.558737888,2.1739381719999997,-3.017,1.3455,2.1587,-0.007100000000000106,-0.0022999999999999687,-0.0008299999999999974,0.024313314059545954,-0.015715466940431355,-0.0071161636553289664
150000000000.0,3,0.2420673486,0.2140007163,-0.2347908143,0.2876,0.45721,-0.098647,-0.27514517904999997,-9.551873233,2.2038484545,-3.0174,1.3423,2.1639,-0.006299999999999972,-0.0037000000000000366,-0.0008500000000000174,-0.030101501252885132,-0.001950985589975085,0.010218167072273854
150000000000.0,3,0.1702630573,-0.00718827445,-0.38276335615,0.17243,0.40179,-0.20015,-0.2678196115,-9.547950573,2.2216965575,-3.0216,1.3406,2.1725,-0.007099999999999884,-0.0027999999999999137,-0.0016399999999999748,-0.00375581548321402,-0.010278872299978259,0.009890780350993778
150000000000.0,3,0.2790384191,-0.049866815249999995,-0.4634230524,0.1288,0.34685,-0.31007,-0.24881432379999996,-9.545596976999999,2.2336606705,-3.0307,1.3396,2.1855,-0.008099999999999996,-0.0024999999999999467,-0.0017900000000000693,0.003041282934975298,-0.005975345017511513,0.01889210353838444
150000000000.0,3,0.4239610928,0.0056486304,-0.5634214624499999,0.14904,0.28923,-0.3964,-0.21956108684999998,-9.543439514,2.2462131825,-3.0442,1.3386,2.2025,-0.007200000000000095,-0.0033000000000000806,-0.0011900000000000244,-0.013171870207678626,-0.009063196851577748,-0.006507591711384375
150000000000.0,3,0.33887859740000004,0.044826197150000004,-0.7629377567,0.22161,0.25034,-0.46345,-0.1826586629,-9.5398110535,2.2648458175,-3.0611,1.337,2.2226,-0.009500000000000064,-0.0020000000000000018,-0.002589999999999981,-0.02958668658785646,0.004560278364171388,0.027495078590547894
150000000000.0,3,-0.00681562175,0.07573675795,-0.9612576396499999,0.31044,0.24328,-0.52839,-0.13938191645,-9.53402513,2.292010238,-3.0809,1.3345,2.2454,-0.008000000000000007,-0.0030999999999998806,-0.0014299999999999313,-0.007420483535109712,-0.003915617796173665,0.005234686399428368
150000000000.0,3,-0.33949641634999994,0.18662054949999998,-1.1264898854999998,0.38896,0.27575,-0.6041,-0.08966220094999999,-9.526081743499999,2.3272161115,-3.1031,1.331,2.271,-0.008000000000000007,-0.0030000000000001137,-0.0012300000000000644,-0.006456412313127435,-0.0034672912675333123,0.0005546151412267886
150000000000.0,3,-0.6228301481499999,0.33560317630000003,-1.2167110655,0.42943,0.34796,-0.68742,-0.033931009,-9.516569292999998,2.367129177,-3.1273,1.327,2.2992,-0.008000000000000007,-0.0030999999999998806,-0.0015199999999999658,-0.005407622147884705,-0.0035148631125470065,0.004817308660035824
150000000000.0,3,-0.9416051130499999,0.54939795295,-1.1404153285,0.43486,0.44177,-0.76976,0.02746842665,-9.506272310499998,2.40851324,3.1302,1.3226,2.3301,-0.007399999999999851,-0.0031000000000001027,-0.0021100000000000563,-0.012493595012928793,-0.009063655909248736,0.007051102466828496
150000000000.0,3,-1.2796697584999999,0.7907886426999999,-0.9213543807999999,0.42637,0.53782,-0.83933,0.09315336835,-9.495386929,2.4495050369999998,3.1036,1.3182,2.3629,-0.007400000000000073,-0.0031000000000001027,-0.0012999999999999678,-0.0017273881070256625,-0.004147138508268533,-0.0016841446750481825
150000000000.0,3,-1.5676910689999999,0.9111456581499999,-0.70956016075,0.43584,0.62198,-0.89176,0.1618489516,-9.483618949,2.4911832995,3.0767,1.3134,2.3968,-0.007400000000000073,-0.0027999999999999137,-0.0009599999999999609,0.003070662855179762,-0.0003861066705679317,-0.002537915652373268
150000000000.0,3,-1.6933142554999998,0.87307624285,-0.57444413705,0.49938,0.68222,-0.91417,0.23132906685,-9.4697915725,2.5378629535,3.0507,1.3079,2.4307,-0.007099999999999884,-0.0035000000000000586,-0.0009900000000000464,0.0010080184747063292,-0.00022175355727949153,-0.0021178993944963587
150000000000.0,3,-1.6507533945,0.7515228160999999,-0.5113187309999999,0.61766,0.67802,-0.89048,0.29894591859999997,-9.4523357355,2.595035723,3.0269,1.3012,2.4625,-0.007000000000000117,-0.0034999999999998366,-0.0009500000000000064,0.006982950499048846,-0.002575623609340605,0.0001897898568727907
150000000000.0,3,-1.468055505,0.5710412294999999,-0.47783882789999993,0.75004,0.59162,-0.83139,0.36279701675,-9.430663038999999,2.6649571374999996,3.0063,1.293,2.4903,-0.006999999999999895,-0.0039000000000000146,-0.0007099999999999884,0.002654659382695934,0.0004275495356467207,-0.0020459281663860462
150000000000.0,3,-1.206414083,0.3127340685,-0.6557412655499999,0.82416,0.43535,-0.75306,0.42292158789999995,-9.4056560815,2.7433122709999997,2.9886,1.2838,2.5137,-0.007100000000000106,-0.0042999999999999705,0.0005899999999999794,0.008533552318970239,0.009731663150718495,-0.002539304950236465
150000000000.0,3,-0.74710001695,-0.05231847775,-1.123645957,0.7922,0.2405,-0.6471,0.47835858035,-9.380060725,2.8205886729999996,2.9736,1.2748,2.5324,-0.006999999999999895,-0.0045000000000001705,-0.0017999999999999128,0.00765098638008177,-0.01035976385377535,-0.0005431126106827389
150000000000.0,3,-0.2673685056,-0.4694639488,-1.6342782224999999,0.64407,0.079612,-0.51152,0.5262444522999999,-9.357701563,2.8857048290000002,2.9612,1.267,2.5466,-0.007200000000000095,-0.0045999999999999375,-0.00017000000000000348,0.0073938433175357865,0.0018265321340682483,0.0004341410876715912
150000000000.0,3,0.0015494506999999998,-1.11403544,-1.931517784,0.40862,-0.051803,-0.36332,0.5643727074999999,-9.3417167235,2.9297366875,2.9513,1.2617,2.5568,-0.006899999999999906,-0.004899999999999904,0.00027999999999994696,0.0038656103063798852,0.00279805732945837,-0.0025730915200812277
150000000000.0,3,0.08211108045,-1.7605878744999999,-2.008009654,0.14885,-0.16382,-0.22802,0.5927531525999999,-9.33396947,2.9489577215,2.9432,1.259,2.5638,-0.006699999999999928,-0.0051000000000001044,0.0006500000000000394,0.009808372700323975,0.002783822136299685,-0.0003714828200318543
150000000000.0,3,0.00863965865,-1.9759419084999998,-1.6009356125,-0.11121,-0.1927,-0.11634,0.6117584402999999,-9.3344598025,2.9434659974999997,2.9367,1.2592,2.5687,-0.006300000000000194,-0.005400000000000071,0.0011299999999999644,0.01591039092969604,0.007185721409782131,-0.001692223998995157
150000000000.0,3,-0.226141349,-1.8547317144999997,-1.143847656,-0.34367,-0.13544,-0.050662,0.6222319425,-9.3425012555,2.915517045,2.9313,1.2619,2.5727,-0.006299999999999972,-0.005099999999999882,0.0024699999999999722,0.014487920235070506,0.017497451368688965,-0.002879523863590583
150000000000.0,3,-1.0121443465,-1.2823175539999998,-0.7290852009,-0.50026,-0.087294,-0.024334,0.6276844398999999,-9.3558382995,2.8712890535,2.9264,1.2664,2.5769,-0.005499999999999838,-0.006000000000000005,0.0020299999999999763,0.025553962099877925,0.002421290181572333,-0.002149351199417282
150000000000.0,3,-1.9007249029999997,-0.57271816665,-0.20135994444999997,-0.56401,-0.059055,-0.031966,0.63222491885,-9.371430873,2.8190196089999997,2.921,1.2718,2.5818,-0.0047000000000001485,-0.006199999999999983,0.0022600000000000398,0.0405758332127073,0.002277685492018122,-0.005963556715748997
150000000000.0,3,-2.2518029729999998,-0.38000768749999997,0.16933142555,-0.55417,-0.031427,-0.0352,0.6367653978,-9.3868273135,2.766259832,2.9153,1.2771,2.5873,-0.005199999999999871,-0.0052000000000000934,0.0021600000000000508,0.01836758569653041,0.010788365438072711,-0.009262332597449685
150000000000.0,3,-2.1918843414999998,-0.8691241628999999,0.29300308869999997,-0.5584,0.001594,0.010633,0.6374126366999999,-9.402027621,2.714088454,2.9109,1.2825,2.5919,-0.0049000000000001265,-0.00529999999999986,0.0019199999999999218,0.02289629655395342,0.008479737786479369,-0.011549040211277672
150000000000.0,3,-2.022719629,-1.804031334,0.43987728574999996,-0.6292,0.012735,0.10442,0.62993016275,-9.418796992499999,2.657209884,2.9088,1.2886,2.5941,-0.0046999999999999265,-0.0052000000000000934,0.0015399999999999858,0.02046066885172837,0.008693108073147382,-0.010259412344873597
150000000000.0,3,-1.6354550205,-2.919439705,0.49020501354999996,-0.80114,0.086455,0.25556,0.60802210665,-9.439881289999999,2.5865039375,2.9107,1.2964,2.5928,-0.0045999999999999375,-0.004899999999999904,0.0011100000000000554,0.022763875223296814,0.005475214696424313,-0.01285130693834935
150000000000.0,3,-1.6051524719999999,-3.963651797,0.79693741225,-1.0519,0.21085,0.46519,0.5647257469,-9.46733991,2.4940272279999998,2.9189,1.307,2.5862,-0.0045000000000001705,-0.0050000000000001155,0.0008599999999999719,0.01716501474777221,0.010122483234971114,-0.009185072277434703
150000000000.0,3,-2.063907559,-4.7543619865,1.3818550515,-1.3459,0.30037,0.72817,0.4951083385499999,-9.5017612515,2.3750725635,2.9361,1.3208,2.5713,-0.0043999999999999595,-0.004899999999999904,0.00021000000000004349,0.019581369749635646,0.008419693114352311,-0.0072539571671368375
150000000000.0,3,-2.1877655485,-5.055328074999999,1.528268336,-1.607,0.21384,0.9595,0.40306312164999997,-9.541478184,2.228855412,2.9627,1.3377,2.5465,-0.004999999999999893,-0.0051000000000001044,0.0009899999999999354,0.01421988961632814,0.016303837879147798,-0.006509828872235834
150000000000.0,3,-1.2395605600000001,-4.7198425785,0.8356442597999999,-1.7817,-0.058728,1.1006,0.30001484344999996,-9.582666114,2.0620442955,2.9971,1.3567,2.5114,-0.005400000000000071,-0.0044999999999999485,-0.00032999999999994145,0.0070676737452457505,0.00966833177094184,-0.00033627874712549577
150000000000.0,3,0.3438407623,-3.8915729194999997,0.16278058334999998,-1.8882,-0.40741,1.1373,0.19724115144999999,-9.62228498,1.8821903344999997,3.0372,1.3766,2.4672,-0.005600000000000049,-0.005300000000000082,0.001040000000000041,0.012252595694612678,0.014593787340481779,0.002024779291899703
150000000000.0,3,1.5886772999999998,-2.526977572,0.27432142045,-1.9564,-0.69983,1.0897,0.10173418709999998,-9.658667651499998,1.6939026544999998,3.0816,1.3969,2.4156,-0.006199999999999983,-0.00529999999999986,0.0009199999999999209,0.0008839904858746195,0.013665382586367958,0.009144125438351303
150000000000.0,3,2.4685299379999996,-0.6450029838,0.5308143512,-1.9639,-0.90744,0.9726,0.0182795956,-9.690735397,1.5030652454999998,3.1294,1.4169,2.3583,-0.006299999999999972,-0.006099999999999994,0.0014000000000000679,0.01051415448371884,0.005788849967875986,0.011334727423697455
150000000000.0,3,3.2258975175,1.3075206445,1.001062832,-1.9347,-0.94059,0.84996,-0.053711022049999994,-9.717997883999999,1.314483366,-3.1008,1.4362,2.2952,-0.006399999999999961,-0.006300000000000194,0.0017199999999999438,0.007461417810717741,0.006624576482333611,0.0159276107340367
150000000000.0,3,3.8368518124999995,2.9148305795,1.691843258,-1.8909,-0.81198,0.81885,-0.12311268409999998,-9.740553178999999,1.12972608,-3.033,1.4547,2.2184,-0.006699999999999928,-0.006399999999999961,0.0016700000000000603,0.0073925544358881545,0.006908013204096841,0.02157092399562588
150000000000.0,3,3.3878053089999995,3.929524655,1.67301449,-1.7826,-0.69362,0.90956,-0.2013109112,-9.758107082499999,0.9537555523999999,-2.9336,1.4712,2.1112,-0.006400000000000183,-0.006699999999999928,0.0020000000000000018,0.014246058119371297,-0.0004331496320451045,0.018281656382409084
150000000000.0,3,1.7116526909999998,3.832634953,0.7620061249499999,-1.6228,-0.58859,1.1146,-0.2994754777,-9.769973129,0.79242635325,-2.7803,1.4843,1.951,-0.005799999999999805,-0.006999999999999895,0.0021299999999999653,0.007103334586659793,0.007079746624472527,0.01575606865247603
150000000000.0,3,-0.31639194895,2.7395857439999998,0.050494440849999996,-1.3581,-0.47266,1.2824,-0.4177240634,-9.775857119,0.6542996879999999,-2.5734,1.4916,1.7383,-0.006000000000000005,-0.006400000000000183,0.0018199999999999328,0.011978971358363122,0.0015060776264272935,0.017355351910936623
150000000000.0,3,-1.9455412935,0.8413615367499999,-0.3217954131,-1.0729,-0.12876,1.3506,-0.5474660429,-9.776249385,0.5441513952,-2.3532,1.492,1.515,-0.005900000000000016,-0.006000000000000005,0.0009100000000000774,0.0061752609907759215,0.003034203783216727,0.01801066955985009
150000000000.0,3,-2.3093680085,-1.034013176,-0.0522498312,-0.88354,0.43025,1.2849,-0.6770707293,-9.7728170575,0.45178255884999996,-2.1592,1.4877,1.3233,-0.005800000000000027,-0.005900000000000016,0.0013199999999999878,0.007803279722241374,0.005439916803799738,0.018399847127624547
150000000000.0,3,-2.6590731475,-2.2558236995,0.03727507665,-0.7883,1.0147,1.094,-0.7927303594,-9.7677175995,0.36629799080000003,-2.0036,1.4816,1.1759,-0.005800000000000027,-0.005699999999999816,0.0009200000000000319,0.005324250453734303,0.00425156810418903,0.01643457822567762
150000000000.0,3,-2.6643687385,-3.03810017,-0.3741236975,-0.76862,1.4581,0.85308,-0.8863740602499999,-9.762520075,0.27985237105,-1.8766,1.4759,1.062,-0.005700000000000038,-0.005700000000000038,0.00046999999999997044,-0.0009154893945357845,0.005032080854794119,0.01811090913333202
150000000000.0,3,-1.9967320065,-2.9873997895,-0.059663658599999995,-0.79516,1.7409,0.63692,-0.9574330461499999,-9.758009015999999,0.18745411474999998,-1.7641,1.4711,0.96588,-0.005900000000000016,-0.005600000000000049,0.0006300000000000194,0.00385072139250342,0.002284587027013618,0.014691084395429321
150000000000.0,3,-1.2765316305,-2.4365602589999997,0.08952490784999999,-0.82685,1.8308,0.50328,-1.0117520805,-9.753890222999999,0.0895935544,-1.6591,1.467,0.87862,-0.006399999999999961,-0.005300000000000082,0.00046000000000001595,0.008212072082517619,0.0027047781853255515,0.004062070670531881
150000000000.0,3,-0.4736121617499999,-1.7709829234999999,0.071196279,-0.83735,1.8213,0.45418,-1.0574510695,-9.7494772305,-0.0110422879,-1.5604,1.4627,0.79767,-0.005800000000000027,-0.006199999999999983,0.0010399999999999299,-8.582816832758411e-05,0.0024421451276790407,0.01708489393071355
150000000000.0,3,0.48975390765,-0.87964669835,0.32710081075,-0.81117,1.7636,0.46073,-1.1009925955,-9.7439855065,-0.11042287899999999,-1.4708,1.4577,0.72554,-0.005400000000000071,-0.006099999999999994,0.000280000000000058,0.002482505259551182,-0.000544804028694168,0.014985632676294713
150000000000.0,3,1.5566095545,0.20096767845,1.039701033,-0.72963,1.7096,0.49833,-1.1457109195,-9.737415051,-0.20320359464999999,-1.3953,1.4519,0.66682,-0.005399999999999849,-0.006099999999999994,0.00039000000000000146,0.004846681480306758,-0.0016739884410665873,0.015871676966879855
150000000000.0,3,2.610726363,1.161303493,1.6394757469999999,-0.58806,1.702,0.55303,-1.1939596375,-9.729569731,-0.2841771037,-1.3371,1.4453,0.6254,-0.00550000000000006,-0.006399999999999961,0.0007099999999999884,0.004596592119671339,0.0017568149420583712,0.014368647871594753
150000000000.0,3,3.1384221994999995,1.7365615819999998,1.823056235,-0.39937,1.7132,0.60243,-1.2461310154999998,-9.720939879,-0.348724474,-1.2979,1.4385,0.60314,-0.0046999999999999265,-0.006399999999999961,0.0008199999999999319,-0.002543420387743245,0.0009798531828744128,0.028009272540753694
150000000000.0,3,2.9002186709999997,2.1538345394999996,1.747152764,-0.21081,1.6924,0.62628,-1.3002637235,-9.712015827499998,-0.39530606149999997,-1.2757,1.4318,0.59785,-0.0052000000000000934,-0.006199999999999983,-7.999999999996898e-05,0.0031899504022736558,-0.002325083508557757,0.017253723675235033
150000000000.0,3,2.2540585025,2.3038762845,1.4595237195,-0.08852,1.6179,0.58926,-1.3520428354999998,-9.7035821085,-0.4279425927,-1.2643,1.4257,0.60288,-0.005800000000000027,-0.005700000000000038,0.0009000000000000119,0.0008430622433464041,0.003324820435264053,0.006761660040529582
150000000000.0,3,1.6276097004999999,2.0618481625,1.011261748,-0.039584,1.5462,0.50302,-1.3963688934999998,-9.6961290545,-0.45399886175,-1.2565,1.4205,0.61079,-0.004999999999999893,-0.006000000000000005,-0.0008799999999999919,5.343451728201387e-05,-0.0023071234043539057,0.01799113752056858
150000000000.0,3,1.2949681325,1.489041736,0.55063359085,-0.060422,1.5284,0.37386,-1.4288289049999998,-9.6900489315,-0.4806043032,-1.2463,1.4165,0.61605,-0.005700000000000038,-0.005600000000000049,9.00000000000345e-05,0.0013828761296776904,0.0006778759302887849,0.007971216645877188
150000000000.0,3,1.0635311925,0.8531295167499999,0.43734717004999996,-0.13741,1.5537,0.23385,-1.4472654069999997,-9.685635938999999,-0.5141038196,-1.2295,1.4135,0.61465,-0.005400000000000071,-0.005800000000000027,-0.0007000000000000339,0.003636842460304157,-0.003788075972289251,0.009214543775888595
150000000000.0,3,0.9783702438999998,0.32848354839999994,0.3226878182499999,-0.22282,1.5971,0.10126,-1.4514822665,-9.682595877499999,-0.55687062025,-1.2045,1.4116,0.6054,-0.005700000000000038,-0.005900000000000016,-9.00000000000345e-05,-0.0013452783505556454,-0.0019482287918097807,0.007181858033005639
150000000000.0,3,1.0270504544999999,0.1099913864,0.16278058334999998,-0.28622,1.634,0.034912,-1.4465789414999999,-9.680340348,-0.60690414855,-1.1736,1.4101,0.59057,-0.005699999999999816,-0.005799999999999805,-0.0014999999999999458,3.3853753623747096e-05,0.00011109254643804078,0.0076881694254471444
150000000000.0,3,1.071278446,0.10080255534999999,0.16831153395,-0.31062,1.6448,0.025244,-1.4386355549999998,-9.6780848185,-0.6603209711,-1.1405,1.4087,0.57373,-0.006300000000000194,-0.005800000000000027,-0.0015100000000000113,-0.0042793486446977,-0.0008020759455535931,0.00797852155363743
150000000000.0,3,1.0634331259999998,0.1863459633,0.06987238125,-0.29515,1.5882,0.041381,-1.4310844345,-9.675437023,-0.7125708023,-1.1088,1.407,0.55792,-0.006299999999999972,-0.006099999999999994,-0.001960000000000073,-0.003176132767102491,-0.0015997055409644467,0.008480318024139066
150000000000.0,3,1.1249208215,0.48069256304999997,-0.09901774505,-0.25137,1.4759,0.069408,-1.4259849765000001,-9.6725930945,-0.75975059545,-1.0813,1.4053,0.54531,-0.007800000000000029,-0.006099999999999994,0.0007300000000000084,-0.011486225902453073,-0.005598315014377686,0.008106462647826662
150000000000.0,3,1.2702553745,0.8292699373,-0.30093666854999995,-0.18256,1.2974,0.10507,-1.4246120455,-9.669749165999999,-0.79844763635,-1.06,1.4035,0.53739,-0.007399999999999851,-0.006400000000000183,-0.0015699999999999603,-0.010534844544925148,-0.0033925311296105765,0.005968760206364054
150000000000.0,3,1.4224545825000001,1.2441696855,-0.43109052735,-0.096007,1.0696,0.14191,-1.4283385725,-9.666807170999999,-0.8258670297499999,-1.0466,1.4017,0.53522,-0.006600000000000161,-0.006899999999999906,-0.0021799999999999597,-0.0055998527240006535,-0.0043849802056104,0.015162281590890503
150000000000.0,3,1.452364865,1.7088087624999997,-0.30413363644999997,-0.011979,0.91442,0.15941,-1.4355954935,-9.6643555085,-0.8426952411499999,-1.04,1.4002,0.53817,-0.006999999999999895,-0.007099999999999884,-0.0020900000000000363,-0.004006423180807905,-0.0038932871462624696,0.012032929975703821
150000000000.0,3,1.4124517994999999,2.2277766805,-0.14030374155,0.084304,0.80602,0.14802,-1.4432446804999999,-9.662590311499999,-0.8490989835999999,-1.039,1.3992,0.54564,-0.007200000000000095,-0.007200000000000095,-0.0020599999999999508,-0.005065344878641964,-0.004515959707792394,0.013714991748021044
150000000000.0,3,1.41804159,2.7319365569999996,-0.1804815866,0.18417,0.72532,0.10458,-1.4482460719999999,-9.662296112,-0.8443819849499999,-1.043,1.399,0.55717,-0.007599999999999829,-0.007400000000000073,-0.0019700000000000273,-0.006251171619167106,-0.0038157373675546946,0.01435414324044304
150000000000.0,3,1.2998714574999999,3.0823281614999996,-0.20400773994999996,0.2955,0.72342,0.027919,-1.446873141,-9.6637671095,-0.8290934175999999,-1.0505,1.3999,0.5721,-0.007500000000000062,-0.007599999999999829,-0.001960000000000073,-0.004988784025166115,-0.004230986913161816,0.014702994713675643
150000000000.0,3,1.1037384575,3.3224930199999996,-0.5967934924,0.44054,0.78945,-0.068013,-1.4363800254999999,-9.667689769499999,-0.80127195155,-1.062,1.4023,0.59159,-0.00770000000000004,-0.00770000000000004,-0.0016399999999999748,-0.006460935647580435,-0.002274508555379029,0.014042958926136606
150000000000.0,3,0.72374057665,3.1996156955,-1.3345869984999998,0.60279,0.88091,-0.15008,-1.417060925,-9.673966025499999,-0.7589562568,-1.0791,1.4061,0.61762,-0.007900000000000018,-0.00770000000000004,-0.0014600000000000168,-0.006296740545777224,0.0003421222220640896,0.014431104997366218
150000000000.0,3,-0.013915636349999998,2.7179130474999997,-1.761470473,0.70085,0.95903,-0.2205,-1.3902887705,-9.681909412,-0.70616705985,-1.1008,1.4111,0.64924,-0.007900000000000018,-0.007900000000000018,-0.0011599999999999389,-0.005871968840973185,0.0027835172984338463,0.014058727879814548
150000000000.0,3,-0.7806387599499999,2.09077778,-1.8512993869999999,0.70117,0.97824,-0.25362,-1.3594958895,-9.6900489315,-0.65126943315,-1.124,1.4165,0.68264,-0.007900000000000018,-0.007800000000000029,-0.0009700000000000264,-0.004940963392278341,0.003372702955279916,0.014671423110088178
150000000000.0,3,-1.355082897,1.5446454415,-1.5510197639999999,0.66115,1.0414,-0.257,-1.3283107424999998,-9.6976981185,-0.59956877435,-1.1468,1.4216,0.71596,-0.007900000000000018,-0.007900000000000018,-0.0008899999999999464,-0.0035792736212918452,0.005354758861770392,0.014487437521015112
150000000000.0,3,-1.6991982454999999,1.0488212175,-0.9732119459999999,0.62108,1.2261,-0.27021,-1.295850731,-9.704856973,-0.5539972718,-1.1668,1.4266,0.74806,-0.007899999999999796,-0.007900000000000018,-0.0006400000000000849,-0.0017062750582275132,0.008023107996464551,0.013162511080020645
150000000000.0,3,-1.5400363160000001,0.6126116188499999,-1.3026173195,0.64038,1.3656,-0.27896,-1.2617235889999998,-9.711819694499999,-0.5097888936,-1.1868,1.4316,0.78181,-0.008000000000000007,-0.008000000000000007,-0.0005600000000000049,-0.0027377788714970652,0.0076082100083101345,0.014716899559566121
150000000000.0,3,-1.1580672985,0.2852166086,-1.9470122909999998,0.66302,1.4027,-0.26618,-1.2284790454999999,-9.71839015,-0.4631876928,-1.2102,1.4365,0.8196,-0.008199999999999985,-0.008299999999999974,-0.0005699999999999594,-0.002918562092282251,0.007296521124380506,0.014320844583329162
150000000000.0,3,-0.9766442734999999,-0.15560211554999998,-2.2048291195,0.63346,1.3602,-0.18503,-1.201903024,-9.7237838075,-0.41724353755,-1.2367,1.4407,0.86013,-0.008300000000000196,-0.008499999999999952,-0.00048000000000003595,-0.00231724093704333,0.006726688114209178,0.013428196773467072
150000000000.0,3,-1.2324017055,-0.7138652800999999,-2.283576519,0.59097,1.3519,-0.021778,-1.1901350439999998,-9.7269219355,-0.3747709364,-1.2657,1.4432,0.90302,-0.008599999999999941,-0.008799999999999919,-6.999999999990347e-05,-0.0061653388930571484,0.0016971607717977122,0.014317813749867847
150000000000.0,3,-1.8359029464999999,-1.563768409,-2.2342490695,0.59664,1.3889,0.18524,-1.1980784304999998,-9.727412268,-0.3336810729,-1.2992,1.4436,0.95068,-0.008299999999999974,-0.00890000000000013,0.00037999999999993594,-0.008174830334004568,0.00029999452064566334,0.01190745101909041
150000000000.0,3,-2.1743304379999997,-2.6161200205,-2.2380736629999998,0.59136,1.3909,0.39124,-1.2269099815,-9.725156738499999,-0.29228720325,-1.3369,1.4418,1.0028,-0.008099999999999996,-0.008799999999999919,0.0010099999999999554,-0.01092992763866274,-0.006050426526823083,0.011760143966886183
150000000000.0,3,-1.890525987,-3.1247909559999996,-1.6815462755,0.49857,1.3701,0.5651,-1.2741780344999998,-9.720057280499999,-0.25831696765,-1.3708,1.4378,1.0508,-0.007400000000000073,-0.008599999999999941,0.0018400000000000638,-0.008838836026812347,-0.009543398562072758,0.01371365686467918
150000000000.0,3,-1.4452060105,-2.789207393,-1.1080533835,0.36434,1.3498,0.7058,-1.3362541289999998,-9.712310027,-0.2375366763,-1.3949,1.432,1.0888,-0.006699999999999928,-0.007800000000000029,0.0023699999999999832,-0.006604742261032026,-0.005562266421616613,0.014704985058087594
150000000000.0,3,-1.0625505275,-2.2546469014999997,-1.3326256685,0.31568,1.3383,0.81675,-1.4100982035,-9.702111110999999,-0.22479783794999997,-1.4127,1.4247,1.1204,-0.00649999999999995,-0.007400000000000073,0.0027800000000000047,-0.0053954801464011215,-0.006691308143788488,0.01802376471310474
150000000000.0,3,-0.7351653239,-1.6613445765,-1.5405266485,0.34751,1.3412,0.85736,-1.4899243345,-9.690539264,-0.21156866709999997,-1.4297,1.4167,1.1512,-0.006199999999999983,-0.006699999999999928,0.0028000000000000247,-0.0034509882720061835,-0.002838395296376417,0.016266961567324323
150000000000.0,3,-0.6522991314000001,-1.0864787535,-1.6148610555,0.40422,1.3238,0.79771,-1.566710404,-9.678771284,-0.1940932168,-1.4475,1.4091,1.1827,-0.005800000000000027,-0.006500000000000172,0.0021099999999999453,0.004156837491744891,-0.0017917855720814835,0.011438536897321328
150000000000.0,3,-0.5850843523,-0.6990964652,-1.880130938,0.49048,1.319,0.60894,-1.6284922990000001,-9.668964633999998,-0.170047311,-1.4668,1.403,1.2155,-0.005900000000000016,-0.00649999999999995,0.0014600000000000168,-0.0020890880817305835,-0.0008973899744080249,0.01173317298209664
150000000000.0,3,-0.22045349199999997,-0.7007832089999999,-1.536309789,0.62604,1.2766,0.31465,-1.664580771,-9.6633748435,-0.13438052495,-1.4902,1.3997,1.2525,-0.005800000000000027,-0.006599999999999939,0.0006800000000000139,-0.00086854487820065,-0.002564670958328241,0.010268711518565787
150000000000.0,3,0.9236785568499999,-1.8704223545,-0.7086775622499999,0.75066,1.18,-0.012659,-1.6698763619999997,-9.663080643999999,-0.08470003605,-1.5201,1.3995,1.295,-0.005600000000000049,-0.007100000000000106,4.0000000000040004e-05,-0.003200936237367946,-0.008068411729608593,0.012084085190023686
150000000000.0,3,2.3276083775,-3.544515576,1.3341947324999999,0.8535,1.1561,-0.3476,-1.6437906729999998,-9.6678859025,-0.02393803265,-1.5562,1.4024,1.3434,-0.005199999999999871,-0.007399999999999851,-0.0005900000000000905,-0.005401759348493407,-0.010184198525269528,0.015791252417495905
150000000000.0,3,3.618849983,-5.3890483745,4.271580607,0.89525,1.2679,-0.62525,-1.5891676325,-9.676908020499999,0.042756994,-1.5977,1.408,1.3979,-0.0052000000000000934,-0.00770000000000004,-0.0010299999999999754,-0.00852125221789457,-0.014154880303420603,0.020402168884108285
150000000000.0,3,5.337171195999999,-7.843750935999999,5.677363884499999,0.80895,1.5159,-0.68028,-1.5243456759999998,-9.686910803499998,0.10144979424999999,-1.6372,1.4144,1.4527,-0.0047999999999999154,-0.008000000000000007,-0.0009399999999999409,-0.012788630930356204,-0.016500449728154898,0.025364098886681674
150000000000.0,3,6.3497078085,-8.484811646499999,5.808871061,0.57188,1.5721,-0.54843,-1.4695265025,-9.694952256499999,0.13936230314999998,-1.6653,1.4197,1.4971,-0.0045000000000001705,-0.007900000000000018,-0.0007700000000000484,-0.009859867602999284,-0.017025347784552558,0.025931538161374945
150000000000.0,3,5.6244079744999995,-5.414643730999999,3.7058349684999996,0.33535,1.43,-0.41409,-1.4283385725,-9.7008362465,0.15597476824999998,-1.6796,1.4237,1.5264,-0.0043999999999999595,-0.007900000000000018,-0.0005999999999999339,-0.013649782696240065,-0.0149252906082038,0.024147782881027702
150000000000.0,3,4.077016671,-0.6864851133,0.6220946494,0.17455,1.2533,-0.33081,-1.396663093,-9.7053473055,0.15781841845,-1.6833,1.427,1.5433,-0.0040999999999999925,-0.007600000000000051,-0.000280000000000058,-0.014251350261438755,-0.011010815004615093,0.0238794902986621
150000000000.0,3,2.5770895535,3.5775639865,-0.49123471179999995,0.11683,1.1142,-0.31892,-1.3679296085,-9.709564165,0.15379769194999998,-1.6828,1.43,1.5543,-0.0044999999999999485,-0.007399999999999851,-5.999999999994898e-05,-0.011930296480519686,-0.010773027923120404,0.016891324459827217
150000000000.0,3,1.2145536024999999,6.453167966,-0.31040989245,0.21874,1.0879,-0.47027,-1.3287030085,-9.714957822499999,0.15703388645,-1.6884,1.4339,1.571,-0.0041999999999999815,-0.006900000000000128,-6.0000000000060005e-05,-0.01424862626989909,-0.006124771514902427,0.015866681872811483
150000000000.0,3,0.33868246439999994,7.924655798499999,0.9588550104,0.41615,1.2838,-0.80543,-1.261331323,-9.7235876745,0.17645105344999998,-1.7098,1.4406,1.6048,-0.0043999999999999595,-0.00649999999999995,0.00017000000000000348,-0.00898199677766609,-0.0038409264789258657,0.008991400953274109
150000000000.0,3,0.35834479764999994,8.011150451499999,2.4525450984999995,0.67963,1.6902,-1.2124,-1.156204035,-9.735845987,0.21710942434999997,-1.7564,1.4505,1.6677,-0.0042999999999999705,-0.006199999999999983,0.00019000000000002348,-0.00895925873731418,9.961992917140172e-05,0.006124885822108794
150000000000.0,3,0.9927271795,6.635767789,3.8321446205,0.93053,2.185,-1.5245,-1.019303201,-9.749575297,0.27941107179999997,-1.8383,1.4628,1.771,-0.0039000000000000146,-0.005700000000000038,9.999999999998899e-05,-0.006499210545502843,0.0032937470746885467,0.0031887198725026877
150000000000.0,3,1.0392107005,4.317475729,4.629425265499999,1.1497,2.4188,-1.6612,-0.8669470865999999,-9.7614413435,0.36424840095,-1.9686,1.4748,1.9259,-0.0040999999999999925,-0.005700000000000038,-7.00000000000145e-05,-0.0004152280250548923,0.004143361666707701,-0.0014768872325969795
150000000000.0,3,0.2744881335,1.512381563,4.546951339,1.2603,2.3923,-1.6321,-0.7157677701999999,-9.769384729999999,0.46651214715,-2.1484,1.4836,2.1307,-0.005600000000000049,-0.006000000000000005,-0.00017000000000000348,-0.02066858927793702,0.009937671764571387,-0.003822010996600511
150000000000.0,3,-0.07544255845,-1.2216143904999999,3.517645355,1.2811,2.1639,-1.4737,-0.5787688697,-9.772522857999999,0.5773370988,-2.355,1.4873,2.3604,-0.0040999999999999925,-0.006199999999999983,0.00012000000000000899,0.0032619880315569727,0.012038343931742856,-0.008250321317889941
150000000000.0,3,0.1056176205,-2.904533597,1.9816297655,1.2596,1.8815,-1.2469,-0.4634034390999999,-9.7712479935,0.6911628853499999,-2.551,1.4858,2.5767,-0.0029000000000001247,-0.005800000000000027,0.00029000000000001247,0.012560463595488347,-0.0004424243404255179,-0.0009631166922936529
150000000000.0,3,0.6558785586499999,-3.4114393355,0.6402761785,1.2076,1.5588,-0.96999,-0.3738098847,-9.7665408015,0.8038707138,-2.7063,1.4803,2.7492,-0.0044999999999999485,-0.006000000000000005,-0.000500000000000056,0.010198668040399816,-0.0032149082781138816,0.025895971235155635
150000000000.0,3,1.2818272215,-2.937287808,-0.10941279405,1.1015,1.1533,-0.66739,-0.31188088994999996,-9.759381947,0.9102728662999999,-2.8115,1.4725,2.8675,-0.0038000000000000256,-0.006000000000000005,-0.0005899999999999794,-0.012555070246411004,5.629885624247599e-05,0.006766227997720975
150000000000.0,3,1.4981619204999999,-1.9308313185,-0.3884414065,0.92591,0.73886,-0.34567,-0.278116594,-9.7512424275,1.002828029,-2.8711,1.4645,2.9358,-0.0035999999999998256,-0.006399999999999961,-0.00017999999999995797,-0.009461139830508891,0.0005698513815792783,0.007210659990713353
150000000000.0,3,1.4107846689999999,-1.0464676215,-0.5128681816999999,0.7011,0.45159,-0.013595,-0.27402722095,-9.7435932405,1.0756914384999998,-2.8921,1.4574,2.9621,-0.0035000000000000586,-0.006299999999999972,-0.0005699999999999594,-0.007642682718288718,0.00016454766077833582,0.007306515055666374
150000000000.0,3,0.9216976135499999,-0.3945999827,-0.43388542259999996,0.45524,0.3052,0.27337,-0.29785738045,-9.737415051,1.1249208215,-2.8827,1.4519,2.9561,-0.0033000000000000806,-0.006299999999999972,-0.0006700000000000594,-0.010370923526804798,-0.001450380593144951,0.008409352884241272
150000000000.0,3,0.16956678515,0.0904565396,-0.24044925134999998,0.27266,0.25964,0.44072,-0.3406045678,-9.732511725999998,1.154438838,-2.8547,1.4477,2.9305,-0.0027999999999999137,-0.006099999999999994,-0.0010000000000000009,-0.009868039292776798,-0.0011606556499006437,0.00790988477464527
150000000000.0,3,-0.33984945575,0.29906359839999996,-0.07516797224999999,0.19875,0.23998,0.46837,-0.3891867119,-9.728294866499999,1.1741502045,-2.8215,1.4443,2.8995,-0.0026000000000001577,-0.006399999999999961,-0.0008799999999999919,-0.003166864393690849,-0.0023104371797326717,0.006028721852352703
150000000000.0,3,-0.38115506554999995,0.1987219556,0.29721014155,0.23786,0.2664,0.37019,-0.43122782044999997,-9.724078007,1.194646103,-2.7952,1.4409,2.8756,-0.0021999999999999797,-0.00670000000000015,-0.0007899999999999574,-0.001805618826930644,-0.0026991185349996005,0.008629984983329564
150000000000.0,3,-0.036843584049999996,0.19847678935,0.54494573385,0.35219,0.32529,0.21658,-0.45996130495,-9.718978549,1.2245563855,-2.7823,1.437,2.8656,-0.0015999999999998238,-0.005599999999999827,-0.0021900000000000253,-0.0015940434468375564,-0.0038710737437062104,0.01026026783644074
150000000000.0,3,0.5950871353,0.35426523125,0.5238908563,0.48166,0.41495,0.072549,-0.475230259,-9.712898425999999,1.2665288474999998,-2.7826,1.4324,2.87,-0.0020000000000000018,-0.007400000000000073,-0.00029999999999996696,0.001065807188195489,-0.004559412060199275,0.00795073219884479
150000000000.0,3,1.1449263875,0.63501000745,0.45435190114999996,0.55847,0.48688,-0.024578,-0.48100637585,-9.7059357045,1.317033095,-2.7914,1.4273,2.8836,-0.0018000000000000238,-0.007200000000000095,-0.0007200000000000539,-0.004074246151788641,-0.003875561418220208,0.009756313844565767
150000000000.0,3,1.2514266065,0.9606790472999999,0.48516439545,0.56547,0.52099,-0.089737,-0.48064352979999997,-9.698580716999999,1.3696948054999998,-2.8041,1.4222,2.9016,-0.0019000000000000128,-0.007399999999999851,-0.0006800000000000139,-0.0029341924920736062,-0.004715279942598016,0.00860848834164507
150000000000.0,3,1.027148521,1.1514968429999999,0.4661100745,0.50943,0.54921,-0.14752,-0.47524006564999993,-9.691912194999999,1.4182377229999998,-2.8183,1.4177,2.9214,-0.0019000000000000128,-0.007400000000000073,-0.0008199999999999319,-0.003781647835847002,-0.004087272933795072,0.00795846275617862
150000000000.0,3,0.5272349239499999,1.111289578,0.37285863965,0.41306,0.5959,-0.21715,-0.4643841041,-9.6865185375,1.4581507884999998,-2.8333,1.4141,2.9425,-0.0020000000000000018,-0.007299999999999862,-0.0012000000000000899,-0.007596708304839606,-0.005198601338859854,0.00808652639688745
150000000000.0,3,-0.13785207905,0.8399984124,0.26647610045,0.29871,0.64915,-0.30711,-0.44618296169999994,-9.6829881435,1.4869823394999997,-2.8501,1.4118,2.966,-0.0019000000000000128,-0.007500000000000062,-0.0008499999999999064,-0.00567834368465725,-0.004197739491672126,0.007702381662054947
150000000000.0,3,-0.7250448611,0.52517552745,0.19676062559999996,0.18847,0.68957,-0.38743,-0.4208818047,-9.681321013,1.504928509,-2.8689,1.4108,2.9919,-0.0019000000000000128,-0.007500000000000062,-0.0013300000000000534,-0.006328552603725779,-0.004774272255971601,0.006339315810199864
150000000000.0,3,-1.119527164,0.35049947765,0.24674512064999998,0.1039,0.73724,-0.46985,-0.38833353335,-9.681321013,1.5138525605,-2.8905,1.4107,3.0211,-0.0020999999999999908,-0.007900000000000018,-0.0009400000000000519,-0.008922681480058037,-0.003498209281580067,0.00770887680093324
150000000000.0,3,-1.2329901045,0.34145774635,0.4767797097,0.068399,0.79194,-0.53725,-0.34956784589999995,-9.682105544999999,1.5180694199999998,-2.9153,1.4113,3.0541,-0.0017000000000000348,-0.007500000000000062,-0.0015399999999999858,-0.006710227605124963,-0.003763792888309858,0.006671500351471238
150000000000.0,3,-0.9599533552,0.3986207091999999,0.7674390090499998,0.10825,0.81191,-0.57991,-0.3065754923,-9.682595877499999,1.5244437425,-2.9431,1.4116,3.0905,-0.0017000000000000348,-0.007899999999999796,-0.0012999999999999678,-0.004471053457087315,-0.003973674789777171,0.005184905518476057
150000000000.0,3,-0.4693953022499999,0.40321022139999996,0.91408765315,0.21164,0.78657,-0.59997,-0.2609941831,-9.681517146,1.539840183,-2.9737,1.4109,3.1296,-0.0013999999999998458,-0.007300000000000084,-0.0019500000000000073,-0.003442854024849895,-0.0025672566232415317,0.005380613207248253
150000000000.0,3,0.0262229821,0.4453984297,0.8470003604999999,0.34979,0.72042,-0.59534,-0.21446162884999997,-9.6780848185,1.5684756009999998,-3.0057,1.4087,-3.1137,-0.0016000000000000458,-0.008399999999999963,-0.0011099999999999444,-0.004861673052596771,-0.0031263838575508185,0.004695099990740914
150000000000.0,3,0.3433700431,0.5985783027,0.6610368565499999,0.4836,0.64792,-0.58644,-0.16799772115,-9.6720046955,1.6107422625,-3.0377,1.4049,-3.0746,-0.0015000000000000568,-0.008499999999999952,-0.0009600000000000719,-0.0038655224467603055,-0.0026349694653751143,0.007588014784542629
150000000000.0,3,0.41986191309999993,0.7899354641499999,0.44325077335,0.58772,0.59378,-0.5851,-0.12119058069999998,-9.663570976499999,1.664580771,-3.0689,1.3998,-3.0367,-0.001100000000000101,-0.00770000000000004,-0.0020599999999999508,-0.0034325825768528606,-0.0038221192461189712,0.007063855697992949
150000000000.0,3,0.48893014904999993,0.9956691744999999,0.34794974864999995,0.63121,0.56358,-0.58284,-0.0744324735,-9.6535681935,1.724205203,-3.0985,1.3939,-3.0009,-0.0012999999999998568,-0.008700000000000152,-0.0009799999999999809,-0.00669759114218782,-0.00327370403433358,0.007667906165801597
150000000000.0,3,0.41245789234999997,1.1486529145,0.23033859519999997,0.62979,0.53373,-0.55931,-0.02923362365,-9.6427808785,1.7850064329999997,-3.1252,1.3877,-2.9682,-0.001000000000000112,-0.008499999999999952,-0.0012600000000000389,-0.0020065997834295413,-0.004159096703135523,0.006217505370935683
150000000000.0,3,0.19918286814999997,1.191900241,0.004314926,0.58873,0.49779,-0.51235,0.012248505849999999,-9.631895497,1.8427676014999999,3.1349,1.3818,-2.9396,-0.0009999999999998899,-0.008899999999999908,-0.0006500000000000394,-0.0026661611864913226,-0.0035187102493983158,0.005788542954244136
150000000000.0,3,-0.18468863944999997,1.126980218,-0.14226507155,0.52942,0.4524,-0.459,0.04896460345,-9.621598514499999,1.8954293119999999,3.1158,1.3762,-2.9153,-0.0009000000000001229,-0.008499999999999952,-0.0011700000000000044,-0.0019554655235083374,-0.003834225730332985,0.004574758179694882
150000000000.0,3,-0.58266210975,0.9636700755499998,-0.2766455965,0.463,0.43694,-0.43134,0.082571993,-9.612086064,1.9418147664999998,3.0991,1.3713,-2.8939,-0.0007999999999999119,-0.008500000000000174,-0.0010899999999999244,-7.782104216724761e-05,-0.003628206172535453,0.0044550838875663246
150000000000.0,3,-0.78371804805,0.6775610618,-0.4592454194999999,0.39912,0.45345,-0.43041,0.1149927779,-9.603554278499999,1.981923965,3.0836,1.3669,-2.8735,-0.0005999999999999339,-0.00869999999999993,-0.0008400000000000629,-0.0007388781322879012,-0.002058244245257468,0.002168207519808618
150000000000.0,3,-0.8890022424499999,0.17179289469999998,-0.62251633535,0.35785,0.49003,-0.44228,0.14740375614999998,-9.5957089585,2.0179143704999998,3.0687,1.363,-2.8533,-0.000600000000000156,-0.008499999999999952,-0.0010799999999999699,-0.0008193401492608832,-0.003207237433624499,0.002126927962954106
150000000000.0,3,-1.012242413,-0.44154441625,-0.67105925285,0.33048,0.52331,-0.4616,0.18072675285,-9.5880597715,2.0510608475,3.0537,1.3593,-2.8327,-0.0004999999999999449,-0.008800000000000141,-0.0006599999999999939,0.0008723723943411255,-0.002641570903964663,0.0015280946251436944
150000000000.0,3,-1.1071707849999999,-0.9577958921999999,-0.48977352095,0.31152,0.53841,-0.48728,0.21575610664999997,-9.580606717499998,2.0823440609999997,3.0383,1.3557,-2.8115,-0.0006999999999999229,-0.008599999999999941,-0.0007099999999999884,-0.00019984716342480446,-0.00069997341620609,-0.001174723750564155
150000000000.0,3,-0.989883251,-1.2236737869999998,-0.11462993184999999,0.28387,0.53121,-0.51614,0.2533253828,-9.573251729999999,2.111567878,3.0222,1.3522,-2.7895,-0.0008000000000001339,-0.010499999999999954,0.0022199999999999998,-0.004517316011884098,-0.001190819525395792,-0.010117205937842932
150000000000.0,3,-0.5757484214999999,-1.228380979,0.08489616905,0.24729,0.48464,-0.53106,0.29338554805,-9.566387075,2.1375555005,3.0052,1.349,-2.7669,-0.00019999999999997797,-0.008799999999999919,0.00019000000000002348,0.0028587639807913234,-0.0001828074951304437,-0.004038987349857415
150000000000.0,3,-0.05206350485,-0.9638564018999999,0.03809883525,0.19863,0.4115,-0.51821,0.33427927854999995,-9.560110818999998,2.1592281969999996,2.988,1.3461,-2.7449,9.999999999998899e-05,-0.008500000000000174,0.00012000000000000899,0.007530451252660608,0.0013808303084787976,-0.0032972306315217637
150000000000.0,3,0.1407646541,-0.5065330858,0.06720497245,0.12948,0.33316,-0.47016,0.3729468995,-9.555207494,2.174526571,2.9717,1.3439,-2.7246,0.000700000000000145,-0.008599999999999941,0.0008899999999999464,0.010811644521195651,0.004410744833179825,-0.0012998035613822623
150000000000.0,3,-0.051975244999999996,-0.1689881928,0.1323309351,0.06028,0.26014,-0.4029,0.40706423484999993,-9.551873233,2.1830583564999997,2.9572,1.3424,-2.7068,0.0016999999999998128,-0.008000000000000007,0.0014899999999999913,0.009002660670997864,0.008531190182216708,0.008693321338317794
150000000000.0,3,-0.36042380744999997,-0.09703680174999998,0.2263178687,0.002796,0.18701,-0.33242,0.43599385234999993,-9.550108036,2.1854119525,2.9447,1.3416,-2.6918,0.001000000000000112,-0.008999999999999897,0.0013699999999999823,0.016775648556289546,0.005778869750783233,-0.0030539893719501165
150000000000.0,3,-0.49040114655,-0.32917982055,0.25919956615,-0.038752,0.099911,-0.27043,0.46062815714999994,-9.5494215705,2.183156423,2.9337,1.3413,-2.6793,0.0017000000000000348,-0.008399999999999963,0.0018400000000000638,0.01702990342898536,0.00813631703057216,0.0013285303681360716
150000000000.0,3,-0.33916299024999996,-0.77638267385,0.0855728279,-0.066744,-0.025665,-0.20728,0.4817614879,-9.5496177035,2.177664699,2.9239,1.3414,-2.6691,0.0017000000000000348,-0.008800000000000141,0.0022400000000000198,0.015592320304135932,0.007252501113443222,0.0007838922769574097
150000000000.0,3,-0.08915225515,-1.290162874,-0.2093719775,-0.13225,-0.16586,-0.13243,0.499158485,-9.5513829005,2.166288985,2.9151,1.3421,-2.6615,0.0019000000000000128,-0.008599999999999941,0.0023900000000000032,0.014098477405947607,0.005686227468236549,0.0003154897333148554
150000000000.0,3,-0.00032361945,-1.6569315839999998,-0.32900330085,-0.29352,-0.25841,-0.035414,0.5102890327499999,-9.556384291999999,2.141576227,2.9077,1.3444,-2.6563,0.0020999999999999908,-0.008399999999999963,0.0022899999999999032,0.015384422729444625,0.004729647139303017,0.0002015406904289918
150000000000.0,3,-0.2218460363,-1.8829748664999997,-0.0952814114,-0.55963,-0.23823,0.085773,0.5104949724,-9.566975474,2.0934255755,2.9024,1.3493,-2.6535,0.0025999999999999357,-0.008000000000000007,0.0019500000000000073,0.01914809273408058,0.0027881295041625176,-0.0005833170892124429
150000000000.0,3,-0.7873170885999999,-2.200416127,0.65268159075,-0.83878,-0.094361,0.23767,0.49432380654999997,-9.583842912,2.018796969,2.9015,1.3572,-2.654,0.0024999999999999467,-0.007600000000000051,0.0018299999999999983,0.020931046160245437,0.0024511873527002237,-0.002883260393661047
150000000000.0,3,-1.6957659179999998,-2.801367639,2.0218370305,-1.0989,0.19209,0.43846,0.45497952675,-9.606104007499999,1.9198478705,2.9089,1.3682,-2.6604,0.0027000000000001467,-0.007200000000000095,0.0013000000000000789,0.02539354802396354,0.004696968978670224,-0.006354441729652827
150000000000.0,3,-2.7340940199999997,-3.7415311744999995,3.3418121204999998,-1.2811,0.4662,0.61805,0.39181489410000003,-9.631699364,1.8018738709999997,2.9275,1.3816,-2.6752,0.0023999999999999577,-0.006999999999999895,0.0008199999999999319,0.022999553470256506,0.0070542946463072465,-0.004685588190016965
150000000000.0,3,-3.0072092225,-4.456534026,3.574523925,-1.3314,0.50807,0.71396,0.31577413,-9.6572947205,1.6756622854999998,2.9553,1.396,-2.6983,0.0021999999999999797,-0.007000000000000117,0.0008200000000000429,0.020776924620570014,0.009835354155584008,-0.005242632937559222
150000000000.0,3,-2.0575332365,-4.143211558499999,2.3079950774999998,-1.3223,0.43448,0.70556,0.23929206664999997,-9.680634547499999,1.5488623009999998,2.9883,1.4103,-2.7271,0.0019000000000000128,-0.007199999999999873,0.0006800000000000139,0.016936051843781996,0.013141650650292824,-0.004373563198798891
150000000000.0,3,-0.757857912,-3.3729972674999997,1.218378196,-1.3922,0.32004,0.63306,0.17082203634999998,-9.702209177499999,1.4171589915,3.0216,1.4247,-2.7573,0.0018000000000000238,-0.007500000000000062,0.0009199999999999209,0.011334301492838872,0.013597349165756834,-0.0033165819327845014
150000000000.0,3,1.3187982919999999,-1.2794736254999999,1.0686306504999998,-1.5922,0.20777,0.54005,0.11276666835,-9.723685740999999,1.2680979115,3.0529,1.4406,-2.7865,0.0016999999999998128,-0.007800000000000029,0.0008000000000000229,0.010896576761039833,0.01337389168622316,0.0006413095596728979
150000000000.0,3,1.366066345,-1.2581931949999998,1.2405412249999999,-1.82,0.085065,0.447,0.06549861535,-9.7449661715,1.0962854035,3.0819,1.4586,-2.8145,0.0017000000000000348,-0.008339999999999903,0.0012900000000000134,0.005918673342832026,0.012570694172827412,0.004192050109357304
150000000000.0,3,2.111764011,0.3458020923,1.608486733,-1.995,-0.096707,0.37977,0.027644946349999998,-9.764775604499999,0.90528128145,3.1111,1.4783,-2.8443,0.0019000000000000128,-0.008489999999999998,0.0011299999999999644,0.00715473741628414,0.00989459341737553,0.010043859865346505
150000000000.0,3,2.851185421,1.9273009245,1.9919267479999998,-2.104,-0.23862,0.40332,-0.00893385815,-9.781544976,0.7015285144,-3.1289,1.4992,-2.8898,0.0020000000000000018,-0.008809999999999985,0.0012000000000000899,0.00664088388462547,0.008118564308123855,0.013658015260904932
150000000000.0,3,3.2412939579999995,3.120083764,1.8800328714999999,-2.1233,-0.28338,0.5528,-0.05703547639999999,-9.794097488,0.49349024129999997,-3.0265,1.5201,-2.9951,0.0020999999999999908,-0.00927,0.0016799999999999038,0.00400787532797664,0.0075422855427924596,0.014330353954217223
150000000000.0,3,2.7392915445,3.5297075345,1.291535805,-2.0198,-0.27489,0.79313,-0.12718244385,-9.8014524755,0.29220875004999997,-2.7311,1.5383,2.9896,0.0022999999999999687,-0.009200000000000097,0.0013800000000000479,0.005169049208765264,0.005474792007605256,0.017910757091443408
150000000000.0,3,1.3612610864999999,2.9355226109999997,0.6540839417,-1.7877,-0.28563,1.086,-0.22609231574999997,-9.803413805499998,0.11086417825,-2.0267,1.5451,2.2822,0.002200000000000202,-0.009259999999999935,0.0015100000000000113,0.004086035299447177,0.005779879263825283,0.01718118756396292
150000000000.0,3,-0.23511443375,1.8015796715,0.6663520608499999,-1.4793,-0.28093,1.3,-0.34921480650000003,-9.800373744,-0.0411683167,-1.4535,1.5349,1.7058,0.0023999999999999577,-0.009340000000000015,0.0017300000000000093,0.0032354204043272272,0.004853705037015432,0.015675585087077337
150000000000.0,3,-1.303696051,0.33903550379999997,1.0376416364999999,-1.1795,-0.11296,1.3558,-0.48204588074999993,-9.793411022499999,-0.16318265599999998,-1.2444,1.5189,1.4948,0.0022999999999999687,-0.008850000000000025,0.0012199999999999989,0.006045962974736252,0.006574129642312965,0.01634067418306362
150000000000.0,3,-1.2027856225,-0.87968592495,1.391171369,-0.92761,0.24842,1.2723,-0.6090714181999999,-9.784290838,-0.26085688999999995,-1.1661,1.5032,1.4179,0.0022999999999999687,-0.008839999999999959,0.0013600000000000279,0.00402901058333871,0.0069960444911443265,0.015388552709940218
150000000000.0,3,-0.74174558605,-1.4359877595,1.4154918609999998,-0.73871,0.69457,1.1203,-0.7209652946999999,-9.7741899885,-0.34120277344999994,-1.1288,1.4894,1.3863,0.0020000000000000018,-0.008850000000000025,0.0014799999999999258,0.0013451402173965121,0.008984134779876474,0.013810672467874596
150000000000.0,3,-0.6786397932999999,-1.6884109305,1.3583190914999999,-0.61624,1.0955,0.95219,-0.8142951827499999,-9.764089139,-0.41203620639999994,-1.1024,1.4776,1.3699,0.0020000000000000018,-0.008599999999999941,0.0010100000000000664,0.00018834908124776284,0.008502698706185363,0.014834893069809674
150000000000.0,3,-0.7519739219999999,-1.556511488,1.2430909540000001,-0.52455,1.3975,0.80772,-0.8906007263999999,-9.754478621999999,-0.47678951635,-1.0793,1.4676,1.36,0.0020999999999999908,-0.008430000000000049,0.0007699999999999374,0.0006325232569888151,0.009354627621023015,0.01410550767345864
150000000000.0,3,-0.8369877708499999,-1.2180839964999999,1.1690507465,-0.45979,1.5654,0.71253,-0.9543243381,-9.745260370999999,-0.5373161601499999,-1.058,1.4589,1.3541,0.0019000000000000128,-0.008569999999999967,0.0008799999999999919,-0.0006611533433165118,0.008302503491255164,0.012564116359091493
150000000000.0,3,-0.6569965167499999,-0.9927271795,1.2556434659999998,-0.4016,1.6066,0.66453,-1.010869482,-9.7363363195,-0.5935376846,-1.0399,1.451,1.352,0.0020000000000000018,-0.008489999999999998,0.0006900000000000794,-0.0024900386435680044,0.007589086048871652,0.014167231997072705
150000000000.0,3,-0.16772313495,-0.84944221635,1.2141613365,-0.36554,1.5817,0.66784,-1.0658847884999998,-9.7271180685,-0.6464347547,-1.0256,1.4433,1.3536,0.0021999999999999797,-0.008340000000000014,0.00036999999999998145,0.00018888916049042415,0.005730277217408153,0.014215073737253281
150000000000.0,3,0.40148425099999996,-0.5405229347,1.2681959779999998,-0.34795,1.5368,0.70531,-1.122861425,-9.7171152855,-0.6977627608,-1.0148,1.4356,1.3584,0.0021999999999999797,-0.00833000000000006,0.00036000000000002697,0.0005243352097177301,0.005174526455063111,0.014107413728316143
150000000000.0,3,1.0434275599999998,-0.16183914494999999,1.2857498815,-0.29857,1.482,0.77167,-1.185427852,-9.7061318375,-0.7454230797999999,-1.0095,1.4275,1.3681,0.0023999999999999577,-0.00827,0.00039999999999995595,-0.0011157481291843574,0.003673222256393993,0.01599409208513025
150000000000.0,3,1.6142726565,0.08077737604999999,1.273883835,-0.19594,1.4256,0.8552,-1.2553492665000001,-9.694265791,-0.7849634926,-1.012,1.4192,1.3852,0.0034000000000000696,-0.006199999999999983,-0.003070000000000017,0.002640908204871506,0.004425929179891597,0.014906042102902806
150000000000.0,3,1.9440702959999998,0.29179687075,1.606721536,-0.065633,1.3616,0.93773,-1.3332140674999997,-9.681517146,-0.81256921235,-1.0234,1.4109,1.4108,0.0024999999999999467,-0.008029999999999982,0.00012000000000000899,0.0016914802064833534,0.0023332919954328624,0.014915650023824334
150000000000.0,3,1.9472084239999998,0.72411322935,2.0753813395,0.056371,1.3009,0.97968,-1.4165705924999998,-9.668376235,-0.8280244927499999,-1.0418,1.4027,1.4427,0.0023999999999999577,-0.008090000000000042,0.0003300000000000525,0.00040493121657059206,0.0029152893737562913,0.013358882693269347
150000000000.0,3,1.8883685239999999,1.1630686899999998,2.1779588985,0.13959,1.2864,0.95636,-1.4993387185,-9.6553333905,-0.8352421871499999,-1.0625,1.3949,1.4768,0.0026000000000001577,-0.007839999999999958,4.999999999999449e-05,0.001995443025414101,0.0016316018111808273,0.013748093700687303
150000000000.0,3,2.012128447,1.5869121029999997,1.9912402825,0.19658,1.2966,0.88493,-1.575928655,-9.642878945,-0.8371250639499999,-1.0825,1.3878,1.5102,0.0025999999999999357,-0.007780000000000009,-9.00000000000345e-05,0.0017782003771267263,0.0022798249027127238,0.01210479059335956
150000000000.0,3,2.100780563,1.7501928254999999,1.782064438,0.22719,1.3231,0.77926,-1.6428100079999999,-9.631797430499999,-0.83696815755,-1.0996,1.3817,1.541,0.0025999999999999357,-0.007580000000000031,-0.0005500000000000504,0.00013353076922451024,0.0024861497119004206,0.011002032591278965
150000000000.0,3,2.107449085,1.4685458374999998,1.5838720414999998,0.22499,1.3723,0.65749,-1.6976291815,-9.6221869135,-0.8378997893,-1.1123,1.3765,1.5678,0.0022999999999999687,-0.007979999999999987,9.999999999998899e-05,0.0019543517184454906,0.0017920216289080138,0.008405007777084528
150000000000.0,3,2.1399090965,1.0738281749999998,1.501005849,0.1939,1.4227,0.55381,-1.7413668405,-9.6139493275,-0.84259717465,-1.1201,1.3722,1.5902,0.0024000000000001798,-0.007789999999999964,-0.00041999999999997595,0.0007306574972183455,0.0011541601370117505,0.008805765431657342
150000000000.0,3,2.0638094925,0.8133047110999999,1.4543261949999997,0.13915,1.4616,0.47039,-1.7762785145,-9.60659434,-0.8535021694499999,-1.1229,1.3685,1.6078,0.0023999999999999577,-0.007580000000000031,-0.0009899999999999354,0.0014083573048866427,0.001934462988120389,0.00795402940624168
150000000000.0,3,1.915238745,0.5853687451499999,1.360378488,0.092599,1.4696,0.40305,-1.8039332675,-9.600023884499999,-0.86984004835,-1.1215,1.3651,1.6215,0.0022999999999999687,-0.008009999999999962,-0.0005900000000000905,0.0011356125300194808,-3.3110998729712904e-05,0.007654042006235873
150000000000.0,3,1.8269788949999999,0.35115652319999996,1.2039624205,0.062673,1.4251,0.34223,-1.8255078975,-9.5941398945,-0.8892768286499999,-1.1175,1.3622,1.6321,0.0024999999999999467,-0.007900000000000018,-0.0012599999999999278,0.001781244301642504,-0.001597756980533882,0.008689441808845899
150000000000.0,3,1.7487218279999999,0.1632022693,1.1423766585,0.048276,1.3347,0.30287,-1.8431598675,-9.5888443035,-0.9092529746999999,-1.1125,1.3597,1.6409,0.0024999999999999467,-0.00824999999999998,-0.0011800000000000699,0.0006954001958545675,-0.002472510754461865,0.006408466663914147
150000000000.0,3,1.644182939,0.17688254605,1.0500960819999998,0.03148,1.223,0.28276,-1.8592427735,-9.583842912,-0.9291997008,-1.1073,1.3572,1.6484,0.0027000000000001467,-0.008410000000000029,-0.0015699999999999603,0.0004716473542587529,-0.004228458163838988,0.0063112526583224415
150000000000.0,3,1.5313083975,0.3152641842,0.7897981710499999,0.014527,1.091,0.26161,-1.874246948,-9.5790376535,-0.9485580279,-1.1023,1.3549,1.6548,0.0027999999999999137,-0.008650000000000047,-0.0014899999999999913,0.000999139692963169,-0.005831405410048118,0.004548918679831537
150000000000.0,3,1.572398261,0.58619250375,0.44117176355,0.015919,0.98764,0.24472,-1.8884665904999998,-9.574428527999999,-0.9662492245000001,-1.0979,1.3528,1.6607,0.0029000000000001247,-0.008669999999999956,-0.0019299999999999873,0.0014698207491559145,-0.005716806742291913,0.00585533105034397
150000000000.0,3,1.7674525294999999,0.7926224862499999,0.22754369995,0.02606,0.90234,0.21393,-1.9007249029999997,-9.570505868,-0.9812533989999999,-1.0942,1.3509,1.6664,0.0026999999999999247,-0.009099999999999997,-0.0016100000000000003,0.0024865330860286416,-0.005580082872129299,0.008099640027535049
150000000000.0,3,1.9246531289999997,1.00616229,0.3967574457,0.028933,0.83735,0.17563,-1.9102373535,-9.567269673499998,-0.9948846425,-1.0906,1.3494,1.6715,0.0025999999999999357,-0.009480000000000044,-0.0015699999999999603,0.002194473767952898,-0.004370957519931551,0.007209637778508693
150000000000.0,3,1.8502206555,1.786575497,0.2091170046,0.020504,0.80021,0.094554,-1.9133754815,-9.565210277,-1.0080255535,-1.0859,1.3484,1.6749,0.0026000000000001577,-0.009589999999999987,-0.0020700000000000163,0.0026886554608493984,-0.002413048628127301,0.005567446779170204
150000000000.0,3,1.842669535,1.7867716299999998,0.22226772225,0.01997,0.78969,-0.029247,-1.905824361,-9.5653083435,-1.0211664645,-1.0789,1.3485,1.6758,0.0025999999999999357,-0.010249999999999981,-0.0017200000000000548,-0.0007589384831976353,0.0011644733830526999,0.002647225049551949
150000000000.0,3,1.6923335904999999,2.1302985795,0.0528382302,0.01528,0.7739,-0.184,-1.884053598,-9.568250338499999,-1.0343073754999998,-1.0687,1.3498,1.6734,0.0023999999999999577,-0.010789999999999966,-0.0016800000000000148,-0.005175819302148277,0.004324989017047809,0.0006931424695251209
150000000000.0,3,1.2704515075,2.329275508,-0.19766283739999999,-0.001426,0.71773,-0.34724,-1.846984461,-9.574036262,-1.047742486,-1.0548,1.3525,1.6666,0.0025999999999999357,-0.011240000000000028,-0.0018899999999999473,-0.010654294662171715,0.006402619992879943,-9.166803768678733e-05
150000000000.0,3,0.297729894,2.1052916219999998,-0.8106471089499999,-0.001836,0.58148,-0.48363,-1.7969705459999998,-9.5821757815,-1.0594123995,-1.0381,1.3564,1.6559,0.0027000000000001467,-0.01163000000000003,-0.0015500000000000513,-0.013455947296525661,0.006024821961658766,0.0018850446552240996
150000000000.0,3,0.2413220432,2.114706006,-0.8017328640999999,0.002277,0.52822,-0.53797,-1.7405823085,-9.591688232,-1.068336451,-1.0203,1.361,1.6431,0.0027999999999999137,-0.011759999999999993,-0.0016100000000000003,-0.014069418285968416,0.006179172055784443,0.002396462024600421
150000000000.0,3,-0.10108694819999998,1.7047880359999998,-0.5171733010499999,-0.034916,0.69155,-0.52017,-1.683017273,-9.6004161505,-1.0813792955000001,-0.99969,1.3654,1.6286,0.0031000000000001027,-0.011599999999999944,-0.0016300000000000203,-0.012115872743403422,0.0061106968323214605,0.006329597384048036
150000000000.0,3,-0.16923335905,1.0990312654999999,-0.72642759875,-0.098765,0.86254,-0.4939,-1.6256483705,-9.6078692045,-1.103051992,-0.97464,1.3691,1.6115,0.0031999999999998696,-0.011689999999999978,-0.0014999999999999458,-0.009074740418997251,0.006895969603565977,0.0074776633230628775
150000000000.0,3,-0.17601956084999998,0.6342352820999999,-2.0265442225,-0.15668,0.76274,-0.37961,-1.5764189874999999,-9.612968662499998,-1.129922213,-0.9489,1.3717,1.5935,0.0033000000000000806,-0.01197999999999999,-0.0015199999999999658,-0.006571759814143707,0.005589490018386156,0.011300471241134868
150000000000.0,3,-0.6636552321,0.47489683289999995,-3.2025576905,-0.094469,0.43906,-0.10781,-1.5524907614999999,-9.61443966,-1.149927779,-0.93327,1.3725,1.5829,0.0034000000000000696,-0.012470000000000092,-0.0011700000000000044,-0.010413030147328195,0.005639650506993776,0.009030181868208587
150000000000.0,3,-2.289852775,0.3179708196,-3.52843267,0.1862,0.13269,0.24546,-1.5652394065,-9.6131647955,-1.1435534565,-0.93985,1.3718,1.5917,0.0034999999999998366,-0.012859999999999983,-0.0009200000000000319,-0.013666766595121116,0.0049155568804657435,0.004761485537229326
150000000000.0,3,-4.251771174,0.0974388744,-2.4669608739999997,0.6584,-0.012156,0.53259,-1.6101538635,-9.611693798,-1.0923627435,-0.9747,1.3711,1.6274,0.0036000000000000476,-0.013170000000000015,-0.00026999999999999247,-0.020189379138111807,0.0020510686328234495,4.6749136326074137e-05
150000000000.0,3,-5.373063535,-0.17817702385,-0.52778409635,1.093,-0.022265,0.66359,-1.672033825,-9.6115957315,-0.9962575735,-1.0334,1.371,1.687,0.0038000000000000256,-0.01305999999999996,0.00029000000000001247,-0.024263299255498083,-0.0035531811567739435,-0.0022282930846406757
150000000000.0,3,-4.859979607,-0.28353967145,1.1759154015,1.3013,0.033522,0.70228,-1.738719045,-9.6115957315,-0.8748316331999999,-1.1046,1.371,1.7598,0.005800000000000027,-0.013600000000000056,0.0042400000000000215,0.0019854184482741566,-0.045992824339087024,0.021607100970145954
150000000000.0,3,-2.9968141734999993,-0.25715978294999997,1.7899097579999999,1.2994,0.21467,0.71903,-1.8063849299999999,-9.609536335,-0.7516012692999999,-1.1765,1.3699,1.8348,0.0033999999999998476,-0.006599999999999939,-0.0008500000000000174,-0.053452268025496075,0.02305970442226335,-0.07148421985937059
150000000000.0,3,-1.3297817399999998,-0.46806159784999996,1.4707033004999999,1.1538,0.53558,0.69046,-1.8708146204999998,-9.6049272095,-0.6447480109,-1.2389,1.3676,1.9031,0.0026000000000001577,-0.01104000000000005,0.002809999999999979,-0.010569040032904375,-0.009085622499443335,0.008342843385122478
150000000000.0,3,-0.36414052779999995,-0.9196284103999999,0.42299023444999995,0.96794,0.86113,0.62232,-1.9276931904999999,-9.5988470865,-0.56259770385,-1.2868,1.3646,1.9601,0.0022999999999999687,-0.009929999999999994,0.0030999999999999917,-0.0012168163115156005,-0.004008742262175069,0.007233482449353623
150000000000.0,3,-0.047219019749999994,-1.263488786,-1.235834033,0.91726,0.89889,0.57627,-1.9788839034999999,-9.592276630999999,-0.4926468694,-1.3268,1.3613,2.0103,0.0022999999999999687,-0.008830000000000005,0.0026800000000000157,0.006753362559090315,0.0012547268298925829,0.0011216151395441187
150000000000.0,3,-0.91667660875,-1.215043935,-2.57522629,1.1367,0.5838,0.56973,-2.030564949,-9.585608108999999,-0.40410262654999995,-1.3744,1.3581,2.0659,0.0023999999999999577,-0.008239999999999914,0.0021599999999999397,0.013504364833962335,0.0024627440855327087,-0.002916289912976211
150000000000.0,3,-2.2189506955,-1.3883274405,-2.20845758,1.545,0.088224,0.47952,-2.0790097999999997,-9.579920251999999,-0.27047721365,-1.4414,1.3553,2.1367,0.0024999999999999467,-0.007880000000000054,0.0011800000000000699,0.014782581705850895,0.0019160125279236162,-0.0029965766934481053
150000000000.0,3,-2.2959328979999998,-2.4523489655,0.3247766347,1.8963,-0.31294,0.22252,-2.1079394175,-9.576978256999999,-0.09119203834999999,-1.5276,1.354,2.2226,0.0023000000000001908,-0.008199999999999985,0.00036999999999998145,0.01024411460921626,5.6385174004303096e-05,0.0034442225156938733
150000000000.0,3,-0.46588452155,-4.1356604379999995,2.755472517,2.0462,-0.48851,-0.17719,-2.100976696,-9.5782531215,0.11234498239999999,-1.6242,1.3546,2.3169,0.0031999999999998696,-0.00767000000000001,-0.00029999999999996696,0.009933448259481947,-0.009947585466193232,-0.00039271796253448343
150000000000.0,3,2.747431064,-5.898111576,3.9523741494999998,2.0387,-0.24609,-0.63234,-2.0510608475,-9.5845293775,0.31619581595,-1.7238,1.3576,2.4153,0.0013500000000001844,-0.014050000000000007,-0.0009700000000000264,-0.005792748498053113,-0.009870128175345272,0.0694537683930605
150000000000.0,3,6.5052412775,-8.193063809,3.845187465,1.6842,0.33895,-0.92005,-1.967802389,-9.594924426499999,0.485625308,-1.8128,1.3626,2.5082,0.0013499999999999623,-0.009500000000000008,-0.0008799999999999919,-0.010237536866744446,-0.020211400973123794,0.01117885397360796
150000000000.0,3,9.574428527999999,-10.658847884999998,2.4672550734999996,0.89836,0.76192,-0.77592,-1.8914085855,-9.605025276,0.57985740785,-1.8683,1.3677,2.5719,0.0028999999999999027,-0.009770000000000001,-0.0007700000000000484,-0.0106935192856219,-0.023746329084481488,0.008158715519236193
