Time,placement_label,user_acc_x(m/s^2),user_acc_y(m/s^2),user_acc_z(m/s^2),rotation_rate_x(rad/s),rotation_rate_y(rad/s),rotation_rate_z(rad/s),gravity_x(m/s^2),gravity_y(m/s^2),gravity_z(m/s^2),attitude_roll(rad),attitude_pitch(rad),attitude_yaw(rad),target_delta_x,target_delta_y,target_delta_z,target_delta_roll,target_delta_pitch,target_delta_yaw
150000000000.0,1,-0.0351666469,-0.1736169316,0.030685007849999998,-0.11819,-0.13029,-0.03348,-0.9659059917499999,-9.588746236999999,1.814818649,-2.6525,1.3596,2.8134,0.0,0.0,0.0,0.0,0.0,0.0
150000000000.0,1,-0.0335191297,-0.14767834235,0.039010853699999994,-0.1256,-0.12916,-0.0431,-0.95992393525,-9.591295965999999,1.804227467,-2.6526,1.3609,2.8122,-0.00036000000000002697,-9.999999999998899e-05,9.999999999998899e-05,0.002781558571191667,-0.0008844609473688259,-0.0024039931090280575
150000000000.0,1,-0.035696206,-0.13318411365,0.042413761249999994,-0.12663,-0.12914,-0.050573,-0.9532652198999999,-9.594041828,1.7934401519999998,-2.6531,1.3622,2.8113,-0.00029000000000001247,-9.999999999998899e-05,7.999999999996898e-05,0.0019365408195184397,-0.0006334193485439954,-0.0012029917188729478
150000000000.0,1,-0.031430313249999994,-0.1357632626,0.0187307015,-0.12662,-0.1302,-0.05484,-0.9460082988999999,-9.59678769,1.7822605710000001,-2.6536,1.3636,2.8106,-0.00029999999999996696,-0.00019999999999997797,7.00000000000145e-05,0.0012498275241976664,-0.0011201929691617707,-0.0014714984100785422
150000000000.0,1,-0.03288169745,-0.12126903389999999,0.0040011132,-0.12554,-0.13234,-0.060171,-0.9382708520499999,-9.5996316185,1.7711790564999998,-2.6544,1.365,2.81,-0.00029000000000001247,-4.999999999988347e-05,4.999999999999449e-05,0.00039726035754528155,-0.0002914841596970419,-0.001646051394054382
150000000000.0,1,-0.03723585005,-0.09018195339999999,-0.006197802799999999,-0.12443,-0.12915,-0.064443,-0.93032746555,-9.602475547,1.7600975419999998,-2.6554,1.3664,2.8097,-0.00032999999999994145,-5.0000000000105516e-05,6.0000000000060005e-05,-5.516430798757632e-05,2.910064610617269e-05,-0.001327098714834385
150000000000.0,1,-0.0428746738,-0.0563293976,0.0035794272499999995,-0.12014,-0.12811,-0.066571,-0.92228601255,-9.6051233425,1.7494082935,-2.6564,1.3677,2.8095,-0.00026999999999999247,-9.999999999998899e-05,2.0000000000020002e-05,0.0020774582844316214,-0.0005142427714341924,-0.0008962681713233778
150000000000.0,1,-0.0452282698,-0.0190837409,0.024389138549999998,-0.11583,-0.12388,-0.067637,-0.91424455955,-9.607673071499999,1.73969971,-2.6577,1.369,2.8095,-0.00024000000000001798,-9.999999999998899e-05,0.00017999999999995797,0.0017734036194290148,-0.00014224541698149018,-0.0010814363674436223
150000000000.0,1,-0.0467188806,0.0020397832,0.03186180585,-0.10727,-0.12182,-0.069758,-0.9061736866,-9.610124734,1.7305795254999998,-2.6592,1.3703,2.8098,-0.00026999999999999247,-9.999999999998899e-05,9.00000000000345e-05,-0.0010313260965526538,-0.000882854536245814,-0.0013201007930176978
150000000000.0,1,-0.0499354618,0.016985117799999998,0.023800739549999998,-0.097657,-0.11977,-0.068676,-0.89816165355,-9.612380263499999,1.7223419395,-2.6609,1.3714,2.8103,-0.000260000000000038,-9.999999999998899e-05,7.999999999996898e-05,-0.000530743623830876,-0.001027561161461632,-0.000832530022513378
150000000000.0,1,-0.0601736044,0.04427702475,0.02074106475,-0.085887,-0.11773,-0.071859,-0.8903261401999999,-9.614341593499999,1.7151830849999998,-2.6628,1.3724,2.811,-0.000260000000000038,-9.999999999998899e-05,7.00000000000145e-05,0.00045974197481934986,-0.000779040211053017,-0.0010436126157760128
150000000000.0,1,-0.07859049309999999,0.03484302745,0.014847268099999998,-0.071987,-0.11465,-0.072904,-0.8826769532,-9.6161067905,1.7091029619999998,-2.6649,1.3734,2.812,-0.00020999999999993246,-0.00019999999999997797,2.999999999997449e-05,0.0001870760996425247,-0.0013669350067186947,0.0001804837081258448
150000000000.0,1,-0.0905349928,0.016033872749999997,0.0058643767,-0.059173,-0.11262,-0.071814,-0.8753709989499999,-9.6176758545,1.7041996369999999,-2.6671,1.3742,2.8131,-0.000280000000000058,-9.999999999998899e-05,6.0000000000060005e-05,-7.872577363610134e-05,0.00011038006836483483,-0.0012688368632227665
150000000000.0,1,-0.09867451229999999,-0.01601425945,0.017857909649999996,-0.047423,-0.11165,-0.072858,-0.8681336912500001,-9.6190487855,1.70047311,-2.6696,1.3749,2.8145,-0.00023999999999990695,-0.00019999999999997797,6.999999999990347e-05,0.0006146473649080164,-0.00047605469942202383,-0.0008298390969385672
150000000000.0,1,-0.1212886472,-0.04350229939999999,0.042727574049999995,-0.040963,-0.10318,-0.070722,-0.8613769093999999,-9.620127516999998,1.6977272479999999,-2.6721,1.3754,2.816,-0.00021999999999999797,-9.999999999998899e-05,0.0001300000000000745,0.0008711675548820352,-0.0012698217078228602,-0.000542504651204645
150000000000.0,1,-0.1382345384,-0.0671951658,0.06020302435,-0.031331,-0.098999,-0.06964,-0.85505162015,-9.620912049,1.6960601174999999,-2.6746,1.3759,2.8177,-0.000280000000000058,-0.00019999999999997797,8.999999999992347e-05,0.0003721495757429416,-0.0013341698517588263,-0.0011035308202380634
150000000000.0,1,-0.15032613784999999,-0.0714512519,0.05779058844999999,-0.022766,-0.094807,-0.068559,-0.8491087902499999,-9.621598514499999,1.695177519,-2.6772,1.3762,2.8194,-0.00022999999999995246,-0.00010000000000021103,0.00012000000000000899,0.0008759814687930856,-0.0007225288613594838,-0.0013028708240092612
150000000000.0,1,-0.1530621932,-0.0360492454,0.0366376444,-0.012056,-0.088503,-0.06641,-0.8435288063999999,-9.6221869135,1.6949813859999998,-2.6798,1.3765,2.8211,-0.00026999999999999247,-0.00019999999999997797,0.000160000000000049,0.0003938422049061252,-0.0003779650898743103,-0.0007552715045204828
150000000000.0,1,-0.15417034464999999,0.00306948145,0.0250069575,-0.003486,-0.08431,-0.066396,-0.8382332154,-9.622481113,1.6955697849999998,-2.6825,1.3767,2.823,-0.0001500000000000945,-0.00019999999999997797,4.999999999999449e-05,-0.0008402679437922167,-0.0008045435126582401,-0.0009040653075103045
150000000000.0,1,-0.1544939641,0.044090698399999996,0.0206135783,0.006152,-0.077998,-0.063181,-0.8334083435999999,-9.622677246,1.696942716,-2.6851,1.3768,2.8249,-0.00014999999999998348,-9.999999999998899e-05,7.00000000000145e-05,0.0006789139251568432,-0.000336076321625578,-0.0006887570227878115
150000000000.0,1,-0.14557971925,0.06714613254999999,0.013346850649999999,0.013639,-0.073799,-0.059967,-0.82886786465,-9.622677246,1.6991001789999998,-2.6877,1.3768,2.8268,-0.00020999999999993246,-9.999999999998899e-05,2.999999999997449e-05,0.0008928954420928115,-0.001120488192081881,-0.0013227815035659063
150000000000.0,1,-0.15553346899999998,0.0444241245,0.01473939495,0.019003,-0.067453,-0.055692,-0.8248961713999999,-9.6225791795,1.7017479744999997,-2.6902,1.3767,2.8287,-9.999999999998899e-05,-0.00029999999999996696,9.00000000000345e-05,0.0002629035418100223,-0.0010487259454698972,-0.0002240150342611713
150000000000.0,1,-0.16123113265,0.03592175895,0.01109132115,0.026499,-0.062189,-0.052479,-0.8214442306,-9.62228498,1.7049841689999998,-2.6926,1.3766,2.8306,-0.00012000000000000899,-9.999999999998899e-05,7.00000000000145e-05,-0.0003574204878449283,-0.0004109519119119831,-0.000745900142177458
150000000000.0,1,-0.15978955509999998,0.03384274915,0.020603771649999998,0.0308,-0.054769,-0.04714,-0.8185414621999999,-9.621892714,1.7088087624999997,-2.6949,1.3764,2.8323,-9.00000000000345e-05,-0.00019999999999997797,-3.0000000000085514e-05,0.0012026277638903515,7.424181620718784e-05,0.00026513743455547356
150000000000.0,1,-0.1632414959,0.015180694199999997,0.028664837949999997,0.035079,-0.049482,-0.040731,-0.8162859327,-9.621304315,1.7129275554999999,-2.6969,1.3761,2.8339,-0.0001100000000000545,-9.999999999998899e-05,2.0000000000020002e-05,0.00021258986666339297,0.0002505705643585099,-0.0009039499127383444
150000000000.0,1,-0.1583577842,0.0103558224,0.008492558899999999,0.040433,-0.043138,-0.034321,-0.8147364819999999,-9.620715916,1.7172424814999998,-2.6986,1.3757,2.8353,-6.999999999990347e-05,-0.00019999999999997797,1.0000000000065512e-05,-7.642027956911157e-05,-1.061461924622975e-05,0.00025439748101829807
150000000000.0,1,-0.14513842,0.00840429905,0.00491313165,0.04685,-0.037867,-0.028976,-0.81358910395,-9.619931384,1.72204774,-2.7002,1.3753,2.8366,-0.00010000000000010001,-9.999999999998899e-05,1.999999999990898e-05,-0.000845312853415825,-0.00020117059959123829,-0.000575182756461956
150000000000.0,1,-0.1439812353,-0.018005009399999997,-0.00865927195,0.048991,-0.031499,-0.020438,-0.8132458711999999,-9.619146851999998,1.7267549319999997,-2.7014,1.3749,2.8375,-8.999999999992347e-05,-9.999999999998899e-05,3.0000000000085514e-05,-0.0005487171293163673,-0.0006762916186950907,-0.00017650130881152748
150000000000.0,1,-0.15954438884999997,-0.0336564228,-0.02103526425,0.049017,-0.026173,-0.017238,-0.8136969771,-9.6182642535,1.731265991,-2.7022,1.3745,2.8381,-0.0001100000000000545,-9.999999999998899e-05,2.999999999997449e-05,-0.001394517091637626,0.00031530369446608475,-0.00023905908319310498
150000000000.0,1,-0.169262779,-0.043688625749999994,0.00101008495,0.044734,-0.024011,-0.010837,-0.81490319505,-9.617381654999999,1.7356789835,-2.7026,1.374,2.8383,-0.00010999999999994348,-9.999999999998899e-05,0.00012999999999996348,-0.0003901663421512769,-0.0008412349829551857,0.0006393726676434675
150000000000.0,1,-0.17237148704999997,-0.05435826095,0.031077273849999996,0.040499,-0.018649,-0.008712,-0.8164330324499999,-9.616400989999999,1.7401900424999999,-2.7029,1.3735,2.8384,-0.00012000000000000899,-0.00010000000000021103,-2.0000000000020002e-05,-0.001069449947878942,0.00015392246856360536,0.0003731442151670983
150000000000.0,1,-0.18024622699999998,-0.05245577084999999,0.041854782199999996,0.036245,-0.014355,-0.004449,-0.8185806888,-9.6155183915,1.744406902,-2.7028,1.373,2.8382,-0.0001100000000000545,-9.999999999998899e-05,2.0000000000020002e-05,0.0008586239677943475,0.0006478761889538998,-0.0012219649449636272
150000000000.0,1,-0.17135159544999998,-0.020986230999999998,0.027252680349999996,0.030935,-0.01005,-0.002324,-0.82104215795,-9.614635793,1.747937296,-2.7025,1.3726,2.8378,-4.999999999999449e-05,-9.999999999998899e-05,2.999999999997449e-05,-0.0007780633478973176,-0.0004406722872092317,0.0004029221162138441
150000000000.0,1,-0.1558080552,0.0058055367999999994,0.0068842683,0.037338,-0.005846,0.004091,-0.82386647315,-9.6137531945,1.75146769,-2.7019,1.3721,2.8372,-8.999999999992347e-05,-9.999999999998899e-05,4.0000000000040004e-05,-0.0010031234630043517,-0.0006339821690293235,0.0007995088768084635
150000000000.0,1,-0.14000954205,0.0257718762,-0.01691647125,0.043712,-0.005902,0.009446,-0.82694576125,-9.612772529499999,1.7553903499999999,-2.7013,1.3716,2.8366,-7.00000000000145e-05,-9.999999999998899e-05,-5.000000000032756e-06,-2.5387859342362873e-05,-1.3126883654068777e-05,9.604898767889836e-05
150000000000.0,1,-0.1104032657,0.055093759699999995,-0.05555467224999999,0.053289,-0.004921,0.015871,-0.83022118235,-9.611693798,1.7596072095,-2.7007,1.3711,2.836,-4.999999999999449e-05,-9.999999999998899e-05,-4.999999999921734e-06,-0.0005603427977627362,0.00010938990834508111,1.3293388860802224e-05
150000000000.0,1,-0.08518056189999999,0.07695278254999999,-0.08586702739999999,0.062819,-0.008204,0.024436,-0.83388886945,-9.610517,1.7643144014999999,-2.7001,1.3705,2.8353,-3.0000000000085514e-05,-9.999999999998899e-05,9.99999999995449e-06,-0.0005863167901258848,0.00015090824259789137,-2.114761541216481e-05
150000000000.0,1,-0.07167680485,0.08719092514999999,-0.08624948675,0.064946,-0.006093,0.02871,-0.8378213360999999,-9.609242135499999,1.7695119259999998,-2.6994,1.3698,2.8346,-8.999999999992347e-05,-9.999999999998899e-05,-4.0000000000040004e-05,-0.0010766844656917574,0.00024584229314528194,3.704306523388823e-05
150000000000.0,1,-0.06887210295,0.0723534637,-0.07746272835,0.063827,-0.00822,0.03512,-0.8422735552,-9.6078692045,1.774807517,-2.6985,1.3691,2.8336,-6.0000000000060005e-05,-9.999999999998899e-05,-4.999999999999449e-05,-0.0009360452177904488,-6.801232773301358e-05,3.480543315159679e-05
150000000000.0,1,-0.07877681945,0.07430498705,-0.06598894785,0.056353,-0.006031,0.039377,-0.8473239799499999,-9.6064962735,1.7796127754999997,-2.6972,1.3684,2.8322,-2.0000000000020002e-05,-9.999999999998899e-05,-1.999999999990898e-05,-0.001188919896911056,6.749479744017073e-05,0.00015466770760541593
150000000000.0,1,-0.07934560514999998,0.08647503969999999,-0.031136113749999996,0.046745,-0.005952,0.040431,-0.85259995765,-9.605221408999999,1.7841238345,-2.6958,1.3678,2.8308,-8.999999999992347e-05,-0.00019999999999997797,-0.00010000000000010001,-0.0010885842304089177,0.0005345912464131963,-0.0001865056923922026
150000000000.0,1,-0.07907101895,0.07947309159999999,-0.0192014207,0.033983,0.000545,0.042537,-0.8581112949499999,-9.604044610999999,1.7877522949999998,-2.6941,1.3672,2.829,-0.0001100000000000545,-9.999999999998899e-05,-4.999999999999449e-05,-0.0007534093483911875,0.000887112012314395,-0.0005042986756591539
150000000000.0,1,-0.09213347675,0.01897586775,-0.012621158549999999,0.024374,-0.001504,0.040393,-0.86360301895,-9.603162012499999,1.7902039574999997,-2.6921,1.3667,2.827,-5.999999999994898e-05,-5.0000000000105516e-05,-9.99999999995449e-06,-6.2326948496505e-05,0.0004972800121427756,-0.00039572964293643764
150000000000.0,1,-0.09750752095,-0.02711538725,-0.010444082249999998,0.015858,-0.000365,0.038246,-0.8690064831,-9.6023774805,1.7915768884999999,-2.69,1.3663,2.8249,-9.999999999998899e-05,-4.999999999988347e-05,-7.999999999996898e-05,-0.00045912521555990793,0.0005103767680312288,-0.0001750588450453172
150000000000.0,1,-0.08422931684999999,-0.0317147061,-0.0118072066,0.008377,-0.002432,0.037173,-0.8739000014499999,-9.6017890815,1.7921652874999998,-2.6879,1.366,2.8228,-4.999999999999449e-05,-9.999999999998899e-05,-2.0000000000020002e-05,-0.00012000973986525665,0.0005525423606418389,0.0001388134581050693
150000000000.0,1,-0.07967903125,-0.011454167199999999,-0.01791674955,0.000918,-0.004495,0.03183,-0.8783031873,-9.6013968155,1.7921652874999998,-2.6859,1.3658,2.8207,-7.00000000000145e-05,1.1111111111183902e-05,-4.999999999999449e-05,0.0002675910780582935,0.0002506933060162364,0.00023592831240915046
150000000000.0,1,-0.07236327035,-0.00426589275,-0.01774022985,-0.001221,-0.007669,0.027566,-0.8821768140499999,-9.601102616,1.7918710879999997,-2.6841,1.3657,2.8188,-8.000000000008001e-05,1.1111111110961858e-05,-4.0000000000040004e-05,-0.0009645834187368418,-0.00025243692284160346,-0.0004949778081089207
150000000000.0,1,-0.0640374245,-0.02599742915,-0.011365907350000001,-0.006563,-0.009754,0.025428,-0.8855601082999999,-9.600906483,1.7911846224999999,-2.6824,1.3656,2.817,-7.999999999996898e-05,1.1111111111183902e-05,-2.0000000000020002e-05,-0.0004081492582324042,0.0007361042852469524,-0.0007619304810306815
150000000000.0,1,-0.0652730624,-0.0231829206,-0.018583601749999998,-0.012995,-0.016089,0.021162,-0.8885217166,-9.600906483,1.7898116915,-2.6808,1.3656,2.8153,-4.999999999999449e-05,1.1111111111183902e-05,-9.99999999995449e-06,-0.000169800264951947,0.0002297723072899327,-0.00010496035140095117
150000000000.0,1,-0.06812679754999999,-0.029831829299999998,-0.01258193195,-0.018314,-0.016041,0.017953,-0.8911989320499999,-9.601004549499999,1.7880464944999999,-2.6792,1.3656,2.8135,-5.999999999994898e-05,1.1111111110961858e-05,-2.999999999997449e-05,0.0007695850782700742,0.0001718831124795095,-0.0004122752212842862
150000000000.0,1,-0.06175247504999999,-0.04125657654999999,-0.009267284249999999,-0.025789,-0.018108,0.015812,-0.8933858149999999,-9.6012006825,1.785594832,-2.6777,1.3658,2.8118,-9.00000000000345e-05,1.1111111111183902e-05,-2.999999999997449e-05,8.051002375442096e-05,0.00043084563133621856,-0.0004803350895352665
150000000000.0,1,-0.057221802749999995,-0.048778277099999996,-0.00459931885,-0.032199,-0.022311,0.010473,-0.8950725588,-9.601691014999998,1.7825547704999998,-2.6763,1.366,2.8101,-9.99999999995449e-06,1.1111111111183902e-05,9.99999999995449e-06,0.0002630962175886875,0.00014495263427627414,0.00026244128936836475
150000000000.0,1,-0.0512887795,-0.06506712275,0.0162986523,-0.035429,-0.028674,0.006211,-0.8960630304499999,-9.602083280999999,1.779514709,-2.6751,1.3662,2.8087,-4.999999999999449e-05,1.1111111110961858e-05,-2.0000000000020002e-05,0.0007949108243350267,0.0001408383632264254,-0.0006889057878423088
150000000000.0,1,-0.05341682254999999,-0.08859327609999999,0.02640930845,-0.038603,-0.028642,0.000871,-0.8964847163999999,-9.602671679999998,1.7762785145,-2.6742,1.3665,2.8075,-4.999999999999449e-05,1.1111111111183902e-05,2.0000000000020002e-05,0.0011034927366484482,0.00028144447582589827,-0.00041912764183393847
150000000000.0,1,-0.06804834435,-0.09675240889999999,0.0253992235,-0.03969,-0.037147,-0.00872,-0.8962199368499999,-9.6033581455,1.7727481204999997,-2.6735,1.3668,2.8065,-2.0000000000020002e-05,3.333333333332966e-05,2.0000000000020002e-05,0.0003752573236484036,-0.00033170814436056517,-0.0004273006930470835
150000000000.0,1,-0.07567791805,-0.08457254959999999,0.025781682849999998,-0.0354,-0.040369,-0.018311,-0.8951706253,-9.604044610999999,1.769708059,-2.6733,1.3672,2.8058,-3.0000000000085514e-05,3.333333333332966e-05,-2.0000000000020002e-05,0.0004028931280455339,-0.00036500959472518524,-0.0002787991790023092
150000000000.0,1,-0.08538650155,-0.05994805145,0.0097281968,-0.03223,-0.048911,-0.025758,-0.8933858149999999,-9.6047310765,1.766962197,-2.6735,1.3675,2.8055,2.0000000000020002e-05,3.333333333332966e-05,4.0000000000040004e-05,-4.759888247729549e-05,0.00014608287515005536,-0.0007139586601407899
150000000000.0,1,-0.08838733644999999,-0.02513444395,-0.0083748791,-0.025855,-0.057479,-0.034268,-0.8906889862499999,-9.605417542,1.7645105345,-2.6741,1.3679,2.8057,4.0000000000040004e-05,9.999999999998899e-05,6.999999999990347e-05,0.0012128381914362496,-0.0006107898596154904,-0.00035796540173205216
150000000000.0,1,-0.08147364819999998,-0.01909354755,-0.01369989005,-0.019471,-0.062853,-0.039581,-0.8872860787,-9.606005941,1.762647271,-2.6752,1.3682,2.8062,4.999999999999449e-05,9.999999999998899e-05,9.00000000000345e-05,0.0017799505973821184,-0.0007356203975379394,-0.00035084930861950525
150000000000.0,1,-0.08173842775,-0.025811102799999996,-0.00053936575,-0.017359,-0.068193,-0.043834,-0.88327515885,-9.606692406499999,1.76127434,-2.6768,1.3685,2.8071,2.999999999997449e-05,5.0000000000105516e-05,-9.99999999995449e-06,0.0004544678358258114,-0.00022216745658343307,0.00011569287881263435
150000000000.0,1,-0.09308472179999999,-0.03243059155,0.00326561445,-0.014199,-0.07461,-0.045948,-0.8791073326,-9.607182738999999,1.7603917414999999,-2.6784,1.3688,2.8081,7.00000000000145e-05,4.999999999988347e-05,7.00000000000145e-05,0.00023210527684991433,-0.0005992306185123031,-0.0007901332533228889
150000000000.0,1,-0.08906399529999999,-0.049445129299999994,0.00530539765,-0.012044,-0.072494,-0.047011,-0.8747531799999999,-9.607673071499999,1.7598033425,-2.6803,1.369,2.8093,4.999999999999449e-05,9.999999999998899e-05,2.0000000000020002e-05,0.00046454918497240705,-0.0009044385906664676,5.326197420485457e-05
150000000000.0,1,-0.0914372046,-0.058192661099999994,-0.00057859235,-0.01207,-0.07569,-0.047002,-0.87029115425,-9.6082614705,1.759116877,-2.6822,1.3693,2.8104,7.999999999996898e-05,9.999999999998899e-05,1.999999999990898e-05,0.00026254458812458026,-0.0005466932714512929,-0.0004961268043270906
150000000000.0,1,-0.0889855421,-0.0293022702,0.0029616083000000002,-0.008906,-0.078914,-0.044852,-0.8659958415499999,-9.608751803,1.7587246109999999,-2.684,1.3695,2.8116,0.00012000000000000899,9.999999999998899e-05,6.0000000000060005e-05,0.00106147265093548,-0.00033155180111843485,-0.00032878771985389577
150000000000.0,1,-0.078060934,0.0043247326499999995,0.0013140911,-0.00788,-0.082122,-0.041639,-0.8618182086499999,-9.609144069,1.758528478,-2.6859,1.3697,2.8127,3.0000000000085514e-05,9.999999999998899e-05,5.999999999994898e-05,-0.0008756437656352034,0.00013878714011950066,-0.001294510053122977
150000000000.0,1,-0.07536410525,0.020662611549999998,0.0008041452999999999,-0.007916,-0.083193,-0.036297,-0.8580818749999999,-9.6094382685,1.7586265444999998,-2.6877,1.3699,2.8136,0.00010999999999994348,0.00019999999999997797,7.00000000000145e-05,-0.0005300853704257591,-0.00027578997570354424,-0.001071222394146698
150000000000.0,1,-0.07265746984999999,0.021584436649999997,-0.0109638347,-0.00685,-0.080009,-0.03096,-0.85479664725,-9.609732467999999,1.7584304114999998,-2.6891,1.3701,2.8143,6.0000000000060005e-05,9.999999999998899e-05,4.999999999999449e-05,0.0003372796332348216,-0.00021460690883667866,-0.0008740626062695434
150000000000.0,1,-0.06667541335,0.020505705149999998,-0.01399408955,-0.00583,-0.08109,-0.023482,-0.8520998184999999,-9.6100266675,1.7583323449999997,-2.6903,1.3702,2.8148,5.999999999994898e-05,9.999999999998899e-05,4.0000000000040004e-05,-0.0006411147211378143,-0.00038212874939813624,-0.0010891983789202975
150000000000.0,1,-0.06806795765,0.0157494799,-0.021329463749999996,-0.002648,-0.080056,-0.018138,-0.8499521621499999,-9.610222800499999,1.7583323449999997,-2.6913,1.3703,2.815,7.00000000000145e-05,0.00010000000000021103,-2.0000000000020002e-05,0.00020485940613834686,-0.0002584586983063186,-0.0008141060342854445
150000000000.0,1,-0.07397156095,0.013052651149999999,-0.03019467535,-0.002673,-0.078996,-0.011732,-0.8485498111999998,-9.610320866999999,1.7582342785,-2.6919,1.3704,2.8148,0.00010999999999994348,9.999999999998899e-05,7.00000000000145e-05,-0.0006275570256819574,0.0002870861057981955,-0.0005630105710516808
150000000000.0,1,-0.08266025285,0.00610954295,-0.026468148349999998,-0.004843,-0.080048,-0.006393,-0.8477848924999999,-9.6104189335,1.7580381455,-2.6923,1.3704,2.8144,9.00000000000345e-05,9.999999999998899e-05,2.999999999997449e-05,0.0008723347823911265,0.0006305643292146001,-0.0008875552953684362
150000000000.0,1,-0.0927905223,0.00053936575,-0.02597781585,-0.009087,-0.073624,-0.001071,-0.8478339257499999,-9.6106150665,1.7574497465,-2.6921,1.3705,2.8135,7.00000000000145e-05,9.999999999998899e-05,9.99999999995449e-06,-5.343438953353541e-05,-0.0012406393171058294,-0.00022745816800906482
150000000000.0,1,-0.0978507537,-0.0095124505,-0.00965955025,-0.016579,-0.072502,0.005323,-0.8486086510999999,-9.610713132999999,1.756371015,-2.6915,1.3705,2.8122,7.00000000000145e-05,9.999999999998899e-05,-2.999999999997449e-05,-0.00041787714574237356,-0.0001421479486327648,-0.0010863828168958811
150000000000.0,1,-0.09927271794999999,-0.0090417313,0.005579983849999999,-0.024023,-0.066052,0.01064,-0.85003061535,-9.610811199499999,1.7548019509999997,-2.6905,1.3706,2.8105,4.999999999999449e-05,9.999999999998899e-05,4.999999999999449e-05,0.0009977577921542746,5.782302449075516e-05,-0.0013697053111481061
150000000000.0,1,-0.0939869336,-0.011483587149999998,0.00793357985,-0.031472,-0.059603,0.017025,-0.8520213652999999,-9.611105399,1.7523502884999997,-2.689,1.3708,2.8084,3.999999999992898e-05,9.999999999998899e-05,2.999999999997449e-05,-8.20425384371326e-05,0.00043688355809745616,-0.0003525052573682963
150000000000.0,1,-0.1000082167,-0.011434553899999998,0.0048248718,-0.039985,-0.054208,0.021274,-0.8546789674499999,-9.611497665,1.7492121605,-2.6871,1.3709,2.8059,4.0000000000040004e-05,0.00019999999999997797,-4.999999999999449e-05,-0.00018678792880288952,0.0001758419357245078,-0.0012671773760657423
150000000000.0,1,-0.09522257149999999,-0.00344213415,0.0028243152,-0.042098,-0.048867,0.025535,-0.8578269020999999,-9.611791864499999,1.7456817665,-2.6849,1.3711,2.8031,7.999999999996898e-05,9.999999999998899e-05,-3.999999999992898e-05,0.00044071420334579336,0.00014713263257393194,-0.0003720206987298802
150000000000.0,1,-0.08603374044999999,-0.006168382849999999,-0.0027066354,-0.0453,-0.045648,0.030865,-0.8613180695,-9.612282197,1.7416610399999999,-2.6823,1.3713,2.8001,0.0001100000000000545,9.999999999998899e-05,-1.0000000000065512e-05,-0.0008281657846387347,0.00036516599039182474,-0.0005110756742734424
150000000000.0,1,-0.0842587368,-0.00034323274999999994,0.0017848103,-0.049536,-0.040287,0.032987,-0.8651916962499999,-9.612674463,1.737346114,-2.6795,1.3716,2.7969,9.999999999998899e-05,9.999999999998899e-05,-9.99999999995449e-06,0.0002992048620444887,0.00019833956538373165,-0.0005846694478055525
150000000000.0,1,-0.06303714619999999,0.0040403398,-0.0037951735499999993,-0.050551,-0.031756,0.036175,-0.8692026161,-9.6131647955,1.7325408555,-2.6766,1.3718,2.7936,0.0001100000000000545,0.00019999999999997797,2.999999999997449e-05,0.001139599344027964,0.0011247110245213854,-0.0007867971598072288
150000000000.0,1,-0.051975244999999996,0.03013583545,-0.0084533323,-0.052681,-0.028546,0.040438,-0.8733900556499999,-9.613655128,1.7276375304999998,-2.6735,1.3721,2.7901,3.4999999999896225e-05,9.999999999998899e-05,1.0000000000065512e-05,-0.00031174758903818045,0.0008659125827579217,-0.0005628936001382812
150000000000.0,1,-0.05116129305,0.01730873725,0.0035794272499999995,-0.055841,-0.022128,0.042558,-0.8779403412499999,-9.6141454605,1.722636139,-2.6703,1.3723,2.7866,3.500000000000725e-05,9.999999999998899e-05,-3.0000000000085514e-05,0.0005886278331843631,0.00046485220960312823,-0.0005397724131364079
150000000000.0,1,-0.04745437935,0.0028243152,0.020525318449999996,-0.057921,-0.01678,0.040413,-0.88239256035,-9.614635793,1.7176347475,-2.667,1.3726,2.7831,0.0001100000000000545,0.00019999999999997797,3.0000000000085514e-05,-0.00041216822884804216,0.0005837371110259948,-0.00017829286462456295
150000000000.0,1,-0.0539561883,-0.00687446165,0.0366180311,-0.058947,-0.012508,0.039338,-0.88696245925,-9.6151261255,1.7126333559999998,-2.6637,1.3728,2.7796,0.00012999999999996348,0.00019999999999997797,3.999999999992898e-05,0.001149249496579019,0.00013926112894546705,0.0002060033466477762
150000000000.0,1,-0.06910746255,-0.029292463549999998,0.04372785235,-0.06104,-0.008227,0.038263,-0.8917186844999999,-9.615616457999998,1.7074358314999998,-2.6603,1.3731,2.776,7.999999999996898e-05,0.00020000000000020002,-4.999999999999449e-05,0.0005121872082440859,-0.0011709560755763793,0.0002667152371311765
150000000000.0,1,-0.0740402075,-0.04882731034999999,0.05633920425,-0.062033,-0.001821,0.033983,-0.8962101302,-9.6161067905,1.702238307,-2.657,1.3734,2.7726,0.000160000000000049,0.00019999999999997797,2.0000000000020002e-05,0.001579381769225785,-0.0002203688805235693,0.0006156409459774359
150000000000.0,1,-0.0706667199,-0.041442902899999995,0.061370015699999995,-0.061989,0.001379,0.030778,-0.9003289231999999,-9.616597123,1.697138849,-2.6539,1.3736,2.7694,9.999999999998899e-05,0.00029999999999996696,9.999999999998899e-05,-0.0014040827608869932,0.0011161522877987107,-0.0009658137754415819
150000000000.0,1,-0.0589771931,-0.0404622379,0.05820246775,-0.057664,0.005611,0.026511,-0.90394757705,-9.617185522,1.6922355239999998,-2.651,1.3739,2.7666,0.00012999999999996348,0.00019999999999997797,2.999999999997449e-05,0.0009040286508379403,0.0006983250971015487,-0.00014056652457039576
150000000000.0,1,-0.0391089202,-0.02064299825,0.05263229055,-0.05442,0.008784,0.023311,-0.9070562851,-9.6176758545,1.6876263984999997,-2.6484,1.3742,2.764,0.00019000000000002348,0.00019999999999997797,-5.999999999994898e-05,-0.0005386549362584869,-0.0004192481695237671,0.0010291713426431315
150000000000.0,1,-0.0307732677,-0.00267721545,0.054662267099999995,-0.04799,0.010864,0.021185,-0.9098511803499999,-9.618166187,1.6835076054999998,-2.6461,1.3744,2.7618,0.000160000000000049,0.00019999999999997797,9.99999999995449e-06,4.924313734333552e-06,3.424168636723124e-05,0.00032736755934204
150000000000.0,1,-0.019662333249999997,0.012375992300000001,0.044296638049999996,-0.041533,0.016141,0.019053,-0.91228322955,-9.618460386499999,1.6799772114999998,-2.6441,1.3746,2.7599,0.00012999999999996348,0.00019999999999997797,1.0000000000065512e-05,-0.0007069867594999835,0.0011163413729435856,-0.00033306818372214053
150000000000.0,1,-0.020809711300000002,0.0102577559,0.05196543835,-0.035083,0.019289,0.01479,-0.9144210792499999,-9.618754586,1.6772313494999997,-2.6424,1.3747,2.7584,0.00014999999999998348,0.00029999999999996696,-2.0000000000020002e-05,0.0008778285305106603,0.0005280820488542393,-0.0003001701861324868
150000000000.0,1,-0.00973800345,0.00314793465,0.0599186315,-0.028645,0.020307,0.009462,-0.9159214966999999,-9.6190487855,1.675171953,-2.6412,1.3749,2.7573,0.0001300000000000745,0.00019999999999997797,-2.0000000000020002e-05,-0.0005199512105957815,0.00020338778116801848,0.0006456382887600753
150000000000.0,1,-0.01448442205,-0.0043345393,0.06387071144999999,-0.02113,0.022381,0.004135,-0.9170100348499999,-9.619146851999998,1.6737009554999998,-2.6404,1.3749,2.7567,0.00017000000000000348,0.00020000000000020002,2.999999999997449e-05,0.00048710483677516514,0.00026564169378850977,0.00033837936414116143
150000000000.0,1,-0.01826978895,-0.018044235999999998,0.06014418445,-0.013616,0.024455,-0.001192,-0.9177161136499999,-9.6192449185,1.6729164234999998,-2.6399,1.375,2.7564,0.00010999999999994348,0.00029999999999996696,3.500000000000725e-05,-4.4069086419629144e-05,-0.0008777626281737394,-0.0006028811124716427
150000000000.0,1,-0.0169066646,-0.017524483549999997,0.06867596995,-0.003965,0.027577,-0.00545,-0.9180299264499999,-9.619146851999998,1.673210623,-2.6398,1.3749,2.7566,0.00019999999999997797,0.00029999999999996696,3.500000000000725e-05,0.001469445262508362,0.000697209677131827,0.00026050569972113635
150000000000.0,1,-0.0164947853,-0.0169066646,0.06236048735,0.003552,0.030716,-0.009711,-0.9179906998499999,-9.6190487855,1.6739951549999998,-2.64,1.3749,2.7571,0.00019000000000002348,0.00029999999999996696,-2.999999999997449e-05,0.0014443230750385005,-0.0009748741354418389,-0.000684871719736968
150000000000.0,1,-0.0066096821,-0.0046875787,0.0471895998,0.012094,0.030646,-0.010764,-0.9175494005999999,-9.618754586,1.6754661524999999,-2.6406,1.3748,2.758,0.00017999999999995797,0.00039999999999995595,2.999999999997449e-05,-0.0005465812766765055,-0.001179588221185357,0.0005634810453969408
150000000000.0,1,-0.004059953099999999,7.845319999999999e-05,0.0481114249,0.018513,0.030596,-0.013955,-0.91681390185,-9.618460386499999,1.6776236155,-2.6415,1.3746,2.7592,0.00021000000000004349,0.00019999999999997797,2.999999999997449e-05,0.00023765467963277054,0.0007171294912227122,-7.817761749073782e-06
150000000000.0,1,0.0018436501999999997,0.003530394,0.0562117178,0.026012,0.032667,-0.01608,-0.9156861370999999,-9.6180681205,1.6807617434999997,-2.6428,1.3744,2.7608,0.00019000000000002348,0.00029999999999996696,-3.999999999992898e-05,-0.0004105580667423947,0.0007403534075283158,7.899804549360567e-05
150000000000.0,1,0.01028717585,-0.012827098199999998,0.0497981687,0.033504,0.034737,-0.017139,-0.91440146595,-9.617577788,1.6843902039999998,-2.6442,1.3741,2.7627,0.00021999999999999797,0.00020000000000020002,-4.0000000000040004e-05,0.0009549258846419661,0.00011638253291668121,0.0006591373931157385
150000000000.0,1,0.00979684335,-0.025193283849999998,0.052740163699999995,0.036726,0.035778,-0.019271,-0.9128618219,-9.616989388999999,1.688312864,-2.6459,1.3738,2.7647,0.00024999999999997247,0.00019999999999997797,-1.4999999999987246e-05,-0.0014644011853126582,0.00019534935371345874,0.0007854789419616814
150000000000.0,1,-0.00138273765,-0.032577691299999996,0.045287109699999994,0.043148,0.036793,-0.021397,-0.9114104377,-9.6163029235,1.6927258565,-2.6477,1.3735,2.7669,0.00024000000000001798,0.00019999999999997797,-1.4999999999987246e-05,5.715690830077058e-05,-0.00018469128120512934,0.0009441739425808393
150000000000.0,1,8.825985e-05,-0.03090075415,0.044512384349999996,0.049561,0.036742,-0.02352,-0.90973350055,-9.615616457999998,1.6977272479999999,-2.6497,1.3731,2.7693,0.00022999999999995246,0.00029999999999996696,4.999999999999449e-05,-0.0001781231449482501,-0.0008159911166305545,0.0015870596290521455
150000000000.0,1,-0.00185345685,-0.03913834014999999,0.046758107199999996,0.050627,0.035668,-0.024584,-0.9079486902499999,-9.6149299925,1.7029247724999999,-2.6518,1.3727,2.7718,0.000260000000000038,0.00029999999999996696,0.00012000000000000899,-0.00014813789610435002,0.0007360579702313519,0.00017449488577536698
150000000000.0,1,0.005972249849999999,-0.0358531124,0.044718324,0.051689,0.03353,-0.026714,-0.9058892937499999,-9.6141454605,1.7083184299999998,-2.654,1.3723,2.7744,0.000280000000000058,0.000500000000000167,4.0000000000040004e-05,-0.0005278884451997978,-0.00040096607561102005,0.001876868870239079
150000000000.0,1,0.008012033049999999,-0.0263014353,0.0488763436,0.051706,0.036724,-0.024586,-0.9038985438,-9.613360928499999,1.7137120874999998,-2.6562,1.3719,2.777,0.00017000000000000348,0.00019999999999997797,4.999999999999449e-05,-0.00014298305728210892,0.00026280227662267563,0.0002521594905511293
150000000000.0,1,0.0192602606,-0.0116503002,0.0395011862,0.052783,0.03778,-0.024587,-0.90182934065,-9.6125763965,1.7190076785,-2.6585,1.3715,2.7797,0.00013999999999991797,0.0002999999999997449,-1.0000000000065512e-05,-0.0011553147353162707,-0.00032022148471688716,-0.0005655656243814811
150000000000.0,1,0.03486264075,0.005452497399999999,0.02203554255,0.052744,0.033517,-0.023513,-0.8994757446499999,-9.611889931,1.724205203,-2.6608,1.3712,2.7824,0.00024000000000001798,0.000300000000000189,-9.99999999995449e-06,-0.0003360416380393527,1.0263632390206112e-05,0.00039889621380595486
150000000000.0,1,0.0206135783,0.020397831999999998,0.022270902149999997,0.053781,0.03031,-0.02244,-0.8974948013499999,-9.611105399,1.7295007939999998,-2.6629,1.3708,2.7849,0.00017000000000000348,0.00019999999999997797,-1.0000000000065512e-05,-1.3825145418255858e-05,-0.0011297944951953465,0.0015322963489419195
150000000000.0,1,0.0194563936,0.0314401199,0.02213360905,0.053771,0.028179,-0.023504,-0.89543540485,-9.610320866999999,1.7348944515,-2.6651,1.3704,2.7875,0.00014999999999998348,0.0002999999999997449,-8.999999999992347e-05,-5.2527507213628866e-05,-0.0016117884611364097,0.0010632137442514455
150000000000.0,1,0.01850514855,0.01509243435,0.023888999399999996,0.053747,0.024982,-0.023499,-0.8932877485,-9.609536335,1.7403861754999999,-2.6674,1.37,2.79,0.000260000000000038,0.000300000000000189,4.999999999999449e-05,-0.0007263816682023805,0.00036165977354429835,0.00011027937443008895
150000000000.0,1,0.010728475099999999,-0.0357746592,0.030400614999999995,0.050504,0.019681,-0.023496,-0.8911891254,-9.608849869499998,1.7454856335,-2.6695,1.3696,2.7924,0.00020999999999993246,0.000300000000000189,-0.000180000000000069,-0.001268815906948495,-0.0009455651646894658,0.0008828637168627473
150000000000.0,1,-0.00128467115,-0.06975470145,0.033970235599999996,0.052605,0.015401,-0.023485,-0.88906108235,-9.6080653375,1.7507812244999998,-2.6717,1.3692,2.7948,0.000140000000000029,0.0002999999999997449,8.000000000008001e-05,0.0001635567692257478,0.001022769338132612,-0.00041717896613935324
150000000000.0,1,-0.01344491715,-0.08162074795,0.02503637745,0.053596,0.005802,-0.023467,-0.8870703323999999,-9.6072808055,1.7560768155,-2.6738,1.3688,2.7971,0.00014999999999998348,0.000300000000000189,6.999999999990347e-05,-0.001050495312592492,0.0011120825911852261,-0.0007711079801255849
150000000000.0,1,-0.0166516917,-0.09820379309999999,0.011003061299999999,0.053539,-0.000592,-0.022388,-0.8849128693999999,-9.6064962735,1.7611762734999998,-2.676,1.3684,2.7993,0.0001500000000000945,0.00019999999999997797,7.00000000000145e-05,-0.00031839261664279306,-6.744352483534222e-05,-0.0005890397090690946
150000000000.0,1,-0.013337044000000001,-0.1057745269,0.0076295737,0.051362,-0.005902,-0.022382,-0.8826965665000001,-9.605809807999998,1.7659815319999999,-2.6781,1.3681,2.8014,6.999999999990347e-05,0.00019999999999997797,-8.999999999992347e-05,-0.0004111331588152467,-0.00011075414273475914,-0.0006285530707290654
150000000000.0,1,-0.0093947707,-0.10099868835,0.01026756255,0.044938,-0.007981,-0.021322,-0.8804998769,-9.605221408999999,1.7703945245,-2.6801,1.3678,2.8033,0.000200000000000089,0.00039999999999995595,2.999999999997449e-05,-0.0011318206335233505,8.92010548891875e-05,-0.00046231918412242834
150000000000.0,1,0.0020299765499999997,-0.08171881445,0.00752170055,0.03637,-0.010045,-0.018131,-0.8783031873,-9.6047310765,1.774022985,-2.6819,1.3675,2.8051,0.00010999999999994348,0.000500000000000167,4.0000000000040004e-05,-0.0023929190166458447,-0.001474196230969671,-0.0003529403565161182
150000000000.0,1,0.0098458766,-0.061909381449999995,0.01611232595,0.028881,-0.009988,-0.013876,-0.87639089055,-9.6043388105,1.7771611129999998,-2.6834,1.3673,2.8066,0.00021999999999999797,0.00019999999999997797,4.999999999999449e-05,0.0010144854400402359,0.0001780672347122536,0.0010644982155629812
150000000000.0,1,0.0153376006,-0.032950344,0.010904994799999998,0.024579,-0.011024,-0.008545,-0.8750081528999999,-9.604044610999999,1.7798089085,-2.6847,1.3672,2.8077,0.0001100000000000545,0.0002999999999997449,0.00010999999999994348,-0.0012483236263332032,0.0015751202824869637,-0.0005645121804302988
150000000000.0,1,0.026046462399999998,-0.029253236949999997,-0.015053207749999999,0.025582,-0.014237,-0.001067,-0.8740372945499999,-9.603652344999999,1.7821625045,-2.6856,1.367,2.8085,6.999999999990347e-05,0.00039999999999995595,6.0000000000060005e-05,-0.001454742174318735,-0.0007848607842064759,-0.0005720526883621346
150000000000.0,1,0.0324207849,-0.02011343915,-0.058820286699999995,0.028725,-0.018529,0.003214,-0.873380249,-9.6033581455,1.7840257679999998,-2.6863,1.3668,2.8091,0.000140000000000029,0.00019999999999997797,4.999999999999449e-05,0.0014437699371738777,2.056180191201129e-05,0.0009865128670241141
150000000000.0,1,0.05149471914999999,0.0079433865,-0.0774333084,0.035048,-0.023916,0.009637,-0.87286049655,-9.6029658795,1.7862812975,-2.6871,1.3666,2.8096,9.00000000000345e-05,0.000300000000000189,9.999999999998899e-05,0.0014900238374098151,4.018682896411718e-05,-0.0004794047413758662
150000000000.0,1,0.05495646659999999,0.019436780299999998,-0.08468042275,0.03926,-0.027153,0.014984,-0.8727330101,-9.602475547,1.788929093,-2.6877,1.3664,2.81,9.00000000000345e-05,0.00019999999999997797,3.999999999992898e-05,-0.000616334584855327,0.0002790994031369731,0.0003429083433195146
150000000000.0,1,0.06347844544999999,0.0280077924,-0.08260141295,0.039188,-0.032486,0.020328,-0.87301740295,-9.601985214499999,1.7917730215,-2.6882,1.3661,2.8101,0.00013999999999991797,0.00019999999999997797,3.0000000000085514e-05,-0.000660455777875768,-0.0006413519235715093,-0.00038641967886343664
150000000000.0,1,0.06284101319999999,0.0093555441,-0.0849452023,0.034899,-0.03139,0.025653,-0.8738803881499999,-9.6013968155,1.794224684,-2.6884,1.3659,2.81,0.0001300000000000745,0.000300000000000189,1.4999999999987246e-05,0.0005359809596499066,-0.0005755987264808304,-0.00019557171158846032
150000000000.0,1,0.051582978999999994,-0.03488225405,-0.062134934399999994,0.029527,-0.032417,0.03098,-0.875341579,-9.600906483,1.796382147,-2.6882,1.3656,2.8095,0.00017000000000000348,0.00019999999999997797,1.4999999999987246e-05,-0.0004465534428339524,-0.0003629654129246873,-0.00011395790668311534
150000000000.0,1,0.0378928956,-0.046257968049999994,-0.0517398854,0.020991,-0.030219,0.034162,-0.8773617489,-9.6004161505,1.7978531444999999,-2.6876,1.3654,2.8086,0.00012999999999996348,0.0002999999999997449,3.999999999992898e-05,-0.0007015774807173081,0.0001844494503098204,-0.0007093991268636302
150000000000.0,1,0.030577134699999998,-0.045159623249999996,-0.045698988999999995,0.015655,-0.028047,0.03735,-0.8797741847999999,-9.600023884499999,1.7988338095,-2.6867,1.3652,2.8074,0.00017000000000000348,0.00019999999999997797,-1.999999999990898e-05,0.0014874259731749717,0.0005386739788635353,-7.08557592146164e-05
150000000000.0,1,0.03315628365,-0.046336421249999996,-0.056172491199999994,0.008169,-0.027989,0.040538,-0.8825004335,-9.599729685,1.7990299424999998,-2.6855,1.365,2.8059,0.00012000000000000899,0.00019999999999997797,3.999999999992898e-05,8.644510962696472e-05,0.001225510103812999,-1.431261944118134e-05
150000000000.0,1,0.0548387868,-0.041138896749999994,-0.0726280499,0.007066,-0.030114,0.043739,-0.88517764895,-9.599533551999999,1.798735743,-2.6843,1.3649,2.8043,0.00010999999999994348,0.00019999999999997797,4.999999999999449e-05,0.00048571237853689553,0.0007721499857644698,-4.0309570525920435e-05
150000000000.0,1,0.07455995995,-0.0516025923,-0.0806302763,0.00491,-0.029036,0.049067,-0.8879921575,-9.599435485499999,1.7980492775,-2.6829,1.3649,2.8025,3.0000000000085514e-05,0.00019999999999997797,-4.499999999996174e-05,-0.00044805017190574503,0.0007780767331901917,-0.0005802292380874263
150000000000.0,1,0.09591884364999999,-0.06413549099999999,-0.08477848924999999,0.003813,-0.029033,0.054398,-0.8910910589,-9.599337419,1.7970686125,-2.6813,1.3648,2.8006,9.99999999995449e-06,0.00010000000000021103,-4.499999999996174e-05,-0.001667156694106886,0.0006318166064087638,-0.0007104317426129825
150000000000.0,1,0.0968112488,-0.0738440745,-0.08186591419999999,0.002707,-0.030095,0.05973,-0.8945233864,-9.599141286,1.7960879475,-2.6795,1.3647,2.7985,9.999999999998899e-05,9.999999999976694e-05,-2.0000000000020002e-05,0.0005593723030592468,0.00019779199035729889,0.0005132252588309072
150000000000.0,1,0.09452629935,-0.08091466915,-0.080022264,0.004846,-0.029047,0.059728,-0.8980832003499999,-9.598945152999999,1.7953034155,-2.6778,1.3646,2.7963,2.999999999997449e-05,0.00010000000000021103,-1.0000000000065512e-05,-0.00017969641892912058,0.0004718038609328179,-0.0007117194789092451
150000000000.0,1,0.0882990766,-0.09174121075,-0.0851021087,0.005908,-0.029056,0.059726,-0.90173127415,-9.59874902,1.7945188835,-2.676,1.3645,2.7942,9.00000000000345e-05,0.00010000000000021103,1.0000000000065512e-05,-0.0003619244354746698,0.0008646017640645542,-9.246016359609754e-05
150000000000.0,1,0.07836494014999999,-0.1024010393,-0.0732360622,0.00377,-0.031167,0.05652,-0.90526166815,-9.5986509535,1.7937343514999997,-2.6742,1.3644,2.7921,5.999999999994898e-05,9.999999999976694e-05,7.00000000000145e-05,-0.0005257394842994589,0.00017241303493253923,-0.0010335728317025783
150000000000.0,1,0.07505029245,-0.08230721344999999,-0.08309174544999999,0.001671,-0.029014,0.052239,-0.90853708925,-9.598454820499999,1.7927536865,-2.6725,1.3644,2.7901,9.00000000000345e-05,0.00010000000000021103,3.999999999992898e-05,-0.0002725308337170329,0.0006151263427494058,-0.00015777845042030947
150000000000.0,1,0.0777275079,-0.08230721344999999,-0.07132376544999999,-0.003654,-0.030031,0.047959,-0.9113614044499999,-9.598454820499999,1.7912826889999998,-2.6709,1.3644,2.7881,0.00012000000000000899,9.999999999976694e-05,4.0000000000040004e-05,-4.104234089141734e-05,0.001146342745619755,-0.0001881898071363075
150000000000.0,1,0.07854145985,-0.08864230934999999,-0.05511337299999999,-0.011082,-0.027834,0.042601,-0.9136659671999999,-9.5986509535,1.7895174919999999,-2.6695,1.3644,2.7864,0.00012999999999996348,4.999999999988347e-05,9.00000000000345e-05,0.00018196503401490816,0.000312870517771735,0.0003148363860954184
150000000000.0,1,0.07751176159999999,-0.0791004389,-0.05680992345,-0.017437,-0.025644,0.036178,-0.91548019745,-9.5988470865,1.7872619625,-2.6682,1.3646,2.7847,9.00000000000345e-05,5.000000000032756e-05,7.999999999996898e-05,0.00023477526276294292,0.0009581872967994176,-0.0008212412382162526
150000000000.0,1,0.07623689709999999,-0.06508673605,-0.049955075099999996,-0.02168,-0.025603,0.03083,-0.9167452553,-9.5992393525,1.784418034,-2.667,1.3648,2.7832,2.999999999997449e-05,9.999999999976694e-05,9.99999999995449e-06,-0.0010507160847423869,-0.0003493693242240248,-0.0005498328994084645
150000000000.0,1,0.07196119769999999,-0.04478697055,-0.04682675374999999,-0.026965,-0.024486,0.022276,-0.9174121074999999,-9.5998277515,1.781083773,-2.666,1.365,2.7819,8.000000000008001e-05,0.00010000000000021103,8.000000000008001e-05,-5.757726719890499e-05,0.0001933164191145753,-0.00029288471880839495
150000000000.0,1,0.07840416675,-0.01617116585,-0.05696682985,-0.025841,-0.022355,0.013732,-0.9172748143999999,-9.6004161505,1.7778475784999999,-2.6653,1.3654,2.781,0.00010999999999994348,4.999999999988347e-05,1.999999999990898e-05,0.00027964029508420474,-4.959510831126224e-06,-1.1258077350806417e-05
150000000000.0,1,0.07985555094999999,0.01668111165,-0.06601836779999999,-0.024748,-0.023422,0.00626,-0.9163333759999999,-9.601102616,1.774611384,-2.6649,1.3657,2.7804,9.00000000000345e-05,4.999999999988347e-05,6.0000000000060005e-05,0.00042453488955751517,0.0003890109739694836,-0.0003367289800029205
150000000000.0,1,0.08478829589999999,0.011179581,-0.0745501533,-0.023656,-0.024489,-0.001211,-0.9145289524,-9.601887148,1.771277123,-2.665,1.3661,2.7802,8.999999999992347e-05,-9.090909090847532e-06,5.999999999994898e-05,-9.585181793991815e-05,1.6669123148904674e-05,-0.00017258235097949992
150000000000.0,1,0.08200320729999999,-0.013278204099999998,-0.07036271375,-0.021491,-0.025564,-0.009749,-0.91189096355,-9.6027697465,1.7681389949999997,-2.6654,1.3665,2.7804,6.0000000000060005e-05,-9.090909090847532e-06,7.00000000000145e-05,-0.0011188368639316604,-0.00043075053665786456,-0.0005828746236535842
150000000000.0,1,0.07068633319999999,-0.06422375085,-0.04774857885,-0.021447,-0.024491,-0.017226,-0.90865476905,-9.603554278499999,1.7652950665,-2.6662,1.3669,2.7809,7.00000000000145e-05,-9.090909090847532e-06,2.999999999997449e-05,-0.0005701249081830895,0.00015109938713631088,-0.00048165114618781146
150000000000.0,1,0.0550545331,-0.08761261109999999,-0.046110868299999996,-0.019291,-0.026632,-0.02576,-0.90484978885,-9.604436877,1.762647271,-2.6673,1.3674,2.7817,0.00010999999999994348,-9.090909090847532e-06,6.0000000000060005e-05,0.00016530154857496981,-5.252792844245846e-06,0.00012136171328958056
150000000000.0,1,0.04302177355,-0.07502087249999999,-0.040373978049999995,-0.023517,-0.02446,-0.031111,-0.9007408025,-9.605319475499998,1.7597052759999998,-2.6685,1.3678,2.7827,9.00000000000345e-05,-9.090909090847532e-06,9.00000000000345e-05,0.0003909454036259419,-0.0007330747595768461,0.00013539128428030622
150000000000.0,1,0.04361017255,-0.05129858615,-0.02576206955,-0.02667,-0.022297,-0.037527,-0.8961022570499999,-9.6063001405,1.7567632809999998,-2.6699,1.3683,2.7839,0.0001100000000000545,-9.090909091291621e-06,8.999999999992347e-05,-0.0009511733985314574,-7.371059844807348e-05,-0.0006193054503880191
150000000000.0,1,0.049739328799999996,-0.02786069265,-0.02662505475,-0.026616,-0.01803,-0.041806,-0.8910027990499999,-9.6072808055,1.7539193525,-2.6716,1.3688,2.7854,9.999999999998899e-05,-9.090909090847532e-06,8.000000000008001e-05,0.0006614427875482054,-0.0004491568652098543,-0.00027666765273481886
150000000000.0,1,0.05514279295,-0.01642613875,-0.03301899055,-0.03084,-0.013731,-0.043958,-0.8856287548499999,-9.6084576035,1.7505850914999999,-2.6732,1.3694,2.7869,9.999999999998899e-05,-9.090909090847532e-06,4.999999999999449e-05,-0.0006192329068226421,0.0008390284346673216,-0.0007719348863313158
150000000000.0,1,0.05663340374999999,-0.01962310665,-0.031185147,-0.031894,-0.012656,-0.045032,-0.8800879976,-9.609536335,1.7470546974999999,-2.6749,1.37,2.7885,0.00012999999999996348,-9.090909090847532e-06,4.999999999999449e-05,0.0016823658568099198,-0.0005267530987453917,-0.0006812530999091848
150000000000.0,1,0.04842523769999999,-0.03313667035,-0.02399687255,-0.032935,-0.010514,-0.047175,-0.8745766602999999,-9.610713132999999,1.7435243034999999,-2.6766,1.3706,2.7901,9.999999999998899e-05,-9.090909090847532e-06,7.999999999996898e-05,0.0004273212956680261,-7.104812408198491e-05,-0.00021551186310109216
150000000000.0,1,0.026742734549999998,-0.04170768245,-0.01987807955,-0.033958,-0.006241,-0.049321,-0.8692026161,-9.611889931,1.7397977765000001,-2.6783,1.3712,2.7917,0.00012000000000000899,-9.090909090847532e-06,9.999999999998899e-05,0.000722560223216151,-0.000729600926620888,0.00011668899158312485
150000000000.0,1,0.013758729949999998,-0.059447912299999996,-0.00979684335,-0.03074,-0.007328,-0.054651,-0.8635539857,-9.612968662499998,1.7364635154999999,-2.6801,1.3717,2.7935,9.00000000000345e-05,-0.00010000000000021103,7.00000000000145e-05,0.0004182045863998507,-0.000797595020542996,-0.00017220349882274277
150000000000.0,1,0.00018632635,-0.05314223635,-0.014906108,-0.02753,-0.007352,-0.056781,-0.8579053553,-9.614047394,1.7333253874999999,-2.682,1.3723,2.7954,0.00015999999999993797,-4.999999999988347e-05,0.00012999999999996348,0.0011517386513411054,-0.0008892090901444494,0.0004502496376388443
150000000000.0,1,0.0055113372999999995,-0.0341663686,-0.0178284897,-0.02325,-0.00632,-0.057843,-0.85201155865,-9.615028059,1.7305795254999998,-2.6841,1.3728,2.7975,9.999999999998899e-05,-4.999999999988347e-05,9.00000000000345e-05,-0.0006194956767313631,-0.0004613915593891793,-0.00041921977282033396
150000000000.0,1,0.0024810824500000003,0.0070705946499999995,-0.0231829206,-0.022148,-0.00313,-0.059982,-0.8461373752999999,-9.616008723999999,1.7280297965,-2.6863,1.3733,2.7996,0.0001100000000000545,-0.00010000000000021103,7.999999999996898e-05,0.001105091112674872,-0.001407239491291401,-0.00014284451466251014
150000000000.0,1,0.0090613446,0.044512384349999996,-0.03282285755,-0.020026,-0.00315,-0.057843,-0.84030241855,-9.616989388999999,1.7256762004999997,-2.6884,1.3738,2.8018,0.00015999999999993797,-9.999999999976694e-05,7.999999999996898e-05,0.0015859026014899413,-0.0007935077003018431,-2.767640366263535e-05
150000000000.0,1,0.01556315355,0.061056202899999995,-0.025526709949999997,-0.015775,-0.003188,-0.054634,-0.8346832080999999,-9.617773921,1.7237148705,-2.6906,1.3742,2.8041,0.0001300000000000745,-0.00010000000000021103,6.0000000000060005e-05,0.0018631870997645184,-0.00013014563014879243,0.0003646249254529721
150000000000.0,1,0.012062179499999999,0.06316463265,-0.03029274185,-0.013644,-0.002142,-0.052498,-0.8293778104499999,-9.618558453,1.7221458064999997,-2.6928,1.3746,2.8062,0.00024000000000001798,-9.999999999976694e-05,4.999999999999449e-05,-0.00039847528620784445,-0.0004510413449905215,0.0010318645316287345
150000000000.0,1,-0.0096497436,0.024908891,-0.026713314599999996,-0.007281,-0.007522,-0.053545,-0.82427835245,-9.6192449185,1.720870942,-2.6949,1.375,2.8083,0.00017000000000000348,-0.00010000000000021103,0.00012000000000000899,3.7828811392248696e-06,-0.0005115460188038767,0.0003134878151631604
150000000000.0,1,-0.039520799499999995,-0.027154613850000002,-0.009943943099999998,0.000157,-0.011844,-0.05459,-0.81955154715,-9.619637184499998,1.7205767424999998,-2.6971,1.3752,2.8104,0.00012999999999996348,-0.00010000000000021103,-1.0000000000065512e-05,-0.00016382229220135436,-0.0004343467883167751,0.00031469272600892495
150000000000.0,1,-0.06308617945,-0.06332153905,0.01032640245,0.002305,-0.010794,-0.055653,-0.81498164825,-9.620029450499999,1.720870942,-2.6993,1.3754,2.8126,0.00017999999999995797,-9.999999999976694e-05,0.0001100000000000545,-0.00014340994180872535,-0.0004869847026343077,-0.0001005111473824094
150000000000.0,1,-0.07412846734999999,-0.0823954733,0.017897136249999997,0.009724,-0.018312,-0.057759,-0.8102254229999999,-9.6202255835,1.7217535405,-2.7018,1.3755,2.815,0.000160000000000049,-0.00010000000000021103,9.999999999998899e-05,-0.001090843061082758,-0.0011896625474074884,-0.00010226827648551762
150000000000.0,1,-0.09162353095,-0.09168237084999999,0.0185541818,0.01504,-0.022614,-0.06094,-0.8054593911,-9.6204217165,1.7232245379999998,-2.7044,1.3756,2.8174,0.00021000000000004349,-9.999999999976694e-05,7.999999999996898e-05,-0.0003193640134235842,-0.0001595537912360001,0.0003218350982137075
150000000000.0,1,-0.09080957899999999,-0.029792602699999997,-0.006805815099999999,0.020333,-0.029049,-0.063051,-0.8004285796499999,-9.620519782999999,1.7250878015,-2.7072,1.3756,2.8201,0.00013999999999991797,-0.00010000000000021103,9.00000000000345e-05,-2.4295235420801475e-05,-5.332002443414474e-05,0.0009046283388394194
150000000000.0,1,-0.0867692392,0.02880213105,-0.0151218543,0.02988,-0.036585,-0.064085,-0.7952016351999999,-9.6204217165,1.7278336635,-2.7103,1.3756,2.8229,0.0001300000000000745,-0.00019999999999997797,-2.999999999997449e-05,-0.0002706653023776262,-0.002077530146100459,-0.00048616659187850075
150000000000.0,1,-0.09440861954999999,0.08130693515,-0.02872367785,0.035158,-0.043022,-0.062992,-0.7901021772,-9.6202255835,1.7311679244999998,-2.7134,1.3755,2.8258,0.00025999999999992696,-0.00019999999999997797,9.99999999995449e-06,0.0007485488122689343,-1.985480099864212e-05,-0.00026748833163603436
150000000000.0,1,-0.08586702739999999,0.13034999179999998,-0.050376761049999996,0.036206,-0.045161,-0.062982,-0.7848752327499999,-9.620029450499999,1.734600252,-2.7167,1.3754,2.8286,0.00019999999999997797,-9.999999999976694e-05,1.0000000000065512e-05,0.00032898114006130186,3.4775856547986095e-05,-1.5768215721578827e-05
150000000000.0,1,-0.08585722075,0.13122278365,-0.0573885158,0.035062,-0.052613,-0.059765,-0.7798051947,-9.619931384,1.7378364465,-2.7198,1.3753,2.8314,0.00021000000000004349,-0.00010000000000021103,4.999999999999449e-05,-0.0005399524857236937,5.666314016550267e-05,-0.0003131778956353415
150000000000.0,1,-0.08900515540000001,0.10901072139999998,-0.02582090945,0.028614,-0.055761,-0.055496,-0.7749999362,-9.619735251,1.741072641,-2.7228,1.3752,2.8339,0.00021999999999999797,-0.00019999999999997797,-6.0000000000060005e-05,-0.00010906443663638576,-0.00030968907015616054,-0.000492280778102927
150000000000.0,1,-0.09613458994999999,0.08756357784999999,-0.0060310897499999995,0.024305,-0.058925,-0.052292,-0.7705673303999999,-9.619441051499999,1.7442107689999997,-2.7256,1.3751,2.8362,0.00017999999999995797,-9.999999999976694e-05,-3.999999999992898e-05,0.0007545081593287595,-0.0009305746499754797,-0.0008020653425027113
150000000000.0,1,-0.1078339234,0.056172491199999994,-0.0043247326499999995,0.017857,-0.062072,-0.048023,-0.7666446704,-9.619342985,1.746564365,-2.728,1.375,2.838,0.0001500000000000945,-0.00010000000000021103,-7.00000000000145e-05,-0.0009987722679043465,-0.0008799116841455845,-0.00042603370230143156
150000000000.0,1,-0.11772883325,0.028615804699999997,-0.0063154826,0.00928,-0.062009,-0.039493,-0.7634869291,-9.619342985,1.748133429,-2.7298,1.375,2.8393,0.00032999999999994145,-0.00019999999999997797,-4.0000000000040004e-05,-0.0004194800593031456,-0.0002346931599463975,-0.0008191700323854079
150000000000.0,1,-0.10158708735,0.00152003075,-0.01774022985,-0.001455,-0.064061,-0.029897,-0.7609273934499999,-9.619441051499999,1.7484276285,-2.7311,1.3751,2.84,0.000160000000000049,-0.00019999999999997797,-5.999999999994898e-05,0.0015273014203625035,-0.0012129273811427588,-0.001148613575347568
150000000000.0,1,-0.08903457534999999,0.00189268345,-0.0072569209999999995,-0.011113,-0.065057,-0.020301,-0.7591131632,-9.619735251,1.7480353624999998,-2.7319,1.3752,2.8401,0.00021999999999999797,-0.00019999999999997797,-2.0000000000020002e-05,0.0012199524145537488,-0.0003508217862733254,-0.00064747741443405
150000000000.0,1,-0.07697239585,-0.00040207264999999996,0.01013026945,-0.030394,-0.065977,-0.006454,-0.7583090179,-9.620127516999998,1.7461720989999998,-2.7319,1.3754,2.8395,3.999999999992898e-05,-0.00010000000000021103,-4.0000000000040004e-05,-0.0004721965394913763,-0.00031222223978377706,-0.001194660702255046
150000000000.0,1,-0.07340277525,-0.00316754795,0.02489908435,-0.044276,-0.059482,0.006323,-0.7587307038499999,-9.620617849499999,1.743033971,-2.731,1.3757,2.838,0.00019000000000002348,-0.00019999999999997797,-3.999999999992898e-05,0.0024552760871336954,0.00026346401403865016,-0.0007639877385803295
150000000000.0,1,-0.06769530495,-0.00787473995,0.039697319200000004,-0.062475,-0.059345,0.019103,-0.76039783435,-9.621304315,1.7386209785,-2.7293,1.3761,2.8356,0.000140000000000029,-9.999999999976694e-05,-3.0000000000085514e-05,0.0008578747990943825,6.27830698154419e-05,-0.0009529643061250148
150000000000.0,1,-0.07140221865,-0.0410898635,0.04970990884999999,-0.080682,-0.060274,0.031885,-0.7632711828,-9.6221869135,1.7323447225,-2.7266,1.3765,2.8322,5.999999999994898e-05,-0.00019999999999997797,-2.999999999997449e-05,0.00032437224238046625,0.00028464449525800184,-0.001059973649392365
150000000000.0,1,-0.07999284404999998,-0.05905564629999999,0.0684700303,-0.094589,-0.059103,0.041469,-0.7672526827,-9.623265644999998,1.724793602,-2.723,1.3771,2.828,7.00000000000145e-05,-0.00010000000000021103,6.0000000000060005e-05,0.0005159517611053044,0.0009361949671831127,-0.0011984313161303994
150000000000.0,1,-0.07983593765000001,-0.0467384939,0.08564147444999999,-0.10534,-0.063287,0.051068,-0.7721952343,-9.6243443765,1.7164579494999999,-2.7188,1.3777,2.8231,7.00000000000145e-05,-4.999999999988347e-05,5.999999999994898e-05,0.0010408975042477397,0.0011749362096993288,-0.0007599672744196262
150000000000.0,1,-0.0893581948,-0.036647451049999995,0.094732239,-0.11496,-0.061084,0.058523,-0.7780988376,-9.625423108,1.7075338979999999,-2.714,1.3783,2.8176,2.0000000000020002e-05,-4.999999999988347e-05,-1.4999999999987246e-05,0.0010278715665530402,0.0008593213179963755,-0.0007466292605533553
150000000000.0,1,-0.07620747715,-0.026428921749999997,0.06957818175,-0.11929,-0.065317,0.064931,-0.7843554802999999,-9.626697972499999,1.6976291815,-2.7088,1.3789,2.8116,2.0000000000020002e-05,-0.00010000000000021103,-1.4999999999987246e-05,0.0017784078557352423,-0.0004998581495960774,-0.0009228181052041151
150000000000.0,1,-0.06409626439999999,-0.0137685366,0.0595655921,-0.12361,-0.06742,0.072402,-0.7910828422,-9.627972837,1.6871360659999999,-2.7031,1.3796,2.8052,-5.500000000002725e-05,-9.999999999976694e-05,2.999999999997449e-05,0.00010690383323685992,0.0009044816827150637,-0.0006166732256209784
150000000000.0,1,-0.05489762669999999,0.004903325,0.06145827555,-0.13112,-0.068432,0.079865,-0.7984868629499999,-9.629247701499999,1.6761526179999997,-2.697,1.3803,2.7983,-5.500000000002725e-05,-0.00010000000000021103,-5.999999999994898e-05,0.0004851803159993118,-0.00038341424365206933,-0.0006431629074055145
150000000000.0,1,-0.039736545799999995,0.0136704701,0.08436660994999999,-0.1344,-0.074806,0.087344,-0.8061654698999999,-9.6306206325,1.6650711034999999,-2.6907,1.381,2.7911,-5.999999999994898e-05,-9.999999999976694e-05,1.4999999999987246e-05,0.001572557746321701,0.0007376713143349978,-0.0012483690758791077
150000000000.0,1,-0.03753004955,-0.004020726499999999,0.11622841579999998,-0.1504,-0.070418,0.092648,-0.81451092905,-9.631895497,1.6534011899999999,-2.6839,1.3817,2.7834,-2.0000000000020002e-05,-3.333333333355171e-05,1.4999999999987246e-05,-6.866947637873544e-05,0.001304698231124668,-0.00120803024699212
150000000000.0,1,-0.0363630582,-0.017906942899999997,0.13674392759999998,-0.15683,-0.073564,0.094779,-0.8230034879499999,-9.633268428,1.6411428774999999,-2.6767,1.3825,2.7754,-2.0000000000020002e-05,-3.333333333310762e-05,2.0000000000020002e-05,0.0005563799687025028,0.0007306551060770605,-0.0008464874139990641
150000000000.0,1,-0.0392462133,-0.028605998049999998,0.1632414959,-0.15576,-0.073576,0.096917,-0.831800053,-9.6345432925,1.6290806979999999,-2.6695,1.3832,2.7673,-5.999999999994898e-05,-3.333333333355171e-05,-1.0000000000065512e-05,0.0020456516132170144,0.0005709829541111766,-0.0010324509225232426
150000000000.0,1,-0.03955021945,-0.06702845275,0.17038073709999998,-0.15473,-0.078913,0.09693,-0.8404691315999999,-9.635818157,1.617312718,-2.6623,1.3838,2.7592,-7.00000000000145e-05,-4.999999999988347e-05,1.0000000000065512e-05,0.0008590358980453683,0.000729582265240003,-0.0010972275709413282
150000000000.0,1,-0.037069136999999995,-0.08364091785,0.15890695659999998,-0.14835,-0.082161,0.095881,-0.8489420772,-9.636994955,1.6057408709999998,-2.6553,1.3845,2.7511,-9.00000000000345e-05,-4.999999999988347e-05,6.999999999990347e-05,-0.00010390295926332449,0.00114625261101442,-0.0011089136200168603
150000000000.0,1,-0.0328522775,-0.07432460034999999,0.1416276393,-0.13768,-0.085443,0.092704,-0.8570423701,-9.638073686499999,1.5949535559999999,-2.6485,1.3851,2.7434,-7.999999999996898e-05,-3.333333333355171e-05,4.999999999999449e-05,0.0021191349341034282,0.0007164576645555254,-0.0009555960845584188
150000000000.0,1,-0.023339827,-0.057849428349999996,0.14034296815,-0.12488,-0.088741,0.088463,-0.8646131038999999,-9.638956284999999,1.5852449724999997,-2.6423,1.3856,2.7361,-9.999999999998899e-05,-3.333333333310762e-05,-9.99999999995449e-06,0.00039863584727251045,0.0009948350681860951,-0.0016299791097180716
150000000000.0,1,-0.0196721399,-0.0416782625,0.15123815629999998,-0.11849,-0.093054,0.08528,-0.8717229251499999,-9.639740817,1.5768112534999998,-2.6366,1.386,2.7294,9.99999999995449e-06,-3.333333333355171e-05,9.99999999995449e-06,0.0012697538817287857,0.0007347626052403022,-0.0008984530318918438
150000000000.0,1,-0.00901231135,-0.04088392385,0.16029950089999997,-0.11103,-0.097374,0.081032,-0.8781855075,-9.640329216,1.5691620665000001,-2.6314,1.3864,2.7231,-7.00000000000145e-05,-9.999999999976694e-05,-1.999999999990898e-05,0.001357040366893214,0.0005482051757854656,-0.0009682724662223308
150000000000.0,1,-0.01760293675,-0.056349010899999996,0.16790946129999998,-0.1035,-0.095297,0.072502,-0.8841087241,-9.640917615,1.5624935444999999,-2.6267,1.3867,2.7173,-5.999999999994898e-05,2.4999999999941735e-05,4.999999999999449e-05,0.0011799885381331698,1.1224297699730101e-05,0.00017942815648375188
150000000000.0,1,-0.03358777625,-0.08594548059999998,0.1937205641,-0.10132,-0.095308,0.065036,-0.8895318015499999,-9.6414079475,1.5564134214999998,-2.6224,1.387,2.712,-2.999999999997449e-05,2.4999999999941735e-05,4.999999999999449e-05,1.0931600852082113e-05,0.0005502859346955269,-0.0011417749007125444
150000000000.0,1,-0.05245577084999999,-0.11419843925,0.21777627655,-0.10016,-0.09211,0.05436,-0.8943076401,-9.64189828,1.5508236309999999,-2.6185,1.3872,2.707,-4.0000000000040004e-05,2.4999999999941735e-05,9.999999999998899e-05,0.0012076923087218638,0.0004587238915194636,-0.0010190898011352978
150000000000.0,1,-0.0592910059,-0.10253833239999999,0.22032600555,-0.091563,-0.092169,0.042636,-0.8980930069999999,-9.642290546,1.5458222394999999,-2.6153,1.3875,2.7028,-6.0000000000060005e-05,2.4999999999941735e-05,9.00000000000345e-05,0.0007071254137778205,0.00032012779308643324,-0.0008466602635883724
150000000000.0,1,-0.06431201069999999,-0.0327934376,0.21173538014999999,-0.077627,-0.092272,0.030921,-0.9010055820499999,-9.642682812,1.542193779,-2.6128,1.3876,2.6994,-1.999999999990898e-05,5.000000000032756e-05,9.999999999998899e-05,0.0019504968941332912,0.0002797213908929397,-0.0005508171335977252
150000000000.0,1,-0.04659139415,0.05051405415,0.1749702493,-0.062627,-0.091321,0.021341,-0.9027119391499999,-9.642878945,1.5395459834999998,-2.6113,1.3878,2.6968,-1.0000000000065512e-05,4.999999999988347e-05,5.999999999994898e-05,0.0002003252055502447,-0.0002619755518620259,-0.0008915743605921733
150000000000.0,1,-0.0157298666,0.11765038005,0.1382345384,-0.039095,-0.089376,0.013908,-0.9033493713999999,-9.6429770115,1.5385653185,-2.6107,1.3878,2.6953,-2.999999999997449e-05,4.999999999988347e-05,1.0000000000065512e-05,0.0005154839498902053,-9.142043581111814e-05,-0.0011728460878730473
150000000000.0,1,0.00218688295,0.14750182265,0.09804688669999999,-0.016662,-0.090621,0.007545,-0.9030061386499999,-9.642878945,1.5392517839999997,-2.6111,1.3878,2.6948,9.99999999995449e-06,4.999999999988347e-05,7.999999999996898e-05,-4.705425103512795e-05,0.001149386904672367,-0.0020102452152843675
150000000000.0,1,-0.00013729309999999998,0.15165984224999998,0.07440305355,0.006831,-0.091875,0.002252,-0.9021725733999999,-9.642584745499999,1.5418015129999998,-2.6122,1.3876,2.695,1.0000000000065512e-05,4.999999999988347e-05,-2.0000000000020002e-05,0.0008128701963729945,-1.794050642800471e-05,9.991220094374142e-06
150000000000.0,1,-0.0046679654,0.12247525185,0.07677626284999998,0.026091,-0.088831,-0.003057,-0.9009467421499999,-9.6419963465,1.5463125719999997,-2.614,1.3873,2.6959,-2.0000000000020002e-05,5.000000000032756e-05,-9.99999999995449e-06,-0.0014341216898290376,-7.419658389395956e-05,-0.0016043454312200112
150000000000.0,1,-0.0102185293,0.08591606064999999,0.0710393726,0.041077,-0.085754,-0.007305,-0.89927961165,-9.641211814499998,1.552196562,-2.6165,1.3868,2.6975,4.0000000000040004e-05,9.999999999976694e-05,5.999999999994898e-05,0.000456381700191244,0.0002497927375211262,-0.00024074256708628283
150000000000.0,1,-0.027586106449999998,0.07506990575,0.07963980464999999,0.049666,-0.081559,-0.010498,-0.8976222878,-9.640231149499998,1.5591592834999999,-2.6192,1.3863,2.6995,-7.00000000000145e-05,5.000000000032756e-05,-5.999999999994898e-05,-0.0015968914270327872,-0.0006526215920132916,-0.0015609443782786947
150000000000.0,1,-0.030175062049999996,0.08852462955,0.09591884364999999,0.050811,-0.073043,-0.011577,-0.8959355439999999,-9.639152418,1.566710404,-2.6221,1.3857,2.7016,-2.999999999997449e-05,4.999999999988347e-05,-4.999999999999449e-05,-0.00057690226568341,-0.000154467140641934,-0.000664532566614362
150000000000.0,1,-0.02676234785,0.11721888744999999,0.09930213789999999,0.049809,-0.065575,-0.01159,-0.8944057065999999,-9.638073686499999,1.5742615245,-2.6249,1.3851,2.7038,-5.500000000002725e-05,9.999999999976694e-05,9.99999999995449e-06,9.762749937314297e-05,-0.0003922144691510532,-0.00029515100926591487
150000000000.0,1,-0.0159456129,0.1391955901,0.10423488284999999,0.048822,-0.054914,-0.009474,-0.8929543224,-9.636994955,1.5816165119999999,-2.6276,1.3845,2.7059,-5.500000000002725e-05,4.999999999988347e-05,-9.999999999998899e-05,-0.001714539104038959,-0.0003295252349739819,-0.0009500546586567182
150000000000.0,1,-0.013915636349999998,0.1454522328,0.09205502354999999,0.051029,-0.046408,-0.009484,-0.8916990711999999,-9.635916223499999,1.5887753664999997,-2.6302,1.3839,2.708,-4.999999999999449e-05,5.000000000032756e-05,-7.999999999996898e-05,-0.0002341332403863472,-2.884688141846503e-05,-0.00041111053024645017
150000000000.0,1,-0.0187699281,0.14151976614999998,0.0742951804,0.053213,-0.040033,-0.008423,-0.8907282128499999,-9.634837491999999,1.5959342209999998,-2.6325,1.3833,2.71,-7.00000000000145e-05,9.999999999976694e-05,-0.00012000000000000899,-0.0015932633162936138,-0.000266740099107432,-0.0009207989020487695
150000000000.0,1,-0.015229727449999998,0.11168793684999999,0.04372785235,0.060718,-0.035833,-0.008416,-0.88962986805,-9.6337587605,1.6031911419999998,-2.635,1.3827,2.7121,-2.999999999997449e-05,0.00019999999999997797,-8.000000000008001e-05,-0.0009854262902999622,-0.0003497597484534154,-0.0001348502436786525
150000000000.0,1,-0.021466756849999998,0.09747810099999998,0.0221826423,0.070347,-0.032715,-0.008403,-0.8887766895,-9.6325819625,1.6108403289999997,-2.6374,1.3821,2.7143,-2.999999999997449e-05,4.999999999988347e-05,-0.00013999999999991797,-0.0012675186256043691,0.0002016584199995286,-0.0007564922559080145
150000000000.0,1,-0.028929617499999997,0.06687154635,0.015357213899999998,0.076766,-0.030637,-0.008394,-0.8880509973999999,-9.6312090315,1.6188817819999999,-2.6398,1.3814,2.7164,-7.00000000000145e-05,5.000000000032756e-05,-4.0000000000040004e-05,-0.001680255495561056,0.00023303583362954683,0.00014033611285224623
150000000000.0,1,-0.04531652965,0.04350229939999999,0.015445473749999999,0.081091,-0.024277,-0.009463,-0.8875312449499999,-9.629934166999998,1.627315501,-2.6423,1.3806,2.7186,-6.0000000000060005e-05,9.999999999976694e-05,-0.000140000000000029,-0.0009998960344239638,-0.0008062823902916794,-0.00010672808109024601
150000000000.0,1,-0.052220411249999994,0.00789435325,0.0219276694,0.076886,-0.017846,-0.011614,-0.8870507191,-9.628561236,1.6354550205,-2.6446,1.3799,2.7208,-2.0000000000020002e-05,0.00010000000000021103,-7.999999999996898e-05,0.00015442888329464388,-8.589011910009603e-05,1.7202561170215347e-05
150000000000.0,1,-0.06709709929999999,-0.0404230113,0.0500335283,0.070504,-0.015662,-0.011626,-0.8866976796999999,-9.627188304999999,1.643398407,-2.6468,1.3792,2.7229,4.0000000000040004e-05,9.999999999976694e-05,-5.999999999994898e-05,0.0006749331526609836,0.0002451135993939424,-8.178542077619255e-05
150000000000.0,1,-0.0816501679,-0.08636716655,0.056172491199999994,0.064186,-0.006017,-0.012718,-0.8865015467,-9.626011507,1.6505572614999997,-2.6487,1.3786,2.7248,-2.0000000000020002e-05,0.00019999999999997797,-1.0000000000065512e-05,-0.0006799240200248136,0.0004999493381037112,-0.0004944075000610226
150000000000.0,1,-0.0917510174,-0.11618918919999999,0.06518480255,0.055715,0.000449,-0.014875,-0.88643290015,-9.6249327755,1.6570296505,-2.6504,1.378,2.7264,-8.999999999992347e-05,0.00020000000000042206,-4.0000000000040004e-05,-0.002050174321459153,-5.319987811169824e-06,-0.00032884507972053
150000000000.0,1,-0.0989687118,-0.1259762259,0.05841821404999999,0.048289,0.006902,-0.01276,-0.8866976796999999,-9.6239521105,1.662423308,-2.6516,1.3775,2.7278,-7.00000000000145e-05,9.999999999976694e-05,-5.999999999994898e-05,-0.00048127924754348683,0.00012795912702312506,0.00042236579757704007
150000000000.0,1,-0.0859258673,-0.1263292653,0.0456597624,0.043029,0.015472,-0.013849,-0.88686439275,-9.623167578499999,1.6669343669999999,-2.6527,1.377,2.729,-6.0000000000060005e-05,0.00019999999999997797,-4.999999999999449e-05,-0.0006831917853451497,0.00046988594512931137,0.0002673979065899168
150000000000.0,1,-0.0744913134,-0.10803986305,0.03331319005,0.038794,0.020834,-0.011728,-0.8870801390499999,-9.622481113,1.6709550935,-2.6535,1.3767,2.7301,-0.00013999999999991797,0.00019999999999997797,-9.99999999995449e-06,0.0010272029920261883,0.0005901589520129757,-0.00044609314301036207
150000000000.0,1,-0.06353728535,-0.0663125673,0.007472667299999999,0.037787,0.028302,-0.01174,-0.8874135651499999,-9.6217946475,1.6742893545,-2.6542,1.3763,2.7311,-4.0000000000040004e-05,0.00019999999999997797,-2.0000000000020002e-05,-0.0007739956244259272,0.0006815280837899618,0.0007935562962875231
150000000000.0,1,-0.057329675899999995,-0.033989848899999994,-0.010571568699999999,0.036771,0.036833,-0.008552,-0.88808041735,-9.6212062485,1.6774274825,-2.6547,1.376,2.7319,-0.00012999999999996348,9.999999999976694e-05,-0.000140000000000029,-0.0006576177609964873,-0.0003701492030370179,0.0006108921429546221
150000000000.0,1,-0.05384831515,-0.009914523149999998,-0.026791767799999998,0.039977,0.038936,-0.006413,-0.8890218557499999,-9.620617849499999,1.680467544,-2.655,1.3757,2.7327,-1.0000000000065512e-05,0.00010000000000021103,-9.99999999995449e-06,-0.0002056646822055086,0.0013574782008249908,0.0009801421133674992
150000000000.0,1,-0.044541804299999994,0.0023241760499999996,-0.037157396849999996,0.044283,0.043165,-0.007478,-0.8897965810999999,-9.619931384,1.6836056719999999,-2.6554,1.3754,2.7335,-9.999999999998899e-05,0.00010000000000021103,-0.000140000000000029,-0.000912851018897598,-0.0005867579925737942,0.0007880623334175496
150000000000.0,1,-0.0575061956,0.0226337482,-0.043894565399999995,0.0422,0.048514,-0.009623,-0.8907478261499999,-9.619342985,1.6867437999999997,-2.6557,1.375,2.7344,-0.00019000000000002348,0.00019999999999997797,-0.00014999999999998348,-0.0017146831344962976,-0.0005304108156007903,0.0009918004224056531
150000000000.0,1,-0.0663910205,0.018524761849999998,-0.0388539473,0.045455,0.052755,-0.013891,-0.8915813913999999,-9.6186565195,1.690078061,-2.6562,1.3747,2.7354,-2.0000000000020002e-05,0.00019999999999997797,-3.0000000000085514e-05,0.0004109734503867646,-1.0011014176969368e-05,0.0012267459316475104
150000000000.0,1,-0.08105196225,-0.014592295199999999,-0.02389880605,0.04337,0.057039,-0.0171,-0.89233650345,-9.6180681205,1.693412322,-2.6566,1.3743,2.7364,4.0000000000040004e-05,0.0002999999999997449,-8.999999999992347e-05,0.0003040576215909141,-0.00046508633567654556,0.0006395479006027216
150000000000.0,1,-0.07774712119999999,-0.04151154945,-0.021143137399999998,0.042338,0.060248,-0.019239,-0.892797416,-9.617479721499999,1.6964523835,-2.6572,1.374,2.7376,1.0000000000065512e-05,0.00010000000000021103,-9.999999999998899e-05,-0.00020802916276840833,0.000634187315195156,0.0019641028495205326
150000000000.0,1,-0.08186591419999999,-0.03192064575,-0.011836626549999998,0.040271,0.066663,-0.022453,-0.8931700687,-9.616891322499999,1.6995905114999998,-2.6577,1.3737,2.7389,-0.00019000000000002348,0.000300000000000189,-1.0000000000065512e-05,0.00032436381299061345,-0.0008156164414800937,-9.948920915681114e-05
150000000000.0,1,-0.0607816167,0.0035794272499999995,-0.02107449085,0.042424,0.069841,-0.021384,-0.8933073618,-9.6163029235,1.7027286394999999,-2.6584,1.3734,2.7403,-6.0000000000060005e-05,9.999999999976694e-05,1.0000000000065512e-05,0.0005601951957550089,0.001690367552586114,0.0001567149776269261
150000000000.0,1,-0.050818060299999995,0.0203193788,-0.02976318275,0.047743,0.068732,-0.020303,-0.89339562165,-9.6157145245,1.7061609669999998,-2.6592,1.3731,2.7418,-3.999999999992898e-05,0.00019999999999997797,-4.999999999999449e-05,0.00010862727546512296,0.0006636619211204398,0.0015690976243485366
150000000000.0,1,-0.04223724155,0.0207116448,-0.040609337649999994,0.05311,0.072951,-0.020299,-0.8934446549,-9.615028059,1.7097894274999998,-2.6601,1.3728,2.7435,-8.000000000008001e-05,0.000300000000000189,-4.999999999999449e-05,-0.000910204220367028,-0.0006325260217068251,0.001507748985164703
150000000000.0,1,-0.0450321368,0.00563882375,-0.0691368825,0.059543,0.077161,-0.020293,-0.89365059455,-9.614341593499999,1.713614021,-2.6609,1.3724,2.7451,-8.999999999992347e-05,9.999999999976694e-05,-0.0001300000000000745,-0.0007599604467345422,-0.0009447412393246424,0.0005585683139393005
150000000000.0,1,-0.03807922195,-0.0017357770499999998,-0.0729222494,0.064869,0.077117,-0.019214,-0.8937192411,-9.6135570615,1.7180270135,-2.6619,1.372,2.747,-1.0000000000065512e-05,0.00019999999999997797,-3.999999999992898e-05,0.0002958912450361506,0.0001508314715830128,0.0012667793674503436
150000000000.0,1,-0.03809883525,-0.00271644205,-0.0806695029,0.069138,0.077084,-0.020272,-0.89384672755,-9.612674463,1.722636139,-2.663,1.3716,2.7488,-0.00010999999999994348,0.00019999999999997797,-6.0000000000060005e-05,-0.0020610493386989948,-0.000708461771546709,0.00029215616136557543
150000000000.0,1,-0.04594415524999999,-0.014298095700000001,-0.07175525804999999,0.0766,0.075959,-0.021323,-0.8939349874,-9.611693798,1.7279317299999999,-2.6642,1.3711,2.7509,-1.0000000000065512e-05,0.00019999999999997797,-4.0000000000040004e-05,-0.00037103434827789883,-0.00015970245086660562,0.0007326043734212639
150000000000.0,1,-0.05022966129999999,-0.035588332849999994,-0.06020302435,0.083,0.074844,-0.023442,-0.8938369209,-9.6106150665,1.734011853,-2.6657,1.3705,2.7532,0.00012000000000000899,0.00010000000000021103,-0.00013999999999991797,0.0011683843363508029,0.0002995380615100629,0.0006945040215691201
150000000000.0,1,-0.05673147025,-0.05255383735,-0.0725299834,0.08409,0.078033,-0.023443,-0.8939153740999999,-9.609536335,1.7400919759999998,-2.667,1.37,2.7554,-4.999999999999449e-05,0.00019999999999997797,-9.00000000000345e-05,-0.001430999870784877,-0.0009131180533787919,4.225437867599879e-06
150000000000.0,1,-0.05873202685,-0.06015399109999999,-0.07778634779999999,0.089403,0.07586,-0.023428,-0.8938565342,-9.608359537,1.746564365,-2.6686,1.3694,2.7578,7.00000000000145e-05,0.000300000000000189,-5.999999999994898e-05,-0.00044358426205226564,6.161206343691106e-05,0.001250903773063694
150000000000.0,1,-0.057427742399999995,-0.06119349599999999,-0.0772175621,0.091522,0.073713,-0.024485,-0.89367020785,-9.607182738999999,1.7531348205,-2.6702,1.3688,2.7602,2.999999999997449e-05,0.00019999999999997797,-7.00000000000145e-05,-0.0013527804121316045,-7.636097308072465e-05,0.0005091215023278473
150000000000.0,1,-0.05569196535,-0.03405849545,-0.0818266876,0.08834,0.075873,-0.025559,-0.8934642681999999,-9.606005941,1.7596072095,-2.6717,1.3682,2.7626,2.0000000000020002e-05,0.0002999999999997449,-1.0000000000065512e-05,-0.0013616300245720137,0.000715537633878105,0.0006784107614006274
150000000000.0,1,-0.050945546749999994,-0.0112580342,-0.08738705815,0.08723,0.07162,-0.024484,-0.8932681351999999,-9.6049272095,1.7658834655,-2.6733,1.3676,2.765,-4.0000000000040004e-05,0.00010000000000021103,-8.999999999992347e-05,-0.0014937286209499856,-0.0006196349312095339,0.001178605616592332
150000000000.0,1,-0.04319829325,-0.026526988249999998,-0.082179727,0.082976,0.073787,-0.024493,-0.8929347091,-9.603848478,1.7717674554999998,-2.6748,1.3671,2.7673,-3.999999999992898e-05,0.00019999999999997797,-1.0000000000065512e-05,-0.0011438093375841785,0.00034117277961831505,-0.00024138121148054026
150000000000.0,1,-0.05458381389999999,-0.04777799879999999,-0.07915927879999998,0.081914,0.074863,-0.024494,-0.89276799605,-9.6027697465,1.777553379,-2.6761,1.3665,2.7695,2.999999999997449e-05,0.00019999999999997797,-4.999999999999449e-05,-0.001076954473777647,-0.00014342960043944863,0.0006159528617017962
150000000000.0,1,-0.05746696899999999,-0.0637628383,-0.08189533415,0.079751,0.071685,-0.02449,-0.8925816697,-9.6017890815,1.7831431694999997,-2.6775,1.366,2.7716,9.99999999995449e-06,0.00019999999999997797,-9.00000000000345e-05,-0.0013453540438157496,0.00021114187904003323,0.0008509540547501082
150000000000.0,1,-0.0519164051,-0.06940166205,-0.08638677985,0.080814,0.071677,-0.024485,-0.8922972768499999,-9.6008084165,1.7886348934999998,-2.6789,1.3655,2.7738,-2.999999999997449e-05,9.999999999976694e-05,-6.999999999990347e-05,-0.0003790412254496278,4.5426868345410654e-05,0.0013470870614327168
150000000000.0,1,-0.0413448364,-0.075118939,-0.10454869565,0.078631,0.067432,-0.022345,-0.89194423745,-9.5998277515,1.7938324179999998,-2.6802,1.3651,2.7758,4.999999999999449e-05,0.00019999999999997797,-4.0000000000040004e-05,-0.001212396104321778,0.0002234669441409931,0.0007361462355564008
150000000000.0,1,-0.03490186735,-0.0712551189,-0.11292357474999999,0.079665,0.065291,-0.020203,-0.89165003795,-9.598945152999999,1.7989318759999997,-2.6814,1.3646,2.7778,0.0002300000000000635,0.00010000000000021103,-7.00000000000145e-05,0.001081828830106435,0.00020652533484510904,0.0017084189798128868
150000000000.0,1,-0.031577413,-0.06657734685,-0.10556858725,0.072159,0.06322,-0.017009,-0.89153235815,-9.598062554499998,1.8035410014999997,-2.6825,1.3642,2.7796,3.999999999992898e-05,9.999999999976694e-05,-7.00000000000145e-05,-0.0010200668407731595,-0.00030516465886476496,0.0008491025608594605
150000000000.0,1,-0.029723956149999998,-0.055103566349999994,-0.0981841798,0.066798,0.061133,-0.015946,-0.8914440982999999,-9.5972780225,1.807757861,-2.6835,1.3638,2.7813,7.00000000000145e-05,0.00020000000000042206,-9.99999999995449e-06,-0.001197020233200785,-0.000650831586188394,0.0005311607702345178
150000000000.0,1,-0.0308321076,-0.0439926319,-0.09032905315,0.058226,0.05907,-0.012753,-0.8916892645499999,-9.596591557,1.8114843879999998,-2.6842,1.3634,2.7826,9.00000000000345e-05,9.999999999976694e-05,-4.999999999999449e-05,-8.084481254511111e-05,-0.0004774242474545609,0.0006554061373513775
150000000000.0,1,-0.02548748335,-0.0270467407,-0.09064286594999998,0.049661,0.055945,-0.012761,-0.89194423745,-9.596003157999998,1.8143283165,-2.6847,1.3632,2.7838,0.000140000000000029,0.00019999999999997797,-7.00000000000145e-05,-0.0009759598995446872,0.00020916411258986578,0.0013407503646130081
150000000000.0,1,-0.020466478549999997,-0.027154613850000002,-0.09289839545,0.040031,0.054956,-0.009573,-0.8923168901499999,-9.595610892,1.8162896465,-2.6849,1.363,2.7846,9.999999999998899e-05,0.00019999999999997797,-2.0000000000020002e-05,0.00010122081674945882,-0.0006108837702967218,0.0008175496703541896
150000000000.0,1,-0.01770100325,-0.028762904449999998,-0.09147643119999999,0.031459,0.052893,-0.006381,-0.89284644925,-9.595316692499999,1.817368378,-2.6849,1.3628,2.7852,4.999999999999449e-05,0.00010000000000021103,-0.00012000000000000899,-0.0003176699217795065,-0.0013212710857197774,0.00041647706339098534
150000000000.0,1,-0.02203554255,-0.034323275,-0.08931896819999999,0.025026,0.050814,-0.004252,-0.8936015612999999,-9.5951205595,1.8179567769999998,-2.6847,1.3627,2.7855,-1.0000000000065512e-05,0.00019999999999997797,-0.00012999999999996348,0.00016102152576169537,-0.0007127787169896038,0.0008692184664851332
150000000000.0,1,-0.02017227905,-0.029017877349999995,-0.08762241775,0.018554,0.044471,-0.001049,-0.894562613,-9.595022492999998,1.8178587105,-2.6843,1.3627,2.7855,0.00012000000000000899,0.00019999999999997797,-2.0000000000020002e-05,-0.0005949457864462548,0.0004571246722615552,0.0002266621032886995
150000000000.0,1,-0.00031381279999999996,-0.0288511643,-0.09060363935,0.012116,0.04239,0.002146,-0.8955726979499999,-9.5951205595,1.8172703115,-2.6837,1.3627,2.7854,2.0000000000020002e-05,9.999999999976694e-05,-4.999999999999449e-05,0.0011405674857640768,-0.0001429006427249302,-0.0001981163577498002
150000000000.0,1,-0.0050308114499999996,-0.052848036849999995,-0.1028325319,0.012056,0.038125,0.006423,-0.8968377558,-9.595218626,1.81619158,-2.6829,1.3628,2.785,2.999999999997449e-05,0.00010000000000021103,-2.999999999997449e-05,-0.0003751334077992663,-0.00013228074622362307,-0.0003268141147709791
150000000000.0,1,-0.014337322299999998,-0.06349805874999999,-0.10077313539999999,0.005591,0.032848,0.009624,-0.8984460464,-9.595316692499999,1.8147205825,-2.6819,1.3628,2.7843,3.0000000000085514e-05,0.00019999999999997797,-6.0000000000060005e-05,-0.00021541095395538612,0.0003125750927828186,-4.173340114377311e-05
150000000000.0,1,-0.0092574776,-0.07361852155,-0.0951441183,0.001266,0.027554,0.011761,-0.9000935636,-9.595512825499998,1.812857319,-2.6807,1.3629,2.7835,5.999999999994898e-05,9.999999999976694e-05,-9.99999999995449e-06,0.000561203182725567,0.000586785049404126,-0.0004340679575545181
150000000000.0,1,-0.0038049802,-0.07878662609999999,-0.07970845119999999,-0.005203,0.022276,0.016029,-0.9019568270999999,-9.5957089585,1.8106998559999998,-2.6794,1.363,2.7824,-9.99999999995449e-06,0.00019999999999997797,-1.0000000000065512e-05,-0.0014123532125722704,0.0005471585000509371,-0.00021339582911128474
150000000000.0,1,0.00016671305,-0.08927974159999999,-0.054426907499999996,-0.013793,0.019145,0.021357,-0.9041240967499999,-9.596003157999998,1.8081501269999998,-2.6779,1.3632,2.7811,4.999999999999449e-05,0.00010000000000021103,-2.999999999997449e-05,0.00029864788507327766,0.0007659134904627329,0.0006200225838197682
150000000000.0,1,0.0052563644,-0.0761780572,-0.0637628383,-0.019164,0.017055,0.024553,-0.9065267259999998,-9.596395423999999,1.8049139324999999,-2.6761,1.3633,2.7794,3.999999999992898e-05,9.999999999976694e-05,-2.999999999997449e-05,0.00023217913455564343,0.00041132260175347213,4.110466099493948e-05
150000000000.0,1,0.01326839745,-0.05941849235,-0.06832293055,-0.024553,0.013898,0.029886,-0.9092922012999999,-9.596885756499999,1.8010893389999998,-2.6741,1.3636,2.7775,3.500000000000725e-05,0.00010000000000021103,-2.999999999997449e-05,0.0002882490550555339,0.00042027373875153096,-0.00013074752747810336
150000000000.0,1,0.02266316815,-0.0391089202,-0.0708236263,-0.03207,0.009695,0.032014,-0.9121067098499999,-9.597376088999999,1.7967744129999998,-2.6718,1.3638,2.7753,3.500000000000725e-05,0.00010000000000021103,5.999999999994898e-05,0.0009659561153561036,0.00033556269952361717,0.00037878008630132243
150000000000.0,1,0.0246146915,-0.024830437799999997,-0.0554860257,-0.034256,0.005448,0.035219,-0.9151075447499999,-9.597964488,1.792459487,-2.6696,1.3641,2.7731,2.0000000000020002e-05,9.999999999976694e-05,-2.999999999997449e-05,0.00016241656421556172,0.0013433608493462756,-0.0006528338767779474
150000000000.0,1,0.037912508899999996,-0.043884758749999996,-0.04557150255,-0.036426,0.001204,0.035221,-0.91793185995,-9.598454820499999,1.788144561,-2.6673,1.3644,2.7708,4.0000000000040004e-05,5.000000000032756e-05,-4.999999999999449e-05,-0.0002492631098927056,0.0005888823102653262,0.00011677107992058566
150000000000.0,1,0.03398004225,-0.05886931994999999,-0.04588531535,-0.038638,-0.00624,0.038431,-0.92087385495,-9.599043219499999,1.7834373689999998,-2.665,1.3647,2.7683,-1.0000000000065512e-05,4.999999999988347e-05,-2.0000000000020002e-05,-5.235831317396133e-07,0.0006267494841267762,-0.00038084549370864806
150000000000.0,1,0.0314989598,-0.08285638584999999,-0.034823414149999996,-0.037624,-0.012642,0.038442,-0.92378643,-9.5996316185,1.7790243764999998,-2.6626,1.3649,2.7659,4.999999999999449e-05,4.999999999988347e-05,-2.0000000000020002e-05,0.00066334714234495,0.0004281538642794125,-3.96104233657546e-05
150000000000.0,1,0.03692203725,-0.0911430051,-0.02484024445,-0.040854,-0.014749,0.040573,-0.9266695850999999,-9.600121951,1.7745133174999999,-2.6603,1.3652,2.7634,3.0000000000085514e-05,4.999999999988347e-05,6.0000000000060005e-05,0.0006503162185980127,0.0005636915148992117,-0.00018255348251239312
150000000000.0,1,0.048248717999999996,-0.08532766165,-0.02862561135,-0.041971,-0.020069,0.041646,-0.92946448035,-9.60071035,1.7700022585,-2.658,1.3655,2.7608,9.99999999995449e-06,0.00010000000000021103,2.0000000000020002e-05,0.001368942335347345,0.00031779042295521087,-0.0003712941575337858
150000000000.0,1,0.043874952099999996,-0.0645865969,-0.0294591766,-0.040949,-0.025405,0.041655,-0.9322691822499999,-9.601298749,1.7655892659999999,-2.6558,1.3658,2.7582,-2.0000000000020002e-05,-8.333333333165882e-06,-0.00010000000000010001,-0.0005721564474816532,-0.0004870691815566097,-0.0002161492186827374
150000000000.0,1,0.05000410835,-0.0330484105,-0.02640930845,-0.043138,-0.032845,0.040595,-0.9348091046,-9.6017890815,1.7611762734999998,-2.6536,1.3661,2.7557,2.999999999997449e-05,-8.333333333609971e-06,2.0000000000020002e-05,0.0003346640322210437,0.0008705769458972057,-7.130244944786313e-05
150000000000.0,1,0.05141626595,0.00410898635,-0.02221206225,-0.041022,-0.034994,0.0406,-0.9372705737499999,-9.602279414,1.757155547,-2.6516,1.3663,2.7533,4.0000000000040004e-05,-8.333333333165882e-06,3.3333333333551707e-06,0.0005681060893591994,3.2816027944360115e-05,-0.0002977855226196091
150000000000.0,1,0.05330894939999999,-0.014494228699999999,-0.035029353799999996,-0.038939,-0.042468,0.03848,-0.9393103569499999,-9.602867813,1.7530367539999998,-2.6497,1.3666,2.7509,2.999999999997449e-05,-8.333333333609971e-06,3.3333333333551707e-06,0.0007405621183975697,0.0008243269174632584,-0.0003257462693122548
150000000000.0,1,0.05035714775,-0.0643904639,-0.0332053169,-0.037889,-0.045671,0.03635,-0.9411442004999999,-9.6033581455,1.7491140939999998,-2.648,1.3668,2.7487,2.0000000000020002e-05,-8.333333333165882e-06,3.3333333333551707e-06,0.00032782901147410115,0.0002622989584271096,-0.0008030391267443981
150000000000.0,1,0.04800355175,-0.0880833303,-0.03262672455,-0.035784,-0.051013,0.033159,-0.9425367447999999,-9.6039465445,1.7453875669999999,-2.6464,1.3671,2.7466,-4.0000000000040004e-05,-8.333333333609971e-06,-4.999999999999449e-05,-0.0001743642199052431,-0.0006965182383960045,-0.0010884473535912598
150000000000.0,1,0.04310022674999999,-0.0812971285,-0.013866603099999998,-0.03579,-0.054206,0.028892,-0.9436252829499999,-9.604436877,1.7420533059999999,-2.6452,1.3674,2.7447,8.000000000008001e-05,-8.333333333165882e-06,8.999999999992347e-05,0.0005926362703938537,0.0007938758631074183,-0.0006098056297849652
150000000000.0,1,0.03605905205,-0.08391550404999999,0.0029223816999999997,-0.039004,-0.058437,0.024623,-0.9443607816999999,-9.6049272095,1.738719045,-2.644,1.3676,2.743,-1.0000000000065512e-05,-8.333333333165882e-06,2.999999999997449e-05,0.00032571633769018504,0.00033635332292725195,-0.0006553546865792903
150000000000.0,1,0.02697809415,-0.09228057649999999,0.02176095635,-0.046462,-0.060502,0.019275,-0.9447138211,-9.605613674999999,1.7350905845,-2.643,1.3679,2.7413,3.0000000000085514e-05,-8.333333333609971e-06,3.0000000000085514e-05,0.0005886953888301072,-0.00020674889809368935,-0.0004968071632824866
150000000000.0,1,0.024722564649999997,-0.0733145154,0.040373978049999995,-0.052818,-0.058313,0.013922,-0.9446942077999999,-9.6063001405,1.7311679244999998,-2.6421,1.3683,2.7397,-5.0000000000105516e-05,-8.333333333165882e-06,9.99999999995449e-06,0.0002621683144647946,-0.00042701610164819215,-0.0006542182422117904
150000000000.0,1,0.01513166095,-0.054652460449999996,0.0452282698,-0.050681,-0.059394,0.011791,-0.9445373013999999,-9.606986606,1.7273433309999997,-2.6412,1.3687,2.7382,2.0000000000020002e-05,-8.333333333609971e-06,9.00000000000345e-05,0.00027473638472641504,0.00016837558202054126,-0.0004927445069533576
150000000000.0,1,0.0303417751,-0.0537992819,0.015553346899999999,-0.05174,-0.060448,0.008588,-0.9437331561,-9.6078692045,1.7231264714999999,-2.6405,1.3691,2.7369,2.0000000000020002e-05,-8.333333333165882e-06,4.0000000000040004e-05,0.0006206412876814671,-3.461436655238792e-05,-0.0005142909692068542
150000000000.0,1,0.038255741649999994,-0.030204481999999998,-0.0140038962,-0.043225,-0.064777,0.005406,-0.9425171314999999,-9.608653736499999,1.7190076785,-2.6401,1.3695,2.7358,-9.99999999995449e-06,-3.333333333310762e-05,6.999999999990347e-05,-0.00020441569305584828,7.798713654061373e-05,-0.0008879708891420535
150000000000.0,1,0.03935408645,-0.0185149552,-0.030047575599999998,-0.033642,-0.069115,0.002226,-0.94091864755,-9.6094382685,1.715575351,-2.6399,1.3699,2.7349,2.999999999997449e-05,-3.333333333355171e-05,4.0000000000040004e-05,0.0005883306858944781,-0.0002324992937250414,-0.0009011454762437587
150000000000.0,1,0.0319304524,-0.0182992089,-0.029949509099999997,-0.028285,-0.068091,-0.00097,-0.9391828704999999,-9.610124734,1.7127314224999999,-2.64,1.3703,2.7343,2.999999999997449e-05,-3.333333333310762e-05,4.999999999999449e-05,0.0010268034828924133,0.00031261468302501427,-4.702858543925714e-05
150000000000.0,1,0.0232417605,-0.0374417897,-0.01972117315,-0.025087,-0.070245,-0.004164,-0.9372215405,-9.610713132999999,1.710475893,-2.6403,1.3706,2.7339,-2.0000000000020002e-05,-0.00010000000000021103,6.0000000000060005e-05,2.8634746706224234e-05,-0.00020133714139913828,-0.0009507601601170812
150000000000.0,1,0.012346572349999998,-0.028772711099999997,-0.0070705946499999995,-0.028269,-0.069151,-0.006307,-0.935162144,-9.611301531999999,1.7083184299999998,-2.6407,1.3709,2.7336,3.0000000000085514e-05,-9.999999999976694e-05,2.999999999997449e-05,0.00039426527007990764,-0.00017266410823824074,-0.00017615038223883772
150000000000.0,1,0.0039128533499999995,-0.011101127799999999,0.016475172,-0.033547,-0.06484,-0.010594,-0.933004681,-9.611987997499998,1.705964834,-2.6411,1.3712,2.7333,9.99999999995449e-06,-5.000000000032756e-05,5.999999999994898e-05,0.00020714620763984115,-0.0002623338765179728,-0.0011304935896991886
150000000000.0,1,0.01075789505,0.03576485255,0.03207755215,-0.03672,-0.061618,-0.010605,-0.9307295382,-9.6125763965,1.7037093044999998,-2.6416,1.3715,2.7332,-9.99999999995449e-06,-4.999999999988347e-05,4.999999999999449e-05,0.00019593632316228238,8.729851074251727e-05,-0.0006327262366796482
150000000000.0,1,0.0119248864,0.08016936375,0.024928504299999998,-0.040931,-0.057316,-0.01489,-0.9283072956499999,-9.613262862,1.7009634424999998,-2.642,1.3719,2.733,2.999999999997449e-05,-0.00010000000000021103,3.0000000000085514e-05,0.00022399773964809633,-8.169173265426544e-05,-0.0004243763049647242
150000000000.0,1,0.0117875933,0.09244728954999999,0.011993532949999998,-0.039837,-0.054129,-0.014894,-0.9259242797,-9.614047394,1.6980214475,-2.6424,1.3723,2.7328,-2.999999999997449e-05,-9.999999999976694e-05,-4.0000000000040004e-05,-0.00010789758427787177,-0.0007389731735767402,-0.0001674337681705218
150000000000.0,1,0.013964669599999998,0.09127049154999999,0.0012454445499999998,-0.03877,-0.054137,-0.014892,-0.9234628105499999,-9.614831925999999,1.6950794525,-2.6427,1.3727,2.7326,2.999999999997449e-05,-3.333333333355171e-05,2.999999999997449e-05,3.266650533739757e-05,0.0004426665168737465,-0.0008162198088661476
150000000000.0,1,0.00548191735,0.0578788483,-0.00114737805,-0.034451,-0.047779,-0.014896,-0.9211190211999999,-9.6155183915,1.6922355239999998,-2.6431,1.373,2.7325,3.999999999992898e-05,-3.333333333310762e-05,2.0000000000020002e-05,-0.0012151858963695972,-0.0005701019268187224,0.0005330682362840733
150000000000.0,1,-0.00061781895,-0.00118660465,-0.00467777205,-0.02805,-0.047832,-0.014885,-0.9189125249499999,-9.616204857,1.6897838614999998,-2.6435,1.3734,2.7324,-4.999999999999449e-05,-3.333333333355171e-05,2.0000000000020002e-05,-0.00033499467803288496,0.0004536711825671169,-0.0007806579337783504
150000000000.0,1,-0.0114737805,-0.06081103665,0.0117091401,-0.023773,-0.044674,-0.011681,-0.9170296481499999,-9.6166951895,1.6877244649999998,-2.6439,1.3737,2.7323,4.0000000000040004e-05,-9.999999999976694e-05,3.999999999992898e-05,1.221997680111997e-05,6.861110399603021e-06,-4.7922323262561406e-05
150000000000.0,1,-0.033872169099999995,-0.11208020284999999,0.019848659600000002,-0.024818,-0.042533,-0.012753,-0.9154311641999999,-9.617185522,1.685763135,-2.6441,1.3739,2.7321,-2.0000000000020002e-05,-0.00010000000000021103,2.0000000000020002e-05,7.985344462624333e-05,1.1609463346440307e-05,-0.00021356522442106396
150000000000.0,1,-0.0354804597,-0.1346256912,0.03990325885,-0.029044,-0.036106,-0.010635,-0.91412687975,-9.6176758545,1.6836056719999999,-2.6442,1.3742,2.7318,2.999999999997449e-05,-0.00010000000000021103,-2.0000000000020002e-05,0.0006950203850977221,1.9362200295081067e-05,-0.0006502174990203891
150000000000.0,1,-0.032558078,-0.13035979844999998,0.04588531535,-0.03222,-0.03182,-0.008513,-0.912999115,-9.6182642535,1.681252076,-2.6441,1.3745,2.7314,1.0000000000065512e-05,-9.999999999976694e-05,7.00000000000145e-05,0.00042675121944668604,-0.000340429762452521,-0.000159315315372055
150000000000.0,1,-0.031400893299999996,-0.09993957015,0.047209213099999994,-0.034301,-0.023281,-0.005328,-0.91236168275,-9.618754586,1.678702347,-2.6438,1.3747,2.7308,2.0000000000020002e-05,-9.999999999976694e-05,4.999999999999449e-05,0.0007024694916724084,0.00019801950508591126,0.00021870876587337662
150000000000.0,1,-0.0220257359,-0.04557150255,0.05031792115,-0.036406,-0.017939,-0.002138,-0.91200864335,-9.6192449185,1.6760545515,-2.6433,1.375,2.7301,9.99999999995449e-06,-0.00010000000000021103,6.0000000000060005e-05,0.0010981035742878564,-0.00048260514506437424,-0.0003690785749923542
150000000000.0,1,-0.017249897349999998,-0.0290080707,0.0375006296,-0.038541,-0.016858,-9e-06,-0.9118419302999999,-9.619735251,1.67301449,-2.6426,1.3753,2.7292,-4.0000000000040004e-05,-0.00019999999999997797,2.0000000000020002e-05,0.00014932080816953963,-0.00024537164216420493,-0.000363633731335522
150000000000.0,1,-0.021947282699999997,-0.023702673049999998,0.051347619399999996,-0.040596,-0.007251,-2.8e-05,-0.91194980345,-9.62032365,1.6698763619999997,-2.6418,1.3755,2.7282,-5.000000000032756e-06,-9.999999999976694e-05,7.999999999996898e-05,0.00026961811774461886,0.00017677650216052498,-0.0002009151803932241
150000000000.0,1,-0.025693422999999996,-0.00828661925,0.05245577084999999,-0.036298,-0.003025,0.00104,-0.9122341962999999,-9.620715916,1.6671305,-2.6409,1.3758,2.7273,-4.999999999921734e-06,-0.00010000000000021103,2.999999999997449e-05,-0.0005213111856414709,-0.00014272763342471073,-0.00027230629735219836
150000000000.0,1,-0.02580129615,0.0038834333999999996,0.046777720499999995,-0.029878,-0.000947,0.001049,-0.9127245288,-9.621108181999999,1.6649730369999998,-2.6401,1.376,2.7265,9.99999999995449e-06,-0.00019999999999997797,4.0000000000040004e-05,0.0017309997688419454,0.0005001471383654366,0.0004459097016114022
150000000000.0,1,-0.015023787799999999,0.0349901272,0.030792880999999998,-0.023453,0.001133,-1e-05,-0.91302853495,-9.6214023815,1.6631097734999998,-2.6395,1.3761,2.7259,-1.999999999990898e-05,-0.00019999999999997797,7.00000000000145e-05,0.0006930591891087801,0.0004831592664467088,-0.0004711700899786564
150000000000.0,1,-0.006952914849999999,0.07971825785,0.00987529655,-0.009574,0.002084,1.3e-05,-0.9133227344499999,-9.621500447999999,1.662227175,-2.6392,1.3762,2.7256,-3.0000000000085514e-05,-9.999999999976694e-05,9.99999999995449e-06,0.0006074671859361835,7.909034910058566e-05,-0.0005863169569324533
150000000000.0,1,-0.0011964113,0.10692190495,-0.00204958985,0.001106,0.001998,-0.002103,-0.913391381,-9.621500447999999,1.662227175,-2.6391,1.3762,2.7256,4.999999999999449e-05,-0.00019999999999997797,-2.4999999999941735e-05,-0.0005895065467040883,-0.0002755914281162841,7.806584222436186e-05
150000000000.0,1,-0.00352058735,0.11314912769999999,0.00328522775,0.010736,0.004052,-0.004224,-0.9133129278000001,-9.621304315,1.6635020395,-2.6395,1.3761,2.726,-5.999999999994898e-05,-0.00020000000000042206,-2.5000000000052758e-05,0.0005688854604910532,-8.190722326095745e-05,2.198442177192561e-06
150000000000.0,1,-0.01517088755,0.10101830164999999,0.0059232166000000004,0.017163,0.005068,-0.007416,-0.9131756347,-9.621010115499999,1.665365303,-2.64,1.3759,2.7265,7.00000000000145e-05,-9.999999999976694e-05,-2.999999999997449e-05,0.0003980761621176221,-0.0001963345686197826,0.00042053590785995354
150000000000.0,1,-0.037461403,0.06394916465,0.011993532949999998,0.024657,0.006076,-0.010605,-0.9130383416,-9.620519782999999,1.6678169655,-2.6407,1.3757,2.7273,2.0000000000020002e-05,-0.00010000000000021103,-9.99999999995449e-06,-0.0013169120561611347,-2.328020457520452e-06,-0.0006918760885361586
150000000000.0,1,-0.05415232129999999,0.0029419949999999998,0.0373044966,0.030028,0.007103,-0.015932,-0.9126558822499999,-9.620029450499999,1.6712492929999998,-2.6418,1.3754,2.7284,0.00012000000000000899,-0.00019999999999997797,-1.0000000000065512e-05,-0.0003331489923330544,0.00024432678626507,0.00028717716619519607
150000000000.0,1,-0.07271630975,-0.0325188514,0.044522190999999996,0.033291,0.011344,-0.021267,-0.91204786995,-9.619441051499999,1.67497582,-2.643,1.3751,2.7298,9.99999999995449e-06,-0.00019999999999997797,-2.4999999999941735e-05,0.00041321383723413874,-0.00042873646654340014,-0.0011442616747112666
150000000000.0,1,-0.06793066454999999,-0.0284981249,0.03392120235,0.040771,0.011285,-0.023386,-0.9109985584,-9.618754586,1.679094613,-2.6445,1.3747,2.7315,9.99999999995449e-06,-9.999999999976694e-05,-2.5000000000052758e-05,-0.001215142227267263,-3.1380363928024124e-05,0.00028152089601185537
150000000000.0,1,-0.05730025595,-0.00652142225,0.01564160675,0.042938,0.013403,-0.026586,-0.9096550473499999,-9.618166187,1.6833114724999998,-2.6462,1.3744,2.7333,0.00012000000000000899,-0.00010000000000021103,4.999999999999449e-05,-0.00232391691752043,-0.0005742222717339818,0.0008000256714817411
150000000000.0,1,-0.04830755789999999,0.026811381099999997,0.01466094175,0.043004,0.020863,-0.027664,-0.9081840498499999,-9.617577788,1.6877244649999998,-2.6479,1.3741,2.7353,6.0000000000060005e-05,-0.00019999999999997797,-9.99999999995449e-06,-0.0003391153309972861,0.0003792847654358056,0.0004046355269395896
150000000000.0,1,-0.0348724474,0.02888058425,0.0145530686,0.042992,0.021924,-0.023395,-0.9067915055499999,-9.616891322499999,1.6920393909999998,-2.6496,1.3738,2.7373,9.999999999998899e-05,-9.999999999976694e-05,9.99999999995449e-06,-9.661890148415786e-05,-0.00012387556521908927,-0.0001761993821767227
150000000000.0,1,-0.0286942579,0.0126898051,0.01717144415,0.04301,0.024055,-0.023397,-0.9054872210999999,-9.6163029235,1.696354317,-2.6513,1.3734,2.7392,7.999999999996898e-05,-0.00019999999999997797,9.00000000000345e-05,-0.000264546001034649,0.00024316071187602262,2.0818452898918594e-05
150000000000.0,1,-0.0334014499,-0.006276256,0.01519050085,0.039856,0.030474,-0.022345,-0.9043790696499999,-9.6157145245,1.7000808439999997,-2.6527,1.3731,2.741,7.999999999996898e-05,-0.00010000000000021103,-6.0000000000060005e-05,0.00020756469045535297,-0.000901320117131954,0.0004284031616887951
150000000000.0,1,-0.039177566750000004,-0.04019745835,0.019005287699999998,0.038801,0.032613,-0.021282,-0.9033885979999999,-9.6151261255,1.703807371,-2.6541,1.3729,2.7427,8.000000000008001e-05,-0.00019999999999997797,1.0000000000065512e-05,0.00104184591896761,-0.00016731640135003722,0.0011839043949528616
150000000000.0,1,-0.0456401491,-0.06630276064999999,0.029890669199999997,0.034537,0.033713,-0.020222,-0.9026138726499999,-9.614635793,1.7071416320000001,-2.6552,1.3726,2.7442,2.0000000000020002e-05,-9.999999999976694e-05,-4.0000000000040004e-05,-0.00015134088353763175,-0.000890327512696576,6.977826802367915e-05
150000000000.0,1,-0.03788308895,-0.056770696849999996,0.0316558662,0.030288,0.035879,-0.020232,-0.90184895395,-9.6141454605,1.71027976,-2.6563,1.3723,2.7457,2.0000000000020002e-05,-0.00020000000000042206,2.0000000000020002e-05,-0.00010463802350080265,0.00011023176667590562,0.0004934376704919252
150000000000.0,1,-0.0340290755,-0.04073682409999999,0.03476457425,0.024978,0.040183,-0.018112,-0.90120171505,-9.6137531945,1.713025622,-2.6573,1.3721,2.7471,1.999999999990898e-05,-0.00019999999999997797,-6.0000000000060005e-05,0.0018148774144848279,-9.515335322585194e-05,0.000717379526610884
150000000000.0,1,-0.0274193934,-0.0328130509,0.0285569648,0.018567,0.040234,-0.015987,-0.9006329293499999,-9.613458994999998,1.714986952,-2.658,1.372,2.7482,-9.99999999995449e-06,-0.00019999999999997797,-4.999999999999449e-05,0.0003478055952133019,9.30019682949812e-05,0.000712329440401227
150000000000.0,1,-0.04051127115,-0.026330855249999997,0.03676513085,0.013251,0.042409,-0.015999,-0.9004073763999999,-9.6131647955,1.716556016,-2.6585,1.3718,2.7492,-2.0000000000020002e-05,-0.00019999999999997797,-2.0000000000020002e-05,0.000851394178380982,0.000138817908112987,0.00010267194031898796
150000000000.0,1,-0.0435219127,-0.01197391965,0.03315628365,0.00793,0.044583,-0.014943,-0.9003877631,-9.612968662499998,1.7174386145,-2.6587,1.3717,2.7499,-4.999999999999449e-05,-9.999999999976694e-05,2.0000000000020002e-05,-0.0014613193405121905,-0.00014811386268154259,0.0010441755348580273
150000000000.0,1,-0.03733391655,-0.0091986377,0.02495792425,0.002581,0.044624,-0.011748,-0.90059370275,-9.612968662499998,1.717732814,-2.6587,1.3717,2.7503,-7.999999999996898e-05,-0.00010000000000021103,-4.999999999999449e-05,-0.0018378251133173151,-8.877536443430145e-05,-0.0006290125533929825
150000000000.0,1,-0.033970235599999996,0.00514849125,0.029723956149999998,-0.00383,0.044675,-0.009623,-0.9009663554499999,-9.612968662499998,1.7176347475,-2.6585,1.3717,2.7506,9.99999999995449e-06,-0.00019999999999997797,-4.999999999999449e-05,0.0003759397056548597,-0.00010260805235096093,0.0009913630621003477
150000000000.0,1,-0.02297698095,0.028390251749999998,0.027703786249999997,-0.005988,0.041496,-0.00962,-0.9011919084,-9.612968662499998,1.7172424814999998,-2.6583,1.3717,2.7508,-9.999999999998899e-05,-0.00010000000000021103,-9.99999999995449e-06,-0.0018368241163984056,0.0002386727755065987,9.776102917147256e-05
150000000000.0,1,-0.0099047165,0.05533892594999999,0.04551266265,-0.007049,0.042569,-0.008556,-0.9013880414,-9.612968662499998,1.7170463484999998,-2.6582,1.3717,2.7511,-4.999999999999449e-05,-9.999999999976694e-05,-2.999999999997449e-05,7.18854826997628e-05,0.0004442893605367537,0.0006238654123418286
150000000000.0,1,-0.012915358049999999,0.05522124614999999,0.033146477,-0.006011,0.039363,-0.00748,-0.90167243425,-9.613066729,1.7167521489999997,-2.658,1.3718,2.7513,-3.500000000000725e-05,-9.999999999976694e-05,-2.0000000000020002e-05,-0.0002849055731872774,-0.0008576700567191065,0.0003547488359587625
150000000000.0,1,-0.0094732239,0.0456793757,0.02474217795,-0.004966,0.037222,-0.006406,-0.9018195339999999,-9.613066729,1.7164579494999999,-2.6578,1.3718,2.7515,-3.500000000000725e-05,-0.00010000000000021103,2.0000000000020002e-05,0.0015337263944148471,4.0409302634714095e-05,0.00020562050611783178
150000000000.0,1,-0.0159456129,0.039609059349999996,0.00781590005,-0.00288,0.029748,-0.008523,-0.90192740715,-9.6131647955,1.7159676169999998,-2.6577,1.3718,2.7517,-9.00000000000345e-05,-0.00019999999999997797,-3.0000000000085514e-05,-0.00015414473784414184,0.0005061787066609202,0.00027015070405855823
150000000000.0,1,-0.030596747999999997,0.025732649599999997,0.0137489233,-0.005039,0.026569,-0.00852,-0.90224121995,-9.6131647955,1.715575351,-2.6574,1.3718,2.7518,-7.00000000000145e-05,-0.00019999999999997797,-2.999999999997449e-05,0.0005210941327300489,6.500872421733028e-05,0.0007531051026576918
150000000000.0,1,-0.030145642099999998,0.00510926465,0.0493666761,-0.009316,0.024474,-0.00959,-0.9022510266,-9.6131647955,1.7154772845,-2.6574,1.3718,2.752,-0.00013999999999991797,-9.999999999976694e-05,9.99999999995449e-06,-0.0003470316335829615,-0.0003946926035127696,-0.0005715216880655127
150000000000.0,1,-0.0344605681,-0.02079990465,0.060624710299999995,-0.01681,0.020275,-0.010661,-0.9021137335,-9.613360928499999,1.7147908189999999,-2.6573,1.3719,2.7521,-6.499999999998174e-05,-0.000300000000000189,-5.999999999994898e-05,0.0014295029196000897,0.0006712208144430409,0.0012999020808068806
150000000000.0,1,-0.038736267500000005,-0.0366376444,0.0733341287,-0.018973,0.014966,-0.012789,-0.9017410808,-9.613458994999998,1.7141043535,-2.6573,1.372,2.7523,-6.500000000009276e-05,-0.00010000000000021103,-4.0000000000040004e-05,0.00038483319789262005,0.00020855479106773878,0.00013364701835572035
150000000000.0,1,-0.03580407915,-0.03596098555,0.08034588345,-0.023241,0.013937,-0.013861,-0.9012213283499999,-9.6137531945,1.713025622,-2.6573,1.3721,2.7524,-5.999999999994898e-05,-9.999999999976694e-05,-9.99999999995449e-06,0.0015597567147023206,-0.00034382530103349573,0.0009548248069455312
150000000000.0,1,-0.0442476048,-0.016073099349999998,0.08189533415,-0.025426,0.006497,-0.014917,-0.9005642827999999,-9.614047394,1.7118488239999998,-2.6573,1.3723,2.7525,-0.00012999999999996348,-0.00010000000000021103,-9.999999999998899e-05,-0.00046667687783719103,-0.0007877160423892526,0.0006705092691259296
150000000000.0,1,-0.03445076145,0.02403609915,0.07373620134999999,-0.025457,0.002235,-0.014908,-0.8997307175499999,-9.614341593499999,1.7105739595,-2.6574,1.3724,2.7526,-0.0001100000000000545,-9.999999999976694e-05,-2.5000000000052758e-05,-0.0008884961866657548,-2.448227451701257e-05,-0.00031255596962598275
150000000000.0,1,-0.020848937899999996,0.053681602099999996,0.06645966704999999,-0.025491,-0.003092,-0.015965,-0.8986814059999999,-9.614635793,1.709299095,-2.6575,1.3726,2.7528,-0.00015999999999993797,-0.00010000000000021103,-2.4999999999941735e-05,0.00013790050163908774,0.0002695641164300877,-0.0011139293698589903
150000000000.0,1,-0.013788149899999998,0.056250944399999996,0.060095151199999995,-0.024503,-0.012692,-0.014878,-0.8973575082499999,-9.6149299925,1.7082203635,-2.6579,1.3727,2.753,-0.0001100000000000545,-9.999999999976694e-05,-4.0000000000040004e-05,-0.00048048853934856695,0.0004222029205991351,6.573323025316213e-05
150000000000.0,1,-0.025752262899999996,0.0550545331,0.0577219419,-0.021313,-0.016976,-0.019133,-0.89586689745,-9.615224192,1.7072396984999998,-2.6583,1.3729,2.7533,-0.00012999999999996348,-9.999999999976694e-05,-2.0000000000020002e-05,0.00017048529212493335,3.0636659707372615e-05,-2.6335692692835977e-05
150000000000.0,1,-0.029243430299999998,0.03692203725,0.0637236117,-0.020302,-0.024444,-0.019117,-0.8941703469999999,-9.6155183915,1.7066512994999998,-2.659,1.373,2.7537,-0.00014999999999998348,-0.00010000000000021103,-0.00012999999999996348,0.0001370065747070548,-0.00012116000232498259,-0.00019486770203647197
150000000000.0,1,-0.03050848815,-0.00505042475,0.09030943984999999,-0.020336,-0.029771,-0.020174,-0.8921599837499999,-9.6157145245,1.7063570999999997,-2.6598,1.3732,2.7543,-0.000140000000000029,-0.00010000000000021103,-4.0000000000040004e-05,-0.0002248257532535547,-0.0002699942588364479,-0.00020564408014189794
150000000000.0,1,-0.03913834014999999,-0.05184775855,0.08290541909999999,-0.025705,-0.035054,-0.02124,-0.8901103938999999,-9.6161067905,1.7055725679999998,-2.6606,1.3733,2.7547,-0.0001300000000000745,-3.333333333310762e-05,-4.999999999999449e-05,-0.000739166438776806,-0.0007029756419445476,-0.0003877475044218315
150000000000.0,1,-0.0422470482,-0.0449536836,0.09995918345,-0.024649,-0.038257,-0.023366,-0.8879038976499999,-9.616400989999999,1.7049841689999998,-2.6615,1.3735,2.7552,-0.00018999999999991246,-3.333333333355171e-05,-3.999999999992898e-05,0.000538922556355903,-4.741350180004211e-05,-0.00058521136769496
150000000000.0,1,-0.053573728949999996,-0.00505042475,0.10904014135,-0.024673,-0.042518,-0.024423,-0.8856974013999999,-9.616597123,1.7046899695,-2.6624,1.3736,2.7558,-0.00012000000000000899,-3.333333333310762e-05,-2.0000000000020002e-05,-0.0006351144802534403,-0.0005791581306433535,8.65732830765964e-05
150000000000.0,1,-0.0555644789,0.029096330549999997,0.0872007318,-0.026838,-0.048891,-0.027615,-0.8832555455499999,-9.616989388999999,1.7041015705,-2.6634,1.3738,2.7563,-0.00019000000000002348,3.333333333310762e-05,-7.999999999996898e-05,-7.659960764128115e-05,-0.0003444561467265128,-0.0005616537719013159
150000000000.0,1,-0.063350959,0.04617951484999999,0.07142183195,-0.023649,-0.052111,-0.029736,-0.8807058165499999,-9.6172835885,1.7036112380000001,-2.6645,1.374,2.7569,-0.00021000000000004349,3.333333333355171e-05,-8.000000000008001e-05,-0.0005498618771897501,-0.0005770944148124624,-0.0011880729175173244
150000000000.0,1,-0.0512299396,0.091790244,0.0635863186,-0.018331,-0.053223,-0.027587,-0.87801879445,-9.617577788,1.7035131715,-2.6657,1.3741,2.7576,-0.00010999999999994348,3.333333333310762e-05,1.0000000000065512e-05,-0.00027856887579691403,0.000924331804222911,0.0003449253439642419
150000000000.0,1,-0.04139386965,0.028439284999999995,0.07167680485,-0.018381,-0.058553,-0.025441,-0.8752925457499999,-9.617773921,1.7035131715,-2.6669,1.3742,2.7583,-0.00017000000000000348,-9.999999999976694e-05,-9.999999999998899e-05,-0.0010431050950043819,-0.000759173049658779,-0.0009239645143739317
150000000000.0,1,-0.0456597624,0.028282378599999998,0.04576763555,-0.015187,-0.059644,-0.025432,-0.8726643635499999,-9.6180681205,1.703218972,-2.6681,1.3744,2.7589,-0.00024000000000001798,4.999999999988347e-05,-4.0000000000040004e-05,0.00012947627603909773,6.389893704072946e-05,-0.0007454283312493537
150000000000.0,1,-0.05585867839999999,0.0355981395,0.04090353715,-0.007727,-0.059708,-0.023281,-0.8703990274,-9.6182642535,1.7036112380000001,-2.6692,1.3745,2.7594,-0.00019999999999997797,4.999999999988347e-05,-4.999999999999449e-05,4.209305200908453e-05,-0.00030700448041387496,-0.0008301074889134341
150000000000.0,1,-0.07012735415,0.0450321368,0.04535575625,-0.002411,-0.062947,-0.02433,-0.8682513710499999,-9.6182642535,1.7046899695,-2.6705,1.3745,2.7601,-0.00019000000000002348,-9.999999999976694e-05,-9.00000000000345e-05,-0.0012492553666025863,-0.00010398544185186154,-0.001303756288799196
150000000000.0,1,-0.08011052384999999,0.053348176000000004,0.029017877349999995,0.001859,-0.060853,-0.021121,-0.8664959807,-9.618166187,1.7058667674999999,-2.6716,1.3744,2.7606,-0.00021000000000004349,-0.00010000000000021103,-7.999999999996898e-05,0.0012153149312736922,-0.0005227170146568927,-0.0006592778905250007
150000000000.0,1,-0.06813660419999999,0.056172491199999994,0.03060655465,0.006132,-0.057695,-0.016846,-0.8650053699,-9.6180681205,1.7076319645,-2.6727,1.3743,2.7612,-0.00012999999999996348,0.00010000000000021103,9.99999999995449e-06,0.001050948621509562,-0.0002577530927456717,-0.00010155407904388625
150000000000.0,1,-0.047219019749999994,0.0552506661,0.03773598919999999,0.014662,-0.056703,-0.013628,-0.8634755325,-9.6176758545,1.7101816934999998,-2.674,1.3742,2.762,-0.00017000000000000348,-0.00010000000000021103,-0.00010999999999994348,0.0019222825300957425,0.0001588691904195194,0.0003367021455265018
150000000000.0,1,-0.053701215399999995,0.0234182802,0.027291906949999997,0.02001,-0.052489,-0.009354,-0.86252428745,-9.6172835885,1.713025622,-2.6751,1.374,2.7625,-0.00017000000000000348,-4.999999999988347e-05,-7.999999999996898e-05,-0.0005653830033474083,-0.00014101802315158452,-0.0003156991293544742
150000000000.0,1,-0.0710982125,-0.030841914249999994,0.0137096967,0.030646,-0.05471,-0.006126,-0.8620339549499999,-9.616793256,1.7162618164999999,-2.6761,1.3737,2.763,-0.00020999999999993246,-4.999999999988347e-05,-0.00010000000000010001,-0.0018131107451810902,3.419479367128275e-05,-0.0016114220762095677
150000000000.0,1,-0.09280032894999998,-0.0816893945,0.0007060788,0.031752,-0.050455,-0.007195,-0.8618868551999999,-9.616204857,1.7194980109999998,-2.677,1.3734,2.7634,-0.00017000000000000348,9.999999999976694e-05,-9.999999999998899e-05,-0.0003321999282610566,-0.0006966593381909636,0.00015137287600941463
150000000000.0,1,-0.11247246884999999,-0.12007262259999998,0.028125472199999998,0.031757,-0.050452,-0.008258,-0.8619653084,-9.6155183915,1.7232245379999998,-2.6778,1.373,2.7637,-0.000200000000000089,-9.999999999976694e-05,-0.00012000000000000899,0.0002594156852313567,4.14366099255048e-05,-0.00022314644172105602
150000000000.0,1,-0.13076187109999998,-0.14601121185,0.0464050678,0.028625,-0.044028,-0.011471,-0.8620829882,-9.614831925999999,1.7267549319999997,-2.6786,1.3727,2.7641,-0.00014999999999998348,-2.4999999999941735e-05,-3.999999999992898e-05,8.26327353817824e-05,-8.780665592644787e-05,-0.0003281112358619609
150000000000.0,1,-0.1451188067,-0.1568475601,0.07287321615,0.025471,-0.039737,-0.013613,-0.8622398946,-9.6141454605,1.7303833924999998,-2.6793,1.3724,2.7645,-0.00012999999999996348,-2.5000000000385825e-05,-4.0000000000040004e-05,-4.173612142732708e-05,0.0004485704663632628,0.00019055157164871162
150000000000.0,1,-0.14932585955,-0.13294875404999998,0.07493261265,0.024459,-0.034397,-0.015753,-0.86236738105,-9.6135570615,1.7339137864999998,-2.6801,1.372,2.7649,-0.00021000000000004349,-2.4999999999941735e-05,-7.999999999996898e-05,-0.0006026266219245624,-3.6679266236294694e-05,-0.0006145122138616621
150000000000.0,1,-0.14281424394999997,-0.0940850001,0.036941650549999996,0.021307,-0.029041,-0.016829,-0.8624556408999999,-9.613066729,1.7365615819999998,-2.6806,1.3718,2.7652,-0.00012999999999996348,-2.4999999999941735e-05,-9.99999999995449e-06,0.0001043166449310462,-0.0003262086554058907,-1.5843989856989538e-05
150000000000.0,1,-0.12637829855,-0.07710968894999999,0.010855961549999998,0.029885,-0.023782,-0.016818,-0.8622791212,-9.612478329999998,1.7396016435,-2.6814,1.3715,2.7658,-9.999999999998899e-05,0.00010000000000021103,9.99999999995449e-06,-9.802087886701116e-05,0.0002060326483492858,0.00011304526918820557
150000000000.0,1,-0.11277647499999999,-0.0553683459,-0.0311263071,0.040551,-0.023868,-0.016794,-0.8619653084,-9.611987997499998,1.7428378379999998,-2.6823,1.3712,2.7665,-0.0001100000000000545,9.999999999976694e-05,7.999999999996898e-05,-0.0011452280122303815,0.00020770708617767752,0.0003827127310898071
150000000000.0,1,-0.1010281083,-0.047817225399999996,-0.05015120809999999,0.050176,-0.020749,-0.016778,-0.8615926557,-9.611301531999999,1.746760498,-2.6834,1.3709,2.7674,-9.999999999998899e-05,5.000000000032756e-05,-8.999999999992347e-05,-0.00015657007326908,-8.669105671099686e-06,0.00045113882714975517
150000000000.0,1,-0.10352880404999999,-0.038030188699999995,-0.0686661633,0.061926,-0.018713,-0.016757,-0.8613278761500001,-9.6104189335,1.75146769,-2.6846,1.3704,2.7684,-9.999999999998899e-05,4.999999999988347e-05,4.999999999999449e-05,-0.0008860089830138307,-0.00036012012764286006,-0.0005996968946111458
150000000000.0,1,-0.10833406254999998,-0.04118793,-0.06964682829999999,0.064063,-0.0166,-0.014617,-0.8613180695,-9.609536335,1.7565671479999998,-2.6857,1.37,2.7694,-7.999999999996898e-05,-4.999999999988347e-05,-3.0000000000085514e-05,-0.0004962630603415619,-0.0002656906752809274,-0.00030684738897157615
150000000000.0,1,-0.10472521534999998,-0.04364939915,-0.0507199938,0.061998,-0.006992,-0.013565,-0.8614847825499999,-9.60855567,1.761666606,-2.6868,1.3695,2.7705,-0.00012000000000000899,-5.000000000032756e-05,-4.999999999999449e-05,0.00024052922228556817,-0.00026525220101603075,-5.1379689079755764e-05
150000000000.0,1,-0.11150161049999999,-0.0429923536,-0.03327396345,0.058802,-0.004835,-0.011435,-0.8620437616,-9.607575005,1.7668641305,-2.6877,1.369,2.7714,2.0000000000020002e-05,0.00010000000000021103,2.0000000000020002e-05,0.0008582687417832968,-4.1219675955384005e-05,0.00021337747183025613
150000000000.0,1,-0.10970699355,-0.0216530832,-0.044855617099999995,0.056712,0.001576,-0.010377,-0.86293616675,-9.60659434,1.7715713225,-2.6883,1.3685,2.7721,-9.00000000000345e-05,3.333333333310762e-05,-4.999999999999449e-05,-0.0004944831825637319,0.0002915836562811247,0.00014496840022459878
150000000000.0,1,-0.09594826359999999,0.0162201991,-0.05494665995,0.054608,0.006921,-0.008251,-0.8638285719,-9.605711741499999,1.7758862485,-2.6889,1.368,2.7728,-7.999999999996898e-05,3.333333333355171e-05,-2.0000000000020002e-05,-0.00052575373507735,-0.0003225097855525938,-0.0001892208043257071
150000000000.0,1,-0.0770214291,0.043374812949999994,-0.06612624095,0.052529,0.015462,-0.006131,-0.86479943025,-9.6049272095,1.7799069749999998,-2.6893,1.3676,2.7734,-6.0000000000060005e-05,3.333333333310762e-05,-2.0000000000020002e-05,-0.0007411478737828769,-8.387819351085568e-06,0.00028494867449291306
150000000000.0,1,-0.07559946484999999,0.057211996099999995,-0.09125087825,0.054661,0.017574,-0.002925,-0.8662213945,-9.6041426775,1.7836335019999998,-2.6895,1.3672,2.7738,-5.999999999994898e-05,4.999999999988347e-05,-4.999999999999449e-05,-0.0003367439382697679,4.0898587706506007e-05,0.00045384422111460765
150000000000.0,1,-0.07491299935,0.04466929075,-0.10183225359999999,0.058886,0.015405,0.00136,-0.86795717155,-9.603260079,1.7874580954999997,-2.6896,1.3668,2.774,-6.0000000000060005e-05,5.000000000032756e-05,-3.999999999992898e-05,-0.0008357632769353529,-0.00021364241832610986,-0.0001527766537092745
150000000000.0,1,-0.0764134168,0.014445195449999998,-0.10450946905,0.059986,0.020725,0.002424,-0.8698890816,-9.602279414,1.7913807554999999,-2.6895,1.3663,2.7742,-9.99999999995449e-06,3.333333333310762e-05,-9.999999999998899e-05,-0.0008301600169684509,-0.0005656097548474293,0.00017108652385378065
150000000000.0,1,-0.0771783355,-0.04735631285,-0.09778210715,0.05999,0.021792,0.002426,-0.8718307982999999,-9.6013968155,1.7953034155,-2.6895,1.3659,2.7745,-4.0000000000040004e-05,3.333333333355171e-05,-3.0000000000085514e-05,-0.00011926265209982745,-1.2574041496460353e-05,0.0001723361977887805
150000000000.0,1,-0.09531083135,-0.08430777005,-0.0846510028,0.05573,0.023959,0.003486,-0.8740471012,-9.600514216999999,1.7989318759999997,-2.6893,1.3654,2.7745,-1.999999999990898e-05,3.333333333310762e-05,-3.999999999992898e-05,-0.0006123931340598077,0.00022786614981495923,0.00048458884762059284
150000000000.0,1,-0.10773585689999998,-0.10340131759999999,-0.06134059575,0.049379,0.029343,0.001336,-0.87643011715,-9.599729685,1.802266137,-2.689,1.365,2.7745,9.99999999995449e-06,5.000000000032756e-05,2.0000000000020002e-05,-0.0007127624126086474,0.00020042063726877224,0.0003339434983251621
150000000000.0,1,-0.10285214520000001,-0.09917465145,-0.05320107625,0.039803,0.033685,0.002383,-0.8787739064999999,-9.598945152999999,1.804815866,-2.6885,1.3646,2.7744,-2.500000000016378e-06,4.999999999988347e-05,-4.0000000000040004e-05,0.00021381511618168147,0.00047844975343291907,0.00044280808543151196
150000000000.0,1,-0.09450668605,-0.07143163859999999,-0.04545382275,0.030226,0.035899,0.000232,-0.8809804027499999,-9.598454820499999,1.8066791295,-2.6879,1.3644,2.7742,-2.4999999999053557e-06,9.999999999976694e-05,4.999999999999449e-05,-0.00010520535078417659,0.00022205034586408878,6.668111471830329e-05
150000000000.0,1,-0.083356525,-0.056554950550000004,-0.0600559246,0.023851,0.040214,0.001285,-0.8831476723999999,-9.598062554499998,1.8076597945,-2.6871,1.3642,2.7738,-2.500000000016378e-06,4.999999999988347e-05,-9.99999999995449e-06,0.0004788387574949926,0.0009706316721549424,-0.00017592573093105912
150000000000.0,1,-0.0724907568,-0.05859473375,-0.07483454614999999,0.019571,0.039185,0.001282,-0.8851874555999999,-9.5978664215,1.8079539939999998,-2.6863,1.3641,2.7734,-2.500000000016378e-06,5.000000000032756e-05,2.4999999999941735e-05,-0.00013396878930493905,0.00015109363303067447,0.00029828527717423725
150000000000.0,1,-0.06542016214999999,-0.0574081291,-0.08323884520000001,0.018495,0.039195,0.002351,-0.88717820555,-9.5976702885,1.8078559275000001,-2.6854,1.364,2.7729,9.99999999995449e-06,9.999999999976694e-05,2.5000000000052758e-05,0.0007158150306649791,1.7021001537109726e-05,5.5372069944326086e-05
