Time,placement_label,user_acc_x(m/s^2),user_acc_y(m/s^2),user_acc_z(m/s^2),rotation_rate_x(rad/s),rotation_rate_y(rad/s),rotation_rate_z(rad/s),gravity_x(m/s^2),gravity_y(m/s^2),gravity_z(m/s^2),attitude_roll(rad),attitude_pitch(rad),attitude_yaw(rad),target_delta_x,target_delta_y,target_delta_z,target_delta_roll,target_delta_pitch,target_delta_yaw
150000000000.0,-1,0.14948276594999999,0.0004903325,-0.0030989013999999995,-0.041965,-0.035359,-0.001123,-3.543731044,-9.1336196105,-0.43518970705,-1.4486,1.1982,2.5176,0.0,0.0,0.0,0.0,0.0,0.0
150000000000.0,-1,0.11980784305,-0.0078649333,-0.015357213899999998,-0.051616,-0.037417,0.005263,-3.5424561795,-9.13391381,-0.4386416478499999,-1.4476,1.1982,2.5162,-0.0002500000000000835,0.00019999999999997797,3.999999999992898e-05,0.0013722863931300289,0.0001842924672401658,-0.0002509655471958361
150000000000.0,-1,0.0936731208,-0.024771597899999998,-0.04129580315,-0.053804,-0.0406,0.010597,-3.5419658469999997,-9.13391381,-0.44293696055,-1.4464,1.1983,2.5145,-0.0002500000000000835,0.0004999999999999449,0.0010000000000000009,0.0010495054262489312,-0.003143081317410701,0.0005486325593384578
150000000000.0,-1,0.045502855999999994,-0.0569962498,-0.08311135874999999,-0.050583,-0.036365,0.012726,-3.5422600464999996,-9.1336196105,-0.4476539592,-1.4451,1.1982,2.5127,-9.999999999998899e-05,0.000300000000000189,7.00000000000145e-05,-0.0004962298545674315,-8.577857679692436e-05,-0.0003153467844332347
150000000000.0,-1,-0.0137096967,-0.06745994535,-0.0817482344,-0.052805,-0.041683,0.02127,-3.5439271769999996,-9.132737012,-0.4523121179499999,-1.4439,1.1979,2.511,0.00019999999999997797,9.999999999998899e-05,-7.999999999996898e-05,-0.00044539945412758186,-0.0012974179513081108,2.6149192914104447e-05
150000000000.0,-1,-0.0421097551,0.01456287525,-0.0351862602,-0.05289,-0.048082,0.027688,-3.5472614379999996,-9.1312660145,-0.45606806489999996,-1.4429,1.1975,2.5096,-9.999999999998899e-05,0.00029999999999996696,0.00010999999999994348,0.00011306321609994008,0.001041272529834325,-0.000869148343908055
150000000000.0,-1,-0.03237175165,0.06885248965,0.031008627299999997,-0.056085,-0.044863,0.03195,-3.551184098,-9.129598884,-0.4591277397,-1.4422,1.197,2.5083,3.333333333332966e-05,0.00029999999999996696,7.00000000000145e-05,0.0002858916001942102,0.0005033151357356491,-0.0005865881823505781
150000000000.0,-1,0.019348520449999997,0.08007129724999999,0.020927391099999998,-0.050726,-0.043839,0.028756,-3.5542241594999995,-9.128225953,-0.46205992804999996,-1.4415,1.1966,2.507,3.333333333332966e-05,0.00029999999999996696,7.00000000000145e-05,0.0009629660735739343,0.0007862189697727118,-0.0006058063800931102
150000000000.0,-1,0.052524417399999995,0.07340277525,-0.0060997363,-0.0411,-0.042849,0.025567,-3.5564796889999997,-9.127245288,-0.46465869029999995,-1.4409,1.1964,2.5059,3.333333333332966e-05,0.00019999999999997797,-0.00021000000000004349,0.0012702527647832085,0.0003672537340499993,-0.000847867642117972
150000000000.0,-1,0.0547603336,0.060928716449999996,-0.009267284249999999,-0.034687,-0.043963,0.021309,-3.5582448859999998,-9.126460756,-0.46673770009999993,-1.4404,1.1961,2.5049,0.00020000000000020002,0.00019999999999997797,-0.00017999999999995797,0.00044312216816999594,-0.0006779580376128358,-0.0001835744883726953
150000000000.0,-1,0.0641943309,0.0549956932,-0.0023143694,-0.034703,-0.049285,0.01598,-3.5594216839999997,-9.125872356999999,-0.46829695744999994,-1.44,1.196,2.504,0.00019999999999997797,0.00019999999999997797,-0.0008399999999999519,-0.00048416090185865457,0.003264069207358,-0.001389757047523421
150000000000.0,-1,0.0677639515,0.0481114249,-0.0059624432,-0.042195,-0.053483,0.013837,-3.5603042824999998,-9.125382024499999,-0.4703367406499999,-1.4395,1.1959,2.5029,-9.999999999998899e-05,0.00029999999999996696,0.00013999999999991797,0.00012487306682706922,0.000653096397206232,-0.0005006526934923095
150000000000.0,-1,0.056466690699999995,0.0306163613,-0.01632807225,-0.052911,-0.056596,0.018091,-3.5614810804999997,-9.124891691999998,-0.47313163589999996,-1.4387,1.1957,2.5015,-9.999999999998899e-05,0.000300000000000189,0.00014999999999998348,-0.00131682722114701,-0.0009111786257469667,-0.00025619633001161546
150000000000.0,-1,0.052946103349999996,0.027135000549999996,-0.023408473549999996,-0.058317,-0.064012,0.020228,-3.5630501444999996,-9.1240090935,-0.47653454344999996,-1.4378,1.1955,2.4999,-0.0035000000000000586,-0.0028000000000001357,-0.0005499999999999394,-0.07372280597871361,-0.002863242172967073,0.007760725739334173
150000000000.0,-1,0.0399915187,0.023379053599999998,-0.0322246519,-0.057282,-0.067218,0.021301,-3.5648153414999997,-9.123126495,-0.48013358399999995,-1.4369,1.1952,2.4982,3.333333333332966e-05,0.00039999999999995595,-2.0000000000020002e-05,0.0010268685768399788,8.215239622200166e-05,-0.0009127029389928154
150000000000.0,-1,0.011405133949999998,-0.0034127142,-0.046424681100000004,-0.050894,-0.067272,0.023447,-3.567070871,-9.1220477635,-0.48343842504999995,-1.4361,1.1949,2.4966,3.333333333332966e-05,0.000300000000000189,-2.999999999997449e-05,0.0005542524259023462,-3.9289002277120844e-05,-0.0003967317555040317
150000000000.0,-1,-0.030018155649999996,-0.021908056099999997,-0.05429942105,-0.046622,-0.065177,0.025586,-3.5700128659999995,-9.120772899,-0.48649809985,-1.4354,1.1946,2.4952,3.333333333332966e-05,0.00029999999999996696,-0.00024000000000001798,0.0001762152300308628,0.0007422079856893582,-0.0005342150795319967
150000000000.0,-1,-0.07095111275,-0.0159063863,-0.05494665995,-0.043409,-0.062008,0.027724,-3.573739393,-9.119203834999999,-0.48913608869999997,-1.4348,1.1941,2.4939,-0.0006999999999999229,0.0004999999999999449,0.0012100000000000444,0.0005337026418892332,-0.0008287458698770234,-0.00022320147890786401
150000000000.0,-1,-0.09668376235,-0.0089044382,-0.033960428949999996,-0.040161,-0.054577,0.029856,-3.5781523855,-9.1173405715,-0.4914112315,-1.4343,1.1936,2.4928,-5.0000000000105516e-05,0.00029999999999996696,-7.00000000000145e-05,0.0007097793118717721,-1.7190934993083218e-05,-0.0008595090911796
150000000000.0,-1,-0.10826541599999999,-0.0017455836999999998,-0.035666786049999996,-0.03586,-0.048222,0.03306,-3.5828595775,-9.1153792415,-0.49359811445,-1.4339,1.1931,2.4918,-5.0000000000105516e-05,0.00029999999999996696,5.999999999994898e-05,0.000462123867349451,-0.0001044999124282242,-0.0007121005675476688
150000000000.0,-1,-0.11111915115,0.0161025193,-0.041531162749999996,-0.030446,-0.038674,0.03199,-3.5877629024999997,-9.113319845,-0.49567712425,-1.4335,1.1925,2.491,0.00010000000000021103,0.00019999999999997797,-0.00012999999999996348,0.0003992521114462022,-0.0001448295978558889,-0.0006197318308660549
150000000000.0,-1,-0.11033461915,0.0206920315,-0.03841264805,-0.026149,-0.035511,0.03093,-3.592568161,-9.111358515,-0.49744232125,-1.4332,1.192,2.4903,-2.0000000000131024e-05,0.000300000000000189,-9.99999999995449e-06,0.00038956567611392323,-0.0001344425771800939,-0.0004292150811693318
150000000000.0,-1,-0.1012634679,0.021045070899999997,-0.02593858925,-0.026128,-0.033379,0.029865,-3.5971772865,-9.109397184999999,-0.49899177194999994,-1.433,1.1914,2.4897,-1.999999999990898e-05,0.00029999999999996696,-1.0000000000065512e-05,0.0006647556741985472,-6.53382824231663e-05,-0.0005150458746889797
150000000000.0,-1,-0.0821405004,0.03866762095,-0.0045306723,-0.022933,-0.033406,0.030942,-3.6016883454999995,-9.107631988,-0.5000410835,-1.4328,1.1909,2.4892,-2.0000000000131024e-05,0.00029999999999996696,-2.0000000000020002e-05,0.0009656182787018963,0.0011409815881675556,-0.0008887941552835343
150000000000.0,-1,-0.0654691954,0.015004174499999998,-0.0108069283,-0.018623,-0.028113,0.030944,-3.605709072,-9.1059648575,-0.50095310195,-1.4327,1.1905,2.4888,-1.999999999990898e-05,0.00029999999999996696,-0.00010999999999994348,0.0006362127952008745,0.0008764866399750826,-0.0006534687511301485
150000000000.0,-1,-0.0561528779,-0.01883857465,-0.05743754905,-0.01647,-0.025998,0.029879,-3.6093375324999997,-9.1043957935,-0.5025123593,-1.4325,1.1901,2.4882,-2.0000000000131024e-05,0.00019999999999997797,2.999999999997449e-05,-0.0004317164682219321,0.00042423495255849986,0.00015146036520796713
150000000000.0,-1,-0.0489744101,-0.035039160449999995,-0.10736320419999999,-0.016421,-0.020666,0.027736,-3.6124756604999995,-9.1030228625,-0.5049542151499999,-1.4319,1.1897,2.4874,0.000700000000000145,9.999999999998899e-05,-0.0013999999999999568,-0.0005187125857204489,0.0017804856920737855,-0.0002857151407242853
150000000000.0,-1,-0.0473661195,-0.034284048399999996,-0.12119058069999998,-0.019582,-0.016373,0.02559,-3.6154176555,-9.101649931499999,-0.50803350325,-1.4312,1.1893,2.4866,-9.999999999998899e-05,9.999999999998899e-05,-6.0000000000060005e-05,-0.0005829028032677819,-5.630713535054177e-05,0.0002047710579846651
150000000000.0,-1,-0.0655280353,0.003530394,-0.09709564165,-0.027054,-0.01631,0.02558,-3.618849983,-9.100178933999999,-0.51148544405,-1.4304,1.1889,2.4856,-9.999999999998899e-05,0.00019999999999997797,9.999999999998899e-05,-2.508502841580551e-05,-0.0004836552074218847,0.0002523504039984026
150000000000.0,-1,-0.08072834279999999,0.0181423025,-0.059467525599999994,-0.030251,-0.014154,0.02771,-3.6226745765,-9.098413737,-0.5146922186,-1.4297,1.1884,2.4847,-4.999999999988347e-05,9.999999999998899e-05,4.500000000007276e-05,-0.0005794603772477647,0.0002452519388289609,6.210267977202477e-05
150000000000.0,-1,-0.09454591265,0.015886773,-0.041560582699999994,-0.02704,-0.01205,0.028784,-3.6267933694999996,-9.096648539999999,-0.51748711385,-1.4291,1.1879,2.4839,-5.0000000000105516e-05,0.00019999999999997797,4.499999999996174e-05,0.0005127996419571623,0.00028832025025837815,-0.0003277617045474024
150000000000.0,-1,-0.1002435763,0.018534568499999998,-0.0088063717,-0.022728,-0.005692,0.029853,-3.6311082955,-9.0947852765,-0.51956612365,-1.4287,1.1874,2.4834,-9.999999999998899e-05,0.00020000000000020002,7.999999999996898e-05,0.00019641566512995645,0.0003330725343235752,-0.0004712632870278455
150000000000.0,-1,-0.08471964935000001,0.010591182,-0.005756503549999999,-0.005585,0.002692,0.028805,-3.635129022,-9.093118145999998,-0.52066446845,-1.4285,1.187,2.4833,-0.0003500000000000725,0.00029999999999996696,9.999999999998899e-05,0.00042211755258270145,0.0006273845574473746,-0.0003305986005655015
150000000000.0,-1,-0.05443671415,-0.0045895122,-0.027909725899999998,0.005203,0.014331,0.023468,-3.6381690835,-9.0918432815,-0.52140977385,-1.4285,1.1866,2.4833,-0.0003500000000000725,0.00039999999999995595,0.0011400000000000299,0.00020812988468188465,-0.002170294103617909,0.0010974980414633073
150000000000.0,-1,-0.0312439869,0.02678196115,-0.0350685804,0.008385,0.012174,0.02348,-3.6408168789999995,-9.09076455,-0.5217333933,-1.4285,1.1863,2.4835,-9.999999999998899e-05,0.00019999999999997797,6.0000000000060005e-05,-0.00030439593041542423,0.0006448608319347127,6.120440036827546e-05
150000000000.0,-1,-0.0107088618,0.0791788921,-0.0182992089,0.00088,0.009037,0.025609,-3.643758874,-9.089587752,-0.5221844992,-1.4285,1.186,2.4836,-9.999999999998899e-05,0.00019999999999997797,9.99999999995449e-06,-0.0002250133237160501,0.0008018885736280623,0.00029289121397724216
150000000000.0,-1,0.012797678249999998,0.0969485419,0.0055897905,0.004063,0.00688,0.02562,-3.6464066694999997,-9.0885090205,-0.5221354659499999,-1.4286,1.1857,2.4838,-3.333333333332966e-05,0.00019999999999997797,-2.0000000000020002e-05,0.0003988583398160106,0.0008353461843066956,-0.0001074209358504774
150000000000.0,-1,0.019564266749999996,0.06644986039999999,0.0188091547,0.009409,0.006838,0.023495,-3.6487602655,-9.087626422,-0.52129209405,-1.4289,1.1855,2.4842,-3.333333333332966e-05,0.00019999999999997797,-9.99999999995449e-06,-0.0005207220819785086,0.0006525992514416767,0.00011438795283025271
150000000000.0,-1,-0.033970235599999996,0.01632807225,-0.00685484835,0.013659,0.004672,0.023508,-3.6514080609999997,-9.086645757,-0.5203114290499999,-1.4293,1.1852,2.4846,-3.333333333332966e-05,9.999999999998899e-05,-4.999999999999449e-05,-0.00012441419275877053,8.927400765856852e-05,2.7048092883674713e-05
150000000000.0,-1,-0.0508965135,7.845319999999999e-05,-0.023428086849999998,0.010568,0.007912,0.006421,-3.6532713244999995,-9.085959291499998,-0.5199093564,-1.4294,1.185,2.4849,3.333333333332966e-05,0.00019999999999997797,-4.999999999999449e-05,-0.00021848605238505847,0.00030947010489446036,0.00020060574239977313
150000000000.0,-1,0.04508117005,-0.010630408599999999,-0.03262672455,-0.0002,0.003726,0.019216,-3.653761657,-9.085665092,-0.5204389155,-1.4293,1.185,2.4849,3.333333333332966e-05,9.999999999998899e-05,-4.0000000000040004e-05,0.00010735296673702877,-0.000378731534458554,0.00019719613558688565
150000000000.0,-1,-0.07514835895,0.018907221199999998,-0.0272428737,-0.005648,-0.003699,0.029898,-3.6575862505,-9.084096028,-0.5211842208999999,-1.4293,1.1845,2.4848,3.333333333332966e-05,0.00010000000000021103,-7.00000000000145e-05,-7.201027994008236e-05,0.00018828630718248363,0.00015776914849441326
150000000000.0,-1,-0.09458513925,0.04382591885,-0.0204566719,-0.007771,-0.001551,0.030963,-3.6620973094999996,-9.082232764499999,-0.5221256593,-1.4292,1.184,2.4847,4.999999999988347e-05,9.999999999998899e-05,-4.999999999999449e-05,-0.00010732856788653322,1.8305836917420493e-05,9.253382693641399e-05
150000000000.0,-1,-0.0414821295,0.007590347099999999,-0.03170489945,-0.007753,0.001645,0.032027,-3.6656277035,-9.080761767,-0.52344955705,-1.429,1.1836,2.4845,5.0000000000105516e-05,9.999999999998899e-05,-0.000160000000000049,0.0002379770413005744,-0.0003013002977918511,0.00025655351055275943
150000000000.0,-1,-0.07279476295,-0.01995653275,-0.06067374354999999,-0.008813,0.00272,0.032026,-3.669452297,-9.079094636499999,-0.5253030139,-1.4286,1.1832,2.4842,-9.999999999998899e-05,9.999999999998899e-05,1.0000000000065512e-05,-0.0002297772818784516,0.0008160250908095801,-7.595668613369355e-05
150000000000.0,-1,-0.1254074402,-0.04727785965,-0.06730303894999999,-0.005576,0.006958,0.030962,-3.6738652895,-9.0771333065,-0.52705840425,-1.4283,1.1827,2.4839,3.333333333332966e-05,9.999999999998899e-05,-4.0000000000040004e-05,-0.0004594010173004648,0.0006036972064251689,0.00013534278132310007
150000000000.0,-1,-0.13492969735,-0.0577023286,-0.052544030699999994,-0.003375,0.012274,0.025625,-3.6779840824999996,-9.075466175999999,-0.5286568881999999,-1.428,1.1822,2.4838,3.333333333332966e-05,9.999999999998899e-05,-3.999999999992898e-05,-0.00025282904850976173,0.0006969080386574067,0.00010402764379513485
150000000000.0,-1,-0.12747664335,-0.0483271712,-0.06651850695,-0.000119,0.01758,0.022424,-3.6815144765,-9.073897112,-0.5303828586,-1.4277,1.1818,2.4837,3.333333333332966e-05,9.999999999998899e-05,-4.0000000000040004e-05,0.00026550620977117134,0.00022244506021529276,6.299091214101438e-05
150000000000.0,-1,-0.09453610599999998,-0.0077472535,-0.05282842355,0.002088,0.025025,0.019217,-3.6845545379999995,-9.072524180999999,-0.5319519226,-1.4274,1.1814,2.4836,5.0000000000105516e-05,9.999999999998899e-05,-2.999999999997449e-05,0.0004539728478913929,0.0002472320301791786,-3.6218306247448595e-06
150000000000.0,-1,-0.056790310149999995,0.04723863305,-0.0112188076,-0.001077,0.02825,0.017075,-3.6871042669999996,-9.0714454495,-0.5333052402999999,-1.4272,1.1811,2.4836,4.999999999988347e-05,9.999999999998899e-05,-1.0000000000065512e-05,0.0004356207709468318,-0.00011565127646373519,0.00016822364645818766
150000000000.0,-1,-0.028252958649999996,0.055740998599999994,-0.013484143749999998,-0.004261,0.030408,0.017068,-3.6891636635,-9.0704647845,-0.5349331441999999,-1.4268,1.1809,2.4836,0.0003500000000000725,9.999999999998899e-05,8.000000000008001e-05,0.00034508269886091014,0.0010790102072875118,-8.619237872009577e-05
150000000000.0,-1,-0.0080022264,0.030694814499999997,-0.031528379749999995,-0.001062,0.030383,0.017074,-3.6909288604999997,-9.0696802525,-0.5367964077,-1.4264,1.1806,2.4835,0.0003500000000000725,-9.999999999998899e-05,-0.0012800000000000589,0.0006112019658872647,0.0015054696850569371,-0.0005123400726367855
150000000000.0,-1,0.010091042849999999,0.0010787315,-0.03800076875,0.002142,0.030358,0.016012,-3.6921056584999996,-9.0690918535,-0.53855179805,-1.426,1.1805,2.4834,2.4999999999941735e-05,9.999999999998899e-05,0.000140000000000029,0.0005629186535647257,0.00023818312297252398,0.00016133548635366424
150000000000.0,-1,0.00846313895,-0.00016671305,-0.0407172108,0.003175,0.028216,0.01922,-3.6934785895,-9.0685034545,-0.54002279555,-1.4256,1.1803,2.4833,2.4999999999941735e-05,9.999999999998899e-05,-4.999999999999449e-05,0.0006313391618411046,0.0004163285307587916,0.0001490813558939763
150000000000.0,-1,-0.00365788045,-2.941995e-05,-0.051975244999999996,0.003164,0.027151,0.019222,-3.6950476535,-9.0677189225,-0.54163108615,-1.4253,1.1801,2.4833,2.500000000016378e-05,9.999999999998899e-05,2.999999999997449e-05,0.000436440522940007,0.0007051380204847746,0.0001293531039072704
150000000000.0,-1,-0.015102240999999999,-0.0051386846,-0.0329699573,-2.9e-05,0.030372,0.022413,-3.6971070499999996,-9.066836324,-0.5431413102499999,-1.4249,1.1799,2.4833,2.4999999999941735e-05,4.999999999988347e-05,2.0000000000020002e-05,0.0002612495583416141,0.00011036075915860089,0.0004009982576804738
150000000000.0,-1,-0.0242616521,-0.010493115499999999,-0.00036284604999999996,-9e-05,0.023977,0.02456,-3.699460646,-9.065757592499999,-0.5441612018499999,-1.4248,1.1796,2.4834,5.0000000000105516e-05,5.0000000000105516e-05,-2.0000000000020002e-05,0.00021828953850078214,0.00018015201064192077,0.0004529317454426973
150000000000.0,-1,-0.04370823905,0.00784532,0.0029027683999999997,0.0063,0.023922,0.026709,-3.7025007074999996,-9.064482728,-0.5447397942,-1.4247,1.1793,2.4836,4.999999999988347e-05,9.999999999998899e-05,-4.999999999999449e-05,0.000244438794095414,0.0001944652629324306,0.0002524520352706894
150000000000.0,-1,-0.033538742999999996,0.022898527749999998,-0.00980665,0.013792,0.024929,0.02352,-3.7051485029999998,-9.0634039965,-0.5448967006,-1.4248,1.179,2.4839,-0.000700000000000145,0.00019999999999997797,0.0013199999999999878,0.00020613575982464383,-0.0018407995769846863,0.001125404330322155
150000000000.0,-1,0.0031773546,0.0375398562,-0.0360296321,0.018142,0.033422,0.020311,-3.7070117665,-9.062619464499999,-0.54516148015,-1.4248,1.1788,2.4843,0.00039999999999995595,9.999999999998899e-05,2.999999999997449e-05,0.00028049282955411314,-0.00043486949311333234,0.0005300639776315563
150000000000.0,-1,0.01422944915,0.02495792425,-0.07505029245,0.018194,0.03769,0.016034,-3.7083846974999997,-9.0620310655,-0.5462500183,-1.4245,1.1786,2.4845,0.000400000000000178,-0.00019999999999997797,-0.0013799999999999368,-3.33797909657374e-05,0.002569602448754038,-0.0006452597229507084
150000000000.0,-1,0.0013631243499999997,0.01417060925,-0.07273592305,0.017119,0.037699,0.017099,-3.7096595619999997,-9.0614426665,-0.54721107,-1.4243,1.1784,2.4847,-0.0008000000000001339,0.00029999999999996696,0.0014299999999999313,-0.00013866087314484687,-0.0019501418542737792,0.0014664028738740065
150000000000.0,-1,-0.01993691945,0.03303860385,-0.027733206199999996,0.016073,0.039841,0.016028,-3.711424759,-9.0606581345,-0.5476229493,-1.4243,1.1782,2.4851,4.999999999988347e-05,-6.666666666665932e-05,-2.999999999997449e-05,-4.149304118072905e-05,-6.304667780976381e-05,0.0004726805606574125
150000000000.0,-1,-0.0317147061,0.023869386099999997,-0.0040403398,0.018253,0.043024,0.011759,-3.7129938229999997,-9.060069735499999,-0.5476719825499999,-1.4243,1.1781,2.4856,5.0000000000105516e-05,-6.666666666665932e-05,-7.00000000000145e-05,0.0006498772659802032,-0.00023695937947576518,0.0005585728566313009
150000000000.0,-1,-0.04372785235,-0.0038442067999999996,-0.03141069995,0.022549,0.044059,0.007497,-3.7140725545,-9.059579402999999,-0.5478386956,-1.4244,1.1779,2.4861,0.000700000000000145,-6.666666666665932e-05,-0.0012299999999999534,-0.00047171884730334845,0.00271628873825569,-0.0006405699254412589
150000000000.0,-1,-0.04827813795,-0.0166320784,-0.05484859345,0.023616,0.042988,0.005368,-3.7149551529999996,-9.059187137,-0.548191735,-1.4243,1.1778,2.4865,9.999999999998899e-05,-9.999999999998899e-05,-4.0000000000040004e-05,0.00018431073194391523,-5.67255417538437e-05,0.0003994700471494639
150000000000.0,-1,-0.039059886950000004,-0.008708305199999999,-0.0203193788,0.024648,0.038718,0.005379,-3.7158377515,-9.0588929375,-0.5477014025,-1.4245,1.1778,2.4871,2.4999999999941735e-05,-1.1111111111183902e-05,-2.0000000000020002e-05,-0.00010696379212316032,-0.00021807649482030733,0.0007098313896634068
150000000000.0,-1,-0.01116977435,0.01317033095,0.02009382585,0.025708,0.039771,0.008582,-3.7166222834999996,-9.058598737999999,-0.5466618976,-1.4248,1.1777,2.4879,2.4999999999941735e-05,-1.1111111110961858e-05,4.0000000000040004e-05,-0.00011478054464664211,0.00046452837835242455,0.00023873453027478675
150000000000.0,-1,0.0086690786,0.02442836515,0.020084019199999997,0.029969,0.040798,0.011789,-3.7174068155,-9.058402605,-0.5453085799,-1.4251,1.1776,2.4887,2.500000000016378e-05,-1.1111111111183902e-05,-9.99999999995449e-06,-0.000366212324632631,0.00013261403043296482,0.0005590871673892828
150000000000.0,-1,0.033744682649999996,0.00212804305,0.018210949049999998,0.0321,0.039715,0.010726,-3.717701015,-9.0583045385,-0.5437395159,-1.4256,1.1776,2.4896,2.4999999999941735e-05,-1.1111111111183902e-05,-9.999999999998899e-05,-0.000441739437441635,-0.0002750972352352221,0.0007395983617501933
150000000000.0,-1,0.05898699975,0.0032754210999999997,-0.0016377105499999999,0.029953,0.038666,0.011789,-3.7176029484999997,-9.058402605,-0.5424450381,-1.4259,1.1776,2.4904,1.999999999990898e-05,-1.1111111110961858e-05,1.999999999990898e-05,-0.00025609641255819326,-0.00016202571656576126,0.0005336040870060899
150000000000.0,-1,0.04778780544999999,-0.00512887795,-0.0218688295,0.021379,0.036602,0.016045,-3.7180932809999994,-9.0583045385,-0.54212141865,-1.426,1.1776,2.491,2.0000000000131024e-05,-1.1111111111183902e-05,7.00000000000145e-05,-0.0003949712556117202,0.0002223266693008874,0.000658309615473307
150000000000.0,-1,0.042492214449999996,-0.02513444395,-0.031185147,0.014945,0.033458,0.017104,-3.7186816799999995,-9.058010338999999,-0.5425234913,-1.4259,1.1775,2.4913,1.999999999990898e-05,-1.1111111111183902e-05,5.000000000032756e-06,-0.0003012643793840475,-4.893216409618262e-06,0.0003239286531409036
150000000000.0,-1,0.04847427095,-0.0452086565,-0.05588809835,0.013856,0.030272,0.016038,-3.7189758795,-9.057814206,-0.5434060898,-1.4257,1.1775,2.4914,2.0000000000131024e-05,-1.1111111110961858e-05,5.000000000032756e-06,-0.00037976330093192345,0.00017697668848581927,0.0005126927796137437
150000000000.0,-1,0.046287388,-0.051053419899999994,-0.06142885559999999,0.008504,0.027123,0.013896,-3.7191720124999996,-9.057716139499998,-0.5446025011,-1.4254,1.1774,2.4914,1.999999999990898e-05,-1.1111111111183902e-05,-0.0001300000000000745,-0.00031885768908379575,-0.00010790401513283143,0.0004989475142882505
150000000000.0,-1,0.03601982545,-0.05354430899999999,-0.06749917194999999,0.00314,0.025035,0.016023,-3.719466212,-9.05742194,-0.5463088582,-1.425,1.1774,2.4913,-9.999999999998899e-05,9.999999999998899e-05,4.999999999999449e-05,-0.00021382227635768913,0.00035226569507318395,0.00038115329541277276
150000000000.0,-1,0.0233986669,-0.07156893169999999,-0.062213387599999996,-0.002207,0.021887,0.012814,-3.7197604115,-9.057225806999998,-0.5483094148,-1.4244,1.1773,2.491,5.0000000000105516e-05,1.999999999990898e-05,1.0000000000065512e-05,-0.000724451636997081,0.00010491277902557883,0.00031638528989264003
150000000000.0,-1,0.0153376006,-0.0878479707,-0.049337256149999995,-0.006456,0.025119,0.013866,-3.7200546109999997,-9.0569316075,-0.55055513765,-1.4239,1.1772,2.4907,4.999999999988347e-05,2.0000000000131024e-05,-4.0000000000040004e-05,-9.575809674089442e-06,-0.00025464882678227774,0.00047518979553773377
150000000000.0,-1,-0.00354020065,-0.0768056828,-0.03521568015,-0.00543,0.020848,0.014942,-3.7209372094999997,-9.056441275,-0.5524085944999999,-1.4234,1.1771,2.4905,1.6666666666775853e-05,1.999999999990898e-05,4.999999999999449e-05,0.00027314153680713105,0.0004857633336965428,1.1382469788934202e-05
150000000000.0,-1,-0.00246146915,-0.042904093750000004,-0.0311263071,0.000948,0.018664,0.016024,-3.7220159409999996,-9.055950942499999,-0.5536638456999999,-1.4231,1.177,2.4904,1.666666666655381e-05,2.0000000000131024e-05,-4.999999999999449e-05,-8.189963106230991e-05,-7.531617841216587e-05,0.0003766286828930099
150000000000.0,-1,0.01793636285,0.0027458619999999995,-0.017681389949999998,0.005246,0.021827,0.014957,-3.7229966059999997,-9.055558676499999,-0.5543895378,-1.423,1.1769,2.4905,1.666666666655381e-05,1.999999999990898e-05,4.0000000000040004e-05,9.535349684708372e-05,-3.0419330216080454e-05,0.00032194685080666474
150000000000.0,-1,0.03851071455,0.0317343194,-0.01307226445,0.012718,0.021767,0.013902,-3.7237811379999997,-9.0551664105,-0.5545072176,-1.423,1.1768,2.4907,1.6666666666775853e-05,1.999999999990898e-05,5.999999999994898e-05,-3.355902180834924e-05,0.00022248767978760853,0.0002860059162212991
150000000000.0,-1,0.053897348399999996,0.02976318275,-0.026772154499999996,0.014861,0.021752,0.011769,-3.7241734039999996,-9.054970277499999,-0.5545660575,-1.423,1.1767,2.491,1.6666666666775853e-05,2.0000000000131024e-05,-2.999999999997449e-05,-0.00029345837434213706,9.075924119228418e-05,0.0002687297498087382
150000000000.0,-1,0.04215878835,0.026477955,-0.04021707164999999,0.012698,0.019637,0.013902,-3.7248598695,-9.054676078,-0.5547425772,-1.423,1.1766,2.4912,1.666666666655381e-05,1.999999999990898e-05,-5.999999999994898e-05,5.0711985434936935e-05,-4.8506879026577465e-05,0.0002826610498591897
150000000000.0,-1,0.0284196717,0.0137096967,-0.03494109395,0.008418,0.017543,0.01283,-3.7256444015,-9.0543818785,-0.55522310305,-1.4229,1.1766,2.4913,-5.0000000000105516e-05,2.0000000000131024e-05,-2.0000000000020002e-05,-0.0001439717051034961,0.00020875685629206941,0.0003419027425315413
150000000000.0,-1,0.033352416649999994,-0.021780569649999998,-0.032283491799999994,0.002017,0.016533,0.010684,-3.7259386009999997,-9.0541857455,-0.5560860882499999,-1.4226,1.1765,2.4913,-4.999999999988347e-05,1.999999999990898e-05,3.999999999992898e-05,7.3080928215008e-05,0.0001239937885808562,0.00017024399658627232
150000000000.0,-1,0.029831829299999998,-0.05910467955,-0.05300494325,-0.001158,0.018694,0.008537,-3.7258405344999996,-9.054087678999998,-0.5576649589,-1.4222,1.1765,2.4911,9.999999999998899e-05,1.999999999990898e-05,-2.999999999997449e-05,-4.624828705757089e-05,-0.00010785339657681803,0.0004009979970991395
150000000000.0,-1,0.0414821295,-0.0831800053,-0.06912707585,0.001991,0.011212,0.006418,-3.7252521354999995,-9.054283812,-0.55920460295,-1.4218,1.1765,2.4908,-1.2499999999970868e-05,2.0000000000131024e-05,-9.99999999995449e-06,0.0005835806156360146,5.058536157087623e-05,3.201140984288031e-06
150000000000.0,-1,0.037853669,-0.0459735752,-0.04843504435,-0.002376,0.001655,0.010694,-3.7252521354999995,-9.0541857455,-0.5602931411,-1.4215,1.1765,2.4906,-1.2499999999970868e-05,1.999999999990898e-05,-4.999999999999449e-05,-0.00024411894936116063,-0.0002466151029543173,0.00032935563338654106
150000000000.0,-1,0.039716932499999996,0.00907115125,-0.0016671305000000001,-0.004556,-0.00472,0.009633,-3.7255463349999998,-9.054087678999998,-0.56051869405,-1.4215,1.1765,2.4905,-1.2499999999970868e-05,2.0000000000131024e-05,-9.999999999998899e-05,0.00036649541885247494,-5.8888830594128194e-05,1.2138240568226877e-05
150000000000.0,-1,0.0543680676,0.01399408955,-0.0274193934,-0.007789,-0.00789,0.010698,-3.7258405344999996,-9.053891546,-0.5614012925499999,-1.4212,1.1764,2.4902,-1.2500000000192912e-05,1.999999999990898e-05,6.999999999990347e-05,0.00016832392754273506,0.00034202245462577885,-0.00020541692697051417
150000000000.0,-1,0.032391364949999994,-0.010493115499999999,-0.03829496825,-0.003509,-0.006858,0.009634,-3.7263308669999997,-9.053695413,-0.5621956311999999,-1.4211,1.1764,2.49,-1.2499999999970868e-05,4.999999999988347e-05,3.0000000000085514e-05,8.273459173202546e-05,0.0001360816285691513,-0.000170668748073588
150000000000.0,-1,0.009983169699999999,-0.0437572723,-0.028047019,-0.000243,-0.002615,0.003227,-3.7264289335,-9.053597346499998,-0.5625682839,-1.421,1.1764,2.4899,-1.2499999999970868e-05,5.0000000000105516e-05,-3.0000000000085514e-05,0.00020971865462815487,-0.00019942290158758702,-1.8108415851258997e-06
150000000000.0,-1,0.0056290171,-0.01677917815,-0.012356378999999999,0.001854,-0.005831,0.00537,-3.7266250665,-9.05349928,-0.56240157085,-1.421,1.1763,2.4899,-1.2499999999970868e-05,5.0000000000105516e-05,-1.999999999990898e-05,0.00020218281988260145,0.0002194368770676025,-6.729586722453718e-05
150000000000.0,-1,-0.00930651085,0.00152003075,-0.00328522775,-0.003498,-0.007918,0.005365,-3.7273115319999994,-9.0532050805,-0.5623525375999999,-1.4211,1.1763,2.4898,-1.2499999999970868e-05,4.999999999988347e-05,0.00017999999999995797,-1.3038946298227216e-06,0.00013081253631419543,-0.00021600708528568546
150000000000.0,-1,-0.0035990405499999995,-0.00171616375,-0.028713871199999998,-0.008831,-0.008937,0.003223,-3.7278018645,-9.0530089475,-0.5632449427499999,-1.4208,1.1762,2.4895,-1.999999999990898e-05,4.999999999988347e-05,-5.999999999994898e-05,0.0001972094959092896,-9.693129960641755e-05,3.6135954267546566e-05
150000000000.0,-1,0.0082179727,-0.004393379199999999,-0.0440710851,-0.009903,-0.009992,0.002155,-3.7278999309999996,-9.052910880999999,-0.5645100005999999,-1.4205,1.1762,2.4891,-2.0000000000131024e-05,5.0000000000105516e-05,4.999999999999449e-05,0.0005019827286441014,6.510074122223486e-06,-0.00047129556826153163
150000000000.0,-1,0.022771041299999996,-0.012493672099999999,-0.026948674199999998,-0.010997,-0.013179,0.002158,-3.7278018645,-9.0528128145,-0.5654612456499999,-1.4203,1.1762,2.4887,-1.999999999990898e-05,3.333333333332966e-05,-4.999999999999449e-05,0.00011634377087421655,-0.00010956712159226889,-8.58022858389873e-05
150000000000.0,-1,0.02566400305,-0.00877695175,-0.039716932499999996,-0.009971,-0.01745,0.003233,-3.727703798,-9.0528128145,-0.5664615239499999,-1.42,1.1761,2.4883,-2.0000000000131024e-05,3.333333333355171e-05,-4.0000000000040004e-05,0.00012433929801369814,-1.3144806932929853e-05,-0.00021100109437810488
150000000000.0,-1,0.025673809699999998,-0.008521978849999999,-0.028174505449999998,-0.011053,-0.018507,0.004299,-3.727703798,-9.0528128145,-0.5672362492999999,-1.4198,1.1761,2.4879,-1.999999999990898e-05,3.333333333332966e-05,0.000140000000000029,4.7282261031122985e-05,0.00016732694898347056,-0.0003165682097026057
150000000000.0,-1,0.03168528615,-0.02001537265,-0.025232510450000002,-0.005737,-0.020682,0.00431,-3.7276057314999997,-9.0528128145,-0.56748141555,-1.4197,1.1761,2.4876,-1.666666666655381e-05,5.0000000000105516e-05,-4.0000000000040004e-05,2.4177865310726077e-05,-0.00010566684020973938,-0.0001643113404181662
150000000000.0,-1,0.03347009644999999,-0.0300671889,-0.030459454899999995,-0.005736,-0.021744,0.002175,-3.7273115319999994,-9.052910880999999,-0.56763832195,-1.4197,1.1762,2.4873,-1.6666666666775853e-05,4.999999999988347e-05,9.00000000000345e-05,-7.181367273267902e-05,-0.00018517666422024348,-0.00012300074318138954
150000000000.0,-1,0.022555295,-0.026585828149999997,-0.018005009399999997,-0.008937,-0.021717,0.002168,-3.7271153989999997,-9.0530089475,-0.5678246483,-1.4196,1.1762,2.4871,-1.6666666666775853e-05,4.999999999988347e-05,-4.999999999999449e-05,0.00024020264121715762,0.0003213476120647041,-0.00043746825322443783
150000000000.0,-1,0.029272850249999996,-0.010875574849999998,-0.0002549729,-0.013232,-0.023815,0.004298,-3.7271153989999997,-9.0530089475,-0.5680600079,-1.4195,1.1762,2.4867,-1.666666666655381e-05,5.0000000000105516e-05,-4.999999999999449e-05,0.00020981212941961758,-0.000362700450989184,-3.3247130499791666e-05
150000000000.0,-1,0.028282378599999998,-0.011375713999999999,-0.0092770909,-0.013232,-0.023815,0.004296,-3.7272134654999998,-9.052910880999999,-0.5684816938499999,-1.4194,1.1762,2.4864,-1.666666666655381e-05,5.0000000000105516e-05,-2.0000000000020002e-05,0.0003870473757001669,-0.00016352514922779449,-0.00038643756356027126
150000000000.0,-1,0.0094732239,-0.026997707449999995,-0.028331411849999998,-0.015399,-0.029122,0.002166,-3.7272134654999998,-9.052910880999999,-0.56916815935,-1.4193,1.1762,2.4859,-1.6666666666775853e-05,4.999999999988347e-05,3.999999999992898e-05,0.00029019908798644245,0.00011798029756704409,-0.00023414142938582572
150000000000.0,-1,0.011454167199999999,-0.0316362529,-0.019858466249999998,-0.016436,-0.025915,0.00109,-3.7271153989999997,-9.052910880999999,-0.5698644315,-1.4191,1.1762,2.4854,-1.999999999990898e-05,4.999999999988347e-05,1.0000000000065512e-05,0.00033441294254488163,-0.00031727668121717123,-0.0003812450279903068
150000000000.0,-1,0.0074432473499999995,-0.019377940399999998,-0.019073934249999997,-0.018585,-0.029092,-0.001044,-3.7270173324999996,-9.0528128145,-0.57079606325,-1.4188,1.1762,2.4848,-2.0000000000131024e-05,5.0000000000105516e-05,9.99999999995449e-06,0.00021520942770614226,0.00030238912306002064,-0.0002750614228741455
150000000000.0,-1,-0.013052651149999999,-0.00010787314999999999,-0.017730423199999998,-0.018572,-0.028025,-0.002112,-3.7273115319999994,-9.052714748,-0.57183556815,-1.4186,1.1761,2.4843,-1.999999999990898e-05,9.999999999998899e-05,-4.499999999996174e-05,0.00022155887634767168,-0.0002416024247735571,-0.0002089989765838851
150000000000.0,-1,-0.0224376152,0.008090486249999999,-0.00826700595,-0.016431,-0.026977,-0.002109,-3.7276057314999997,-9.052518615,-0.5724730003999999,-1.4184,1.1761,2.4838,-2.0000000000131024e-05,4.999999999988347e-05,-4.499999999996174e-05,0.0003271307798660139,9.905751943817265e-06,-0.0005277762252835494
150000000000.0,-1,-0.021829602899999998,0.0045502856,-0.0095516771,-0.014264,-0.02486,-0.00531,-3.7278018645,-9.052420548499999,-0.57299275285,-1.4183,1.176,2.4834,-1.999999999990898e-05,5.0000000000105516e-05,6.999999999990347e-05,-0.00021030725972459585,0.0003466768085262917,-0.00025502703455249076
150000000000.0,-1,-0.028115665550000002,0.0082179727,-0.0028439284999999996,-0.007838,-0.021716,-0.005303,-3.7278999309999996,-9.052322482,-0.57311043265,-1.4183,1.176,2.4831,-6.666666666665932e-05,9.999999999998899e-05,4.0000000000040004e-05,0.00012464579705473433,-6.21533386053752e-05,-0.0003366737165606537
150000000000.0,-1,-0.03339164325,0.01562199345,-0.004128599649999999,0.000731,-0.017524,-0.005294,-3.7281941305,-9.0522244155,-0.5725710668999999,-1.4184,1.176,2.4831,-6.666666666665932e-05,2.4999999999941735e-05,-7.00000000000145e-05,-0.00013593790897892255,-6.350902491214505e-05,-4.807079829172167e-05
150000000000.0,-1,-0.022525875049999998,0.00644296905,-0.0117091401,0.009265,-0.017594,-0.005278,-3.728096064,-9.052322482,-0.57142368885,-1.4187,1.176,2.4832,-6.666666666665932e-05,2.4999999999941735e-05,0.00012000000000000899,-8.156655442337346e-05,0.00027160636550638273,-0.0003799829336221805
150000000000.0,-1,-0.01226811915,0.01581812645,-0.02382035285,0.007108,-0.019709,-0.004209,-3.728096064,-9.052420548499999,-0.5703939906,-1.419,1.176,2.4833,-0.0001500000000000945,2.500000000016378e-05,-7.999999999996898e-05,-0.00019159805053448054,3.099818055685155e-05,-0.0002218933783519894
150000000000.0,-1,0.0049915848499999995,0.02501676415,-0.02680157445,0.000687,-0.020723,-0.002084,-3.7279979974999997,-9.052518615,-0.5699526913499999,-1.4191,1.1761,2.4832,-0.00014999999999987246,2.4999999999941735e-05,-7.999999999996898e-05,0.00018131095633333594,-0.00012422755222663007,-0.0002678817846168968
150000000000.0,-1,0.00350097405,0.0049425516,-0.02099603765,-0.003571,-0.020685,-0.004226,-3.727703798,-9.0526166815,-0.569766365,-1.4191,1.1761,2.4831,-0.0001500000000000945,3.333333333332966e-05,-2.0000000000020002e-05,5.098634318767559e-05,-7.967667782771137e-05,-0.0002429414591786916
150000000000.0,-1,-0.0074432473499999995,-0.024408751849999997,-0.0183580488,-0.006781,-0.021724,-0.00423,-3.7274095984999995,-9.052714748,-0.56987423815,-1.4191,1.1761,2.4828,-0.0001500000000000945,3.333333333332966e-05,2.999999999997449e-05,-0.00016695326626980922,0.0003316476279888736,-0.00033495299193875283
150000000000.0,-1,-0.030498681499999996,-0.03421540185,-0.0024516625,-0.009988,-0.023827,-0.006366,-3.7272134654999998,-9.0528128145,-0.5697565583499999,-1.4191,1.1761,2.4826,-0.00014999999999987246,3.333333333332966e-05,-6.0000000000060005e-05,-5.816891132326418e-05,0.00016564640033234213,-0.000371628804630042
150000000000.0,-1,-0.02144714355,-0.0213981103,0.00781590005,-0.013239,-0.030193,-0.00636,-3.7270173324999996,-9.052910880999999,-0.56969771845,-1.4191,1.1762,2.4823,-0.0001500000000000945,0.00029999999999996696,0.0014800000000000368,0.00033801964877677726,-0.0030483621639112446,0.0009146762363907435
150000000000.0,-1,0.00018632635,-0.0014415775499999998,-0.0134154972,-0.013251,-0.032323,-0.007423,-3.7264289335,-9.053107014,-0.56987423815,-1.419,1.1762,2.4819,-9.999999999998899e-05,5.0000000000105516e-05,4.0000000000040004e-05,2.1582398879615994e-05,0.0001441017592151983,-0.0004458195151113564
150000000000.0,-1,-0.0010885381499999998,0.011356100699999998,-0.039932678799999996,-0.013212,-0.029123,-0.010631,-3.7257424679999995,-9.053401213499999,-0.5705901235999999,-1.4188,1.1763,2.4813,-1.999999999990898e-05,4.999999999988347e-05,-1.666666666666483e-05,-9.883221953588261e-05,-8.652538163844703e-05,-0.00041687021106850963
150000000000.0,-1,0.0070313680499999994,0.01003220295,-0.033244543499999994,-0.012138,-0.028065,-0.010631,-3.724957936,-9.053695413,-0.571139296,-1.4187,1.1764,2.4809,-2.0000000000131024e-05,-1.2499999999970868e-05,-1.666666666666483e-05,-7.087020445695202e-05,-0.0002640855707249923,-0.0002841197355700764
150000000000.0,-1,0.00199074995,0.0251246373,-0.02740958675,-0.007872,-0.0281,-0.010623,-3.7242714704999997,-9.053989612499999,-0.5712962024,-1.4186,1.1764,2.4805,-1.999999999990898e-05,-1.2499999999970868e-05,-1.666666666666483e-05,6.913343346059975e-05,0.00010123645567716721,-0.0003781315688335951
150000000000.0,-1,-0.03756927615,0.0409525704,-0.03301899055,-0.000359,-0.021769,-0.009551,-3.7242714704999997,-9.053891546,-0.5712177492,-1.4186,1.1764,2.4803,-2.0000000000131024e-05,-1.2499999999970868e-05,9.99999999995449e-06,-0.00021682916617793424,-9.327265159564391e-05,-0.00015702000502360036
150000000000.0,-1,-0.06891132955,0.050808253649999996,0.007992419749999998,0.002901,-0.014336,-0.009554,-3.7248598695,-9.0537934795,-0.5703351507,-1.4189,1.1764,2.4804,-1.999999999990898e-05,-1.2499999999970868e-05,2.0000000000020002e-05,-9.500806640350135e-05,3.072778872170723e-05,-0.00032169562789441386
150000000000.0,-1,-0.05526047275,0.05675108354999999,0.030498681499999996,0.003974,-0.014345,-0.010616,-3.7251540689999993,-9.053695413,-0.56889357315,-1.4193,1.1764,2.4806,9.090909090847532e-06,-1.2500000000192912e-05,-4.999999999999449e-05,3.095856521051488e-05,-0.0007061043029834568,6.769637266312856e-06
150000000000.0,-1,-0.06694999955,0.0391873734,0.0094928372,0.00293,-0.012204,-0.011685,-3.7254482684999997,-9.053695413,-0.5679423281,-1.4195,1.1764,2.4808,9.090909091069577e-06,-1.2499999999970868e-05,9.99999999995449e-06,-0.00019071772204037885,0.00023403370798313894,-0.0002822443388903473
150000000000.0,-1,-0.06176228169999999,-0.0206528049,-0.02299659425,0.004044,-0.006884,-0.012758,-3.7251540689999993,-9.0537934795,-0.5676285153,-1.4196,1.1764,2.4808,9.090909090847532e-06,-1.2499999999970868e-05,-9.99999999995449e-06,-0.0005527871968280529,-0.0002579258369734827,0.0001530371438271949
150000000000.0,-1,-0.06381187155,-0.049739328799999996,-0.024016485849999998,0.005105,-0.006894,-0.011686,-3.72456567,-9.054087678999998,-0.5673539291,-1.4196,1.1765,2.4808,9.090909090847532e-06,-1.2499999999970868e-05,-2.0000000000020002e-05,-5.933422283121992e-05,-0.0006927064063928512,8.27558293723385e-05
150000000000.0,-1,-0.0557606119,-0.019015094349999997,0.0037853669,0.000802,-0.007929,-0.006353,-3.72456567,-9.054087678999998,-0.56687340325,-1.4198,1.1765,2.4808,9.090909090847532e-06,-3.333333333332966e-05,-4.0000000000040004e-05,4.539168953132666e-05,-0.0003131994009273331,8.74592308708344e-06
150000000000.0,-1,-0.048895956899999996,0.013131104349999999,-0.0017946169499999999,-0.000255,-0.004727,-0.003156,-3.724957936,-9.053891546,-0.56682437,-1.4198,1.1764,2.4808,9.090909091069577e-06,-3.333333333332966e-05,7.00000000000145e-05,-0.0003045055594728119,3.7347468779369564e-05,1.7213580643105075e-05
150000000000.0,-1,-0.05557428555,0.025526709949999997,-0.028439284999999995,0.00403,0.001625,0.003248,-3.7260366675,-9.05349928,-0.5671185695,-1.4198,1.1763,2.4808,9.090909090847532e-06,-3.333333333332966e-05,-2.999999999997449e-05,-4.204892589099174e-05,-7.502636787060091e-05,-2.6962348468551056e-05
150000000000.0,-1,-0.08048317655000001,0.028919810849999995,-0.0277920461,0.009389,0.004778,0.003256,-3.7276057314999997,-9.0528128145,-0.56701069635,-1.4198,1.1761,2.4809,9.090909090847532e-06,-4.999999999988347e-05,-2.0000000000020002e-05,-0.00026857677871294783,-0.0001358830974000913,0.0002572130064102396
150000000000.0,-1,-0.09698776849999999,0.04873905049999999,-0.01962310665,0.016935,0.013243,0.001125,-3.7293709285,-9.052126349,-0.5663536508,-1.4201,1.176,2.4813,9.090909090847532e-06,-5.0000000000105516e-05,-2.0000000000020002e-05,-0.0005214501848564979,-0.00021634374113288501,0.00039586947663927674
150000000000.0,-1,-0.08508249539999999,0.05312262305,0.008119906199999999,0.022337,0.021723,0.001125,-3.7309399924999997,-9.05153795,-0.5649218799,-1.4205,1.1758,2.482,9.090909091069577e-06,-9.999999999998899e-05,4.0000000000040004e-05,-0.00020657177203053934,0.0002019663409791317,0.00015006364649483572
150000000000.0,-1,-0.0674501387,0.04398282525,0.00914960445,0.023419,0.024908,0.00326,-3.7323129234999994,-9.051145684,-0.5635587555499999,-1.4209,1.1757,2.4827,9.090909090847532e-06,-9.999999999998899e-05,-5.999999999994898e-05,0.0001025350179681972,-0.0007159507952720912,0.0005496051266820068
150000000000.0,-1,-0.048690017249999995,0.026811381099999997,-0.00791396655,0.029896,0.032317,5.9e-05,-3.7330974555,-9.050851484499999,-0.5623525375999999,-1.4213,1.1756,2.4834,4.999999999988347e-05,-9.999999999998899e-05,-3.0000000000085514e-05,-0.00036616898448738056,-0.0001506073170571831,0.0004915335670081511
150000000000.0,-1,-0.022251288850000002,0.0167105316,0.01005181625,0.032041,0.032302,-0.002071,-3.733195522,-9.050949550999999,-0.5605677272999999,-1.4218,1.1756,2.4842,5.0000000000105516e-05,-9.999999999998899e-05,-2.999999999997449e-05,9.359815466081223e-05,-0.00031199978486795565,0.00044523036699262164
150000000000.0,-1,0.010002783,0.036000212149999995,0.033862362449999996,0.030946,0.028049,-0.003133,-3.7328032559999995,-9.0512437505,-0.5583416177499999,-1.4223,1.1757,2.4851,3.333333333332966e-05,-9.999999999998899e-05,-9.99999999995449e-06,-0.00010577366764885632,-0.00010595664624046819,0.0003949297384435724
150000000000.0,-1,0.021368690349999997,0.045895122,0.05099458,0.022402,0.025988,-0.004211,-3.7324109899999995,-9.05153795,-0.5563214478499999,-1.4228,1.1758,2.4859,3.333333333332966e-05,-4.999999999988347e-05,-1.0000000000065512e-05,7.631649464601153e-06,-0.00019124903058842513,0.00021922757644832203
150000000000.0,-1,0.026330855249999997,0.0132389775,0.025830716099999998,0.013856,0.023928,-0.005291,-3.7315283915,-9.051930215999999,-0.55539962275,-1.423,1.1759,2.4864,3.333333333332966e-05,-5.0000000000105516e-05,-2.999999999997449e-05,0.00019181197440665265,-0.000318967279310689,0.0003386371712381653
150000000000.0,-1,-0.0033538743,-0.0396777059,-0.00316754795,0.014914,0.022854,-0.005288,-3.7307438594999995,-9.052322482,-0.5549877434499999,-1.4231,1.176,2.4868,9.999999999998899e-05,-9.999999999998899e-05,4.0000000000040004e-05,3.819308987651482e-05,0.0001770530200082554,0.00020049855991599586
150000000000.0,-1,-0.03337202995,-0.06096794305,0.01020872265,0.01279,0.023937,-0.005293,-3.7301554605,-9.052518615,-0.5544385710499999,-1.4232,1.1761,2.4871,0.0008000000000001339,-0.00029999999999996696,-0.0013600000000000279,-0.00035421724144057976,0.0035480799352696213,-0.0010918402827249096
150000000000.0,-1,-0.03501954715,-0.0335779696,0.01458248855,0.01279,0.023936,-0.005292,-3.729861261,-9.052714748,-0.553879592,-1.4234,1.1761,2.4875,4.999999999988347e-05,-0.00010000000000021103,4.0000000000040004e-05,-0.00013943604125721265,-0.00024367084109444548,0.0005060629840625275
150000000000.0,-1,-0.03796154215,0.013346850649999999,-0.00053936575,0.014934,0.027112,-0.00209,-3.7300573939999997,-9.0526166815,-0.55357558585,-1.4235,1.1761,2.4879,5.0000000000105516e-05,-5.0000000000105516e-05,2.999999999997449e-05,8.702949891725709e-05,0.0003717787975663356,9.577340781286026e-05
150000000000.0,-1,-0.045934348599999994,0.037186816799999994,0.00214765635,0.019207,0.029206,5.2e-05,-3.7307438594999995,-9.052420548499999,-0.5529675735499999,-1.4237,1.176,2.4884,-9.999999999998899e-05,-4.999999999988347e-05,0.00027999999999994696,-0.00040399319708539494,0.0003945171247483614,0.00010883313010756623
150000000000.0,-1,-0.051582978999999994,0.032901310749999996,0.01073828175,0.022418,0.032373,0.003257,-3.731822591,-9.0520282825,-0.5519771019,-1.424,1.1759,2.4891,0.00019999999999997797,-9.999999999998899e-05,-0.00040999999999991044,-6.57548403293351e-05,-0.0003311959601763892,0.0006124169207195607
150000000000.0,-1,-0.046542360899999996,0.02103526425,0.010493115499999999,0.025676,0.040868,0.005385,-3.7329013224999996,-9.0516360165,-0.5509866302499999,-1.4242,1.1758,2.4898,9.999999999998899e-05,-9.999999999998899e-05,8.999999999992347e-05,-0.0003263841426839331,0.00045363190965752587,0.0003202032982199121
150000000000.0,-1,-0.04827813795,0.0046875787,0.01783829635,0.028933,0.045108,0.001116,-3.7334897215,-9.051439883499999,-0.54965292585,-1.4246,1.1758,2.4906,3.333333333332966e-05,-9.999999999998899e-05,4.0000000000040004e-05,6.623662588323143e-05,0.0006855512263665986,0.00031459384690712966
150000000000.0,-1,-0.024604884849999998,-0.01589657965,0.024173392250000002,0.029998,0.044034,5.3e-05,-3.733587788,-9.05153795,-0.54820154165,-1.425,1.1758,2.4915,3.333333333332966e-05,-9.999999999998899e-05,2.0000000000020002e-05,-0.0002930252815847023,4.847099397409238e-07,0.0004981951015765596
150000000000.0,-1,-0.0026870221,-0.013052651149999999,0.00495235825,0.023583,0.04302,0.001111,-3.7332935884999996,-9.051734083,-0.5473875897,-1.4252,1.1758,2.4922,3.333333333332966e-05,-4.999999999988347e-05,-4.0000000000040004e-05,0.00010069803722512205,0.0006614797119190996,0.00029406253809005634
150000000000.0,-1,0.01685763135,-0.01075789505,-0.023751706299999998,0.020364,0.040916,0.001108,-3.7328032559999995,-9.051930215999999,-0.54741700965,-1.4252,1.1759,2.4927,4.999999999988347e-05,-5.0000000000105516e-05,0.0001100000000000545,-0.00048214538968482934,2.4935995264874222e-05,0.000596740526717987
150000000000.0,-1,0.03390158905,-0.0051582979,-0.04314926,0.016073,0.03882,0.00217,-3.7322148569999993,-9.052126349,-0.5480740552,-1.425,1.176,2.4929,5.0000000000105516e-05,-9.999999999998899e-05,-2.0000000000020002e-05,0.0002625795511030926,-8.039934778181212e-05,0.0002066982525281702
150000000000.0,-1,0.0245558516,-0.0094928372,-0.06898978274999999,0.011778,0.037788,0.005366,-3.732018724,-9.052126349,-0.5496038926,-1.4246,1.176,2.4929,9.999999999998899e-05,-9.999999999998899e-05,-4.999999999999449e-05,3.7045415572922735e-05,0.0001680453896888423,0.0002707141380615674
150000000000.0,-1,0.00840429905,-0.028664837949999997,-0.05851628055,0.006417,0.036764,0.008559,-3.7321167905,-9.051930215999999,-0.5512514098,-1.4242,1.1759,2.4929,9.999999999998899e-05,-5.0000000000105516e-05,2.0000000000020002e-05,-5.4511986788519096e-05,1.54970532193488e-05,0.0004717602961754608
150000000000.0,-1,-0.00944380395,-0.039609059349999996,-0.03060655465,0.006427,0.038895,0.009623,-3.7327051895,-9.0516360165,-0.5526831807,-1.4238,1.1758,2.493,9.999999999998899e-05,-4.999999999988347e-05,-0.0001100000000000545,0.0001929815182513117,0.00022855513538244665,7.218480395065896e-05
150000000000.0,-1,-0.01713221755,-0.046326614599999996,-0.020986230999999998,0.013951,0.045228,0.008557,-3.733195522,-9.051341816999999,-0.5536246190999999,-1.4236,1.1758,2.4932,9.999999999998899e-05,-9.999999999998899e-05,-4.999999999999449e-05,-0.00021735659102395388,-0.00023603083451373408,0.0005386938514315709
150000000000.0,-1,0.00965955025,-0.0414821295,-0.04115851005,0.018286,0.050527,0.003217,-3.7329013224999996,-9.051439883499999,-0.55469354395,-1.4233,1.1758,2.4935,9.999999999998899e-05,-9.999999999998899e-05,9.99999999995449e-06,0.0005536118760045561,9.752620725222982e-05,0.00017825408856131375
150000000000.0,-1,0.0192014207,0.0020986231,-0.025232510450000002,0.02147,0.047307,0.001093,-3.7325090564999996,-9.05153795,-0.5549190969,-1.4232,1.1758,2.4939,0.00019999999999997797,-9.999999999998899e-05,-8.999999999992347e-05,0.00019992428614545865,-2.704878758930107e-05,0.00017199924338040518
150000000000.0,-1,0.03368584275,0.03688281065,0.006148769549999999,0.020409,0.047316,2.3e-05,-3.732018724,-9.0518321495,-0.5545758641499999,-1.4233,1.1759,2.4945,3.333333333332966e-05,-9.999999999998899e-05,0.00013999999999991797,-7.66417573592193e-05,-4.456485285242451e-05,0.0004098716839124883
150000000000.0,-1,0.03437230825,0.018152109149999998,-0.016190779149999997,0.021458,0.045177,2.7e-05,-3.7313322584999997,-9.0520282825,-0.5546739306499999,-1.4232,1.1759,2.495,3.333333333332966e-05,-9.999999999998899e-05,-9.99999999995449e-06,0.0001071602844677777,8.997675228306079e-05,0.000472830633082566
150000000000.0,-1,0.01538663385,-0.009169217749999998,-0.03994248545,0.020372,0.043056,2.8e-05,-3.7307438594999995,-9.052322482,-0.55516426315,-1.4231,1.176,2.4953,3.333333333332966e-05,-9.999999999998899e-05,-9.999999999998899e-05,-4.640017922041828e-05,8.177058572056417e-05,0.0005957828153619893
150000000000.0,-1,0.01554354025,-0.01062060195,-0.03464689445,0.020392,0.043061,-0.004243,-3.729861261,-9.0526166815,-0.5555271091999999,-1.4229,1.1761,2.4957,0.00019999999999997797,-9.999999999998899e-05,-7.999999999996898e-05,0.0007034176734297404,0.0002916490090265622,0.00010248236681498213
150000000000.0,-1,0.0354216198,-0.0022751428,-0.029351303449999998,0.025741,0.043021,-0.007437,-3.72848833,-9.0532050805,-0.5554290426999999,-1.4229,1.1762,2.4961,0.00010000000000021103,-9.999999999998899e-05,-9.999999999998899e-05,-9.107199170355074e-05,0.00015936935078442183,0.0005515216609031093
150000000000.0,-1,0.047081726649999996,0.0005295590999999999,-0.03262672455,0.028923,0.040864,-0.00743,-3.7268211995,-9.053891546,-0.5549975501,-1.423,1.1764,2.4966,9.999999999998899e-05,-9.999999999998899e-05,-3.500000000000725e-05,0.0004877549174417961,-0.00023598333158880713,0.00034237072353215936
150000000000.0,-1,0.030577134699999998,-0.0051190713,-0.01344491715,0.02999,0.040856,-0.00743,-3.7254482684999997,-9.054578011499999,-0.55398746515,-1.4232,1.1766,2.4973,9.999999999998899e-05,-0.00019999999999997797,-3.500000000000725e-05,0.0002401887858389795,-0.00018602161224556824,0.000355175956618492
150000000000.0,-1,0.0167889848,-0.0107480884,-0.009345737449999999,0.02997,0.039788,-0.005294,-3.724369537,-9.055068343999999,-0.5528498937499999,-1.4234,1.1767,2.498,9.999999999998899e-05,-0.00010000000000021103,7.00000000000145e-05,0.0003831982822408708,-3.492183344966371e-05,0.0003993409350422361
150000000000.0,-1,0.026291628649999996,-0.036225765099999994,-0.028213732049999996,0.028905,0.040862,-0.004232,-3.7230946725,-9.055558676499999,-0.55222226815,-1.4235,1.1769,2.4986,9.999999999998899e-05,-9.999999999998899e-05,-0.0001300000000000745,0.0001956214737610651,-0.00022096925476544627,0.00048194584260352613
150000000000.0,-1,0.03574523925,-0.047925098549999996,-0.019966339399999998,0.021389,0.035596,-0.003171,-3.7217217415,-9.0561470755,-0.5518005822,-1.4236,1.177,2.4991,3.333333333332966e-05,-0.00019999999999997797,7.999999999996898e-05,0.00012992822101187684,-0.00010985646683581152,0.0005053777254659941
150000000000.0,-1,0.05237731765,-0.04514000995,-0.02207476915,0.01495,0.03245,-0.001045,-3.7204468769999997,-9.0567354745,-0.55192806865,-1.4235,1.1772,2.4994,3.333333333332966e-05,-9.999999999998899e-05,8.000000000008001e-05,7.273802199914137e-05,-0.00023179688466834492,0.00047517134485630663
150000000000.0,-1,0.07571714465,-0.05130839279999999,-0.0220845758,0.012818,0.031405,-0.003187,-3.7186816799999995,-9.05742194,-0.5522320748,-1.4234,1.1774,2.4996,3.333333333332966e-05,-9.999999999998899e-05,9.99999999995449e-06,0.00021456357397964254,-0.00015465145301152283,0.00039623327518434337
150000000000.0,-1,0.0864161998,-0.06669502664999999,-0.02331040705,0.008549,0.029313,-0.006398,-3.716328084,-9.058402605,-0.5528008605,-1.4231,1.1776,2.4997,9.999999999998899e-05,-9.999999999998899e-05,7.999999999996898e-05,-0.00019676884287145313,-9.6380959972997e-05,0.000505333123267615
150000000000.0,-1,0.07377542795,-0.0704509736,-0.03994248545,0.007477,0.028258,-0.00747,-3.713974488,-9.059187137,-0.5538207521,-1.4228,1.1779,2.4996,9.999999999998899e-05,-9.999999999998899e-05,-9.999999999998899e-05,0.0001306144259736186,-0.00035287941293860037,0.00023904996373858012
150000000000.0,-1,0.0468365604,-0.05129858615,-0.029920089149999995,0.003184,0.027226,-0.004277,-3.712405424,-9.0598736025,-0.5550171634,-1.4224,1.178,2.4996,3.333333333332966e-05,-9.999999999998899e-05,6.0000000000060005e-05,-0.00018231531947532353,-0.00033352767526961813,0.0003692941009854067
150000000000.0,-1,0.04700327345,-0.0326169179,-0.0337544893,0.004199,0.022952,-0.001068,-3.7112286259999996,-9.0602658685,-0.5561155082,-1.4221,1.1781,2.4995,3.333333333332966e-05,-5.0000000000105516e-05,9.99999999995449e-06,-0.0004306611976141461,-0.00020140745393382176,0.0004094300945296503
150000000000.0,-1,0.028517738199999997,0.0036873003999999994,-0.03541181315,0.012721,0.020753,-0.002118,-3.7105421604999997,-9.060560068,-0.5565568074499999,-1.4219,1.1782,2.4996,3.333333333332966e-05,-4.999999999988347e-05,-9.99999999995449e-06,-0.00015592849220658067,-0.00021043627469574666,0.00040755533025294
150000000000.0,-1,0.005491723999999999,0.00626644935,-0.0515241391,0.021285,0.023881,-0.003176,-3.7100518279999997,-9.0606581345,-0.5564489343,-1.4219,1.1782,2.4999,-1.666666666655381e-05,-9.999999999998899e-05,9.00000000000345e-05,-0.0004519703888536952,-0.00026164729037514434,0.0002772809568942769
150000000000.0,-1,-0.0141019627,0.0059232166000000004,-0.024693144699999996,0.026642,0.024907,-0.00637,-3.7096595619999997,-9.060952334,-0.55530155625,-1.4222,1.1783,2.5005,-1.6666666666775853e-05,-9.999999999998899e-05,-2.0000000000020002e-05,-0.00038028232730580314,-0.0001689308493175723,0.00032196236470038997
150000000000.0,-1,-0.022368968649999998,0.02923362365,0.017092990949999998,0.02877,0.02276,-0.008496,-3.709267296,-9.061246533499999,-0.5532519664,-1.4227,1.1784,2.5013,-1.6666666666775853e-05,-9.999999999998899e-05,4.999999999999449e-05,-0.0006565870128234508,-0.00041179042092709395,0.00045438366447125844
150000000000.0,-1,0.0091594111,0.02986124925,0.021368690349999997,0.026638,0.019586,-0.013831,-3.708090498,-9.0618349325,-0.5512416031499999,-1.4232,1.1785,2.502,-1.666666666655381e-05,-9.999999999998899e-05,2.999999999997449e-05,-7.476032925879394e-05,-2.1952548315384846e-05,0.0002571172590979387
150000000000.0,-1,0.03986403225,0.019985952699999997,0.00463854545,0.026601,0.014259,-0.014891,-3.7061291679999995,-9.062717530999999,-0.5493194997499999,-1.4236,1.1788,2.5027,-1.666666666655381e-05,-9.999999999998899e-05,0.000140000000000029,-0.0005365615148140712,-0.00029426183329106514,0.0002764324680972763
150000000000.0,-1,0.06385109815,0.0032165811999999997,-0.0140235095,0.026574,0.008935,-0.018087,-3.7034813724999998,-9.063894329,-0.5475641093999999,-1.424,1.1791,2.5032,-1.6666666666775853e-05,-9.999999999998899e-05,0.00012000000000000899,-0.0004295629962736136,0.00026333534276745674,1.9957543865523064e-05
150000000000.0,-1,0.08008110389999999,-0.00601147645,-0.0385009079,0.023376,0.006836,-0.022362,-3.700245178,-9.065365326499998,-0.5462794382499999,-1.4242,1.1795,2.5035,9.999999999998899e-05,-9.999999999998899e-05,-6.0000000000060005e-05,-0.0002689116345004905,-0.00031525933799025907,0.00026707091655708837
150000000000.0,-1,0.0870242121,-0.023967452599999998,-0.045365562899999996,0.020165,0.005798,-0.02237,-3.696714784,-9.066836324,-0.5454066463999999,-1.4243,1.1799,2.5038,-9.999999999998899e-05,-5.0000000000105516e-05,9.999999999998899e-05,-0.0006733264594978028,0.0001560878527555598,0.00026846476945774356
150000000000.0,-1,0.05951655884999999,-0.0336564228,-0.04639526115,0.014793,0.002644,-0.020243,-3.6937727889999996,-9.068013121999998,-0.54496534715,-1.4243,1.1802,2.5038,9.999999999998899e-05,-4.999999999988347e-05,-2.999999999997449e-05,-1.618415259052597e-05,1.8326297363868704e-05,-6.60867282640254e-05
150000000000.0,-1,0.00622722275,-0.0304202283,-0.0239478393,0.013726,0.004781,-0.017047,-3.6918114589999997,-9.068895720499999,-0.5442298483999999,-1.4244,1.1804,2.504,0.00019999999999997797,-9.999999999998899e-05,-0.000260000000000038,-6.64843773321433e-05,-0.00020396739529027208,8.252921742091246e-05
150000000000.0,-1,-0.025595356499999996,-0.0269290609,-0.010502922149999998,0.011563,0.000538,-0.01811,-3.6903404614999995,-9.069582186,-0.5433080232999999,-1.4246,1.1806,2.5042,-5.0000000000105516e-05,-9.999999999998899e-05,1.0000000000065512e-05,-0.00017704065131685098,-7.719809908968145e-05,6.086084840228878e-05
150000000000.0,-1,-0.04155077605,-0.02303582085,-0.011640493549999999,0.010477,-0.000521,-0.015974,-3.6893597965,-9.069974452,-0.5424646513999999,-1.4248,1.1807,2.5044,-4.999999999988347e-05,-0.00010000000000021103,0.000140000000000029,-0.0004339600224538831,-4.517832057371329e-05,0.00025811623648897
150000000000.0,-1,-0.034823414149999996,-0.02356537995,-0.02170211645,0.009431,0.00162,-0.017046,-3.6881829984999994,-9.0704647845,-0.54198412555,-1.4249,1.1809,2.5046,0.00019999999999997797,-9.999999999998899e-05,-0.0002700000000001035,-4.131667265072636e-05,-0.00043072909298591533,0.00013476401759460188
150000000000.0,-1,-0.0072569209999999995,-0.015023787799999999,-0.030626167949999998,0.008358,0.001629,-0.01598,-3.6867120009999996,-9.07115125,-0.5417389592999999,-1.4249,1.181,2.5046,9.999999999998899e-05,-5.0000000000105516e-05,4.0000000000040004e-05,-0.00030084925159523657,-0.00013172004681050176,8.955410033539835e-06
150000000000.0,-1,-0.0013925443,-0.010071429549999998,-0.02888058425,0.009398,-0.001576,-0.015973,-3.6852410035,-9.071739649,-0.5413859199,-1.4249,1.1812,2.5047,1.999999999990898e-05,-4.999999999988347e-05,1.0000000000065512e-05,-0.0002638133897989725,-0.00013864807587316008,0.00012353151645205784
150000000000.0,-1,0.01389602305,-0.0112776475,-0.029733762799999997,0.006171,-0.004746,-0.015974,-3.6834758064999997,-9.072426114499999,-0.54114075365,-1.4249,1.1814,2.5046,2.0000000000131024e-05,-9.999999999998899e-05,4.999999999999449e-05,7.866326909322652e-05,-0.0001548400156776708,2.290905098245588e-05
150000000000.0,-1,0.02278084795,-0.025046184099999997,-0.03419578855,0.000826,-0.005767,-0.015983,-3.6816125429999995,-9.0732106465,-0.5413074667,-1.4248,1.1816,2.5045,1.999999999990898e-05,-9.999999999998899e-05,-4.0000000000040004e-05,0.00023987680929482558,-0.0002183854592783252,-0.0001705716184701167
150000000000.0,-1,0.027213453749999998,-0.021084297499999998,-0.0387951074,-0.002426,-0.010005,-0.01278,-3.679847346,-9.073897112,-0.5417977991999999,-1.4246,1.1818,2.5042,2.0000000000131024e-05,-4.999999999988347e-05,0.00010999999999994348,-0.00018692324112934422,3.587638703717033e-05,-0.0001757665073243153
150000000000.0,-1,0.013827376499999999,-0.029831829299999998,-0.03529413335,-0.006706,-0.009971,-0.010654,-3.6784744149999997,-9.0743874445,-0.5424548447499999,-1.4244,1.1819,2.5039,1.999999999990898e-05,-5.0000000000105516e-05,-1.999999999990898e-05,0.00011822544267348079,-7.052830089260276e-05,-0.00018107617015639121
150000000000.0,-1,-0.0057859235,-0.028576578099999996,-0.0538385085,-0.009925,-0.012074,-0.010656,-3.6773956835,-9.0747797105,-0.5436610627,-1.424,1.182,2.5034,4.999999999988347e-05,-5.0000000000105516e-05,9.99999999995449e-06,0.00037633795215197274,-4.336492380607737e-05,-0.0002941257252473406
150000000000.0,-1,-0.019221033999999998,-0.016985117799999998,-0.04682675374999999,-0.007765,-0.00783,-0.009592,-3.6767092179999996,-9.0749758435,-0.5448378607,-1.4237,1.1821,2.5029,5.0000000000105516e-05,-4.999999999988347e-05,-4.0000000000040004e-05,0.000213008547949034,-0.0003446448249810885,-0.00020383161212578216
150000000000.0,-1,-0.045051750099999996,-0.00789435325,-0.031018433949999997,-0.004521,-0.003592,-0.011727,-3.6763169519999996,-9.075073909999999,-0.5456812326,-1.4234,1.1821,2.5027,3.333333333332966e-05,-9.999999999998899e-05,2.0000000000020002e-05,-0.00015449047497240187,0.0003294642260813774,-0.00014269919408604892
150000000000.0,-1,-0.04970010219999999,-0.00120621795,-0.01560238015,0.00085,0.001691,-0.010657,-3.6760227524999998,-9.075171976499998,-0.5459852387499999,-1.4233,1.1821,2.5026,3.333333333332966e-05,-5.0000000000105516e-05,2.0000000000020002e-05,-9.67523044739238e-05,0.00044544514214250874,-0.0002166973693715768
150000000000.0,-1,-0.04459083755,0.009296704199999999,-0.012601545249999999,0.006203,0.002715,-0.012782,-3.67553242,-9.0753681095,-0.5458479456499999,-1.4234,1.1822,2.5026,3.333333333332966e-05,-4.999999999988347e-05,9.99999999995449e-06,3.432350982923715e-05,0.00022862554581926098,-8.121020736195916e-05
150000000000.0,-1,-0.0226141349,0.0122779258,-0.0087279185,0.008305,-0.0005,-0.011704,-3.674944021,-9.075662308999998,-0.54537722645,-1.4235,1.1823,2.5027,3.333333333332966e-05,-9.999999999998899e-05,-6.999999999990347e-05,0.00020764285022045748,0.0004131468813899364,-0.00025628549349399066
150000000000.0,-1,0.0056976636499999995,0.017426417049999997,-0.02025073225,0.006169,0.000581,-0.009575,-3.6740614224999995,-9.076054574999999,-0.54508302695,-1.4235,1.1824,2.5028,3.333333333332966e-05,-9.999999999998899e-05,0.00019999999999997797,0.0004570139321946609,2.104183356843592e-05,-0.0003957314564724257
150000000000.0,-1,0.0252227038,0.0079433865,-0.012160246,0.00505,-0.005803,-0.009567,-3.672786558,-9.076544907499999,-0.5446417277,-1.4236,1.1825,2.5028,3.333333333332966e-05,-9.999999999998899e-05,-0.00012000000000000899,-0.000600199265423651,-0.00014052269212805335,0.00022448053679902102
150000000000.0,-1,0.0489744101,-0.00408937305,-0.025624776449999997,-0.000292,-0.007887,-0.011709,-3.6711194275,-9.077231373,-0.5446515343499999,-1.4235,1.1827,2.5027,9.999999999998899e-05,-9.999999999998899e-05,-7.00000000000145e-05,0.00019879323297944396,-8.710818903101547e-05,-0.0002390434564745192
150000000000.0,-1,0.0509749667,-0.018917027849999997,-0.03743198305,-0.004595,-0.012113,-0.011712,-3.6692561639999997,-9.078015904999999,-0.54510264025,-1.4233,1.1829,2.5024,9.999999999998899e-05,-9.999999999998899e-05,-0.00017999999999995797,0.0001059621491676932,-0.00038412224239325887,-0.00011691037768191137
150000000000.0,-1,0.04288448045,-0.024663724749999998,-0.042099948449999994,-0.005669,-0.012104,-0.010649,-3.6673929005,-9.078702370499999,-0.54582833235,-1.423,1.1831,2.502,2.4999999999941735e-05,-9.999999999998899e-05,9.99999999995449e-06,-8.877116130023843e-05,-6.915473702484576e-05,-7.23970371434568e-05
150000000000.0,-1,0.01660265845,-0.027772432799999996,-0.0299691224,-0.003519,-0.00999,-0.01065,-3.666118036,-9.079192702999999,-0.54643634465,-1.4228,1.1832,2.5017,2.500000000016378e-05,-9.999999999998899e-05,4.0000000000040004e-05,0.0006397905457031783,-0.0005117374353320603,-0.00038140543396369964
150000000000.0,-1,0.00122583125,-0.026811381099999997,-0.022486648449999997,-0.002426,-0.007865,-0.012788,-3.6648431715,-9.079683035499999,-0.5467403507999999,-1.4227,1.1833,2.5015,2.4999999999941735e-05,-9.999999999998899e-05,5.999999999994898e-05,-0.0004223154142808383,0.00012783135673055668,-0.0001725787686126523
150000000000.0,-1,-0.0264387284,-0.01732835055,-0.013876409749999999,-0.001385,-0.01107,-0.012779,-3.6639605729999998,-9.080075301499999,-0.5466618976,-1.4227,1.1834,2.5013,2.4999999999941735e-05,-9.999999999998899e-05,-0.00010999999999994348,-0.00027723177128047283,-0.0004771427564229658,-0.00010730072245834776
150000000000.0,-1,-0.024889277699999997,0.00069627215,-0.00285373515,0.000762,-0.010021,-0.013844,-3.6630779744999997,-9.080369501,-0.54631866485,-1.4227,1.1835,2.5013,-0.0007999999999999119,0.00019999999999997797,0.0016100000000000003,0.0003481372366189728,-0.001992067805846487,0.000512495218559561
150000000000.0,-1,-0.012846711499999998,0.0167301449,-0.015317987299999999,0.001848,-0.008962,-0.015978,-3.6619992429999995,-9.0808598335,-0.5459656254499999,-1.4228,1.1837,2.5013,4.999999999988347e-05,-9.999999999998899e-05,-2.0000000000020002e-05,-3.7454682086268676e-05,-0.0006173346605888863,8.787711824442823e-05
150000000000.0,-1,0.0009218250999999998,0.02203554255,-0.0131212977,0.003967,-0.010046,-0.014904,-3.6607243785,-9.081350166,-0.54547529295,-1.4229,1.1838,2.5012,5.0000000000105516e-05,-9.999999999998899e-05,2.0000000000020002e-05,-0.00011026972654559763,-0.0006400860644828477,-5.156047434740074e-05
150000000000.0,-1,0.0166320784,0.01803442935,-0.01205237285,0.005033,-0.010055,-0.014903,-3.659253381,-9.0820366315,-0.54490650725,-1.423,1.184,2.5012,5.0000000000105516e-05,-0.00019999999999997797,-8.000000000008001e-05,0.00010128129002207054,-1.693585337481096e-05,-0.00013181833913966656
150000000000.0,-1,0.030498681499999996,0.0025987622499999996,-0.0070411747,0.006078,-0.012195,-0.013831,-3.6575862505,-9.082723096999999,-0.544072942,-1.4231,1.1842,2.5013,4.999999999988347e-05,-5.0000000000105516e-05,-1.4999999999987246e-05,-0.00022623372627106342,-4.0519678443429186e-05,-8.713076325994606e-05
150000000000.0,-1,0.03794192885,-0.0126309652,-0.0044129925,0.002877,-0.012169,-0.013839,-3.655722987,-9.083507629,-0.54341589645,-1.4232,1.1844,2.5013,4.999999999988347e-05,-5.0000000000105516e-05,-1.4999999999987246e-05,-3.227890482526696e-05,-0.0005449877469487774,6.49683204283491e-05
150000000000.0,-1,0.02584052275,-0.04094276375,-0.01638691215,0.00395,-0.013239,-0.017039,-3.6536635905,-9.0843902275,-0.5428176908,-1.4233,1.1846,2.5012,5.0000000000105516e-05,-9.999999999998899e-05,-4.0000000000040004e-05,0.00018252203214452756,-0.00017758803954581737,-0.00021766581288851228
150000000000.0,-1,0.01422944915,-0.04904305665,-0.018240369,-0.000359,-0.016403,-0.013841,-3.6518983935,-9.0851747595,-0.5424548447499999,-1.4233,1.1848,2.5011,9.999999999998899e-05,-9.999999999998899e-05,-2.999999999997449e-05,9.40614493052383e-05,-0.0005411085230435653,0.00014754586463539
150000000000.0,-1,0.01081673495,-0.036323831599999995,-0.01872089485,-0.002485,-0.01532,-0.013848,-3.650427396,-9.085763158499999,-0.5422685183999999,-1.4233,1.185,2.5009,8.000000000008001e-05,-9.999999999998899e-05,-2.999999999997449e-05,0.00012525014062170214,-0.00017038520117163003,-0.00025838365412145237
150000000000.0,-1,0.0094732239,-0.0194760069,-0.0216334699,-0.001416,-0.014264,-0.012781,-3.6491525315,-9.086253490999999,-0.54219987185,-1.4233,1.1851,2.5007,7.999999999985796e-05,-4.999999999988347e-05,9.00000000000345e-05,-0.0001834684005961318,1.1451161827880085e-05,-0.0002389719400119894
150000000000.0,-1,0.0012944778,-0.013925443,-0.012523092049999998,-0.004622,-0.014238,-0.01172,-3.6479757334999996,-9.086743823499999,-0.5421900651999999,-1.4232,1.1852,2.5005,8.000000000008001e-05,-5.0000000000105516e-05,9.99999999995449e-06,9.196361202934433e-05,0.00037548232260720127,-0.0005888548763990364
150000000000.0,-1,0.00342252085,0.00758054045,-0.014268675749999998,-0.002472,-0.012124,-0.01172,-3.6469950685,-9.0871360895,-0.5422292918,-1.4232,1.1853,2.5004,8.000000000008001e-05,-9.999999999998899e-05,6.0000000000060005e-05,0.0001137577400311951,-0.00020371663955986996,-4.278474977725821e-05
150000000000.0,-1,-0.00709020795,0.021231397249999995,-0.0137685366,0.001795,-0.012159,-0.011711,-3.6462105364999995,-9.087430289,-0.54198412555,-1.4232,1.1854,2.5003,7.999999999985796e-05,-4.999999999988347e-05,-5.000000000032756e-06,0.00031175276796391316,-6.044260927628997e-05,-0.00026026501786846623
150000000000.0,-1,-0.0048052584999999995,0.024908891,-0.00187307015,0.005026,-0.008988,-0.012778,-3.645327938,-9.087822554999999,-0.5413172733499999,-1.4234,1.1855,2.5003,8.000000000008001e-05,-5.0000000000105516e-05,-5.000000000032756e-06,9.5304936042373e-05,0.00016259934567441903,-0.0002797631949453816
150000000000.0,-1,-0.00010787314999999999,0.00844352565,-0.0014709974999999999,0.009313,-0.005827,-0.011709,-3.6443472729999997,-9.088312887499999,-0.5403660282999999,-1.4236,1.1857,2.5005,8.000000000008001e-05,-5.0000000000105516e-05,7.00000000000145e-05,0.00031791952638871024,0.00018168283544262032,-0.00042643666732944396
150000000000.0,-1,0.0033636809499999996,-0.01258193195,-0.0027360553499999997,0.007185,-0.005809,-0.01278,-3.643170475,-9.088803219999999,-0.5395520763499999,-1.4238,1.1858,2.5006,8.000000000008001e-05,-4.999999999988347e-05,-4.0000000000040004e-05,-0.00021673947542089067,-0.0003187725260178631,6.47267070745805e-05
150000000000.0,-1,0.00197113665,-0.0374221764,-0.00228494945,0.006104,-0.006866,-0.011714,-3.641797544,-9.089391618999999,-0.53880677095,-1.4239,1.186,2.5007,7.999999999985796e-05,-9.999999999998899e-05,7.00000000000145e-05,-0.0002940592015765464,3.83480132213343e-05,8.355484623123743e-05
150000000000.0,-1,0.0093947707,-0.048140844849999996,0.00057859235,-0.001367,-0.007869,-0.012794,-3.6402284799999993,-9.0900780845,-0.53837527835,-1.424,1.1861,2.5007,8.000000000008001e-05,-0.00029999999999996696,-0.0013999999999999568,-0.00016889609444126208,0.0021440155013965345,-0.001051824813611546
150000000000.0,-1,0.0294591766,-0.04870963055,-0.0075511204999999994,-0.001404,-0.013196,-0.013854,-3.63826715,-9.090862616499999,-0.5381693386999999,-1.4239,1.1864,2.5006,-0.0008000000000001339,0.00019999999999997797,0.0014800000000000368,0.0002182498609202277,-0.0033550611857464663,0.0011510917595889403
150000000000.0,-1,0.04158019599999999,-0.03370545605,-0.007511893899999999,-0.004636,-0.016367,-0.012789,-3.63630582,-9.0916471485,-0.53806146555,-1.4239,1.1866,2.5003,2.4999999999941735e-05,-9.999999999998899e-05,-2.0000000000020002e-05,0.0003265435310810805,-0.0004908523457525238,-0.00018116216504182603
150000000000.0,-1,0.04893518349999999,-0.0149649479,-0.00040207264999999996,-0.005754,-0.022751,-0.012783,-3.6344425565,-9.0924316805,-0.5378457192499999,-1.4239,1.1868,2.5001,2.4999999999941735e-05,-9.999999999998899e-05,5.999999999994898e-05,-0.0004793225233146181,0.0004585683577795763,-0.000316011037126529
150000000000.0,-1,0.061075816199999994,-0.0101596894,-0.0011571847,-0.008952,-0.02166,-0.011726,-3.6324812265,-9.0932162125,-0.5378359126,-1.4238,1.187,2.4998,2.500000000016378e-05,-4.999999999988347e-05,-2.0000000000020002e-05,-0.0001929173927119887,-0.0008900890328493727,0.00016943103031064055
150000000000.0,-1,0.06002650464999999,-0.0026085689,-0.0028831550999999997,-0.010063,-0.025915,-0.009589,-3.630814096,-9.093902678,-0.5377574594,-1.4238,1.1872,2.4995,2.4999999999941735e-05,-5.0000000000105516e-05,-7.00000000000145e-05,0.00025610706628853563,-0.00027639464099249444,-0.0004895744064965513
150000000000.0,-1,0.037059330349999996,0.010924608099999998,0.0061781894999999995,-0.010055,-0.024849,-0.009592,-3.6295392315,-9.0943930105,-0.53768881285,-1.4237,1.1873,2.4992,-9.999999999998899e-05,-9.999999999998899e-05,1.0000000000065512e-05,-0.00039553445394435727,-0.0005621214656490459,-3.7568686996891643e-06
150000000000.0,-1,0.011964112999999998,0.0034911673999999996,-0.0031773546,-0.006851,-0.023811,-0.008521,-3.628656633,-9.09468721,-0.5374632599,-1.4238,1.1874,2.4989,9.999999999998899e-05,-0.00019999999999997797,-2.0000000000020002e-05,-4.88683799704237e-05,-0.0005077815002503261,-0.00029581996173666525
150000000000.0,-1,0.0067763951499999996,-0.005579983849999999,-0.0178873296,-0.003634,-0.021706,-0.00852,-3.627872101,-9.095079476,-0.5372671269,-1.4238,1.1875,2.4987,0.0008000000000001339,-0.00019999999999997797,-0.0014499999999999513,-0.00018581252376392854,0.003912497182109176,-0.001881585958828147
150000000000.0,-1,-8.825985e-05,-0.024771597899999998,-0.0322050386,-0.000407,-0.019599,-0.010653,-3.6267933694999996,-9.095471741999999,-0.5371690603999999,-1.4238,1.1876,2.4985,-0.0009000000000001229,0.00019999999999997797,0.0014499999999999513,-0.00024367595969043698,-0.00391200046265161,0.0014520974753731153
150000000000.0,-1,-0.0079826131,-0.041952848699999996,-0.041570389349999994,0.002802,-0.019622,-0.012783,-3.625714638,-9.0959620745,-0.53692389415,-1.4238,1.1878,2.4983,9.999999999998899e-05,-4.999999999988347e-05,-5.999999999994898e-05,0.000863583908818244,-0.0007354646085169225,-0.00038511691788523095
150000000000.0,-1,-0.01230734575,-0.03990325885,-0.029155170449999997,-0.000389,-0.019593,-0.014924,-3.624341707,-9.096550473499999,-0.5366198879999999,-1.4238,1.1879,2.4982,5.0000000000105516e-05,-5.0000000000105516e-05,-5.000000000032756e-06,-0.0006896963292188918,3.75111368042802e-05,-0.00012257170711515997
150000000000.0,-1,-0.010502922149999998,-0.0371083636,-0.0016475171999999999,-0.003572,-0.017436,-0.014933,-3.6229687759999996,-9.097040805999999,-0.5363060752,-1.4238,1.1881,2.498,4.999999999988347e-05,-9.999999999998899e-05,-5.000000000032756e-06,0.0007008428929866639,-0.0007164991402777154,-0.00023692419775933615
150000000000.0,-1,0.0008041452999999999,-0.025173670549999996,0.0069234948999999995,-0.003581,-0.020629,-0.01813,-3.6213016454999996,-9.097825338,-0.5357372895,-1.4239,1.1882,2.4979,-9.999999999998899e-05,-3.333333333332966e-05,1.0000000000065512e-05,-8.152785492865355e-05,4.048866947692353e-05,-0.00020359765325483892
150000000000.0,-1,0.0145530686,-0.020142859099999997,0.0168085981,-0.00147,-0.024907,-0.020255,-3.6193403154999997,-9.098609869999999,-0.5347075912499999,-1.4241,1.1885,2.4978,5.0000000000105516e-05,-3.333333333332966e-05,5.999999999994898e-05,-0.00039022265931820677,0.00027481556017527886,-0.00043872290425817084
150000000000.0,-1,0.040168038399999995,-0.0010198916,0.0081787461,0.002783,-0.028136,-0.022379,-3.6169867195,-9.099590534999999,-0.53341311345,-1.4244,1.1888,2.4978,4.999999999988347e-05,-3.333333333332966e-05,-4.999999999999449e-05,0.00029261430460958415,-0.0007798557076155177,-0.00023503342035757768
150000000000.0,-1,0.04853311085,0.0025889556,-0.0085317855,0.004946,-0.027084,-0.026649,-3.6141427909999995,-9.1008653995,-0.532108829,-1.4246,1.1891,2.4978,-4.999999999988347e-05,-3.333333333332966e-05,2.0000000000020002e-05,-0.0004139187256821941,0.0011511840059812428,-0.0006736706482901589
150000000000.0,-1,0.03186180585,-0.0019417166999999998,-0.013386077249999998,0.003887,-0.026009,-0.026654,-3.6113969289999996,-9.1020421975,-0.53100067755,-1.4248,1.1894,2.4977,-5.0000000000105516e-05,-3.333333333332966e-05,4.999999999999449e-05,0.00012668571820095842,-0.0011164183969651909,0.00017029849445027168
150000000000.0,-1,0.021564823349999998,-0.005021004799999999,-0.026517181599999995,0.003903,-0.023878,-0.026659,-3.6086510669999994,-9.103120929,-0.53013769235,-1.4249,1.1897,2.4976,9.999999999998899e-05,-3.333333333332966e-05,-1.0000000000065512e-05,-4.3542794412099184e-05,0.0011838627668627755,-0.0006814158800891867
150000000000.0,-1,-0.00043149259999999994,-0.0085906254,-0.03823612835,0.003899,-0.022813,-0.024527,-3.6063955375,-9.1040035275,-0.5296375531999999,-1.425,1.19,2.4974,-9.999999999998899e-05,-5.0000000000105516e-05,-4.999999999921734e-06,-0.0007108206351889024,-0.00011798562540232815,-0.00012785249398250542
150000000000.0,-1,-0.02393803265,-0.00342252085,-0.0314989598,0.00177,-0.020666,-0.022398,-3.604728407,-9.104689993,-0.5291962539499999,-1.425,1.1901,2.4973,9.999999999998899e-05,-5.0000000000105516e-05,-5.000000000032756e-06,0.0002709264232549913,-0.0006470206649973331,2.8483120884104096e-07
150000000000.0,-1,-0.030233901949999996,-0.000392266,-0.0232613738,0.001752,-0.022797,-0.022393,-3.6032574094999994,-9.1053764585,-0.5285980482999999,-1.4251,1.1903,2.4972,0.000700000000000145,-0.00019999999999997797,-0.0013299999999999423,-0.00014804102394672114,0.0028218286681653826,-0.0015589431283107302
150000000000.0,-1,-0.0179265562,-0.0034715540999999996,-0.030655587899999996,0.00174,-0.022799,-0.020257,-3.6016883454999995,-9.106062924,-0.52809790915,-1.4252,1.1905,2.497,-1.6666666666775853e-05,-9.999999999998899e-05,7.999999999996898e-05,-9.027779368886435e-05,-0.00033254548422800845,7.577535443115124e-06
150000000000.0,-1,-0.00389324005,-0.00854159215,-0.0248108245,0.004937,-0.023889,-0.021317,-3.599825082,-9.1067493895,-0.52735260375,-1.4253,1.1907,2.4969,-1.666666666655381e-05,-5.0000000000105516e-05,-9.00000000000345e-05,-4.5625723890996284e-05,-0.00027969606907474187,-0.00016406997369822207
150000000000.0,-1,0.0014219642499999998,-0.00756092715,-0.023702673049999998,0.000687,-0.022786,-0.023462,-3.5978637519999994,-9.107631988,-0.5268132379999999,-1.4254,1.1909,2.4968,-1.666666666655381e-05,-4.999999999988347e-05,1.0000000000065512e-05,0.00010149577191165271,3.645984034750249e-05,-0.0003871744552026435
150000000000.0,-1,0.0097870367,-0.015759286549999998,-0.026683894649999998,0.000652,-0.027047,-0.023455,-3.595510156,-9.1085145865,-0.52623464565,-1.4255,1.1912,2.4966,-1.6666666666775853e-05,-4.999999999988347e-05,9.99999999995449e-06,-0.000658479409497037,-0.00038273609837635725,0.00010015952981401455
150000000000.0,-1,0.00167693715,-0.01519050085,-0.0159259996,-0.001496,-0.028096,-0.02239,-3.5934507594999996,-9.109397184999999,-0.5256070200499999,-1.4256,1.1914,2.4964,-1.6666666666775853e-05,-5.0000000000105516e-05,-4.999999999999449e-05,-0.00021623453478758492,-0.0002331629068705876,-0.00019553615791689793
150000000000.0,-1,0.013739116649999997,-0.015445473749999999,-0.023251567149999996,-0.001509,-0.030225,-0.023455,-3.5910971634999997,-9.11037785,-0.52501862105,-1.4256,1.1917,2.4962,-1.666666666655381e-05,-3.333333333332966e-05,9.00000000000345e-05,-1.1049163153975528e-05,-0.00017652787122512947,-0.0003173888872294306
150000000000.0,-1,0.01407254275,-0.009453610599999999,-0.026291628649999996,-0.003652,-0.031273,-0.023458,-3.5889397005,-9.1112604485,-0.5245184818999999,-1.4257,1.1919,2.4959,-2.8571428571488866e-05,-3.333333333332966e-05,1.999999999990898e-05,-0.00013455676900764324,-0.00010329080974669225,-0.0002550298893950753
150000000000.0,-1,0.0024222425499999998,-0.01611232595,-0.03743198305,-0.004751,-0.034461,-0.022387,-3.5868803039999997,-9.1120449805,-0.5243027356,-1.4257,1.1922,2.4955,-2.857142857126682e-05,-3.333333333332966e-05,-1.999999999990898e-05,-0.0003111185916491177,6.127671178024485e-06,-0.0005938851401960932
150000000000.0,-1,-0.01093441475,-0.01605348605,-0.039520799499999995,-0.00793,-0.030174,-0.020265,-3.585115107,-9.112731446,-0.524459642,-1.4255,1.1924,2.4951,-2.8571428571488866e-05,-3.333333333332966e-05,-4.0000000000040004e-05,0.00018381321577476406,-0.00023070753963105872,-0.00011572738651510761
150000000000.0,-1,-0.02501676415,-0.02195708935,-0.032685564449999996,-0.007963,-0.033371,-0.019191,-3.5838402424999996,-9.1132217785,-0.5245675151499999,-1.4255,1.1925,2.4947,-2.8571428571488866e-05,-3.333333333332966e-05,-4.0000000000040004e-05,-0.00014332474598965916,-4.857910319988612e-05,-0.00039958711102894284
150000000000.0,-1,-0.02954743645,-0.03080268765,-0.0232417605,-0.007974,-0.033373,-0.017056,-3.5826634444999996,-9.113712111,-0.5244302220499999,-1.4255,1.1926,2.4943,-2.8571428571488866e-05,-3.333333333332966e-05,-4.999999999999449e-05,3.6281635373835996e-05,-0.00016776686023156628,-0.000303626672281343
150000000000.0,-1,-0.031194953649999996,-0.009934136449999999,-0.0127682583,-0.0069,-0.032316,-0.017054,-3.581780846,-9.114104376999999,-0.5241262159,-1.4255,1.1927,2.494,-2.857142857126682e-05,-2.4999999999941735e-05,2.0000000000020002e-05,-0.00012102397322322211,-0.0002456056965871589,-0.0002450848639528047
150000000000.0,-1,-0.03660822445,0.00267721545,-0.0044522191,-0.006922,-0.034448,-0.015981,-3.5809963139999996,-9.1143985765,-0.52362607675,-1.4256,1.1928,2.4938,-2.8571428571488866e-05,-2.500000000016378e-05,0.00021999999999999797,-0.0006163240854679675,0.0004699482159791213,-0.0003239726378359009
150000000000.0,-1,-0.02301620755,0.0037363336499999997,-0.0010591181999999998,-0.004795,-0.036594,-0.018108,-3.580015649,-9.114888909,-0.52282193145,-1.4258,1.1929,2.4936,5.0000000000105516e-05,-2.4999999999941735e-05,2.999999999997449e-05,-0.0001025417431672615,-0.00020537753354288313,-0.00042084518539198257
150000000000.0,-1,-0.0013729309999999998,-0.0071392412,-0.00928689755,-0.005848,-0.035519,-0.019179,-3.578446585,-9.115477308,-0.52223353245,-1.4259,1.1931,2.4933,4.999999999988347e-05,-2.4999999999941735e-05,-0.00012000000000000899,5.129255524183307e-05,-0.0002350287393966255,-0.00025086688904307763
150000000000.0,-1,0.006903881599999999,-0.0112972608,-0.00106892485,-0.006896,-0.034442,-0.021318,-3.576485255,-9.11626184,-0.5216157135,-1.426,1.1933,2.493,-9.999999999998899e-05,-4.999999999988347e-05,0.000200000000000089,-0.00025444680292707744,0.00017767807929458534,-0.00045843848899229656
150000000000.0,-1,0.011052094549999999,-0.0090417313,0.0039814999,-0.00799,-0.036566,-0.019182,-3.5746219915,-9.117046371999999,-0.52097828125,-1.4261,1.1935,2.4927,9.999999999998899e-05,-5.0000000000105516e-05,-0.000260000000000038,3.380679288378374e-05,-0.0009328951913183392,-9.520909599913807e-05
150000000000.0,-1,0.02462449815,-0.00958109705,0.0094928372,-0.013324,-0.036523,-0.019193,-3.5726606615,-9.117830904,-0.5205075620499999,-1.4261,1.1938,2.4924,-9.999999999998899e-05,-1.999999999990898e-05,0.00021000000000004349,-5.979864083904829e-05,0.0003077709247087945,-0.0005746966949859988
150000000000.0,-1,0.020848937899999996,-0.009453610599999999,0.00269682875,-0.01336,-0.039721,-0.017054,-3.5708954645,-9.118615435999999,-0.5202918157499999,-1.4261,1.194,2.492,-9.999999999998899e-05,-2.0000000000131024e-05,0.00017999999999995797,-0.0003363867533303644,-4.139956728943517e-05,-0.0003644626947694185
150000000000.0,-1,0.0006276255999999999,-0.009208444349999999,-0.0112188076,-0.012302,-0.040795,-0.01705,-3.5695225335,-9.119105768499999,-0.5201447159999999,-1.4261,1.1941,2.4915,-2.0000000000131024e-05,-1.999999999990898e-05,-2.0000000000020002e-05,-0.0002984881316183685,7.485822623976013e-05,-0.00037025562596637585
150000000000.0,-1,-0.0178677163,-0.00493274495,-0.013346850649999999,-0.012305,-0.039732,-0.014916,-3.5685418684999997,-9.1194980345,-0.5201054894,-1.4261,1.1942,2.4911,-1.999999999990898e-05,-2.0000000000131024e-05,7.999999999996898e-05,-9.87737396198618e-05,-0.0004193998276311728,-0.00035206224314432433
150000000000.0,-1,-0.02246703515,0.0030596748,-0.0022163028999999997,-0.010158,-0.038683,-0.015981,-3.56765927,-9.1198903005,-0.5197132234,-1.4261,1.1943,2.4907,-2.0000000000131024e-05,-1.999999999990898e-05,-0.00014999999999998348,0.00027226354839027245,-0.00039666565446494495,-0.0004815836600147172
150000000000.0,-1,-0.0333622233,-0.0065900687999999995,0.007247114349999999,-0.008015,-0.037635,-0.015978,-3.5667766714999996,-9.1202825665,-0.5190071446,-1.4263,1.1944,2.4905,-1.999999999990898e-05,-3.333333333332966e-05,0.000180000000000069,-0.00019811621304755,-0.0003757781238529212,-0.00033442227535296354
150000000000.0,-1,-0.024447978449999998,-0.0006374322499999999,0.0034715540999999996,-0.008027,-0.039765,-0.01704,-3.5657960065,-9.1206748325,-0.51836971235,-1.4264,1.1945,2.4902,-2.0000000000131024e-05,-3.333333333332966e-05,2.999999999997449e-05,-1.901088304445686e-05,-0.0001667652579950829,-0.0003820231313138578
150000000000.0,-1,-0.0253207703,0.019436780299999998,-0.0004609125499999999,-0.006962,-0.03871,-0.014904,-3.5651095409999995,-9.120969032,-0.5177322800999999,-1.4266,1.1946,2.4899,5.0000000000105516e-05,-3.333333333332966e-05,7.999999999996898e-05,-2.870034387569831e-05,-0.0004179744850230094,-0.0003158434083365691
150000000000.0,-1,-0.011964112999999998,0.01652420525,0.008600432049999999,-0.005875,-0.035524,-0.013839,-3.5642269425,-9.121361297999998,-0.5169183281499999,-1.4268,1.1947,2.4897,5.0000000000105516e-05,9.999999999998899e-05,-0.00012999999999996348,-0.00014321672148609466,-0.0002646475000935844,-0.00035682587264140864
150000000000.0,-1,-0.010954028049999998,0.0124544455,0.01267999845,-0.006936,-0.035514,-0.014908,-3.5632462775,-9.121753563999999,-0.51591804985,-1.427,1.1949,2.4896,-0.000700000000000145,9.999999999998899e-05,0.0012400000000000189,2.4292933443303966e-05,-0.0009150930332395557,1.2963995876802414e-07
150000000000.0,-1,-0.029272850249999996,0.024291072049999998,0.00730595425,-0.004779,-0.0334,-0.015973,-3.5626578784999996,-9.12214583,-0.5150256447,-1.4272,1.1949,2.4895,9.999999999998899e-05,-9.999999999998899e-05,-3.0000000000085514e-05,0.00011971767555074564,-0.00018633297565262552,-0.0004829799222121345
150000000000.0,-1,-0.039932678799999996,0.0380890286,0.009051537949999999,-0.004781,-0.032337,-0.013838,-3.5622656125,-9.122341963,-0.51407439965,-1.4275,1.195,2.4894,4.0000000000040004e-05,-4.999999999988347e-05,1.0000000000065512e-05,-0.00012262326505996235,-0.0006136775224647728,-8.879668048944467e-05
150000000000.0,-1,-0.04796432515,0.053583535599999996,0.00732556755,-0.003663,-0.025952,-0.013844,-3.562167546,-9.122341963,-0.5133977408,-1.4277,1.195,2.4892,4.0000000000040004e-05,-5.0000000000105516e-05,2.5000000000052758e-05,0.00041696142258662583,9.548980119378214e-05,-0.0005508803242841864
150000000000.0,-1,-0.055299699349999995,0.058496667249999995,-0.007472667299999999,0.001703,-0.020671,-0.011705,-3.562363679,-9.122341963,-0.51281914845,-1.4278,1.195,2.4892,3.999999999981796e-05,-3.333333333332966e-05,2.4999999999941735e-05,-6.98825351386212e-05,-4.069700130515663e-05,-0.0002985817904583854
150000000000.0,-1,-0.04393379199999999,0.0481310382,-0.0009610516999999999,0.006015,-0.016442,-0.013837,-3.562167546,-9.1224400295,-0.5118482901,-1.4281,1.195,2.4893,4.0000000000040004e-05,-3.333333333332966e-05,-4.999999999999449e-05,0.0004093701667873262,-7.77178619020269e-05,-0.00021506086356248844
150000000000.0,-1,-0.041011410299999995,0.0283019919,0.001569064,0.010311,-0.012216,-0.012767,-3.56177528,-9.122734228999999,-0.5104851657499999,-1.4284,1.1951,2.4895,4.0000000000040004e-05,-3.333333333332966e-05,-9.999999999998899e-05,0.0007388049404635222,-0.0005458357744263509,-0.0003185472547584389
150000000000.0,-1,-0.05543699245,-0.0023928226,-0.0063743225,0.011396,-0.011157,-0.014899,-3.5612849474999995,-9.122930362,-0.5091220414,-1.4288,1.1952,2.4898,-9.999999999998899e-05,-4.999999999988347e-05,5.999999999994898e-05,-0.00026258719168059663,5.165552623664915e-05,-8.94833057554223e-05
150000000000.0,-1,-0.0627429467,-0.015710253299999997,-0.00493274495,0.010335,-0.011147,-0.015966,-3.5606965485,-9.123224561499999,-0.50771969045,-1.4292,1.1953,2.4901,9.999999999998899e-05,-5.0000000000105516e-05,-5.999999999994898e-05,-2.6279087961045278e-05,-0.0004928836949802395,-3.0457385964410832e-06
150000000000.0,-1,-0.0483271712,-0.013140911,-0.00565843705,0.008221,-0.007934,-0.014905,-3.560010083,-9.1236168275,-0.5066997988499999,-1.4294,1.1954,2.4902,9.999999999998899e-05,-9.999999999998899e-05,-9.00000000000345e-05,-0.00012466297360913536,0.0006578123974796402,-0.0003691802654723908
150000000000.0,-1,-0.0358334991,-0.0146119085,0.0035500073,0.006077,-0.007918,-0.012773,-3.5593236174999996,-9.123911027,-0.50573874715,-1.4297,1.1954,2.4904,-1.999999999990898e-05,-9.999999999998899e-05,2.0000000000020002e-05,-7.164728191377812e-05,-4.4857593297642495e-05,-0.00013570996322753714
150000000000.0,-1,-0.0187895414,0.0007256920999999999,0.0008041452999999999,0.006059,-0.006858,-0.007437,-3.5589313515,-9.12410716,-0.5049346018499999,-1.4299,1.1955,2.4905,-2.0000000000131024e-05,-3.333333333332966e-05,2.0000000000020002e-05,9.981316751561664e-06,-0.00022278871132641598,-0.00010656687735499659
150000000000.0,-1,5.88399e-05,0.00848275225,0.0030008349,0.006059,-0.006858,-0.007437,-3.5582448859999998,-9.124401359499998,-0.50413045655,-1.4301,1.1956,2.4907,-1.999999999990898e-05,-3.333333333332966e-05,0.00013999999999991797,0.00019319013939189666,-0.0001782486981711795,5.217758713271792e-05
150000000000.0,-1,0.0080806796,0.014464808749999999,-0.005756503549999999,0.007154,-0.002606,-0.006375,-3.5576564869999996,-9.124695559,-0.5034537977,-1.4302,1.1957,2.4908,-2.0000000000131024e-05,-3.333333333332966e-05,1.0000000000065512e-05,-0.00030583885498169927,-0.00013030996947338558,9.39488012607903e-05
150000000000.0,-1,0.009218250999999998,-0.0012552511999999998,-0.0182992089,0.008195,-0.005811,-0.006368,-3.5569700214999997,-9.1249897585,-0.50289481865,-1.4303,1.1957,2.4909,-1.999999999990898e-05,-9.999999999998899e-05,9.00000000000345e-05,-0.00022352059429930904,-0.0007643576212701397,0.000348514615493567
150000000000.0,-1,-0.01787752295,-0.007688413599999999,-0.01913277415,0.008236,-0.000483,-0.006377,-3.556675822,-9.1251858915,-0.5023554528999999,-1.4305,1.1958,2.4911,5.0000000000105516e-05,-5.0000000000105516e-05,2.999999999997449e-05,1.019374733424172e-05,-0.00033002735157050545,0.00015774969664805738
150000000000.0,-1,-0.037284883299999995,-0.0127094184,-0.0220845758,0.009311,0.000574,-0.006375,-3.5565777554999998,-9.1251858915,-0.5017964738499999,-1.4306,1.1958,2.4912,4.999999999988347e-05,-4.999999999988347e-05,-1.0000000000065512e-05,1.232773100490192e-06,1.6140613337656262e-05,-0.00016589674262146303
150000000000.0,-1,-0.0565255306,-0.006237029399999999,-0.00732556755,0.006108,0.001664,-0.004245,-3.5569700214999997,-9.125087825,-0.5012963346999999,-1.4308,1.1958,2.4914,4.999999999988347e-05,-9.999999999998899e-05,-1.4999999999987246e-05,-0.0002268538496288386,-0.00031867555613329657,0.00032751460300772806
150000000000.0,-1,-0.05373063535,0.00157887065,0.0060997363,0.008262,0.004842,-0.003177,-3.5573622875,-9.1249897585,-0.50050199605,-1.431,1.1957,2.4917,5.0000000000105516e-05,-5.0000000000105516e-05,-1.4999999999987246e-05,-0.0003510940025301945,0.00126404092793031,-0.00038981633967916096
150000000000.0,-1,-0.02564438975,0.01311149105,0.0081787461,0.010388,0.003759,-0.00317,-3.5574603540000003,-9.1249897585,-0.4995899776,-1.4313,1.1958,2.492,3.333333333332966e-05,-5.0000000000105516e-05,-9.99999999995449e-06,-0.000345382808186967,0.00031844055656526926,4.177545454808751e-05
150000000000.0,-1,0.00210842975,0.02313388735,0.0060997363,0.014698,0.009051,-0.003171,-3.5571661545,-9.1251858915,-0.49856027934999997,-1.4315,1.1958,2.4923,3.333333333332966e-05,-9.999999999998899e-05,5.999999999994898e-05,0.0002375764559814364,-5.3024873328810784e-05,0.0001369399087547407
150000000000.0,-1,0.02095681105,0.00903192465,-0.013837183149999998,0.017936,0.01116,-0.00744,-3.556283556,-9.1255781575,-0.4974717412,-1.4318,1.1959,2.4928,3.333333333332966e-05,-4.999999999988347e-05,-4.999999999999449e-05,-1.83860524596291e-05,0.000134094229728543,5.102827755454342e-06
150000000000.0,-1,0.0150434011,-0.00130428445,-0.021309850449999997,0.018999,0.010088,-0.008504,-3.5553028909999997,-9.1259704235,-0.4964322363,-1.4321,1.196,2.4931,-9.999999999998899e-05,-5.0000000000105516e-05,0.0001100000000000545,-0.0010018742821396032,0.00048584684049024496,0.0004000189126003306
150000000000.0,-1,0.0072373077,-0.02372228635,-0.0083160392,0.014714,0.007992,-0.008509,-3.5542241594999995,-9.126460756,-0.49536331145,-1.4323,1.1962,2.4935,9.999999999998899e-05,-9.999999999998899e-05,-4.0000000000040004e-05,0.0006976427575040578,-0.0004572798752353613,-8.0345397173609e-05
150000000000.0,-1,9.80665e-05,-0.042364728,0.0016671305000000001,0.013615,0.002675,-0.010637,-3.5531454279999997,-9.1269510885,-0.49412767355,-1.4326,1.1963,2.4939,0.00010000000000021103,-9.999999999998899e-05,-7.999999999996898e-05,0.00011598463252293634,-0.0007034284976115135,0.00013758460342128132
150000000000.0,-1,0.011944499699999998,-0.029723956149999998,0.00079433865,0.011425,-0.003701,-0.009563,-3.5518705635,-9.1275394875,-0.49295087554999995,-1.4329,1.1964,2.4942,9.999999999998899e-05,-5.0000000000105516e-05,3.999999999992898e-05,3.645985716094202e-05,-0.0004760313102412095,-1.9134063749870478e-05
150000000000.0,-1,0.0136704701,-0.007394214099999999,-0.01677917815,0.012486,-0.003711,-0.008495,-3.550791832,-9.128029819999998,-0.49198982384999995,-1.4331,1.1966,2.4944,5.0000000000105516e-05,-4.999999999988347e-05,-9.99999999995449e-06,-0.0004773589196540584,-1.4235603228218707e-05,0.0001535073694176603
150000000000.0,-1,0.02882174435,0.0012356379,-0.026272015349999997,0.011427,-0.002636,-0.0085,-3.5495169675,-9.128520152499998,-0.49132297165,-1.4333,1.1967,2.4945,4.999999999988347e-05,-9.999999999998899e-05,-9.99999999995449e-06,0.0008407812563857586,-0.000755196754265608,-0.00023576015540438533
150000000000.0,-1,0.04927841625,-0.0041972462,-0.032038325549999996,0.015724,0.000527,-0.009568,-3.547849837,-9.129206618,-0.49048940639999994,-1.4334,1.1969,2.4947,9.999999999998899e-05,-5.0000000000105516e-05,-5.0000000000105516e-05,0.00034800662720502196,-0.0007458044517074658,-6.566101264660062e-05
150000000000.0,-1,0.041972461999999995,0.0011179581,-0.028174505449999998,0.015736,0.001595,-0.010639,-3.5461827065,-9.129893083499999,-0.48957738795,-1.4336,1.1971,2.4949,5.0000000000105516e-05,-4.999999999988347e-05,2.0000000000020002e-05,-0.0010931562615508206,0.00043753433961346566,4.2296519241258324e-05
150000000000.0,-1,0.022869107799999996,0.015298373999999998,-0.025301156999999998,0.017869,0.001578,-0.010637,-3.544907842,-9.1304814825,-0.48855749635,-1.4338,1.1973,2.4952,4.999999999988347e-05,-9.999999999998899e-05,-4.999999999999449e-05,0.00011236841328043923,-0.0006164706345996862,0.0002018516152717531
150000000000.0,-1,-0.0030204482,0.034303661699999995,-0.0195152335,0.019983,0.000493,-0.008495,-3.544319443,-9.130775682,-0.48715514539999993,-1.4342,1.1974,2.4957,9.999999999998899e-05,-0.00019999999999997797,-9.999999999998899e-05,-0.000257578399914582,-0.0007304732628847788,0.00012084515799148932
150000000000.0,-1,-0.0131605243,0.016416332099999997,-0.038893173899999994,0.019993,0.002624,-0.007431,-3.5438291105,-9.130971815,-0.48618428705,-1.4345,1.1974,2.496,9.999999999998899e-05,-9.999999999998899e-05,-4.0000000000040004e-05,-0.00044502338438201505,-0.00045088942525906006,0.00023713138583003612
150000000000.0,-1,-0.019603493349999997,-0.0065508421999999995,-0.0540542548,0.019979,0.000495,-0.008494,-3.5434368444999995,-9.131167947999998,-0.48524284864999995,-1.4347,1.1975,2.4963,9.999999999998899e-05,-9.999999999998899e-05,-1.999999999990898e-05,3.800717839053114e-05,-0.00044142781572031886,-4.3673252546838626e-05
150000000000.0,-1,-0.013140911,-0.018632634999999998,-0.04672868725,0.021083,0.00475,-0.009566,-3.5426523125,-9.131560213999999,-0.48418373044999996,-1.435,1.1976,2.4966,5.0000000000105516e-05,-9.999999999998899e-05,3.999999999992898e-05,-0.0006957008930277286,3.734302421243285e-05,-3.718760426174583e-05
150000000000.0,-1,-0.015886773,-0.0281450855,-0.040609337649999994,0.021076,0.00475,-0.008499,-3.5418677804999996,-9.131952479999999,-0.48312461225000003,-1.4352,1.1977,2.497,4.999999999988347e-05,-9.999999999998899e-05,-8.999999999992347e-05,0.0009166315512882939,-0.001243681845568334,-6.444663744842316e-05
150000000000.0,-1,-0.0020397832,-0.0286942579,-0.0382851616,0.016805,0.005849,-0.006374,-3.5410832485,-9.1322466795,-0.48244795339999996,-1.4354,1.1978,2.4973,9.999999999998899e-05,-9.999999999998899e-05,-4.999999999999449e-05,-0.0003287184661420195,0.0003069146424865554,-0.0001362010053496121
150000000000.0,-1,-0.007178467799999999,-0.039197180049999995,-0.04119773665,0.013606,0.006941,-0.005314,-3.540396783,-9.132540878999999,-0.48208510735,-1.4355,1.1979,2.4975,5.0000000000105516e-05,-9.999999999998899e-05,2.999999999997449e-05,-0.00022441534343431435,0.0002542857791261177,5.080731293860552e-05
150000000000.0,-1,-0.0042855060499999995,-0.039814999,-0.047611285749999996,0.010394,0.005902,-0.005318,-3.5397103174999995,-9.1328350785,-0.4819576209,-1.4355,1.1979,2.4975,4.999999999988347e-05,-9.999999999998899e-05,2.999999999997449e-05,-0.0004266042569089912,0.0003923320249119566,-0.00019458594598109613
150000000000.0,-1,0.010120462799999999,-0.030851720899999997,-0.0420705285,0.012516,0.005884,-0.003181,-3.5390238519999997,-9.133129278,-0.48181052115,-1.4355,1.198,2.4976,4.999999999988347e-05,-9.999999999998899e-05,2.0000000000020002e-05,-0.00014044062339624297,-8.499833527797485e-05,0.000176847601166763
150000000000.0,-1,0.0189856744,-0.03186180585,-0.03735352985,0.010398,0.008033,-0.00319,-3.5381412534999996,-9.1334234775,-0.48173206794999995,-1.4355,1.1981,2.4977,5.0000000000105516e-05,-9.999999999998899e-05,-0.00012999999999996348,0.0008678827781989362,-0.0002956849630149083,-0.0002281124579321947
150000000000.0,-1,0.017259704,-0.0290080707,-0.046257968049999994,0.012546,0.010148,-0.003191,-3.5373567214999997,-9.133717677,-0.48181052115,-1.4354,1.1982,2.4978,-9.999999999998899e-05,-5.0000000000105516e-05,9.999999999998899e-05,8.09749118493297e-05,-0.0017550926979801318,0.0008311325948366921
150000000000.0,-1,0.0029223816999999997,-0.0456401491,-0.042913900399999996,0.012545,0.010148,-0.003192,-3.5365721894999997,-9.134011876499999,-0.48185955439999995,-1.4354,1.1983,2.4979,2.4999999999941735e-05,-5.0000000000105516e-05,2.999999999997449e-05,-0.00042087531295931235,0.0003736959986710975,0.0002688029478026266
150000000000.0,-1,-0.00573689025,-0.05514279295,-0.0423255014,0.009339,0.009111,-0.004264,-3.5359837905,-9.1342080095,-0.48200665415,-1.4353,1.1983,2.498,2.4999999999941735e-05,-9.999999999998899e-05,9.99999999995449e-06,0.00013871275734955724,0.0003356524663009619,-0.00010436239597533259
150000000000.0,-1,-0.021849216199999997,-0.03858916775,-0.032391364949999994,0.009315,0.00698,-0.003193,-3.5357876575,-9.134306076,-0.48205568739999993,-1.4353,1.1984,2.4981,2.500000000016378e-05,-9.999999999998899e-05,4.0000000000040004e-05,8.42722494835968e-05,6.125930891087705e-05,0.00014068181257886891
150000000000.0,-1,-0.011581653649999999,-0.034852834099999994,-0.0136312435,0.00719,0.008063,-0.003198,-3.5353953915,-9.134502208999999,-0.4818203278,-1.4353,1.1984,2.4982,2.4999999999941735e-05,-9.999999999998899e-05,-7.999999999996898e-05,5.4745599499028685e-05,5.4858018846637435e-05,0.0002449721202864019
150000000000.0,-1,0.0085906254,-0.0173969971,-0.012993811249999999,0.007194,0.008064,-0.004266,-3.5348069924999996,-9.134698342,-0.48171245464999995,-1.4354,1.1985,2.4984,9.999999999998899e-05,-9.999999999998899e-05,-4.0000000000040004e-05,0.0010014256668375854,-0.00019890064000227525,-0.0001892230486775226
150000000000.0,-1,0.03580407915,-0.008825985,-0.0006080123,0.010379,0.008035,-0.001061,-3.5340224605,-9.135090607999999,-0.4810750224,-1.4355,1.1986,2.4986,1.6666666666775853e-05,-4.999999999988347e-05,4.0000000000040004e-05,0.00045316227984737445,0.0003714945334956088,-6.9447555213209e-06
150000000000.0,-1,0.05470149369999999,-0.010071429549999998,-0.0059036033,0.007156,0.00593,2e-06,-3.5330417954999995,-9.135482874,-0.48071217634999996,-1.4356,1.1987,2.4987,1.666666666655381e-05,-5.0000000000105516e-05,-3.0000000000085514e-05,1.149896708740883e-06,-7.269796406195184e-06,9.595365375858478e-05
150000000000.0,-1,0.0668225131,-0.013533176999999999,-0.0144746154,0.007133,0.003798,0.00107,-3.5319630639999997,-9.13587514,-0.48037875025,-1.4356,1.1988,2.4988,1.666666666655381e-05,-9.999999999998899e-05,3.0000000000085514e-05,0.00016532419179848823,0.00012575653387258967,3.819040383667982e-05
150000000000.0,-1,0.06793066454999999,-0.01605348605,-0.02309466075,0.004962,0.000617,0.003203,-3.5311785319999998,-9.136267406,-0.48029049039999994,-1.4356,1.1989,2.4989,1.6666666666775853e-05,-9.999999999998899e-05,-3.0000000000085514e-05,-9.493374700264567e-05,0.0004038243622523918,-4.1326788868367714e-05
150000000000.0,-1,0.06296849965,-0.029978929049999995,-0.02358499325,0.001752,-0.000421,0.003195,-3.530394,-9.136561605499999,-0.4803885569,-1.4356,1.199,2.4988,1.6666666666775853e-05,-9.999999999998899e-05,1.0000000000065512e-05,-0.0004888951420929377,0.0005465352412159508,6.261807009266818e-05
150000000000.0,-1,0.03853032785,-0.0393835064,-0.0367160976,-0.000409,-0.003599,0.003195,-3.5299036674999997,-9.136659671999999,-0.4808788894,-1.4354,1.199,2.4987,1.666666666655381e-05,-4.999999999988347e-05,-0.0001100000000000545,0.000989171798274624,-0.00043292486093293725,3.698753325442894e-05
150000000000.0,-1,0.022045349199999998,-0.036745517549999995,-0.036196345149999996,-0.001497,-0.006785,0.002129,-3.5295114014999998,-9.1367577385,-0.4814084485,-1.4352,1.199,2.4985,0.0003333333333332966,-5.0000000000105516e-05,4.0000000000040004e-05,0.00016368373001940384,-9.894207438621017e-05,-0.00010516224811807362
150000000000.0,-1,0.0220845758,-0.0263406619,-0.019662333249999997,-0.002557,-0.00571,0.002124,-3.5293152684999995,-9.136855805,-0.48177129454999995,-1.4351,1.1991,2.4983,0.00033333333333351867,-0.00019999999999997797,-2.0000000000020002e-05,1.939667550709956e-05,0.0002891336261290345,-3.8482848851106866e-05
150000000000.0,-1,0.015317987299999999,-0.005727083599999999,0.01071866845,-0.002575,-0.006778,0.00426,-3.5294133349999997,-9.136855805,-0.48163400144999996,-1.4352,1.1991,2.4982,0.0003333333333332966,-0.00019999999999997797,-0.0016699999999999493,-0.00021561278803394757,0.0025031576254179733,-0.0011030885488203523
150000000000.0,-1,0.0036480737999999998,0.0074432473499999995,0.024771597899999998,0.000672,-0.000413,0.005321,-3.5299036674999997,-9.136659671999999,-0.48116328224999994,-1.4353,1.199,2.4984,-0.00045000000000006146,-9.999999999998899e-05,2.999999999997449e-05,-8.84128121336758e-06,-9.506812389425967e-05,-5.9891999641070726e-05
150000000000.0,-1,0.0039128533499999995,0.012797678249999998,0.02256510165,0.003889,0.002755,0.007456,-3.530394,-9.136463539,-0.48045720345,-1.4355,1.199,2.4986,-0.00045000000000006146,0.00029999999999996696,0.0015999999999999348,-0.0008208350262832731,-0.001811852738143882,0.0012599682225005182
150000000000.0,-1,-0.010944221399999999,0.01638691215,0.00734518085,0.008221,0.010179,0.006384,-3.5312765985,-9.136169339499999,-0.47989822439999996,-1.4357,1.1989,2.4989,0.0009000000000001229,-0.00039999999999995595,-0.0015799999999999148,0.00021541690705073613,0.0016195431819241435,-0.0008970142450466234
150000000000.0,-1,-0.00958109705,0.014700168349999997,0.013278204099999998,0.014654,0.013324,0.005323,-3.5318649975,-9.1359732065,-0.47894697934999997,-1.436,1.1988,2.4993,-1.6666666666775853e-05,-5.0000000000105516e-05,-9.999999999998899e-05,-0.0005928916550832497,0.00029642280710362456,0.0003572252732193526
150000000000.0,-1,-0.0014219642499999998,-0.0003530394,0.0234967334,0.012561,0.017604,0.004245,-3.5322572635,-9.13587514,-0.47794670105,-1.4363,1.1988,2.4998,-1.666666666655381e-05,-4.999999999988347e-05,2.999999999997449e-05,-0.00037660617589474477,0.00022601892072704466,0.00017720175711355424
150000000000.0,-1,0.0023732093,-0.019848659600000002,0.01124822755,0.01364,0.019725,0.00531,-3.5324533964999993,-9.13587514,-0.47722100894999997,-1.4365,1.1988,2.5002,-1.666666666655381e-05,-9.999999999998899e-05,3.999999999992898e-05,0.000517480368941392,-0.00040843037414162175,0.00017396477232178853
150000000000.0,-1,0.010414662299999999,-0.028890390899999997,-0.012140632699999999,0.013672,0.02186,0.002103,-3.5322572635,-9.1359732065,-0.47687777619999994,-1.4366,1.1988,2.5005,-1.6666666666775853e-05,-5.0000000000105516e-05,-3.999999999992898e-05,-0.00026082726352361085,2.9554420024613393e-06,0.0003133440800842102
150000000000.0,-1,0.014915914649999999,-0.03229329845,-0.0122386992,0.015845,0.026106,0.00103,-3.5318649975,-9.136169339499999,-0.47647570354999996,-1.4367,1.1989,2.5009,-1.6666666666775853e-05,-4.999999999988347e-05,0.00012000000000000899,6.388279368008121e-05,-7.868964281487756e-05,0.00017475458024485135
150000000000.0,-1,0.0193583271,-0.0161025193,-0.0023634026499999997,0.017973,0.026087,0.0021,-3.5314727314999996,-9.1363654725,-0.47573039814999996,-1.4369,1.1989,2.5014,-1.666666666655381e-05,-4.999999999988347e-05,0.00012000000000000899,-0.00031540234945071077,0.00028367066670442753,0.0002443664856874861
150000000000.0,-1,0.01269961175,-0.007678606949999999,-0.010424468949999998,0.023332,0.027112,-0.001095,-3.5310804654999997,-9.136561605499999,-0.47484779964999996,-1.4371,1.199,2.5019,-1.999999999990898e-05,-5.0000000000105516e-05,-0.00014999999999998348,-0.00037470955052087973,0.0001824577831557317,0.0003623582581497864
150000000000.0,-1,0.0040011132,0.0063939358,-0.022682781449999998,0.023361,0.030311,-0.002168,-3.5307862660000002,-9.136659671999999,-0.47411230089999995,-1.4373,1.199,2.5025,-2.0000000000131024e-05,-5.0000000000105516e-05,0.00010999999999994348,0.0002560259179447133,-0.0001614220664927224,0.00022133131909152226
150000000000.0,-1,0.00048052584999999995,0.0149649479,-0.018907221199999998,0.025508,0.03136,-0.003234,-3.530394,-9.136855805,-0.4732493157,-1.4375,1.1991,2.5031,-1.999999999990898e-05,-4.999999999988347e-05,-0.000140000000000029,-0.0010801044748947053,5.338976096536108e-05,0.0006985270179442615
150000000000.0,-1,0.00383440015,0.012493672099999999,0.0008727918499999999,0.029784,0.03239,-0.003228,-3.530001734,-9.137150004499999,-0.47177831819999994,-1.4379,1.1991,2.5038,-2.0000000000131024e-05,-5.0000000000105516e-05,9.00000000000345e-05,-4.48744520540334e-05,-0.00019263186137408184,0.00013213101204057054
150000000000.0,-1,0.006943108199999999,-0.0038442067999999996,0.010591182,0.027663,0.034538,-0.002168,-3.5295114014999998,-9.1373461375,-0.4702779007499999,-1.4383,1.1992,2.5046,-1.999999999990898e-05,-5.0000000000105516e-05,0.00019000000000002348,-0.00047336935593200735,-9.177848147023937e-06,0.00034593029265117536
150000000000.0,-1,0.030076995549999996,-0.033107250399999996,-0.0018044235999999999,0.025504,0.033487,0.00103,-3.5287268695,-9.1377384035,-0.46910110275,-1.4386,1.1993,2.5053,-2.0000000000131024e-05,-4.999999999988347e-05,-4.999999999999449e-05,-0.00019694043672635608,-0.00015979027946877444,0.00017724103897442944
150000000000.0,-1,0.04073682409999999,-0.044100505049999995,-0.0212412039,0.025464,0.029224,0.002102,-3.5278442709999998,-9.1381306695,-0.46821850425,-1.4388,1.1994,2.5059,-1.999999999990898e-05,-5.0000000000105516e-05,-8.000000000008001e-05,-0.0006113811933248225,-0.0004509261794602981,0.0007723160963397646
150000000000.0,-1,0.0450321368,-0.0357746592,-0.031646059549999994,0.022285,0.031383,0.001022,-3.5269616725,-9.1385229355,-0.4676889451499999,-1.439,1.1995,2.5064,-2.0000000000131024e-05,-5.0000000000105516e-05,7.00000000000145e-05,0.00029498462736898823,0.0003989202538441372,-0.00013197144379795134
150000000000.0,-1,0.048493884249999994,-0.035029353799999996,-0.02125101055,0.017983,0.029285,0.004218,-3.5261771404999998,-9.138817134999998,-0.46731629245,-1.439,1.1996,2.5068,-1.999999999990898e-05,-4.999999999988347e-05,-0.00013999999999991797,-0.00017769440981441065,-0.0003378657197157242,0.0004949180126794239
150000000000.0,-1,0.033028797199999994,-0.0324403982,-0.018632634999999998,0.015866,0.031434,0.004208,-3.5256868079999997,-9.139013268,-0.46723783924999995,-1.439,1.1997,2.5072,-2.0000000000131024e-05,-3.333333333332966e-05,0.00017999999999995797,-9.512367848185654e-05,0.0002741068428226967,0.00017402662548926529
150000000000.0,-1,0.0207312581,-0.027321326899999998,-0.0032361944999999997,0.014774,0.030374,0.007409,-3.5256868079999997,-9.139013268,-0.46692402645,-1.4391,1.1997,2.5076,-2.4999999999941735e-05,-3.333333333332966e-05,-1.4999999999987246e-05,-5.290190042872567e-05,6.789164218368171e-06,0.0005548409521392017
150000000000.0,-1,0.01887780125,-0.037804635749999996,0.006462582349999999,0.01585,0.031431,0.007407,-3.5257848744999998,-9.139013268,-0.4664435006,-1.4393,1.1997,2.5081,-2.4999999999941735e-05,-3.333333333332966e-05,-1.4999999999987246e-05,-3.3849696855714484e-05,-3.4031412859514276e-05,0.00042301570761082985
150000000000.0,-1,0.0255757432,-0.0226141349,0.00940457735,0.017968,0.03141,0.010611,-3.5260790739999996,-9.1389152015,-0.46579626169999994,-1.4395,1.1997,2.5086,-2.500000000016378e-05,1.666666666655381e-05,-4.0000000000040004e-05,-0.0001564759459247167,0.00013126011657527137,0.0003682286717348049
150000000000.0,-1,0.0405014645,-0.021182364,0.0067862018,0.017949,0.030342,0.012746,-3.526275207,-9.1389152015,-0.46511960285,-1.4397,1.1996,2.5092,-2.4999999999941735e-05,1.6666666666775853e-05,9.999999999998899e-05,-0.00018552451853715013,0.00043148139370585703,0.0002069273056375387
150000000000.0,-1,0.039079500249999996,-0.022104189099999998,0.00099047165,0.015805,0.030358,0.014874,-3.526863606,-9.138719068499999,-0.46457043044999996,-1.4398,1.1996,2.5096,-2.4999999999941735e-05,1.6666666666775853e-05,-9.999999999998899e-05,3.936643432544962e-05,0.00020816722938499232,0.00043605990999706634
150000000000.0,-1,0.026311241949999998,-0.027272293649999998,0.0028635417999999997,0.012643,0.037839,0.019123,-3.5278442709999998,-9.138326802499998,-0.46450178389999996,-1.4399,1.1995,2.5101,-2.500000000016378e-05,1.666666666655381e-05,9.99999999995449e-06,0.0002948694454558698,0.00011781620900075396,0.0003258293985162197
150000000000.0,-1,0.041335029749999995,-0.035568719549999996,0.011209000949999999,0.01044,0.030395,0.021265,-3.528824936,-9.1379345365,-0.46431545755,-1.44,1.1994,2.5105,-2.4999999999941735e-05,1.666666666655381e-05,1.0000000000065512e-05,0.0002973051829870954,0.000260625816997484,0.00021244223718452915
150000000000.0,-1,0.058065174649999995,-0.053044169849999996,0.011562040349999999,0.008267,0.02615,0.022332,-3.5295114014999998,-9.137640337,-0.46421739104999993,-1.44,1.1993,2.5108,-2.4999999999941735e-05,1.6666666666775853e-05,9.99999999995449e-06,4.134569064828675e-05,0.0005073127446550973,0.0002667472288573336
150000000000.0,-1,0.0752562321,-0.0561528779,0.0043247326499999995,0.005015,0.017655,0.019135,-3.5298056009999996,-9.1375422705,-0.46431545755,-1.44,1.1993,2.511,-4.999999999988347e-05,4.999999999988347e-05,-2.999999999997449e-05,0.000205684777833115,-0.0001644748709437316,0.000316395564628813
150000000000.0,-1,0.09054479944999999,-0.046012801799999996,-0.0224572285,0.003909,0.012338,0.018069,-3.5298056009999996,-9.1375422705,-0.46476656344999995,-1.4399,1.1993,2.5111,-5.0000000000105516e-05,5.0000000000105516e-05,9.999999999998899e-05,0.00032077330263002857,0.00023664061164430095,4.329245679279836e-05
150000000000.0,-1,0.1015184408,-0.04508117005,-0.0215942433,0.006003,0.008058,0.019142,-3.5297075345,-9.1375422705,-0.46488424325,-1.4398,1.1993,2.5111,-2.4999999999941735e-05,5.0000000000105516e-05,-5.999999999994898e-05,0.0003602435153915451,-1.1866321610431996e-05,1.4694848685437023e-05
150000000000.0,-1,0.1040093299,-0.03315628365,0.026683894649999998,0.007038,0.005915,0.022344,-3.530001734,-9.1375422705,-0.46392319155,-1.4401,1.1993,2.5115,-2.500000000016378e-05,4.999999999988347e-05,2.999999999997449e-05,9.196106818798455e-05,0.0002739547454779778,0.0001378681955750416
150000000000.0,-1,0.07712930225,-0.014386355549999999,0.0206135783,0.007006,0.00378,0.025546,-3.5310804654999997,-9.137150004499999,-0.4630896263,-1.4404,1.1991,2.5118,-2.4999999999941735e-05,0.00010000000000021103,-0.00012000000000000899,-0.00011783742103310679,0.00013381229173847764,-2.243804859158871e-05
150000000000.0,-1,0.050484634199999996,-0.015229727449999998,0.02021150565,0.005965,0.006985,0.025536,-3.5325514629999994,-9.136561605499999,-0.4625404539,-1.4406,1.199,2.5121,-2.4999999999941735e-05,9.999999999998899e-05,0.000140000000000029,0.0011072112777568144,-0.00037744776471049235,-0.00015374327071171479
150000000000.0,-1,0.024761791249999998,-0.00846313895,0.02848831825,0.007025,0.005911,0.025538,-3.5345127929999998,-9.13587514,-0.46168727535,-1.4409,1.1988,2.5125,-9.999999999998899e-05,9.999999999998899e-05,0.00012000000000000899,0.00013211790938316703,0.0009154285215560165,-0.0002583090736036908
150000000000.0,-1,0.02886097095,-0.0158279331,0.026007235799999997,0.005978,0.006987,0.023398,-3.5361799235,-9.135286741,-0.4610106165,-1.4412,1.1986,2.5128,-3.333333333332966e-05,9.999999999998899e-05,-0.00021000000000004349,-0.0002572314305206991,-2.049737767850779e-05,0.0002494281312737101
150000000000.0,-1,0.028478511599999996,-0.02121178395,0.00495235825,0.003862,0.009135,0.023389,-3.5377489875,-9.134698342,-0.46090274335,-1.4412,1.1985,2.513,-3.333333333332966e-05,9.999999999998899e-05,2.999999999997449e-05,4.248276373153281e-05,0.0004787701942121636,5.618510018567946e-05
150000000000.0,-1,0.01868166825,-0.0293022702,0.0006276255999999999,0.003859,0.008071,0.022322,-3.5393180515,-9.134011876499999,-0.46075564359999993,-1.4413,1.1983,2.5132,-3.333333333332966e-05,9.999999999998899e-05,1.5000000000098268e-05,-0.000521969119148924,0.0003810141151987523,0.0003486101931891028
150000000000.0,-1,0.019015094349999997,-0.04498310354999999,0.019417167,0.003854,0.00807,0.023388,-3.5408871155,-9.133521543999999,-0.46040260419999995,-1.4415,1.1981,2.5135,-9.999999999998899e-05,9.999999999998899e-05,1.4999999999987246e-05,0.0007425885192948734,0.00024933450560138404,-0.00030268220766327403
150000000000.0,-1,0.014317708999999998,-0.0461893215,0.029400336699999995,-0.000389,0.010236,0.022308,-3.5424561795,-9.1328350785,-0.46020647119999997,-1.4416,1.198,2.5137,-5.0000000000105516e-05,9.999999999998899e-05,-0.0001100000000000545,-0.0009604365456756803,1.60052632072194e-05,0.0005927995306400646
150000000000.0,-1,0.007060788,-0.032577691299999996,0.024251845449999997,0.000703,0.011296,0.019104,-3.5440252434999997,-9.1322466795,-0.46014763129999997,-1.4417,1.1978,2.5139,-4.999999999988347e-05,9.999999999998899e-05,0.000160000000000049,-1.4241277785709272e-05,-0.0005331959284062826,0.00039517339840333676
150000000000.0,-1,0.005717276949999999,-0.0362453784,0.03372506935,0.000736,0.014493,0.018031,-3.5453981745,-9.131756347,-0.4600495648,-1.4418,1.1976,2.5141,-9.999999999998899e-05,9.999999999998899e-05,1.999999999990898e-05,6.530606892707347e-05,-8.599280928800468e-05,0.0002709381208987338
150000000000.0,-1,0.00903192465,-0.013905829699999999,0.0414036763,0.00401,0.020864,0.013755,-3.546476906,-9.131364081,-0.45978478525,-1.4419,1.1975,2.5144,-9.999999999998899e-05,9.999999999998899e-05,6.0000000000060005e-05,-4.181096461519651e-05,5.49871736728047e-05,0.00044837754929183404
150000000000.0,-1,-0.00031381279999999996,0.027654752999999997,0.0232613738,0.008318,0.025091,0.012688,-3.5477517704999997,-9.130873748499999,-0.45959845889999995,-1.442,1.1974,2.5147,-2.4999999999941735e-05,0.00019999999999997797,-2.0000000000020002e-05,0.0004251888533501891,0.00017411359031482831,0.00023115175807619792
150000000000.0,-1,-0.0120817928,0.04780741875,0.0393050532,0.016928,0.033546,0.011622,-3.5491247015,-9.130383415999999,-0.45874528035,-1.4423,1.1972,2.5154,-2.4999999999941735e-05,9.999999999998899e-05,4.0000000000040004e-05,0.0007330008140571387,-0.0002620393324281878,0.00042557512668839337
150000000000.0,-1,-0.01442558215,0.055309505999999994,0.03231291175,0.022317,0.038831,0.009489,-3.5503995659999994,-9.129893083499999,-0.45757828899999997,-1.4426,1.1971,2.5161,-2.500000000016378e-05,9.999999999998899e-05,-0.00017000000000000348,-0.0008872991267299124,0.00011070634999077456,0.0008671118189407245
150000000000.0,-1,-0.0254776767,0.0424824078,0.019309293849999996,0.028772,0.044108,0.007358,-3.5515763639999998,-9.1295008175,-0.4562445846,-1.443,1.197,2.517,-2.4999999999941735e-05,9.999999999998899e-05,7.999999999996898e-05,9.591813001574856e-05,0.00014047573093467491,0.0005975986581630011
150000000000.0,-1,-0.032254071849999996,0.02789991925,0.0030008349,0.035208,0.048317,0.007364,-3.5527531619999997,-9.129206618,-0.45475397379999993,-1.4435,1.1969,2.518,9.999999999998899e-05,9.999999999998899e-05,-0.00017999999999995797,0.00036804808371981856,-8.178266828373637e-05,0.0005013370088620128
150000000000.0,-1,-0.0418155556,0.0020986231,-0.012601545249999999,0.03525,0.053645,0.007357,-3.5538318934999995,-9.128814352,-0.45366543564999995,-1.4438,1.1968,2.5189,-3.333333333332966e-05,0.00019999999999997797,-0.00012000000000000899,0.0002241711636052912,0.00048538897239347456,0.00045427798855746104
150000000000.0,-1,-0.033028797199999994,-0.0105127288,-0.03138128,0.032081,0.055806,0.004147,-3.5544202924999997,-9.128618219,-0.4531456832,-1.444,1.1968,2.5197,-3.333333333332966e-05,9.999999999998899e-05,-3.0000000000085514e-05,0.0003199408865051101,0.00014890039272974498,0.0005096931122601234
150000000000.0,-1,-0.024349911949999997,-0.011365907350000001,-0.0462089348,0.033185,0.060061,0.003075,-3.554714492,-9.128520152499998,-0.45297897015,-1.444,1.1967,2.5204,-3.333333333332966e-05,9.999999999998899e-05,2.0000000000020002e-05,-7.571897097680136e-05,0.00011680800951219261,0.0004312659386238593
150000000000.0,-1,-0.03254827135,0.009267284249999999,-0.04201168859999999,0.036389,0.060037,0.002015,-3.5552048245,-9.128324019499999,-0.45254747754999997,-1.4442,1.1967,2.5213,-5.0000000000105516e-05,0.00010000000000021103,-4.999999999999449e-05,-4.114833661494899e-05,0.00013567027741423487,0.0004046356305722476
150000000000.0,-1,-0.03394081565,0.0364611247,-0.04170768245,0.039636,0.06534,0.000946,-3.5556951569999997,-9.1281278865,-0.45193946525,-1.4444,1.1966,2.5222,-4.999999999988347e-05,0.00019999999999997797,6.0000000000060005e-05,-0.0003257816787873846,0.0008304493707729232,0.00034457795648545897
150000000000.0,-1,-0.038569554449999995,0.053171656299999995,-0.0503277278,0.046069,0.06955,0.000953,-3.556283556,-9.1279317535,-0.45110589999999995,-1.4446,1.1966,2.5232,-9.999999999998899e-05,9.999999999998899e-05,7.999999999996898e-05,0.0002368095940148418,0.0004389965137530094,0.0001490817618781115
150000000000.0,-1,-0.047415152749999995,0.05724141605,-0.042521634399999994,0.04934,0.075922,-0.003319,-3.5567738885,-9.127833687,-0.45008600839999996,-1.4449,1.1965,2.5243,-0.0006999999999999229,0.00029999999999996696,0.0011900000000000244,-3.102059724957584e-05,-0.0011082366091024198,0.0010954762884800573
150000000000.0,-1,-0.054574007249999994,0.0474445727,-0.053897348399999996,0.052574,0.079095,-0.00545,-3.557068088,-9.1277356205,-0.44903669685000003,-1.4452,1.1965,2.5255,-3.333333333332966e-05,9.999999999998899e-05,-4.999999999999449e-05,-0.00027578812329132063,-8.279961884527509e-05,0.0006869339965209775
150000000000.0,-1,-0.06187015485,0.043767078949999996,-0.06816602414999999,0.05368,0.084415,-0.005453,-3.5573622875,-9.127637554,-0.44823255154999997,-1.4455,1.1965,2.5267,-3.333333333355171e-05,1.2499999999970868e-05,-4.999999999999449e-05,-0.0005608676085102626,-0.0007229411474360958,0.0011745591607033035
150000000000.0,-1,-0.056231331100000004,0.021300043799999998,-0.07325567549999999,0.04941,0.084452,-0.005458,-3.5575584204999995,-9.127637554,-0.44778144565,-1.4456,1.1965,2.5278,-3.333333333332966e-05,1.2499999999970868e-05,5.999999999994898e-05,-0.0005293764962386316,-0.0012757551693032276,0.0013011799888236197
150000000000.0,-1,-0.055927324949999996,0.00610954295,-0.0863769732,0.045123,0.084485,-0.00226,-3.5576564869999996,-9.1275394875,-0.4481246784,-1.4455,1.1965,2.5287,-9.999999999998899e-05,1.2499999999970868e-05,-9.99999999995449e-06,-0.00039807280579240434,-0.0007850869234038438,0.0012114205636102326
150000000000.0,-1,-0.05149471914999999,0.0053348176,-0.09079977234999999,0.042929,0.080238,0.002016,-3.5580487529999996,-9.127343354499999,-0.44864443084999994,-1.4454,1.1964,2.5295,9.999999999998899e-05,1.2500000000192912e-05,-0.00012000000000000899,-0.00032443388305658516,-0.0008269997729275502,0.0011578357118917637
150000000000.0,-1,-0.0399915187,0.0080218397,-0.08791661725,0.042896,0.07917,0.00629,-3.558833285,-9.127049155,-0.4489876636,-1.4453,1.1963,2.5303,-9.999999999998899e-05,1.2499999999970868e-05,-7.00000000000145e-05,-0.0008266058414039268,0.0011338071718220988,0.0006382779153168983
150000000000.0,-1,-0.02784107935,0.01730873725,-0.0627233334,0.042879,0.078105,0.007361,-3.5595197505,-9.1267549555,-0.4488895971,-1.4454,1.1963,2.5313,-5.0000000000105516e-05,1.2499999999970868e-05,-9.99999999995449e-06,2.5012958398074048e-05,-0.00014046405742074164,0.0009165408443023715
