Time,placement_label,user_acc_x(m/s^2),user_acc_y(m/s^2),user_acc_z(m/s^2),rotation_rate_x(rad/s),rotation_rate_y(rad/s),rotation_rate_z(rad/s),gravity_x(m/s^2),gravity_y(m/s^2),gravity_z(m/s^2),attitude_roll(rad),attitude_pitch(rad),attitude_yaw(rad),target_delta_x,target_delta_y,target_delta_z,target_delta_roll,target_delta_pitch,target_delta_yaw
150000000000.0,-1,-0.0046189321499999995,0.0638020649,-0.06098755634999999,0.028535,-0.051017,-0.017501,-0.21474602169999998,-9.774876454,0.75949562255,-2.866,1.4902,0.93418,0.0,0.0,0.0,0.0,0.0,0.0
150000000000.0,-1,-0.00226533615,0.05600577815,-0.07728620865000001,0.041304,-0.05432,-0.016405,-0.21276507839999997,-9.774680320999998,0.76218264465,-2.8694,1.49,0.93699,3.0000000000085514e-05,-0.00010000000000021103,5.999999999994898e-05,0.0001845497133623475,0.0006623175441702323,-0.0011851738561787784
150000000000.0,-1,-0.0026870221,0.04096237705,-0.07004890094999999,0.047723,-0.051176,-0.015331,-0.21084297499999996,-9.774484188,0.76571303865,-2.8729,1.4897,0.94,1.999999999990898e-05,-9.999999999976694e-05,4.999999999999449e-05,-0.0009525229726814466,-0.00033157923455418015,-0.00015286405258052582
150000000000.0,-1,-0.00222610955,0.00505042475,-0.0452086565,0.049833,-0.053326,-0.014256,-0.2090581647,-9.7741899885,0.7699004781999998,-2.8764,1.4894,0.94304,4.999999999999449e-05,-0.00019999999999997797,2.999999999997449e-05,0.0005128160952745375,-0.0004492573251171361,-0.00039438002048886034
150000000000.0,-1,-0.010473502199999998,-0.02256510165,-0.03090075415,0.044516,-0.050086,-0.013203,-0.20754794059999998,-9.773895789,0.7732543525,-2.8794,1.4891,0.94546,6.0000000000060005e-05,-0.00010000000000021103,1.0000000000065512e-05,-0.0013062716923206708,-0.0005920775024126357,-0.00036876613085201626
150000000000.0,-1,-0.011836626549999998,-0.02283968785,-0.03478418755,0.034902,-0.048946,-0.008952,-0.20618481624999999,-9.7736015895,0.7771377858999999,-2.8823,1.4887,0.94786,7.00000000000145e-05,-0.00019999999999997797,-2.0000000000020002e-05,-8.610639461781311e-05,-0.0005074975582384234,-0.00010309341053993393
150000000000.0,-1,-0.017191057449999998,-0.004648352099999999,-0.00687446165,0.026373,-0.046747,-0.006835,-0.20532183105,-9.773405456499999,0.78005036095,-2.8842,1.4885,0.94935,0.00013999999999991797,-0.00010000000000021103,2.999999999997449e-05,-0.0009036546460552408,-1.048507322964909e-06,-0.0009243697008995966
150000000000.0,-1,-0.02383996615,-0.00048052584999999995,0.01399408955,0.016801,-0.042407,-0.005791,-0.20481188525,-9.7732093235,0.782374537,-2.8856,1.4882,0.95025,9.00000000000345e-05,-0.00019999999999997797,-3.999999999992898e-05,-0.00026722079251406683,-0.0005338273348938216,-0.0004827622661203179
150000000000.0,-1,-0.03488225405,0.005236751099999999,0.01691647125,0.008276,-0.039143,-0.002608,-0.20483149855,-9.773111257,0.7837965012499999,-2.886,1.4881,0.95026,0.00021000000000004349,-9.999999999976694e-05,2.999999999997449e-05,0.001910797778552853,0.0008827232613817237,-0.002043090974353845
150000000000.0,-1,-0.0342448218,0.0108461549,0.020348798749999997,0.002937,-0.0391,-0.001549,-0.20502763154999998,-9.773013190499999,0.78469871305,-2.886,1.488,0.94992,0.00012000000000000899,-0.00019999999999997797,3.999999999992898e-05,-0.0008503939541848471,-0.0003975065704417968,4.628671131001738e-05
150000000000.0,-1,-0.0261249156,0.0059036033,0.010012589649999999,-0.004512,-0.03478,0.001634,-0.20537086429999998,-9.773013190499999,0.78471832635,-2.8856,1.488,0.94917,8.500000000000174e-05,-0.00019999999999997797,-6.999999999990347e-05,-0.002045115008249443,-0.001007384632915942,-0.0002538567375260925
150000000000.0,-1,-0.0325973046,0.0002549729,-0.005060231399999999,-0.008767,-0.030486,0.00589,-0.20622404284999998,-9.773111257,0.7839239876999999,-2.8844,1.488,0.94759,8.500000000000174e-05,-0.00010000000000021103,2.999999999997449e-05,0.001275109002523589,0.00047921990132504533,-0.0014359393541649723
150000000000.0,-1,-0.024281265399999998,0.0175342902,-0.01101286795,-0.0109,-0.028341,0.009086,-0.20721451449999997,-9.7732093235,0.7828452561999999,-2.8828,1.4881,0.94576,0.00013999999999991797,-9.999999999976694e-05,2.0000000000020002e-05,-0.00035224154258561846,0.00015497315939461132,-0.0005439381602236892
150000000000.0,-1,-0.011375713999999999,0.031234180249999997,-0.023967452599999998,-0.011972,-0.026205,0.013351,-0.20844034574999998,-9.7732093235,0.7814330986,-2.8809,1.4882,0.94358,9.00000000000345e-05,-0.00019999999999997797,-7.00000000000145e-05,-0.0006354090618221342,-4.747927711989952e-05,-0.0012057757986108086
150000000000.0,-1,-0.010473502199999998,0.03909911355,-0.03064578125,-0.009844,-0.024095,0.017621,-0.21008786295,-9.77330739,0.7800307476499999,-2.8785,1.4883,0.94091,0.00017000000000000348,-0.00010000000000021103,9.999999999998899e-05,0.0005177088793717477,0.0004945601736956462,-0.0014992844802703686
150000000000.0,-1,-0.00150041745,0.05173007875,-0.0350685804,-0.007688,-0.019853,0.019753,-0.21188247989999998,-9.773405456499999,0.7787656897999999,-2.8759,1.4884,0.93814,0.0001100000000000545,-9.999999999976694e-05,-2.0000000000020002e-05,0.001676881426077026,0.00014491012054684838,-0.0008189406374548014
150000000000.0,-1,0.00877695175,0.0685484835,-0.029576856399999997,-0.00983,-0.018773,0.022949,-0.21378497,-9.773405456499999,0.77746140535,-2.8732,1.4885,0.93524,-2.0000000000020002e-05,-0.00019999999999997797,-0.00017000000000000348,-0.0022537843912551203,-0.0012911365306971234,0.0006739357978720051
150000000000.0,-1,0.00828661925,0.06322347254999999,-0.01624961905,-0.013002,-0.014485,0.024003,-0.21599146624999999,-9.773503522999999,0.7761178943,-2.8702,1.4886,0.93199,0.00013999999999991797,-0.00010000000000021103,-9.99999999995449e-06,0.001378995856213594,0.00032071171816427935,-0.0007207165851461639
150000000000.0,-1,-0.004393379199999999,0.0314401199,-0.01793636285,-0.019384,-0.011237,0.025054,-0.21842351545,-9.7736015895,0.77420559755,-2.8666,1.4887,0.92831,6.0000000000060005e-05,-9.999999999976694e-05,-2.0000000000020002e-05,-0.00025306094644483856,0.0002497463613981843,-1.4387089770195871e-05
150000000000.0,-1,-0.00106892485,-0.01781868305,-0.0052857843499999994,-0.022579,-0.011209,0.023982,-0.22084575799999998,-9.773699656,0.77202852125,-2.863,1.4888,0.92455,0.000140000000000029,-0.00020000000000042206,-2.0000000000020002e-05,1.0992495675710146e-05,0.0003757161657937935,-0.0004639166434339259
150000000000.0,-1,-0.01417060925,-0.07369697474999999,0.025330576949999996,-0.024664,-0.005863,0.022902,-0.2234543269,-9.7737977225,0.7701358378,-2.8592,1.4889,0.9207,7.999999999996898e-05,-9.999999999976694e-05,-2.0000000000020002e-05,0.0004083314793492665,0.00047188009524545826,-0.00012620730623957854
150000000000.0,-1,-0.012062179499999999,-0.07354006834999999,0.02784107935,-0.025703,-0.003721,0.020762,-0.22556275665,-9.773993855499999,0.7676351420499999,-2.8558,1.4891,0.91725,0.00012999999999996348,-0.00010000000000021103,-2.999999999997449e-05,-0.0004746052632704778,2.1796755376612964e-05,-0.00018610305373112368
150000000000.0,-1,-0.0019122967499999998,-0.12037662874999999,0.033244543499999994,-0.031023,-0.002611,0.019683,-0.22748486005,-9.774091922,0.76506579975,-2.8526,1.4893,0.914,3.0000000000085514e-05,-0.00019999999999997797,-0.00012999999999996348,-0.00040557150693043553,-8.665403750107714e-08,-0.00010540301891293069
150000000000.0,-1,-0.014013702849999999,-0.16132919915,0.022898527749999998,-0.035271,-0.001508,0.01754,-0.22944619005,-9.774288055,0.76194728505,-2.8491,1.4896,0.91049,0.00016999999999989246,-9.999999999976694e-05,-4.999999999999449e-05,-0.0010311195127599149,-0.00015231798939741026,1.7990779817900204e-05
150000000000.0,-1,-0.02007421255,-0.17095932945,0.0146315218,-0.039485,0.003857,0.015389,-0.2313192602,-9.7745822545,0.7582501779999999,-2.8455,1.4899,0.90689,1.0000000000065512e-05,-0.00019999999999997797,-0.000140000000000029,-0.0019169849473752443,-0.0010360561329101348,0.001084401896726206
150000000000.0,-1,-0.0083944924,-0.11909195759999999,0.04617951484999999,-0.043729,0.006025,0.01431,-0.23281967765,-9.7747783875,0.7546805574,-2.8424,1.4902,0.90378,0.000260000000000038,-0.00010000000000021103,0.00012999999999996348,0.0007983043606720752,0.0008749034572681502,-0.0005672725216232521
150000000000.0,-1,0.00013729309999999998,-0.05706489635,0.0676266584,-0.044772,0.008165,0.013237,-0.23417299535,-9.7749745205,0.7513462964,-2.8395,1.4905,0.90097,3.999999999992898e-05,-0.00019999999999997797,-0.00010999999999994348,0.0008098056230130268,-7.007989562168859e-05,-9.850245931275481e-05
150000000000.0,-1,0.0107088618,-0.00534462425,0.05323049619999999,-0.043703,0.008156,0.013238,-0.23532037339999998,-9.77526872,0.74778648245,-2.8367,1.4908,0.8983,0.00012000000000000899,-0.00019999999999997797,5.999999999994898e-05,0.0008751956057873045,0.0006764944053221367,-0.0008882961914276066
150000000000.0,-1,0.023712479699999997,0.01705376435,0.03035158175,-0.040498,0.009194,0.014308,-0.236340265,-9.775464852999999,0.7441776352499999,-2.8341,1.4911,0.89573,9.00000000000345e-05,-9.999999999976694e-05,-4.999999999921734e-06,0.0004409096944297808,0.0003019992020718565,0.00014134650741493004
150000000000.0,-1,0.03223445855,-0.01756371015,0.02358499325,-0.039391,0.013448,0.013234,-0.2372424768,-9.7757590525,0.74060801465,-2.8316,1.4914,0.89336,9.00000000000345e-05,-0.00010000000000021103,-5.000000000032756e-06,0.0009606904556442863,-7.652305291072636e-05,-0.0003472659491787766
150000000000.0,-1,0.024722564649999997,-0.058192661099999994,0.036951457199999996,-0.038332,0.012374,0.013236,-0.23825256174999998,-9.775955185499999,0.7372737536499999,-2.829,1.4917,0.89092,0.0006899999999999684,-0.0005999999999999339,0.0005699999999999594,0.006220392172036737,-0.009843934262341314,0.008624869892734921
150000000000.0,-1,0.020564545049999997,-0.0911822317,0.04759167245,-0.040425,0.016654,0.012156,-0.23918419349999998,-9.776249385,0.73395910595,-2.8266,1.492,0.8886,-0.0004899999999999904,0.00039999999999995595,-0.0005600000000000049,-0.003978673918485054,0.010354210621431159,-0.009066095719161282
150000000000.0,-1,0.0188876079,-0.08438622324999999,0.057859234999999995,-0.040412,0.018784,0.013219,-0.24020408509999996,-9.776445518,0.7307327181,-2.824,1.4923,0.88618,0.00012999999999996348,-0.00019999999999997797,2.0000000000020002e-05,0.0017959329706254135,0.0003620546953573278,-0.0009868523820699693
150000000000.0,-1,0.030106415499999997,-0.0602520576,0.07408924075,-0.039337,0.018776,0.012152,-0.2409493905,-9.776641651,0.7279672428,-2.822,1.4925,0.88431,7.00000000000145e-05,-9.999999999976694e-05,-2.0000000000020002e-05,-0.0009466530697657127,-6.069824461940598e-06,0.00024595973073715527
150000000000.0,-1,0.03580407915,0.01648497865,0.08148345485,-0.032913,0.021918,0.013223,-0.2418516023,-9.7767397175,0.7259568795499999,-2.82,1.4927,0.88256,9.00000000000345e-05,-0.00010000000000021103,7.00000000000145e-05,0.0014809214169466678,0.0004215407744110333,-0.0005817827262095676
150000000000.0,-1,0.04535575625,0.10919704775,0.06165440855,-0.023336,0.019705,0.015376,-0.24272439414999997,-9.776837784,0.72454472195,-2.8183,1.4928,0.88108,7.999999999996898e-05,-0.00010000000000021103,7.00000000000145e-05,0.0005170342959481822,0.0003696009207985185,1.7006252497786534e-05
150000000000.0,-1,0.06653812025,0.15907366964999997,0.044737937299999996,-0.01371,0.021758,0.014318,-0.24326375990000002,-9.776837784,0.7237994165499999,-2.8174,1.4929,0.88031,9.00000000000345e-05,-0.00019999999999997797,2.0000000000020002e-05,0.00012786311682244644,0.00020252417963328995,0.00021559048036490225
150000000000.0,-1,0.06449833705,0.16266290355,0.02452643165,-0.005172,0.020623,0.012197,-0.24360699264999996,-9.776837784,0.7236621234499999,-2.8169,1.4929,0.88002,4.999999999999449e-05,-9.999999999976694e-05,9.99999999995449e-06,0.0004251122239806726,-0.0006968200618209242,0.0007590473128997743
150000000000.0,-1,0.038157675149999994,0.13853854455,0.0125917386,0.001268,0.022706,0.007934,-0.24405809855,-9.776837784,0.7239170963499999,-2.8164,1.4928,0.87979,0.00010999999999994348,-0.00019999999999997797,4.0000000000040004e-05,0.001024191434108701,0.00012181523130605498,-7.086883163864854e-06
150000000000.0,-1,0.018956254449999998,0.0819051408,0.026752541199999997,0.005608,0.02694,0.000461,-0.24415616504999998,-9.7767397175,0.72487814805,-2.8167,1.4927,0.88032,0.00012000000000000899,-0.00019999999999997797,-2.0000000000020002e-05,0.00023276353998458177,-0.0003992354088715455,0.000266185100151084
150000000000.0,-1,0.009610516999999999,0.035686399349999995,0.05255383735,0.010946,0.023704,-0.004862,-0.24379331899999998,-9.776641651,0.7267512181999999,-2.8179,1.4925,0.88179,9.00000000000345e-05,-0.00010000000000021103,-6.0000000000060005e-05,0.0005366173046432721,9.792801140751095e-05,0.0004449759713791579
150000000000.0,-1,-0.0029910282499999996,-0.023388860249999997,0.0676266584,0.007797,0.025868,-0.011276,-0.24300878699999998,-9.776543584499999,0.7285948684,-2.8197,1.4924,0.88378,0.00015999999999993797,-0.00019999999999997797,2.0000000000020002e-05,-0.00046804354223017874,0.00014008851282953927,0.00044905412056017724
150000000000.0,-1,-0.00940457735,-0.08797545714999999,0.0695879884,0.005687,0.02589,-0.015549,-0.241831989,-9.776445518,0.7302227723,-2.8218,1.4923,0.88617,9.999999999998899e-05,-9.999999999976694e-05,-9.99999999995449e-06,0.0004875432977802241,9.968324096343295e-05,-0.0007138139477751437
150000000000.0,-1,-0.00911037785,-0.11751308695,0.07565830474999999,0.000413,0.031264,-0.01877,-0.24034137819999998,-9.7763474515,0.73148783015,-2.8241,1.4922,0.88882,0.000180000000000069,-0.00010000000000021103,4.0000000000040004e-05,-0.00046148520768807266,0.0003449417760377216,-0.0004628808237212567
150000000000.0,-1,0.0010395049,-0.08681827245,0.10486250844999999,-0.005983,0.029189,-0.021979,-0.23850753464999996,-9.776249385,0.7338512327999999,-2.8274,1.492,0.89233,0.00027999999999994696,-9.999999999976694e-05,3.999999999992898e-05,0.0018803373605063012,0.0009229577950771173,-0.0008515648420752697
150000000000.0,-1,-0.0008825985,-0.08668097934999999,0.1060491131,-0.012345,0.033505,-0.023065,-0.2365952379,-9.7763474515,0.7326744347999999,-2.8292,1.4922,0.89456,7.00000000000145e-05,-0.00010000000000021103,-7.00000000000145e-05,-0.0011533398326812883,-0.0010011564599632372,0.0008363679963725446
150000000000.0,-1,0.013788149899999998,-0.0508769002,0.11593421629999999,-0.018699,0.038885,-0.023087,-0.23435932169999998,-9.776445518,0.7328117278999999,-2.8321,1.4923,0.89775,0.00012000000000000899,-9.999999999976694e-05,-4.999999999999449e-05,-0.0016128511924937694,-0.0005317456632083495,0.0004374489230780654
150000000000.0,-1,0.01860321505,0.016504591949999998,0.0931827883,-0.01552,0.037789,-0.019879,-0.23228031189999998,-9.776445518,0.7328117278999999,-2.8346,1.4923,0.9007,0.00012999999999996348,-0.00010000000000021103,-2.999999999997449e-05,0.0004505655944431197,-7.657518495141069e-05,-0.0001860924242258477
150000000000.0,-1,0.024026292499999997,0.07040194035,0.0779824808,-0.010195,0.038806,-0.015603,-0.23052492154999998,-9.776445518,0.7330470874999999,-2.8369,1.4924,0.90337,0.00012000000000000899,-4.999999999988347e-05,9.00000000000345e-05,-0.0001792939629026158,6.703856268885922e-05,-2.519414190516045e-05
150000000000.0,-1,0.0336760361,0.0874557047,0.050621927299999994,-0.002744,0.037676,-0.013455,-0.22879895114999999,-9.776445518,0.7336354865,-2.8393,1.4924,0.90612,0.00012000000000000899,-4.999999999988347e-05,9.99999999995449e-06,-0.0001132409683095581,-0.0004201680912729877,0.0004213026429873423
150000000000.0,-1,0.04102121695,0.09012311349999999,0.0279881791,0.004737,0.039745,-0.012381,-0.22717104725,-9.776445518,0.73456711825,-2.8417,1.4923,0.90889,7.00000000000145e-05,-0.00010000000000021103,-2.999999999997449e-05,4.792929159891379e-05,-4.603241260570101e-05,0.00010880391750234253
150000000000.0,-1,0.035147033599999995,0.056094038,0.020809711300000002,0.008983,0.037577,-0.011304,-0.2257883096,-9.776445518,0.7357537229,-2.8438,1.4922,0.91145,7.999999999996898e-05,-4.999999999988347e-05,2.0000000000020002e-05,0.0002635139968307776,-0.0002708297143243499,0.00020661510915953585
150000000000.0,-1,0.02582090945,0.00679600845,0.026164142199999997,0.011145,0.039692,-0.01344,-0.2243957653,-9.7763474515,0.7371364605499999,-2.8461,1.4921,0.91409,8.000000000008001e-05,-5.000000000032756e-05,-3.0000000000085514e-05,-0.0002165346269038526,-0.00022770510852243575,9.108138216440409e-05
150000000000.0,-1,0.0096497436,-0.022329742049999997,0.04339442625,0.009022,0.040775,-0.013446,-0.2231797407,-9.776249385,0.7387643644499999,-2.8482,1.492,0.91661,7.999999999996898e-05,-9.999999999976694e-05,-4.999999999999449e-05,-0.0001927462128301638,-0.0001786864679806932,0.00037254339014491933
150000000000.0,-1,-0.0059624432,-0.045483242699999996,0.0738244612,0.005851,0.042935,-0.01559,-0.22209120255,-9.7761513185,0.7405099481499999,-2.8502,1.4919,0.91905,9.00000000000345e-05,-5.000000000032756e-05,-9.99999999995449e-06,-0.0002832029560486671,3.730678360036599e-05,0.00016058901279158988
150000000000.0,-1,-0.0140038962,-0.053701215399999995,0.09099590535,0.006927,0.042927,-0.016655,-0.22108111760000002,-9.775955185499999,0.7426379912,-2.8523,1.4917,0.92153,0.00010999999999994348,-4.999999999988347e-05,-2.999999999997449e-05,-0.000697214296453641,-0.0002394512116805636,0.000571789668827094
150000000000.0,-1,-0.01303303785,-0.0479545185,0.07483454614999999,0.00267,0.044027,-0.016664,-0.21995335285,-9.775955185499999,0.744128602,-2.8542,1.4916,0.9239,7.00000000000145e-05,-9.999999999976694e-05,-4.999999999999449e-05,0.0002794554971905505,-5.4856933275226893e-05,1.179481930790871e-06
150000000000.0,-1,-0.0188483813,-0.0391873734,0.07544255845,-0.002675,0.043005,-0.015604,-0.2189236546,-9.775857119,0.7451681068999999,-2.8558,1.4915,0.92598,7.999999999996898e-05,-0.00010000000000021103,3.999999999992898e-05,-0.00013414184348436997,-0.00037848143216101526,0.0010983885748485633
150000000000.0,-1,-0.023330020349999998,-0.0260268491,0.06815621749999999,-0.004777,0.044092,-0.019878,-0.21772724329999998,-9.775857119,0.7457270859499999,-2.8575,1.4915,0.92812,9.00000000000345e-05,-4.999999999988347e-05,-9.99999999995449e-06,-0.0002901807920887567,-0.00035327560284681425,0.0003171122311789176
150000000000.0,-1,-0.016190779149999997,-0.04486542375,0.077080269,-0.011147,0.046278,-0.022027,-0.21619740589999997,-9.775857119,0.7459330256,-2.8595,1.4915,0.93055,7.999999999996898e-05,-4.999999999988347e-05,5.000000000032756e-06,4.393151470494239e-05,-9.577994700937786e-05,0.0004925733250580322
150000000000.0,-1,-0.02372228635,-0.06132098245,0.0892601283,-0.010055,0.048402,-0.023095,-0.2146479552,-9.775857119,0.74631548495,-2.8615,1.4915,0.9331,7.00000000000145e-05,-5.000000000032756e-05,4.999999999921734e-06,-0.0003893927079916537,-0.0006923871388417879,0.0005982586895152409
150000000000.0,-1,-0.0273997801,-0.0557606119,0.08854424285,-0.012189,0.047355,-0.024164,-0.21305927789999998,-9.775857119,0.74643316475,-2.8635,1.4916,0.9356,9.99999999995449e-06,-4.999999999988347e-05,-7.00000000000145e-05,-0.0005787101721217436,-0.00015182487706932868,0.0005975920760876718
150000000000.0,-1,-0.037794829099999996,-0.04543420945,0.08353304469999999,-0.008994,0.046263,-0.024155,-0.2116471203,-9.775857119,0.74680581745,-2.8654,1.4916,0.93796,1.0000000000065512e-05,-4.999999999988347e-05,-9.99999999995449e-06,-6.297050358994305e-05,-0.0004376869963504948,0.00017947306026044885
150000000000.0,-1,-0.029949509099999997,-0.01774022985,0.0607031635,-0.005788,0.047301,-0.023082,-0.2102153494,-9.775857119,0.7470313703999999,-2.8673,1.4916,0.94029,4.0000000000040004e-05,-4.999999999988347e-05,-2.0000000000020002e-05,0.0001123793427946218,-9.591125479824214e-05,0.000540790462828511
150000000000.0,-1,-0.0146511351,0.02864522465,0.04282564055,0.000599,0.047245,-0.019868,-0.20875415854999999,-9.775857119,0.7475609295,-2.8693,1.4916,0.94277,9.99999999995449e-06,1.2499999999970868e-05,3.500000000000725e-05,2.8998290820370087e-05,-0.0002944794520327587,0.00020458476956797256
150000000000.0,-1,-0.007423634049999999,0.0697252815,0.035500073,0.008047,0.04718,-0.015585,-0.2076067805,-9.775857119,0.74874753415,-2.8711,1.4915,0.94508,7.999999999996898e-05,1.2499999999970868e-05,3.500000000000725e-05,0.0008275441912075632,-0.00011061600628803347,0.00035339277932511237
150000000000.0,-1,-0.0049915848499999995,0.09325143485,0.023712479699999997,0.016559,0.046041,-0.012366,-0.20674379529999998,-9.775660985999998,0.75051273115,-2.8728,1.4913,0.94722,1.0000000000065512e-05,1.2499999999970868e-05,-9.99999999995449e-06,-8.668165528957772e-05,-0.0004017700669207702,0.00013750202785356436
150000000000.0,-1,-0.00122583125,0.0966739557,0.018054042649999998,0.021861,0.043862,-0.009151,-0.2061750096,-9.775562919499999,0.7528859404499999,-2.8743,1.4911,0.94918,-5.000000000032756e-06,1.2499999999970868e-05,-2.0000000000020002e-05,0.0006591705209808563,-1.3857017052698595e-05,0.00021695718619696436
150000000000.0,-1,0.00818855275,0.0565451439,0.0034029075499999997,0.025041,0.043832,-0.004876,-0.20586119679999998,-9.7753667865,0.75525914975,-2.8755,1.4909,0.95082,-5.000000000032756e-06,1.2499999999970868e-05,-4.0000000000040004e-05,-8.65607021978132e-05,-0.00031121142365519994,0.00010749162009382474
150000000000.0,-1,-0.014621715149999999,-0.0829838723,0.0329699573,0.020761,0.0428,-0.003814,-0.20593965,-9.775170653499998,0.7580148184,-2.8763,1.4906,0.95208,4.0000000000040004e-05,1.2499999999970868e-05,8.000000000008001e-05,0.00041541083770768594,0.0006850725178089156,0.0008954405046885938
150000000000.0,-1,-0.0144746154,-0.08311135874999999,0.0313420534,0.015416,0.042842,-0.001688,-0.2060965564,-9.7749745205,0.7596427223,-2.8767,1.4904,0.95286,4.0000000000040004e-05,1.2499999999970868e-05,-9.99999999995449e-06,-4.070432540181912e-05,0.0002702355316930305,0.0005494903559135622
150000000000.0,-1,-0.0314989598,-0.10213625975,0.0565255306,0.010095,0.045016,-0.000633,-0.20687128174999997,-9.774876454,0.7615452124,-2.8763,1.4902,0.95298,3.999999999992898e-05,1.2499999999970868e-05,-1.0000000000065512e-05,4.0771602485056846e-05,-0.00017463689513297354,0.00019645586654704061
150000000000.0,-1,-0.03541181315,-0.07475609294999999,0.0812971285,0.003695,0.046133,0.001491,-0.20790097999999999,-9.774680320999998,0.7632613761499999,-2.8757,1.49,0.95274,-2.0000000000020002e-05,-0.0002999999999997449,-0.000180000000000069,8.473646113715816e-05,-0.0012514023392591334,-0.0010711715879416772
150000000000.0,-1,-0.0301848687,-0.02013305245,0.07517777889999999,0.002593,0.044006,0.005764,-0.20923468439999998,-9.7745822545,0.7647421803,-2.8745,1.4899,0.95206,-9.99999999995449e-06,-0.00010000000000021103,-0.00017000000000000348,0.0003669621690738367,-0.0011606735551108471,-0.00029719577557152377
150000000000.0,-1,-0.0121798593,0.011003061299999999,0.06906823594999999,0.002565,0.042936,0.010036,-0.2107841351,-9.7743861215,0.7660562714,-2.8731,1.4897,0.95105,-6.0000000000060005e-05,-4.999999999988347e-05,-0.00012999999999996348,-4.339720225421395e-05,-0.0003973421803598054,-0.0003046298069637743
150000000000.0,-1,0.010120462799999999,0.035245100099999996,0.042953127,0.008936,0.042877,0.016451,-0.21242184565,-9.774288055,0.7674880422999999,-2.8716,1.4895,0.94995,-9.99999999995449e-06,-4.999999999988347e-05,-0.00017000000000000348,0.00017365725545559485,-0.00025586898152840654,8.527063825436443e-05
150000000000.0,-1,0.02478140455,0.06453756364999999,0.021888442799999998,0.018489,0.038532,0.019676,-0.21422626925,-9.774091922,0.7693905323999999,-2.87,1.4893,0.9488,-4.999999999999449e-05,3.333333333310762e-05,-5.999999999994898e-05,-0.0001916728775279708,0.00037144743209505116,-0.00039971704469721203
150000000000.0,-1,0.03066539455,0.0707647864,-0.0028831550999999997,0.021659,0.035308,0.020753,-0.21606991944999998,-9.773895789,0.7715676087,-2.8686,1.489,0.94767,-4.0000000000040004e-05,3.333333333355171e-05,1.999999999990898e-05,0.00045323333922975273,-0.0005070995241587273,0.000580737077242155
150000000000.0,-1,0.031194953649999996,0.05196543835,-0.0210646842,0.031227,0.033094,0.023974,-0.21809008934999996,-9.7736015895,0.77404869115,-2.867,1.4887,0.94642,-4.999999999999449e-05,3.333333333310762e-05,-5.000000000032756e-06,0.00020747209058291638,0.00010756176128956518,3.202108918110014e-05
150000000000.0,-1,0.01368027675,-0.035235293449999996,-0.0020790098,0.034432,0.033069,0.022911,-0.22003180604999997,-9.773405456499999,0.7767455199,-2.8655,1.4884,0.94533,-2.0000000000020002e-05,3.333333333355171e-05,-4.999999999921734e-06,-0.0005839822806061878,1.2211832285391466e-06,0.0005184330728766895
150000000000.0,-1,0.0161613592,-0.035558912899999996,-0.0055309506,0.035481,0.030929,0.022916,-0.22251288849999998,-9.773013190499999,0.78020726735,-2.8638,1.488,0.94386,-1.999999999990898e-05,3.333333333310762e-05,-2.999999999997449e-05,-2.438184913744479e-05,0.0007270304061042232,0.0003479560394374914
150000000000.0,-1,0.00865927195,-0.0818266876,0.01648497865,0.033323,0.02775,0.022918,-0.2248860978,-9.772718991,0.7836297882000001,-2.8621,1.4876,0.94248,-2.0000000000020002e-05,3.333333333355171e-05,-1.0000000000065512e-05,-0.0002112431211394039,-0.00025339391385803545,0.0002620109136941551
150000000000.0,-1,0.007590347099999999,-0.0653907422,0.0234575068,0.031173,0.025636,0.022917,-0.2272593071,-9.772326725,0.7869836625,-2.8605,1.4872,0.94107,2.999999999997449e-05,9.999999999976694e-05,-5.500000000002725e-05,-0.0004220318189043226,0.0003963096997476878,0.00025489763556230116
150000000000.0,-1,0.0023241760499999996,-0.03309744375,0.03419578855,0.027965,0.024597,0.022913,-0.2296325164,-9.772032525499998,0.7903081168499999,-2.8588,1.4868,0.93966,-2.0000000000020002e-05,-4.999999999988347e-05,-5.499999999991623e-05,-0.00112304109989525,0.00016934322337491814,0.00032426616305869516
150000000000.0,-1,0.0011375714,0.0002353596,0.048454657649999996,0.024775,0.025689,0.022906,-0.232025339,-9.771738326,0.7937110243999999,-2.8572,1.4864,0.93826,-4.999999999999449e-05,-4.999999999988347e-05,-4.999999999999449e-05,-0.00012997995246832872,-0.0003738111368023489,0.00034643754053131914
150000000000.0,-1,0.00893385815,0.010424468949999998,0.035147033599999995,0.021499,0.016125,0.022917,-0.23429067515,-9.771444126499999,0.7965353396,-2.8555,1.486,0.93676,-9.999999999998899e-05,-0.00019999999999997797,-0.00021999999999999797,-0.0007778656955783614,-0.0013225799694120965,0.0005859015618705499
150000000000.0,-1,0.0273801668,0.0067469752,0.02366344645,0.02041,0.014002,0.023985,-0.23627161845,-9.771149927,0.7988987422499999,-2.854,1.4857,0.93542,-2.999999999997449e-05,9.999999999976694e-05,9.00000000000345e-05,-0.0007447807455134292,6.990059669176318e-05,0.0005031888570279364
150000000000.0,-1,0.03254827135,0.0066685220000000005,0.0050013915,0.02146,0.011862,0.023989,-0.23830159499999998,-9.770953794,0.80109543185,-2.8525,1.4855,0.93396,-0.0001100000000000545,4.999999999988347e-05,-0.0001300000000000745,-0.0027060146747173164,-0.0004837321619359791,0.0005368883488916509
150000000000.0,-1,0.0403053315,-0.00253992235,0.010983447999999998,0.021425,0.008662,0.026127,-0.2402236984,-9.770757661,0.8033411547,-2.851,1.4852,0.93261,-6.999999999990347e-05,5.000000000032756e-05,-4.999999999999449e-05,-0.00032666090975275175,0.0009379447345225778,1.065732527738561e-05
150000000000.0,-1,0.0520536982,-0.00891424485,0.00891424485,0.022477,0.005459,0.023997,-0.2417927624,-9.7704634615,0.8057045573499999,-2.85,1.4849,0.93167,-1.0000000000065512e-05,9.999999999976694e-05,-9.99999999995449e-06,-0.0007327149088014462,0.0005171506695267336,0.0001030860165007752
150000000000.0,-1,0.04821929805,-0.026370081849999998,0.0054721106999999995,0.025635,0.000104,0.02401,-0.24334221309999998,-9.7702673285,0.8082640929999999,-2.8492,1.4846,0.93078,-9.00000000000345e-05,0.00010000000000021103,-8.000000000008001e-05,-0.000247276268221297,-0.00024010711405719753,0.00010284752810196807
150000000000.0,-1,0.036745517549999995,-0.06524364245,0.0034323275,0.028812,-0.004183,0.021886,-0.2448916638,-9.769973129,0.8110491816,-2.8484,1.4843,0.92995,-1.999999999990898e-05,9.999999999976694e-05,1.0000000000065512e-05,0.0004061945199611561,0.0010381899117359872,-0.00046169168891996293
150000000000.0,-1,0.03419578855,-0.09019176005,-0.0101793027,0.029872,-0.006321,0.019755,-0.24623517485,-9.7696789295,0.8137362036999999,-2.8478,1.484,0.92929,-4.999999999999449e-05,0.00010000000000021103,-7.00000000000145e-05,-0.0012800679762554612,4.7105238900613244e-06,0.00048335468796789627
150000000000.0,-1,0.02827257195,-0.0653319023,-0.008119906199999999,0.034143,-0.008483,0.015495,-0.24719622654999998,-9.7694827965,0.8167566518999999,-2.8477,1.4837,0.92916,4.999999999999449e-05,9.999999999976694e-05,9.99999999995449e-06,0.0018393771073059728,0.0005963617071360616,-0.00014960130489338752
150000000000.0,-1,0.033931009,0.0011375714,-0.03474496095,0.036255,-0.011696,0.014435,-0.24805921175,-9.769188597,0.81974768015,-2.8477,1.4834,0.92909,-9.00000000000345e-05,0.00010000000000021103,2.0000000000020002e-05,-0.0008009318604558224,-0.0002754554794328623,0.00019663500100897124
150000000000.0,-1,0.0367945508,0.05905564629999999,-0.02393803265,0.036241,-0.012763,0.015503,-0.24882413045,-9.768894397499999,0.8230034879499999,-2.848,1.483,0.9292,-4.999999999999449e-05,9.999999999976694e-05,-8.999999999992347e-05,-0.00029994240225494906,0.0001283991700098408,-0.00022471832119741464
150000000000.0,-1,0.04200188195,0.0898877539,-0.028507931549999997,0.035175,-0.013818,0.013366,-0.24940272279999998,-9.768600198,0.8262298757999998,-2.8484,1.4827,0.92951,-6.0000000000060005e-05,0.00010000000000021103,-9.00000000000345e-05,-0.0020622372542771217,-0.0009848224419821694,0.0006199928581622771
150000000000.0,-1,0.054642653799999996,0.07244172355,-0.04630700129999999,0.034079,-0.015943,0.0155,-0.24977537549999998,-9.768404064999999,0.8289168979,-2.8489,1.4824,0.92982,7.00000000000145e-05,9.999999999976694e-05,9.99999999995449e-06,-0.00033548481399714447,0.0004764060648363433,0.0001373558622290716
150000000000.0,-1,0.050945546749999994,-0.008973084749999999,-0.03399965555,0.030859,-0.018049,0.015493,-0.24936349619999998,-9.768207932,0.83096648775,-2.8501,1.4822,0.93078,0.0001300000000000745,0.00040000000000040004,0.00019000000000002348,-0.0005466390809538701,0.0012478618347424586,0.0005774128587932026
150000000000.0,-1,0.052298864449999996,-0.009237864299999999,-0.036745517549999995,0.027641,-0.020153,0.015491,-0.25071681389999995,-9.767913732499999,0.8337123497499999,-2.8495,1.4819,0.93001,0.00010999999999994348,0.00019999999999997797,7.00000000000145e-05,0.0006175906726035851,0.0013528176760131405,-0.00013478850307091506
150000000000.0,-1,0.056260751049999995,-0.045895122,-0.04466929075,0.020171,-0.020092,0.015475,-0.2510894666,-9.767815666,0.83520296055,-2.8496,1.4817,0.92988,-9.99999999995449e-06,9.999999999976694e-05,-7.00000000000145e-05,-0.0005087469627247376,0.00018785323011316635,-0.00048755783101483985
150000000000.0,-1,0.0517202721,-0.0746089932,-0.0277920461,0.019109,-0.020083,0.014403,-0.2514817326,-9.767619533,0.8367327979499999,-2.8496,1.4816,0.92976,-4.999999999999449e-05,5.000000000032756e-05,-0.00017000000000000348,-0.0004021875022273136,-0.00042282812264082814,-9.037894018071313e-06
150000000000.0,-1,0.049641262299999996,-0.08880902239999999,-0.01866205495,0.01591,-0.018993,0.015461,-0.2519524518,-9.767521466499998,0.8380763089999999,-2.8496,1.4814,0.92948,-2.0000000000020002e-05,4.999999999988347e-05,-7.00000000000145e-05,0.00021662703810831907,-0.0002549000450733363,-0.00037727867786685465
150000000000.0,-1,0.051337812749999996,-0.077080269,-0.0205155118,0.011636,-0.018959,0.016518,-0.25245259094999994,-9.7674234,0.8390275540499998,-2.8493,1.4813,0.92904,-3.500000000000725e-05,9.999999999976694e-05,-2.0000000000020002e-05,0.000610957233299736,-0.0007425379369065954,-0.00043696442761032017
150000000000.0,-1,0.06545938875,-0.017191057449999998,-0.04455161095,0.011622,-0.018962,0.018646,-0.25190341855,-9.7674234,0.8388216143999999,-2.8499,1.4814,0.92936,-3.500000000000725e-05,0.00019999999999997797,-5.999999999994898e-05,-0.00020265524217677466,-0.00024188357543253325,-0.0010461291471433043
150000000000.0,-1,0.06733245889999999,-0.0173381572,-0.045728408949999994,0.011606,-0.018965,0.021849,-0.2537764887,-9.7673253335,0.8400082190499999,-2.8482,1.4812,0.92751,-3.500000000000725e-05,5.000000000032756e-05,-6.0000000000060005e-05,-0.0006628107325985511,0.0004807573803435883,-4.483782557862526e-05
150000000000.0,-1,0.07953193149999999,0.02197670265,-0.05851628055,0.011599,-0.018968,0.022911,-0.2544629542,-9.7673253335,0.84022396535,-2.8475,1.4812,0.92664,-3.500000000000725e-05,4.999999999988347e-05,-9.999999999998899e-05,0.0001380575558613817,0.00014931976304199956,-0.0003884990899942764
150000000000.0,-1,0.08728899164999998,0.056790310149999995,-0.06501808949999999,0.014803,-0.016866,0.025044,-0.2551886463,-9.767227266999999,0.8405868113999999,-2.8469,1.4811,0.92579,-4.0000000000040004e-05,9.999999999976694e-05,-3.999999999992898e-05,-0.00021406016708191977,0.00020913890948359715,-0.0006325222808225561
150000000000.0,-1,0.083356525,0.04743476605,-0.06812679754999999,0.015857,-0.016878,0.027176,-0.2561889246,-9.7671292005,0.8411457904499999,-2.8459,1.481,0.9247,-3.999999999992898e-05,0.00010000000000021103,-1.0000000000065512e-05,-0.0009466412529048895,-0.00019029124094349648,-0.0004845501777719363
150000000000.0,-1,0.06748936529999999,-0.06476311659999999,-0.0568589567,0.014766,-0.017938,0.029304,-0.2563262177,-9.767227266999999,0.84081236435,-2.8457,1.481,0.92423,-1.0000000000065512e-05,0.00010000000000021103,-2.999999999997449e-05,0.0012813842168184486,0.0007005798262162966,-0.0009668695332427646
150000000000.0,-1,0.06993122115,-0.06494944295,-0.058251501,0.013698,-0.020057,0.026103,-0.25876807355,-9.767031134,0.8421951019999999,-2.8435,1.4808,0.92184,3.0000000000085514e-05,9.999999999976694e-05,2.999999999997449e-05,-0.0006599692138706814,-7.947151004983333e-05,-0.00022843910904946085
150000000000.0,-1,0.052092924799999996,-0.124348322,-0.055731191949999995,0.006256,-0.017863,0.023949,-0.26008216465,-9.767031134,0.8417734160499999,-2.8419,1.4808,0.92007,-4.0000000000040004e-05,9.999999999976694e-05,-7.00000000000145e-05,-0.0014294533662251308,0.0007546559152822319,0.00018458039880098198
150000000000.0,-1,0.04366901245,-0.15152254915,-0.04361017255,-0.004377,-0.01564,0.019655,-0.26123934935,-9.767031134,0.84073391115,-2.8403,1.4809,0.9183,2.0000000000020002e-05,0.00019999999999997797,-9.99999999995449e-06,-3.3551460512093456e-05,0.0008949825925055332,-0.0007288505714697635
150000000000.0,-1,0.0514064593,-0.10835367585,-0.01160126695,-0.010742,-0.010261,0.020699,-0.2622494343,-9.7671292005,0.8395473065,-2.8388,1.481,0.91667,-4.999999999999449e-05,5.000000000032756e-05,-0.00012000000000000899,-0.00010306022835626649,0.00017405791041502638,-0.0005459318859628581
150000000000.0,-1,0.05631959095,-0.048562530799999996,0.016985117799999998,-0.017129,-0.009142,0.019616,-0.26311241949999997,-9.767227266999999,0.8381939888000001,-2.8374,1.4811,0.91517,5.999999999994898e-05,4.999999999988347e-05,2.999999999997449e-05,-0.00048483304061885946,0.00043482016611395835,-0.0003503743109165569
150000000000.0,-1,0.06441988385,-0.0126701918,0.00793357985,-0.019239,-0.004865,0.021736,-0.26403424459999997,-9.7673253335,0.8364680184,-2.8358,1.4812,0.9135,2.0000000000020002e-05,0.00010000000000021103,-7.999999999996898e-05,-0.0006498492870137262,0.000268504277207926,0.0002999720261440686
150000000000.0,-1,0.0773156286,0.0171224109,-0.034303661699999995,-0.014997,-0.00597,0.024944,-0.26496587635,-9.767521466499998,0.8342615221499999,-2.8341,1.4814,0.91166,-2.4999999999941735e-05,9.999999999976694e-05,2.999999999997449e-05,0.0003298935076603282,-3.7749170960443834e-05,-2.4291186825564637e-05
150000000000.0,-1,0.09100571199999999,0.035980598849999997,-0.0532108829,-0.010689,-0.000678,0.024938,-0.26578963494999996,-9.767619533,0.8322315455999999,-2.8325,1.4816,0.91001,-2.5000000000052758e-05,0.00010000000000021103,-5.999999999994898e-05,0.0002741791168918706,0.0002886994547879329,-0.00024273735613888903
150000000000.0,-1,0.10546071409999999,0.07602115079999999,-0.07540333184999999,0.000999,-0.00504,0.027095,-0.26662320019999997,-9.7677175995,0.8309272611499999,-2.8311,1.4817,0.90859,-2.0000000000020002e-05,9.999999999976694e-05,-1.0000000000065512e-05,-0.0006952642145310328,7.621731733098436e-05,-0.00028900055451330786
150000000000.0,-1,0.09954730415,0.09313375505,-0.08931896819999999,0.005261,-0.004012,0.029231,-0.26773135164999995,-9.767815666,0.8298779496,-2.8295,1.4818,0.90695,-2.999999999997449e-05,0.00010000000000021103,-3.999999999992898e-05,0.000594864305726972,4.364299996040266e-05,-0.0004260639065893912
150000000000.0,-1,0.0968700887,0.09017214675,-0.09610516999999999,0.008516,0.001291,0.02602,-0.26881008315,-9.767815666,0.8291718708,-2.8281,1.4818,0.90551,5.999999999994898e-05,4.999999999988347e-05,4.999999999999449e-05,-0.0001652409240957553,0.0005664639938016691,-0.0008853706827114394
150000000000.0,-1,0.09664453574999998,0.08103234894999999,-0.080806796,0.010644,0.000208,0.024954,-0.26977113485,-9.767815666,0.8289953510999999,-2.827,1.4818,0.90436,-9.99999999995449e-06,4.999999999988347e-05,-6.0000000000060005e-05,0.0002207166588585885,9.626358066960883e-05,0.0001155386676412462
150000000000.0,-1,0.08761261109999999,0.02356537995,-0.0528382302,0.006382,-0.000819,0.021741,-0.270467407,-9.767815666,0.8288580579999999,-2.8262,1.4818,0.90354,-9.99999999995449e-06,2.4999999999941735e-05,-7.999999999996898e-05,-0.00047977842881219424,3.36313069062566e-05,-0.0002456560008452513
150000000000.0,-1,0.06357651195,-0.03401926885,-0.03090075415,3.8e-05,0.004564,0.018516,-0.2712715523,-9.767815666,0.8283284988999999,-2.8251,1.4818,0.9025,0.00010999999999994348,2.5000000000385825e-05,-4.0000000000040004e-05,0.0007776944368811378,0.0005462132461246938,-0.00024845129670669763
150000000000.0,-1,0.04861156404999999,-0.0490724766,-0.016141745899999997,-0.009532,0.006777,0.015291,-0.27201685769999995,-9.767913732499999,0.8273282205999999,-2.8239,1.4819,0.90136,4.0000000000040004e-05,2.4999999999941735e-05,-6.999999999990347e-05,-0.0003025878913149871,-6.951291839607521e-05,-3.7982430002969636e-05
150000000000.0,-1,0.0572904493,-0.056456884049999996,0.00012748645,-0.013783,0.006815,0.012078,-0.27232086385,-9.768011798999998,0.8260239361499999,-2.8231,1.482,0.90063,3.999999999992898e-05,2.4999999999941735e-05,-0.00012000000000000899,-0.00023497824825002844,-1.883667071167494e-05,0.000431390808638632
150000000000.0,-1,0.07259862995,-0.039403119699999996,0.010502922149999998,-0.020176,0.007932,0.012062,-0.27236009045,-9.7681098655,0.8243273856999999,-2.8225,1.4822,0.90004,4.0000000000040004e-05,9.999999999976694e-05,-6.0000000000060005e-05,-0.00010299929720725132,-0.0005335748087456071,0.0005280903850231056
150000000000.0,-1,0.0711570524,-0.0028635417999999997,-0.004393379199999999,-0.021228,0.011135,0.014186,-0.27257583674999997,-9.768305998499999,0.82216011605,-2.8215,1.4824,0.89912,4.999999999999449e-05,2.0000000000131024e-05,-7.999999999996898e-05,-7.338466729178705e-05,0.00014772215470570949,-0.00016177940654671374
150000000000.0,-1,0.0860435471,0.02083913125,-0.0147295883,-0.023379,0.011149,0.01738,-0.27279158305,-9.7685021315,0.81963000035,-2.8203,1.4826,0.89805,7.999999999996898e-05,2.0000000000131024e-05,-4.999999999999449e-05,-0.00020088998827394455,-0.0001483736444016781,-7.110339031779489e-05
150000000000.0,-1,0.10444082249999999,0.040354364749999996,-0.0207116448,-0.022301,0.013269,0.018441,-0.2729386828,-9.7686982645,0.8170802713499999,-2.8192,1.4828,0.89707,1.0000000000065512e-05,1.9999999999686935e-05,-0.00012000000000000899,0.0005101534519986739,-0.00033889335933889875,-0.00038592392437131195
150000000000.0,-1,0.1062452461,0.039216793349999994,-0.020299765499999997,-0.024449,0.01222,0.019501,-0.27308578255,-9.768992464,0.8144226692,-2.8181,1.4831,0.89602,4.999999999999449e-05,2.0000000000131024e-05,-6.0000000000060005e-05,-3.937781528051687e-05,3.1577671573801425e-05,-0.00014070701727852963
150000000000.0,-1,0.1037347437,-0.0271448072,-0.00748247395,-0.027628,0.014377,0.018419,-0.27328191555,-9.769188597,0.8116375806,-2.8168,1.4834,0.8949,4.999999999999449e-05,2.0000000000131024e-05,-3.999999999992898e-05,-4.1234643449516994e-05,6.721571398382586e-05,7.091008728909998e-05
150000000000.0,-1,0.0931043351,-0.1275845165,0.0152591474,-0.034029,0.014429,0.018404,-0.27357611505,-9.7694827965,0.8083425462,-2.8153,1.4837,0.89346,3.999999999992898e-05,-1.6666666666775853e-05,-7.999999999996898e-05,0.00044043129103688017,1.9559500994192902e-05,-0.0002469099152602183
150000000000.0,-1,0.06905842929999999,-0.1498848386,0.028762904449999998,-0.039316,0.017674,0.014116,-0.27390954115,-9.769776996,0.8047140857,-2.8135,1.484,0.89186,9.00000000000345e-05,-1.6666666666775853e-05,-1.5000000000098268e-05,0.0011912004929612863,0.0003158539098409019,-0.0002791782862896497
150000000000.0,-1,0.05239693095,-0.1175817335,0.0395600261,-0.041421,0.019824,0.011971,-0.27430180714999997,-9.769973129,0.8011052384999999,-2.8117,1.4843,0.89023,9.00000000000345e-05,-1.6666666666775853e-05,-1.4999999999987246e-05,0.0013283876866467814,0.00042697766666455195,-0.0005692773755283653
150000000000.0,-1,0.045924541949999995,-0.0733341287,0.06134059575,-0.041404,0.019827,0.008767,-0.27457639335,-9.7702673285,0.79787885065,-2.8102,1.4846,0.88888,0.00012000000000000899,-1.6666666666331764e-05,1.0000000000065512e-05,0.001049163832886002,0.00033471269500040535,-4.116520249031197e-05
150000000000.0,-1,0.05612345795,-0.04655216755,0.0404426246,-0.041395,0.018765,0.005564,-0.27429200049999997,-9.770561528,0.7943876832499999,-2.8091,1.485,0.88802,3.999999999992898e-05,-1.6666666666775853e-05,-4.999999999999449e-05,0.0005519531050539594,0.00014646919469440967,-0.00016514407481516002
150000000000.0,-1,0.0673520722,-0.0345782479,0.027174227149999997,-0.038178,0.018741,0.002365,-0.27354669509999996,-9.770855727499999,0.79089651585,-2.8086,1.4854,0.88767,2.0000000000020002e-05,-1.6666666666775853e-05,-4.0000000000040004e-05,9.544034752728692e-05,0.00017917926165811338,-0.00019691616000994117
150000000000.0,-1,0.0708236263,-0.0206528049,0.01913277415,-0.036027,0.018726,-0.000837,-0.2723895104,-9.771149927,0.78756225485,-2.8086,1.4857,0.88786,7.00000000000145e-05,-9.090909090847532e-06,-2.999999999997449e-05,0.0006680848117575078,7.495686215919228e-05,-3.261159850076467e-05
150000000000.0,-1,0.060104957849999995,-0.01167972015,0.026036655749999995,-0.037055,0.02087,-0.005115,-0.27109503259999995,-9.771444126499999,0.78424760715,-2.8088,1.4861,0.88821,1.0000000000065512e-05,-9.090909090847532e-06,-2.999999999997449e-05,0.00048309178365868455,-0.00022787892678755028,-0.0002969611385026383
150000000000.0,-1,0.05757484215,0.0121014061,0.0354412331,-0.038129,0.019813,-0.005118,-0.2697613282,-9.771738326,0.7811388991,-2.8091,1.4864,0.88871,7.999999999996898e-05,-9.090909090847532e-06,3.999999999992898e-05,-2.892375162422134e-05,0.0006560151411363346,-0.0006851089023287571
150000000000.0,-1,0.05984017829999999,0.032263878499999996,0.0476799323,-0.034891,0.022985,-0.007255,-0.2681334243,-9.772032525499998,0.7784714902999998,-2.8099,1.4867,0.88973,7.00000000000145e-05,-9.090909090847532e-06,2.0000000000020002e-05,0.0006876728361489004,0.0001891046168032151,-0.0004399172193449985
150000000000.0,-1,0.061183689349999994,0.04686598035,0.051249552899999995,-0.031705,0.020828,-0.007249,-0.2664859071,-9.7722286585,0.776098281,-2.8108,1.487,0.89089,7.00000000000145e-05,-9.090909090847532e-06,5.000000000032756e-06,0.00021521483867670277,-0.0002588011103983323,0.00026852478984107364
150000000000.0,-1,0.06813660419999999,0.0482683313,0.05120051965,-0.028492,0.020803,-0.009381,-0.26461283695,-9.772522857999999,0.77404869115,-2.8122,1.4873,0.89245,1.999999999990898e-05,-9.090909091291621e-06,4.999999999921734e-06,0.00044417283637310234,0.0001886457708493161,0.00046674687090408895
150000000000.0,-1,0.06922514234999999,0.0189856744,0.03866762095,-0.024223,0.020767,-0.009376,-0.26271034685,-9.7726209245,0.7722246542499999,-2.8137,1.4875,0.89414,1.0000000000065512e-05,-9.090909090847532e-06,-4.999999999999449e-05,0.00014993269530849673,-0.00013340483708490503,-5.412038968799493e-05
150000000000.0,-1,0.05546641239999999,-0.034401728199999995,0.0355196863,-0.020994,0.022874,-0.011512,-0.26076863014999996,-9.7728170575,0.7705771370499999,-2.8153,1.4877,0.89597,4.999999999999449e-05,-9.090909090847532e-06,-1.999999999990898e-05,0.00012101074102743858,-4.50397115581147e-06,1.542172638746564e-05
150000000000.0,-1,0.04749360595,-0.062233000899999995,0.04543420945,-0.018892,0.018594,-0.011503,-0.25892497994999997,-9.773013190499999,0.76934149915,-2.8169,1.4879,0.89781,2.999999999997449e-05,-9.090909090847532e-06,-2.0000000000020002e-05,0.00044802583057923506,-0.0002596284175568897,0.00025102515474806353
150000000000.0,-1,0.044659484099999994,-0.08366053115,0.05192621175,-0.016721,0.021775,-0.013642,-0.2569930699,-9.773111257,0.7683902540999998,-2.8188,1.4881,0.89992,-9.99999999995449e-06,-9.090909090847532e-06,-0.0001100000000000545,-0.001447194690117115,-0.0006058749840860411,0.0005727882473305357
150000000000.0,-1,0.05354430899999999,-0.0688819096,0.0576434887,-0.015657,0.021765,-0.012575,-0.2549532867,-9.7732093235,0.7676155287499999,-2.8209,1.4882,0.9022,1.999999999990898e-05,-9.090909090847532e-06,-9.99999999995449e-06,0.0005033639030613823,-0.00023183894154454876,0.00028808421556547614
150000000000.0,-1,0.04939609605,-0.04033475145,0.0632725058,-0.016714,0.022839,-0.012581,-0.25290369684999997,-9.77330739,0.7669192565999999,-2.823,1.4884,0.90456,2.0000000000020002e-05,-2.0000000000131024e-05,-7.999999999996898e-05,4.979009722605454e-05,-7.430409109598912e-05,-5.524770765319431e-07
150000000000.0,-1,0.0487586638,-0.01346453045,0.06267430015,-0.014595,0.02069,-0.012575,-0.25092275355,-9.773405456499999,0.7664681507,-2.8252,1.4885,0.90693,4.0000000000040004e-05,-2.0000000000131024e-05,-3.0000000000085514e-05,-8.765182710379626e-05,-0.0003475853177847821,0.0002900962611631641
150000000000.0,-1,0.04653255425,-0.01352337035,0.06264488019999999,-0.015656,0.021763,-0.011514,-0.24913794325,-9.773503522999999,0.765899365,-2.8271,1.4886,0.90904,7.00000000000145e-05,-1.9999999999686935e-05,6.0000000000060005e-05,0.00030613935569401285,-0.000363293701278522,5.4393982066969215e-05
150000000000.0,-1,0.03937369975,-0.03139108665,0.06999006105,-0.016734,0.020706,-0.010448,-0.24751984599999996,-9.7736015895,0.7652815460499999,-2.8288,1.4887,0.91092,4.999999999999449e-05,-2.0000000000131024e-05,-1.0000000000065512e-05,0.0004146894138199464,3.5156519732515434e-05,0.0001250532740932897
150000000000.0,-1,0.031038047249999996,-0.05449555405,0.07030387384999999,-0.018845,0.023919,-0.009391,-0.24621556155,-9.773699656,0.764526434,-2.83,1.4888,0.91241,5.999999999994898e-05,-2.0000000000131024e-05,1.0000000000065512e-05,0.00017312540761826867,-0.00022552796901620376,0.00018977108024387235
150000000000.0,-1,0.035784465849999995,-0.0539758016,0.0836507245,-0.017775,0.02391,-0.009391,-0.24483282389999997,-9.7737977225,0.76404590815,-2.8315,1.4889,0.9141,3.0000000000085514e-05,-2.0000000000131024e-05,-2.0000000000020002e-05,0.0002769998175535804,-0.0002868084165685847,3.4082916947397734e-05
150000000000.0,-1,0.036833777399999997,-0.0492489963,0.07253979005,-0.017761,0.02604,-0.008328,-0.24348931285,-9.773895789,0.76333982935,-2.8328,1.489,0.91567,1.999999999990898e-05,-1.9999999999686935e-05,3.3333333333551707e-06,0.0002404922962482292,6.264804067868113e-05,0.00010014580605144374
150000000000.0,-1,0.0407172108,-0.051573172349999995,0.0783355202,-0.015633,0.024957,-0.008325,-0.24213599515,-9.773895789,0.76292795005,-2.8343,1.4891,0.91738,2.0000000000020002e-05,-2.0000000000131024e-05,3.3333333332441484e-06,0.00025866197815926917,-0.00036434944371954714,0.000259498321348417
150000000000.0,-1,0.034911674,-0.0730791558,0.07703123574999998,-0.012447,0.022799,-0.008317,-0.2408120974,-9.773993855499999,0.7627318170499999,-2.8358,1.4891,0.91911,2.0000000000020002e-05,-1.9999999999686935e-05,3.3333333333551707e-06,-0.0002692993714095149,-6.239539180841192e-05,0.00011944348910120084
150000000000.0,-1,0.025026570799999998,-0.07724698205,0.0695487618,-0.007087,0.024887,-0.009379,-0.23960587944999998,-9.773993855499999,0.7628887234499999,-2.8373,1.4892,0.92085,2.999999999997449e-05,-2.0000000000131024e-05,2.0000000000020002e-05,0.00017876451976195362,-0.00012354125543301286,0.00022736577343351883
150000000000.0,-1,0.02489908435,0.010650021899999999,0.06132098245,-0.000699,0.022704,-0.009366,-0.23813488195,-9.773895789,0.764526434,-2.8396,1.4891,0.92346,1.0000000000065512e-05,-2.4999999999941735e-05,2.0000000000020002e-05,0.0004997745228492168,-0.000279887761826636,-1.4614261883316715e-05
150000000000.0,-1,0.02407532575,0.01065982855,0.06119349599999999,0.003608,0.026932,-0.010433,-0.23731112334999996,-9.773895789,0.7646637271,-2.8407,1.4891,0.92476,1.4999999999987246e-05,-2.5000000000385825e-05,2.0000000000020002e-05,-0.00012972382233988888,8.118489568387233e-06,0.00020601161625855013
150000000000.0,-1,0.0294591766,0.06950953519999999,0.04590492865,0.011067,0.026868,-0.008287,-0.23625200515,-9.7737977225,0.76632105095,-2.8425,1.4889,0.92689,1.4999999999987246e-05,-2.4999999999941735e-05,4.999999999999449e-05,0.0003670127922223987,-0.00011958223838615112,0.0001143638413401149
150000000000.0,-1,0.0374417897,0.0868673057,0.04294332035,0.015306,0.023635,-0.007208,-0.23511443375,-9.773699656,0.7685471604999999,-2.8447,1.4887,0.92931,-5.000000000032756e-06,-2.4999999999941735e-05,4.999999999921734e-06,0.000162017398014358,-6.711483884713765e-05,1.9621785849466278e-05
150000000000.0,-1,0.030371195049999997,0.0506415406,0.03784386235,0.017441,0.023617,-0.007205,-0.23402589559999998,-9.773503522999999,0.77094978975,-2.8469,1.4885,0.93172,-5.000000000032756e-06,-2.4999999999941735e-05,5.000000000032756e-06,0.0005143122089283914,-0.00010787635515630001,0.00020400894036587403
150000000000.0,-1,0.016985117799999998,0.0008139519499999999,0.03188141915,0.016407,0.026824,-0.008281,-0.23305503725,-9.77330739,0.7731758992999999,-2.8488,1.4884,0.93393,4.999999999999449e-05,-2.4999999999941735e-05,4.0000000000040004e-05,-3.5217167602130672e-06,-0.00021575000025308988,0.0002867503802548299
150000000000.0,-1,0.011944499699999998,-0.03586291905,0.051023999949999996,0.015347,0.026834,-0.009351,-0.2320645656,-9.7732093235,0.7755687219,-2.8509,1.4882,0.93623,1.0000000000065512e-05,-2.4999999999941735e-05,2.999999999997449e-05,-2.688685904161936e-05,-0.0001084532907893454,0.00027471448260119047
150000000000.0,-1,0.008070872949999999,-0.055623318799999995,0.06348825209999999,0.01111,0.029002,-0.011497,-0.23103486734999998,-9.773013190499999,0.7777752181500001,-2.8528,1.488,0.93851,2.999999999997449e-05,-2.4999999999941735e-05,1.0000000000065512e-05,-0.00016821238140329875,-0.00014008956848221565,0.00010821347235889789
150000000000.0,-1,-0.00024516625,-0.07266727649999999,0.0750993257,0.007926,0.030095,-0.012571,-0.2300443957,-9.772915123999999,0.7797855814,-2.8547,1.4878,0.94067,2.999999999997449e-05,-3.333333333355171e-05,5.999999999994898e-05,-0.0007066396407477971,-0.00030111324132020556,0.00047227369387670137
150000000000.0,-1,-0.0024810824500000003,-0.06049722385,0.0717062248,0.004711,0.027991,-0.012573,-0.2291617972,-9.7728170575,0.7813742587,-2.8563,1.4877,0.94257,1.0000000000065512e-05,-3.333333333310762e-05,-5.999999999994898e-05,-3.9281656990075575e-05,-0.00020746375163338548,4.051267696869587e-05
150000000000.0,-1,0.00361865385,-0.06134059575,0.07559946484999999,0.004739,0.031188,-0.012578,-0.22807325904999998,-9.772718991,0.78287467615,-2.8581,1.4876,0.94469,2.0000000000020002e-05,-3.333333333355171e-05,5.999999999994898e-05,-0.0003303222086992186,5.055953127963697e-05,0.00024052700773768976
150000000000.0,-1,0.010395048999999998,-0.057986721449999994,0.06671463995,0.004745,0.032252,-0.011513,-0.226925881,-9.7726209245,0.7842770271,-2.8599,1.4874,0.94684,-1.0000000000065512e-05,8.333333333165882e-06,1.0000000000065512e-05,8.805159509650551e-05,-0.0003118933838637261,0.000180012140466701
150000000000.0,-1,0.0072765343,-0.04504194345,0.0548191735,0.003644,0.029063,-0.009375,-0.2260432825,-9.772522857999999,0.7853949852000001,-2.8614,1.4874,0.94856,-2.0000000000020002e-05,8.333333333609971e-06,9.99999999995449e-06,-7.975144845140392e-05,-5.2772951894874964e-05,0.0002417717707157152
150000000000.0,-1,0.010551955399999998,-0.021456950199999998,0.03676513085,0.004755,0.034381,-0.009382,-0.22513126405,-9.772522857999999,0.7863854568499999,-2.8628,1.4873,0.95031,-9.99999999995449e-06,8.333333333165882e-06,2.999999999997449e-05,-0.0003041749647714198,-0.0004988709059796648,0.0002534790262211928
150000000000.0,-1,0.014621715149999999,0.018867994599999997,0.029439563299999996,0.007951,0.034354,-0.00831,-0.22426827885,-9.772424791499999,0.7875818681499999,-2.8642,1.4872,0.95205,-4.0000000000040004e-05,8.333333333609971e-06,2.0000000000020002e-05,0.00025221781524842335,0.00014465767849203282,-9.01436185261062e-05
150000000000.0,-1,0.016455558699999998,0.051661432199999996,0.032754211,0.013259,0.032177,-0.006163,-0.2235523934,-9.772326725,0.7893568717999999,-2.8656,1.487,0.95382,-2.999999999997449e-05,8.333333333165882e-06,9.99999999995449e-06,-1.3948483038150883e-05,-0.0002911649762626922,-0.0001291534897251978
150000000000.0,-1,0.011885659799999998,0.0681169909,0.01997614605,0.018575,0.031065,-0.004017,-0.2231797407,-9.772130592,0.7913574284,-2.8667,1.4869,0.95525,-9.99999999995449e-06,8.333333333609971e-06,7.00000000000145e-05,-0.0005406539559960066,0.00018227456551445087,0.0003610970384100298
150000000000.0,-1,0.011915079749999998,0.05824169435,0.006629295399999999,0.019637,0.031055,-0.002949,-0.22290515449999998,-9.771934458999999,0.7933285650499999,-2.8677,1.4867,0.95654,-0.0001100000000000545,8.333333333165882e-06,-5.999999999994898e-05,-0.00025187732288500797,-0.0009369821125266853,0.00012081924345697104
150000000000.0,-1,0.014239255799999998,0.039079500249999996,0.01301342455,0.018568,0.03,-0.004017,-0.22268940819999997,-9.7718363925,0.79532912165,-2.8686,1.4865,0.95776,-5.999999999994898e-05,8.333333333165882e-06,2.999999999997449e-05,2.3327629933067584e-05,0.0005239970472517008,-0.00018640999408425785
150000000000.0,-1,0.0053936575,0.021427530249999997,0.02884135765,0.011118,0.032192,-0.004033,-0.22252269514999998,-9.7716402595,0.7971531585499999,-2.8694,1.4863,0.95888,-0.00012000000000000899,8.333333333609971e-06,-9.999999999998899e-05,-0.0018488611224212192,-0.0013835326455358121,0.0016416656631026427
150000000000.0,-1,-0.0037657536,-0.036010018799999995,0.0484056244,0.006839,0.031161,-0.002971,-0.22248346854999998,-9.771542192999998,0.7986928026,-2.8699,1.4862,0.95974,-4.0000000000040004e-05,8.333333333165882e-06,-2.0000000000020002e-05,0.0011966937068119687,-8.3080924215162e-05,-0.00042973237069166004
150000000000.0,-1,-0.01317033095,-0.0767860695,0.06037954405,-0.001688,0.033361,-0.000854,-0.222807088,-9.771444126499999,0.79958520775,-2.8698,1.4861,0.95998,-9.99999999995449e-06,8.333333333609971e-06,-9.99999999995449e-06,-0.00032675693305694864,-0.00041531444692632924,0.0003808906661966205
150000000000.0,-1,-0.00361865385,-0.09015253344999999,0.06922514234999999,-0.007016,0.034469,0.000202,-0.2230816742,-9.771444126499999,0.8000167003499999,-2.8697,1.486,0.96014,-3.0000000000085514e-05,8.333333333165882e-06,9.99999999995449e-06,8.341793773780637e-05,0.000184928339553192,0.00012609709267863423
150000000000.0,-1,-0.0074922806,-0.0752366188,0.08111080215,-0.009155,0.035549,0.0034,-0.22369949315,-9.771346059999999,0.8003991596999999,-2.8691,1.4859,0.9599,-4.999999999999449e-05,2.0000000000131024e-05,-9.99999999995449e-06,-0.0001729538812140774,-0.00020895550826161013,0.00018095852059918371
150000000000.0,-1,0.017426417049999997,-0.043247326499999995,0.0706274933,-0.007053,0.034461,0.008742,-0.224376152,-9.771346059999999,0.8007129725,-2.8684,1.4859,0.95956,-2.999999999997449e-05,1.9999999999686935e-05,-9.99999999995449e-06,0.0013176070864364675,0.00013062725684909182,-0.0005778309896014022
150000000000.0,-1,0.027076160649999997,-0.01230734575,0.02487947105,-0.000671,0.03334,0.010888,-0.22519010395,-9.771346059999999,0.8008208456499999,-2.8675,1.4859,0.95896,-8.999999999992347e-05,2.0000000000131024e-05,-1.0000000000065512e-05,0.00019464699959725884,-9.722271201728638e-05,-2.6160020173193743e-05
150000000000.0,-1,0.031234180249999997,0.0177108099,0.00787473995,0.005717,0.032221,0.011967,-0.22606289579999997,-9.7712479935,0.80137001805,-2.8666,1.4858,0.95845,-3.0000000000085514e-05,1.9999999999686935e-05,5.999999999994898e-05,1.5455771203765067e-05,-9.016362310365622e-05,0.0004032007192247278
150000000000.0,-1,0.0333818366,0.0358531124,-0.00061781895,0.012099,0.0311,0.014113,-0.22716124059999998,-9.771149927,0.802380103,-2.8657,1.4857,0.95782,-0.00010999999999994348,2.0000000000131024e-05,4.999999999999449e-05,-0.0004017664080937511,9.935943009620196e-05,-9.57390720390805e-05
150000000000.0,-1,0.036480738,0.0545642006,-0.0089828914,0.018454,0.024655,0.013066,-0.22817132554999997,-9.770953794,0.80386090715,-2.865,1.4855,0.9574,-4.999999999999449e-05,3.333333333355171e-05,9.00000000000345e-05,-0.00022289219204130184,0.000846546191666464,-0.0005868271103492972
150000000000.0,-1,0.027772432799999996,0.0600755379,-0.008953471449999998,0.019533,0.026776,0.014131,-0.2293383169,-9.770855727499999,0.8056162975,-2.8643,1.4853,0.9569,-9.00000000000345e-05,3.333333333310762e-05,4.0000000000040004e-05,-0.0005827475128621362,0.0009456332135924228,-0.0004725060215484689
150000000000.0,-1,0.020182085699999998,0.03851071455,0.002157463,0.017399,0.026793,0.014126,-0.2305739548,-9.7706595945,0.8073814945,-2.8634,1.4851,0.95632,-9.999999999998899e-05,3.333333333355171e-05,1.999999999990898e-05,-0.00015006415980534094,1.6718198486032065e-05,0.0003868802108630831
150000000000.0,-1,0.016465365349999997,0.0209666177,0.01315071765,0.015265,0.024683,0.010923,-0.23164287965,-9.7704634615,0.8092545646499999,-2.8628,1.4849,0.95595,-6.0000000000060005e-05,3.333333333310762e-05,2.0000000000020002e-05,0.0010865093787268965,0.0006881501811066837,-0.00025051215929750015
150000000000.0,-1,0.00401091985,0.0053642375499999995,0.025909169299999996,0.015244,0.022551,0.011994,-0.23295697074999996,-9.7702673285,0.8111668613999999,-2.8619,1.4846,0.9553,-8.999999999992347e-05,3.333333333355171e-05,-9.99999999995449e-06,-0.000246307914161914,0.00022550813389998758,0.0001784072379829027
150000000000.0,-1,0.0023143694,-0.00979684335,0.03415656195,0.013106,0.022567,0.013058,-0.23440835494999998,-9.7700711955,0.8130889647999999,-2.8609,1.4844,0.95451,-9.00000000000345e-05,3.333333333310762e-05,-1.0000000000065512e-05,-0.0006046477304562092,7.19432342299875e-05,0.00028341456734004566
150000000000.0,-1,0.010375435699999998,-0.002353596,0.027733206199999996,0.016296,0.020411,0.012,-0.23558515295,-9.769875062499999,0.81502087485,-2.8602,1.4842,0.95401,-9.00000000000345e-05,5.000000000032756e-05,-9.99999999995449e-06,-0.00019520068700251691,0.000526863639517483,0.00017528291701118803
150000000000.0,-1,0.03570601265,-0.01660265845,-0.00051975245,0.019456,0.017184,0.015209,-0.23607548544999998,-9.7696789295,0.817090078,-2.8603,1.484,0.9543,-0.00011999999999989797,4.999999999988347e-05,-9.99999999995449e-06,-0.0012733094477583862,-0.0003805003583481348,0.0005717282613186825
150000000000.0,-1,0.0374221764,-0.01685763135,-0.0030596748,0.026905,0.016055,0.017359,-0.23779164919999998,-9.7694827965,0.81963000035,-2.8592,1.4837,0.95335,-0.000140000000000029,4.999999999988347e-05,-7.00000000000145e-05,-0.00019155114130486872,-0.0001590989309543378,0.00025141425549790597
150000000000.0,-1,0.03380352255,-0.04969029555,-0.01730873725,0.026897,0.013926,0.015226,-0.23880173415,-9.769188597,0.82190514315,-2.8588,1.4834,0.95307,-2.999999999997449e-05,4.999999999988347e-05,2.999999999997449e-05,0.0007055007958962634,0.00038658317398043707,-0.00017164020044724282
150000000000.0,-1,0.0272036471,-0.1202491423,-0.01897586775,0.028993,0.008581,0.01417,-0.23983143239999996,-9.768992464,0.8243273856999999,-2.8585,1.4831,0.9528,-8.000000000008001e-05,4.999999999988347e-05,5.999999999994898e-05,0.0005046223507443326,0.0006146622938409951,-0.00013656831502206757
150000000000.0,-1,0.0178677163,-0.17445049684999997,-0.013739116649999997,0.021517,0.006513,0.012025,-0.24082190404999998,-9.768796330999999,0.8261220026499999,-2.8579,1.4829,0.95236,-0.00012000000000000899,5.000000000032756e-05,-3.999999999992898e-05,-0.00021932830683302207,-0.00017724417896580746,0.0005133872171558806
150000000000.0,-1,0.01389602305,-0.19655468594999997,-0.0025693423,0.009774,0.007672,0.015204,-0.24209676854999998,-9.7686982645,0.8270732476999999,-2.8568,1.4828,0.95134,-0.00012000000000000899,9.999999999976694e-05,-2.0000000000020002e-05,0.00029329329170746377,0.00021931211053027866,6.647112452462522e-05
150000000000.0,-1,0.016082905999999998,-0.13933288319999998,0.02501676415,0.003364,0.006659,0.015194,-0.24338143969999998,-9.768600198,0.8277695198499999,-2.8556,1.4827,0.95019,-5.999999999994898e-05,5.000000000032756e-05,-9.99999999995449e-06,9.62996476117084e-06,0.00017250798064050166,-1.2188450063455036e-05
150000000000.0,-1,0.0321265854,-0.02599742915,0.0411094768,-0.001973,0.00883,0.019449,-0.24476417734999997,-9.7685021315,0.8284265653999999,-2.8543,1.4826,0.94894,-5.999999999994898e-05,4.999999999988347e-05,7.999999999996898e-05,0.00033381901963536187,9.611951936916441e-05,0.00019754758126122596
150000000000.0,-1,0.0553683459,0.06429239739999999,0.0423058881,-0.003051,0.009899,0.023712,-0.24615672164999997,-9.768404064999999,0.8290345777,-2.853,1.4825,0.94767,-8.000000000008001e-05,9.999999999976694e-05,-2.0000000000020002e-05,0.00046446298348934434,-0.00034102682298131626,-0.00024424358944941105
150000000000.0,-1,0.06163479524999999,0.0943007464,0.012621158549999999,0.002209,0.002393,0.026934,-0.24778462555,-9.768404064999999,0.8293876170999999,-2.8513,1.4824,0.94602,-9.999999999998899e-05,4.999999999988347e-05,7.00000000000145e-05,-6.965806775593997e-05,0.0002341957949041351,2.0919633402449733e-05
150000000000.0,-1,0.0687250032,0.08468042275,-0.034313468349999994,0.006487,0.004487,0.028001,-0.24949098264999997,-9.768305998499999,0.82933858385,-2.8494,1.4824,0.94414,-5.999999999994898e-05,5.000000000032756e-05,0.00012000000000000899,1.9665902287302472e-05,0.0001940980028145578,0.00046011462533090963
150000000000.0,-1,0.06039915735,0.0748639661,-0.0497981687,0.015015,0.004415,0.02908,-0.25133463284999996,-9.768207932,0.8298583362999999,-2.8475,1.4823,0.94229,0.00047999999999992493,-0.000500000000000167,0.00048000000000003595,0.005250435683380461,-0.009581765826529809,0.008634278731627809
150000000000.0,-1,0.06374322499999999,0.110030613,-0.055211439499999994,0.022439,0.001152,0.032297,-0.25333518944999994,-9.7681098655,0.83108416755,-2.8457,1.4821,0.9405,-0.0006299999999999084,0.0005999999999999339,-0.00036000000000002697,-0.00264760848129475,0.010287860766276857,-0.009091110734493313
150000000000.0,-1,0.07000967435,0.1202883689,-0.05455439395,0.02776,-0.001022,0.031239,-0.2552670995,-9.767913732499999,0.8329670443499999,-2.8442,1.4818,0.939,-0.0001100000000000545,-9.999999999976694e-05,-2.999999999997449e-05,0.0006208999868777543,-0.00017746285952857654,-0.0001117280013902544
150000000000.0,-1,0.07538371854999999,0.12991849919999998,-0.052524417399999995,0.032014,-0.003188,0.030179,-0.25704210315,-9.767619533,0.83528141375,-2.8431,1.4816,0.9378,-0.0001100000000000545,9.999999999976694e-05,4.999999999999449e-05,0.00031296166388061764,0.0003645756553505297,0.00014595648737003586
150000000000.0,-1,0.06991160785,0.11677758819999999,-0.0520536982,0.035235,-0.001083,0.02911,-0.25874846025,-9.7673253335,0.8379586291999999,-2.8421,1.4812,0.9368,-7.999999999996898e-05,5.000000000032756e-05,-1.0000000000065512e-05,-0.0015023536822273975,-0.0007178232687157227,0.0006560412419931438
150000000000.0,-1,0.05471130034999999,0.0760799907,-0.04777799879999999,0.036317,-0.00109,0.025907,-0.26045481735,-9.767031134,0.84085159095,-2.8412,1.4809,0.93591,-0.00036000000000002697,4.999999999988347e-05,-0.00014999999999998348,-0.004340933414266113,-0.000410348514980452,0.00019851521017866247
150000000000.0,-1,0.04043281795,0.022368968649999998,-0.03146953985,0.033105,-0.004257,0.022703,-0.26204349465,-9.766736934499999,0.8437053260999999,-2.8405,1.4806,0.9351,-0.00010999999999994348,4.999999999988347e-05,-4.999999999999449e-05,-0.0004568376922780004,0.00015506213743310404,7.827583417796546e-05
150000000000.0,-1,0.04297274029999999,-0.071392412,-0.025732649599999997,0.027775,-0.004213,0.021624,-0.2633870057,-9.7665408015,0.8460393088,-2.8398,1.4803,0.93438,-2.999999999997449e-05,4.999999999988347e-05,-4.999999999999449e-05,-0.00023861449636508603,-0.0003043529767892128,0.0003528927104650137
150000000000.0,-1,0.047728965549999995,-0.1432163166,-0.03176373935,0.020321,-0.004148,0.018406,-0.2644068973,-9.7663446685,0.8474318531,-2.8392,1.4802,0.9337,-9.999999999998899e-05,4.999999999988347e-05,-9.00000000000345e-05,-0.0003611998476111822,0.00045272352262104576,-0.000406941256152038
150000000000.0,-1,0.05533892594999999,-0.17741210514999997,-0.010650021899999999,0.007551,-0.001909,0.015174,-0.26498548964999996,-9.7663446685,0.8481771585,-2.8388,1.4801,0.9333,-6.0000000000060005e-05,5.000000000032756e-05,-3.999999999992898e-05,-0.00031719064540713937,0.0002487322604909359,-0.00016507424640188617
150000000000.0,-1,0.04381611219999999,-0.18114843879999998,0.00856120545,-0.004188,-0.002878,0.014086,-0.26557388865,-9.7663446685,0.84797121885,-2.8381,1.4801,0.93254,-9.00000000000345e-05,4.999999999988347e-05,-9.00000000000345e-05,-0.0005278328935622856,0.0002896802415959243,-0.00032792241925783117
150000000000.0,-1,0.0536423755,-0.15427821779999998,0.016936084549999997,-0.012695,-0.000674,0.01193,-0.26582886154999996,-9.7663446685,0.8469219072999999,-2.8375,1.4802,0.9319,-5.999999999994898e-05,4.999999999988347e-05,-4.0000000000040004e-05,-0.00016705801905558815,0.000493483041898557,-0.000405603608887084
150000000000.0,-1,0.05135742605,-0.10224413289999999,0.0151610809,-0.016926,0.002559,0.009779,-0.26593673469999995,-9.7665408015,0.8455587829499999,-2.8369,1.4803,0.93132,-4.999999999999449e-05,3.333333333355171e-05,-9.99999999995449e-06,-0.0003298291108841944,-8.454937150181863e-06,-0.0003298291108846385
150000000000.0,-1,0.050092368199999994,-0.025330576949999996,0.010630408599999999,-0.020096,0.005783,0.008698,-0.2660151879,-9.766638868,0.8437935859499999,-2.8362,1.4805,0.93067,-0.0001100000000000545,3.333333333310762e-05,-1.4999999999987246e-05,-0.0006079663104010535,0.00020797691436214016,-0.00035458177984359907
150000000000.0,-1,0.06787182465,0.0421882083,-0.019279873899999998,-0.015836,0.003618,0.006571,-0.2655444687,-9.766835001,0.84183225595,-2.836,1.4807,0.93054,-7.999999999996898e-05,3.333333333355171e-05,-1.4999999999987246e-05,-0.00043723187033051225,-0.0005761624650384434,0.00010556242673587235
150000000000.0,-1,0.07159835165,0.07618786385,-0.04763089905,-0.008361,0.004621,0.006578,-0.26508355614999995,-9.767031134,0.83996899245,-2.8359,1.4809,0.93044,-9.999999999998899e-05,9.999999999976694e-05,9.99999999995449e-06,-0.00041994494703478935,-6.624167380042678e-05,-0.0001549964699769646
150000000000.0,-1,0.0730791558,0.102185293,-0.06993122115,0.002307,0.003469,0.00446,-0.26431863745,-9.7671292005,0.8389196808999999,-2.8364,1.481,0.93092,-9.999999999998899e-05,4.999999999988347e-05,7.00000000000145e-05,-0.00011873820108654343,0.0005433360802382659,-0.0002475853892569546
150000000000.0,-1,0.08139519499999999,0.09613458994999999,-0.09286897549999999,0.00976,0.001276,0.003405,-0.26335758575,-9.767227266999999,0.8382136020999998,-2.8372,1.4811,0.93174,-7.00000000000145e-05,5.000000000032756e-05,2.0000000000020002e-05,-3.44534960319276e-05,0.00043162392157225504,-0.0010952441551630443
150000000000.0,-1,0.07651148329999999,0.034852834099999994,-0.09819398644999999,0.010848,0.004463,0.003397,-0.26236711409999997,-9.7673253335,0.8377036562999999,-2.8381,1.4812,0.93268,-9.00000000000345e-05,5.000000000032756e-05,9.99999999995449e-06,3.215382664212285e-05,0.00010407697540126826,-9.772924656559212e-05
150000000000.0,-1,0.06227222749999999,-0.0186718616,-0.07981632435,0.010839,0.002333,0.001262,-0.26144528899999997,-9.7673253335,0.8374290700999999,-2.839,1.4812,0.93363,-6.999999999990347e-05,4.999999999988347e-05,2.999999999997449e-05,-0.00017074428028984734,-0.0001902394541901664,-0.00023784507336532812
150000000000.0,-1,0.06785221135,-0.08919148175,-0.0530735898,-0.000861,0.004565,-0.003036,-0.26014100454999994,-9.7674234,0.8365758915499999,-2.8401,1.4813,0.9348,-8.000000000008001e-05,4.999999999988347e-05,-3.999999999992898e-05,2.9989656477491522e-05,4.648713806920668e-05,0.00011706411596978938
150000000000.0,-1,0.059026226349999995,-0.14589353205,-0.0094928372,-0.013597,0.011066,-0.006275,-0.2586405871,-9.767619533,0.8351931539,-2.8413,1.4815,0.93606,-3.999999999992898e-05,4.999999999988347e-05,-2.999999999997449e-05,-0.0001450147960362358,6.053054778920597e-05,-9.505458586644977e-05
150000000000.0,-1,0.032067745499999994,-0.15065956395,0.03721623675,-0.02315,0.016474,-0.00737,-0.25742456249999995,-9.767815666,0.8335260233999999,-2.8421,1.4817,0.93697,-2.5000000000052758e-05,2.4999999999941735e-05,4.999999999999449e-05,-0.0005764390000799757,7.376855266350013e-05,-0.0002117658514286802
150000000000.0,-1,0.0360492454,-0.09744868104999999,0.04796432515,-0.031673,0.016546,-0.009521,-0.2560124049,-9.768011798999998,0.8311626207499999,-2.8428,1.482,0.93788,-2.4999999999941735e-05,2.4999999999941735e-05,-3.0000000000085514e-05,-1.351578594688263e-05,-7.853711678951214e-05,-0.00021261506880421166
150000000000.0,-1,0.045257689749999996,-0.023251567149999996,0.0342055952,-0.031641,0.019743,-0.010596,-0.2544433409,-9.768305998499999,0.82845598535,-2.8436,1.4823,0.93889,-6.0000000000060005e-05,2.5000000000385825e-05,-9.99999999995449e-06,-0.0006256876529111555,-0.0002693901395058873,0.00039217977804817394
150000000000.0,-1,0.0473268929,0.026232788749999996,0.01695569785,-0.0252,0.023953,-0.011662,-0.25278601705,-9.7685021315,0.8259552895999999,-2.8446,1.4826,0.9401,-2.999999999997449e-05,2.4999999999941735e-05,2.999999999997449e-05,-0.00022465949442773692,-0.00038188135878947094,-1.666371768305197e-05
150000000000.0,-1,0.0505238608,0.06371380505,-0.01677917815,-0.016695,0.022813,-0.007379,-0.25134443949999996,-9.768796330999999,0.8237782132999999,-2.8455,1.4829,0.94119,-7.999999999996898e-05,3.333333333310762e-05,2.0000000000020002e-05,-0.00020471412180933513,0.0001238058231223249,-6.559761246549556e-05
150000000000.0,-1,0.06668521999999999,0.061075816199999994,-0.06981354135,-0.006037,0.023787,-0.004163,-0.2499911218,-9.768992464,0.8217384300999999,-2.8463,1.4831,0.94223,-4.999999999999449e-05,3.333333333355171e-05,2.0000000000020002e-05,0.0007450820511301082,0.00013996028451690457,-0.0001594520154126755
150000000000.0,-1,0.07591327764999999,0.04833697785,-0.07834532685,0.003546,0.023703,-0.000949,-0.24874567724999996,-9.7690905305,0.8205420187999999,-2.8472,1.4833,0.94344,-4.999999999999449e-05,3.333333333310762e-05,3.999999999992898e-05,-0.00022837796730135196,-0.00036060023872996894,2.5193165894776826e-05
150000000000.0,-1,0.07924753864999999,0.09970421055,-0.0631940526,0.006725,0.023672,0.00225,-0.24639208125,-9.769286663499999,0.8190121814,-2.8494,1.4835,0.94579,-6.0000000000060005e-05,3.333333333355171e-05,2.0000000000020002e-05,5.768414877227457e-05,2.605602421623665e-05,-2.513869238818245e-05
150000000000.0,-1,0.0799045842,0.09962575735,-0.06394916465,0.007819,0.028988,0.005445,-0.24704912679999996,-9.769188597,0.81976729345,-2.8489,1.4834,0.94558,-2.999999999997449e-05,3.333333333310762e-05,-3.999999999992898e-05,-1.7630688740277733e-05,1.2718708797043732e-05,0.0001729855626910748
150000000000.0,-1,0.07903179234999999,0.11804264605,-0.04551266265,0.006765,0.03219,0.007568,-0.24662744085,-9.769188597,0.8197378734999999,-2.8493,1.4834,0.94636,9.99999999995449e-06,3.333333333355171e-05,4.999999999999449e-05,0.0001418417733760613,-0.00021943249144729116,0.0001805123140004028
150000000000.0,-1,0.07216713735,0.13643992145,-0.02313388735,0.003567,0.033281,0.008625,-0.24649014775,-9.769188597,0.81980652005,-2.8495,1.4834,0.94684,1.0000000000065512e-05,-1.2499999999970868e-05,-2.3333333333375172e-05,0.0007378278522147674,9.099929061062717e-05,-6.761292125467833e-05
150000000000.0,-1,0.058055367999999996,0.10379358359999999,-0.00903192465,0.002546,0.039681,0.009677,-0.24674512064999998,-9.769188597,0.82006149295,-2.8493,1.4834,0.94702,9.99999999995449e-06,-1.2499999999970868e-05,-2.333333333326415e-05,-0.00021301232481696353,-0.00012356422138992684,0.0001697317904936213
150000000000.0,-1,0.04039359135,0.054976079899999995,-0.0078845466,0.003582,0.036474,0.010749,-0.2473433263,-9.769188597,0.8202674325999999,-2.8487,1.4833,0.94679,-2.0000000000020002e-05,-1.2499999999970868e-05,-2.3333333333375172e-05,-0.0008530142766352,-0.00018446192739740574,0.000507444896973297
150000000000.0,-1,0.03478418755,-0.0056486304,-0.01840708205,0.005712,0.035392,0.009686,-0.24801017849999998,-9.7690905305,0.82031646585,-2.848,1.4833,0.94642,2.0000000000020002e-05,-1.2499999999970868e-05,-4.999999999999449e-05,0.0007223022946243329,-4.83478221013911e-06,-0.00015820147051037736
150000000000.0,-1,0.0299691224,-0.051886985149999995,-0.021427530249999997,0.003591,0.036476,0.008611,-0.24874567724999996,-9.7690905305,0.8201889794,-2.8471,1.4833,0.94593,9.99999999995449e-06,-1.2500000000414957e-05,-8.000000000008001e-05,-0.00026283413422301116,0.00011128642011692946,0.00048330800580664857
150000000000.0,-1,0.0279881791,-0.07295166935,-0.027968565799999998,-0.0017,0.040784,0.006458,-0.24930465629999998,-9.769188597,0.81955154715,-2.8463,1.4833,0.94547,1.0000000000065512e-05,-1.2499999999970868e-05,-3.999999999992898e-05,0.00010635987480234199,0.00023950218534141143,0.00015466979090472677
150000000000.0,-1,0.02283968785,-0.08113041545,-0.0024810824500000003,-0.00703,0.040829,0.00538,-0.24984402204999998,-9.769188597,0.8187572084999999,-2.8454,1.4834,0.94498,2.999999999997449e-05,-1.2499999999970868e-05,-7.999999999996898e-05,-0.000267072502570187,-0.0004063521100645673,0.0003989204517980127
150000000000.0,-1,0.01640652545,-0.08223856689999999,0.01664188505,-0.015562,0.039835,0.003231,-0.25029512795,-9.769286663499999,0.8175902171499999,-2.8445,1.4835,0.94448,-9.99999999995449e-06,-1.2499999999970868e-05,-9.00000000000345e-05,3.8704665604516464e-05,0.00023350237733898993,0.0003312215507458305
150000000000.0,-1,0.0044326057999999995,-0.07922792534999999,0.04282564055,-0.028358,0.039942,0.002142,-0.2507364272,-9.7694827965,0.8154915940499999,-2.8433,1.4837,0.94366,5.999999999994898e-05,1.2499999999970868e-05,-7.00000000000145e-05,7.138565171493916e-05,8.849337542482516e-05,0.0002746748784554498
150000000000.0,-1,-0.00134351105,-0.07226520384999999,0.0598597916,-0.041133,0.043244,0.002114,-0.25123656634999997,-9.7696789295,0.8125299857499999,-2.8417,1.484,0.9425,4.0000000000040004e-05,1.2499999999970868e-05,-2.999999999997449e-05,-0.00034004474121229755,-0.00013291032284290516,0.0003785121889245957
150000000000.0,-1,-0.0087279185,-0.037706569249999995,0.06685193304999999,-0.047557,0.040101,0.002109,-0.2519328385,-9.769973129,0.8088328786999999,-2.8396,1.4843,0.94084,2.5000000000052758e-05,1.2499999999970868e-05,-6.0000000000060005e-05,0.0003565639948415189,0.00013206915237873318,0.0002863423297192469
150000000000.0,-1,-0.0004903325,-0.030488874849999997,0.0675678185,-0.053963,0.041216,0.005299,-0.2526977572,-9.770365394999999,0.8045179526999999,-2.8373,1.4847,0.93887,2.4999999999941735e-05,1.2500000000414957e-05,-4.999999999999449e-05,0.0002806386400535654,-7.815843789393817e-05,0.00031364444885717546
150000000000.0,-1,0.0130428445,-0.06889171625,0.075315072,-0.057175,0.040176,0.006362,-0.2533646094,-9.7706595945,0.8000657336,-2.8349,1.4851,0.93693,-1.0000000000065512e-05,1.2499999999970868e-05,-2.0000000000020002e-05,-6.335293009973597e-06,-0.00010498643546807962,0.00025451155273259474
150000000000.0,-1,0.020750871399999996,-0.11876833815,0.059036033,-0.061481,0.039139,0.01276,-0.25433546775,-9.7710518605,0.7947897559,-2.8319,1.4856,0.93429,2.0000000000020002e-05,1.2499999999970868e-05,1.4999999999987246e-05,0.0007158615982099104,0.0005758968886400151,-0.0002669398414143487
150000000000.0,-1,0.033126863699999995,-0.1474527894,0.033009183899999996,-0.070021,0.039208,0.013811,-0.2553455527,-9.771542192999998,0.7883467868499999,-2.8284,1.4862,0.93114,-2.999999999997449e-05,1.2499999999970868e-05,1.5000000000098268e-05,0.0009970813827178127,0.0001718587506189806,0.0003058333812830938
150000000000.0,-1,0.04300216025,-0.17776514455,0.057731748549999996,-0.077523,0.038199,0.019134,-0.25654196399999996,-9.772130592,0.7815900049999999,-2.8244,1.4868,0.92759,2.999999999997449e-05,1.2499999999970868e-05,2.999999999997449e-05,0.0017946165144082649,0.0002173968845617935,-0.0001697896672432364
150000000000.0,-1,0.049131316499999994,-0.19379901729999996,0.08646523304999999,-0.091381,0.039378,0.019106,-0.25772856865,-9.7726209245,0.7739604313,-2.8201,1.4875,0.92365,-2.0000000000020002e-05,1.6666666666775853e-05,9.99999999995449e-06,0.0006573949626036413,0.00029865446834120846,0.00027378591947080366
150000000000.0,-1,0.04594415524999999,-0.1771473256,0.1070690047,-0.10527,0.038425,0.021217,-0.25917995285,-9.77330739,0.76532077265,-2.8151,1.4883,0.91893,-5.999999999994898e-05,1.6666666666331764e-05,-2.999999999997449e-05,0.0006433226234419109,6.50161911168734e-05,0.00018984455929249577
150000000000.0,-1,0.04255105435,-0.12274003139999999,0.13881313074999999,-0.11588,0.042778,0.017987,-0.26057249714999997,-9.773993855499999,0.7560142617999999,-2.8097,1.4892,0.91395,-7.00000000000145e-05,1.6666666666775853e-05,2.0000000000020002e-05,0.0003620941078401607,0.00014735190040671142,8.528837224908159e-05
150000000000.0,-1,0.03207755215,-0.0448163905,0.1534348459,-0.12549,0.041791,0.019039,-0.26222001435,-9.774680320999998,0.7461879985,-2.8037,1.4901,0.90832,-7.999999999996898e-05,1.6666666666775853e-05,7.00000000000145e-05,0.0010175779734309387,0.00033435195082520686,0.00030290816471367776
150000000000.0,-1,0.02484024445,0.03956983275,0.1548273902,-0.13086,0.037572,0.020104,-0.2641126978,-9.775464852999999,0.73582236945,-2.797,1.491,0.90201,-0.0001100000000000545,1.6666666666331764e-05,2.0000000000020002e-05,0.0006605301952899989,8.632320652179892e-05,0.0006898388248508525
150000000000.0,-1,0.025673809699999998,0.07591327764999999,0.14530513305,-0.13086,0.03757,0.022238,-0.26614267435,-9.7761513185,0.7252900273499999,-2.7899,1.4919,0.89527,-0.00012000000000000899,1.6666666666775853e-05,4.999999999999449e-05,0.0014319691728266193,8.179441439115642e-05,0.0002921476377260035
150000000000.0,-1,0.034078108749999995,0.0539169617,0.14059794105,-0.13517,0.033342,0.024372,-0.26826091074999997,-9.7769358505,0.7142771593999999,-2.7823,1.4929,0.88801,-0.00018999999999991246,2.0000000000131024e-05,7.00000000000145e-05,0.0011156108105407903,-0.00019544849129293773,0.0004875494473797204
150000000000.0,-1,0.0541719346,-0.0047856452,0.15427821779999998,-0.12877,0.033287,0.026516,-0.27010456095,-9.777622316,0.7039017236999999,-2.7752,1.4938,0.88118,-0.000200000000000089,2.0000000000131024e-05,2.999999999997449e-05,0.0010641095428285396,0.0002591654404751065,0.00038265131239079153
150000000000.0,-1,0.056692243649999995,-0.05695702319999999,0.16285903655,-0.12135,0.027896,0.027604,-0.27201685769999995,-9.7783087815,0.6941146869999999,-2.7681,1.4947,0.87435,-0.00017000000000000348,1.9999999999686935e-05,7.00000000000145e-05,0.00017805164277517882,0.000600651771549332,-0.00025710964985048435
150000000000.0,-1,0.0501315948,-0.12746683669999997,0.18072675285,-0.11605,0.023589,0.028686,-0.2741350941,-9.778799114,0.6852298621,-2.761,1.4955,0.8675,-0.00025999999999992696,2.0000000000131024e-05,-1.0000000000065512e-05,0.0007411353215129868,-0.00019142806716176963,0.0005103396567243124
150000000000.0,-1,0.05163201224999999,-0.18245272324999998,0.1600053014,-0.10862,0.019264,0.03084,-0.2763906236,-9.779387513,0.6766196233999999,-2.7538,1.4962,0.86043,-0.00021999999999999797,2.0000000000131024e-05,4.0000000000040004e-05,0.0006179609649925588,-0.00023825545107070134,0.00044477454481040013
150000000000.0,-1,0.043139453349999995,-0.1955642143,0.15654355395,-0.10761,0.013923,0.035119,-0.27912667895,-9.7798778455,0.6682545509499999,-2.7459,1.4969,0.8527,-0.000260000000000038,3.333333333310762e-05,3.999999999992898e-05,0.0014703943394034358,-0.0001632683094128229,2.908654245725728e-05
150000000000.0,-1,0.058251501,-0.17043957699999998,0.17933420855,-0.10552,0.011768,0.041528,-0.28210790055,-9.7802701115,0.66058575065,-2.738,1.4975,0.84482,-0.00017000000000000348,3.333333333355171e-05,8.000000000008001e-05,0.002082763622993422,5.2003406154188525e-05,-0.0006067634917927833
150000000000.0,-1,0.0790023724,-0.13968592259999998,0.2115098272,-0.10557,0.008564,0.049003,-0.28550100144999996,-9.780662377499999,0.6533974762,-2.7296,1.498,0.83656,-0.00022999999999995246,3.333333333310762e-05,8.999999999992347e-05,0.001499424578466968,0.00013477927429406122,0.000174060926750208
150000000000.0,-1,0.10351899739999999,-0.08320942525,0.21487350814999998,-0.10668,0.008563,0.058603,-0.28936482155,-9.7810546435,0.64628765495,-2.7206,1.4985,0.82757,-0.000180000000000069,-3.333333333310762e-05,9.00000000000345e-05,0.0019057445917696203,0.0005042387092866196,-2.1686781892960028e-05
150000000000.0,-1,0.12453464835,-0.057741555199999996,0.20277210204999999,-0.10357,0.003197,0.069287,-0.29392491379999997,-9.781348843,0.6392366736,-2.7106,1.499,0.81756,-0.00027999999999994696,-3.333333333355171e-05,4.999999999999449e-05,0.0017408993123035899,-7.914994284430321e-07,-0.0007476326280162482
150000000000.0,-1,0.140431228,-0.059869598249999996,0.2098426967,-0.10043,0.001028,0.079964,-0.29920089149999995,-9.781643042499999,0.63261718485,-2.6998,1.4994,0.80672,-0.00024000000000001798,-3.333333333310762e-05,0.00021999999999999797,0.0016880595373891527,0.0003333850938658234,-0.0009699632348478815
150000000000.0,-1,0.14820790144999998,-0.08732821824999999,0.21244145895,-0.098353,-0.001131,0.089571,-0.30533004775,-9.781839175499998,0.6262722823,-2.688,1.4997,0.79481,-0.00029000000000001247,-3.333333333355171e-05,6.0000000000060005e-05,0.00116689479082277,0.00013180484745989318,-9.297197055069262e-05
150000000000.0,-1,0.16793888125,-0.1540428582,0.2060377165,-0.092018,-0.004391,0.099187,-0.31203779635,-9.7820353085,0.62026080585,-2.6755,1.4999,0.78222,-0.00031000000000003247,-3.333333333310762e-05,0.00015999999999993797,0.0011262003111049967,0.0006513163711199255,0.000682292795509909
150000000000.0,-1,0.18786599404999998,-0.2230816742,0.21427530250000001,-0.083505,-0.003405,0.10666,-0.31925549075,-9.782133375,0.61502405475,-2.6628,1.5001,0.76943,-0.00044999999999995044,-3.333333333355171e-05,-9.99999999995449e-06,0.0008750012933544937,0.00017823755532164753,1.9694681232529376e-05
150000000000.0,-1,0.19026862329999997,-0.26498548964999996,0.21744285044999997,-0.067529,-0.004609,0.11202,-0.32688506445,-9.782133375,0.61110139475,-2.6504,1.5001,0.75694,-0.00043000000000004146,-4.999999999988347e-05,0.00012999999999996348,-0.0006545755463738256,0.000668873690672811,0.00024147885550807047
150000000000.0,-1,0.19058243609999997,-0.22935793019999998,0.1917200075,-0.046227,-0.007986,0.11526,-0.33498535735,-9.7820353085,0.6088360586,-2.6386,1.4999,0.74499,-0.00035999999999991594,-4.999999999988347e-05,0.00019000000000002348,-0.0004320394548136264,0.000526050352436247,-0.0004309646699045544
150000000000.0,-1,0.20139917105,-0.14579546555,0.13929365659999998,-0.022779,-0.010315,0.11743,-0.34310526354999993,-9.781741109,0.6081495930999999,-2.6279,1.4995,0.73417,-0.00046000000000001595,-4.999999999988347e-05,0.00019000000000002348,0.0005594123553778196,0.0014288902350463317,-0.0008121852457430023
150000000000.0,-1,0.20874435189999999,-0.07448150675,0.10097907505,0.000665,-0.013708,0.11853,-0.35119574979999996,-9.7814469095,0.6093558110499999,-2.6187,1.499,0.7248,-0.00041999999999997595,-5.000000000032756e-05,0.00024999999999997247,0.0014656685263256808,0.0020399605615790684,-0.001247242794681469
150000000000.0,-1,0.20781272015,-0.04027591155,0.09867451229999999,0.024133,-0.016032,0.11643,-0.35909010304999994,-9.7808585105,0.6128469784499999,-2.6116,1.4983,0.71743,-0.00036000000000002697,-0.00010000000000021103,0.00027999999999994696,-0.00039200320675503164,0.0018541497306912014,-0.00022644055417764264
150000000000.0,-1,0.2131769577,-0.03713778355,0.09532063799999999,0.03801,-0.018276,0.11218,-0.3665529637,-9.7802701115,0.61800527635,-2.6062,1.4975,0.71186,-0.00047000000000008146,-9.999999999976694e-05,0.00019000000000002348,0.0012586295633330025,0.00036005053200849346,0.00024072441714917403
150000000000.0,-1,0.2099015366,-0.04168806914999999,0.0855728279,0.048703,-0.018362,0.10791,-0.37376085145,-9.779583645999999,0.62416385255,-2.602,1.4965,0.70744,-0.00033999999999989594,-0.00019999999999997797,0.00036999999999998145,0.002611847567549397,0.0016104133159520195,-0.001187621461649968
150000000000.0,-1,0.20314475475,-0.0471699865,0.0953990912,0.053044,-0.013066,0.10257,-0.38046860004999994,-9.7788971805,0.6309402477,-2.599,1.4956,0.70419,0.00033999999999989594,-0.000700000000000145,0.0008100000000000884,0.007087818336473317,-0.010717737152431628,0.010906437725918039
150000000000.0,-1,0.19945745434999998,-0.0695683751,0.10591182,0.05415,-0.012006,0.097218,-0.3866565962,-9.778210715,0.6380794889,-2.5968,1.4946,0.70187,-0.00047999999999992493,-0.00019999999999997797,0.00023999999999990695,-0.0009436101136686137,0.0008664681804249064,-0.0012333984494263817
150000000000.0,-1,0.21002902304999999,-0.1160126695,0.10885381499999999,0.047827,-0.006622,0.090782,-0.39213851355,-9.777622316,0.6447283975999999,-2.5951,1.4938,0.7001,-0.00031999999999998696,-0.00019999999999997797,0.000300000000000078,-0.0005843885127638782,0.0006960756322791362,-5.774086606269435e-05
150000000000.0,-1,0.21394187639999998,-0.1437262624,0.11563021014999998,0.044686,-0.002331,0.086488,-0.39710067844999997,-9.7769358505,0.6511125267499999,-2.5939,1.4929,0.69884,-0.0012400000000000189,0.000300000000000189,-0.000520000000000076,-0.009369403978745972,0.012109093595892517,-0.009729586902540888
150000000000.0,-1,0.21503041454999997,-0.14595237195,0.12573105965,0.041565,0.003027,0.080058,-0.40148425099999996,-9.7763474515,0.65717303645,-2.5932,1.4922,0.69806,-0.00039000000000000146,-0.000300000000000189,0.00029000000000001247,-0.0003495627159790793,0.0009602013578777768,-0.00037694900119689123
150000000000.0,-1,0.21406936285,-0.13810705195,0.12074928144999998,0.035263,0.011607,0.074684,-0.40545594425,-9.775857119,0.66260592055,-2.5925,1.4915,0.6974,-0.00036999999999998145,-0.00019999999999997797,0.00040000000000006697,-0.000660153472177738,0.0012111275236794672,0.00021557070726885286
150000000000.0,-1,0.21391245644999998,-0.060614903649999996,0.08300348559999998,0.036357,0.012665,0.071471,-0.40904517814999997,-9.7753667865,0.66727388595,-2.5917,1.4909,0.6967,-0.00043999999999999595,-0.0002999999999997449,0.00035999999999991594,0.00020871993512772136,0.0004099346052777175,9.203122793177698e-05
150000000000.0,-1,0.24088074395,0.03853032785,0.0463658412,0.026878,0.024467,0.066083,-0.41176162019999996,-9.7749745205,0.6709906063,-2.5912,1.4904,0.6964,-0.0005800000000000249,-0.00019999999999997797,0.000200000000000089,-0.0014388024308826797,0.0008372432823682274,-0.00019476756883207713
150000000000.0,-1,0.25584569185,0.15043401099999998,0.0381674818,0.026986,0.035123,0.061781,-0.4138602433,-9.774680320999998,0.6744033205,-2.5912,1.49,0.69669,-0.000500000000000056,-0.000300000000000189,0.00032999999999994145,0.0031757047072624722,0.0011501452546514024,-4.3183344959452086e-05
150000000000.0,-1,0.24415616504999998,0.2298482627,0.040570111049999996,0.031376,0.046811,0.056418,-0.41579215334999997,-9.774288055,0.67813965415,-2.5916,1.4896,0.69749,-0.0005999999999999339,-0.00019999999999997797,0.00024000000000001798,-0.0033659242619159535,8.022664195350693e-05,-0.0004132486430847848
150000000000.0,-1,0.2652894958,0.31302826799999994,0.01756371015,0.037853,0.052089,0.050001,-0.41672378509999997,-9.773993855499999,0.68214076735,-2.5932,1.4892,0.69959,-0.000500000000000056,-0.00039999999999995595,0.0003300000000000525,1.4310331125866327e-05,0.000597724108965414,8.706175254324933e-05
150000000000.0,-1,0.26802555115,0.35603042825,-0.01634768555,0.036917,0.061694,0.039293,-0.41677281835,-9.7737977225,0.6856809679999999,-2.5954,1.4889,0.7024,-0.0005499999999999394,-0.00039999999999995595,0.00032999999999994145,0.0018417057958441951,0.0010787162330971878,-0.0014856723972096475
150000000000.0,-1,0.25702248985,0.35780543189999997,-0.0618407349,0.043518,0.077635,0.024318,-0.41578234669999997,-9.7736015895,0.6886719962499999,-2.5984,1.4887,0.70611,-0.0006000000000000449,-0.000300000000000189,0.00017000000000000348,7.973272429739886e-05,0.0004692935557892852,0.0004889588926433319
150000000000.0,-1,0.19588783375,0.32076571485,-0.059447912299999996,0.048916,0.079729,0.014705,-0.41481148835000003,-9.773405456499999,0.69241813655,-2.6019,1.4884,0.71033,-0.0005899999999999794,-0.0004999999999997229,0.00017000000000000348,-0.0009379759880769889,0.0006344284780768206,0.00046438418517258384
150000000000.0,-1,0.1881503869,0.26322029264999997,-0.04031513815,0.054455,0.096744,0.000798,-0.41275209185,-9.773111257,0.69692919555,-2.6069,1.4881,0.71628,-4.0000000000040004e-05,-0.000800000000000356,0.0007500000000000284,0.0025269107317529294,-0.010525473511354244,0.010246253344010192
150000000000.0,-1,0.17064551665,0.18247233654999997,-0.04511059,0.063121,0.10734,-0.008822,-0.40991796999999996,-9.772915123999999,0.7020188468999999,-2.6131,1.4878,0.72354,-0.0006399999999999739,-0.00039999999999995595,0.00017000000000000348,-0.001478302189877656,-5.802797982235042e-05,-0.00019476137074203592
150000000000.0,-1,0.1704591903,0.15843623739999999,-0.06916630245,0.071788,0.12006,-0.015245,-0.40643660925,-9.7726209245,0.7073732777999999,-2.6201,1.4875,0.73169,-0.0011700000000000044,0.00010000000000021103,-0.00043999999999999595,-0.003967515793584786,0.012893287154639,-0.008389157335638053
150000000000.0,-1,0.21183344664999998,0.1378618857,-0.09178043735,0.079311,0.12532,-0.018457,-0.401876517,-9.772424791499999,0.7130807481,-2.6284,1.4872,0.74126,-0.0005699999999999594,-0.000500000000000167,0.00014999999999998348,-0.0011172731578750206,-0.0015337087202182964,0.001823954388597393
150000000000.0,-1,0.21915901419999997,0.13775401255,-0.09314356169999999,0.08579,0.13273,-0.022742,-0.3969241587499999,-9.772130592,0.7193766174,-2.6374,1.4869,0.75161,-0.00048000000000003595,-0.0004999999999997229,0.00012999999999996348,0.0021487544798526326,-0.0005732841944199318,0.0006950652692081505
150000000000.0,-1,0.23077989444999997,0.15707311305,-0.10727494435,0.091243,0.14547,-0.027039,-0.39149127464999994,-9.7718363925,0.72617262585,-2.6471,1.4866,0.76279,-0.0005999999999999339,-0.000300000000000189,-2.999999999997449e-05,-0.002122223263967049,-0.0005175280018110406,0.00032123331563393975
150000000000.0,-1,0.21330444415,0.16368279515,-0.10466637545,0.088154,0.15722,-0.031348,-0.38597993734999997,-9.7716402595,0.73284114785,-2.6568,1.4862,0.77403,-0.0005800000000000249,-0.00039999999999995595,7.00000000000145e-05,-0.001445949793535739,-0.0009780558264600447,0.0023925873351853255
150000000000.0,-1,0.1928968055,0.1566906537,-0.08266025285,0.078661,0.16795,-0.036732,-0.38039014684999994,-9.771346059999999,0.7391272105,-2.6663,1.4859,0.78517,-0.0004899999999999904,-0.000500000000000167,0.00017000000000000348,0.0013900927061647472,0.0012370210089278633,-0.0006814342776424454
150000000000.0,-1,0.18529665174999999,0.15128718954999998,-0.08433718999999999,0.069126,0.17549,-0.038908,-0.3747317098,-9.771149927,0.7442462818,-2.6751,1.4857,0.79577,-0.0007099999999999884,-0.0005999999999999339,-0.000140000000000029,0.00024229707010170465,-0.00038841162259783957,0.0017919079944253014
150000000000.0,-1,0.1642810008,0.160436794,-0.0789827591,0.05848,0.17877,-0.038943,-0.36943611879999994,-9.7710518605,0.7484631412999999,-2.6831,1.4856,0.80551,-0.0006700000000000594,-0.000500000000000167,-0.00017999999999995797,-0.003857743545054193,-0.00045943261484771014,0.001655487589893312
150000000000.0,-1,0.14985541865,0.19833949625,-0.0641943309,0.05321,0.1884,-0.036843,-0.36458182705,-9.770953794,0.7522288948999999,-2.6903,1.4855,0.81459,-0.0005800000000000249,-0.0005999999999999339,-0.00012000000000000899,-0.00058683990616748,-0.0010417410567631347,0.0009730346147289737
150000000000.0,-1,0.14977696545,0.28545196819999996,-0.05950675219999999,0.05108,0.19374,-0.029393,-0.36046303404999996,-9.770855727499999,0.7559161953,-2.6966,1.4853,0.82288,-0.00046000000000001595,-0.0005999999999999339,4.999999999999449e-05,-0.00022685065929994863,0.0008550360936081525,0.0009455877963464587
150000000000.0,-1,0.167301449,0.3666118036,-0.05312262305,0.060697,0.2011,-0.02086,-0.3570405132,-9.770561528,0.76061358065,-2.7027,1.485,0.83097,-0.00036999999999998145,-0.0009999999999998899,0.0005100000000000104,0.005505551931066943,-0.009095192574351874,0.009495673738561194
150000000000.0,-1,0.20328204785,0.40957473724999993,-0.0942615198,0.072388,0.20312,-0.009113,-0.35397103175,-9.7702673285,0.7656836186999999,-2.7086,1.4847,0.83885,-0.00036999999999998145,-0.000500000000000167,-0.00024000000000001798,-0.002747368659791416,0.0005127924569487963,0.001985340998759355
150000000000.0,-1,0.2247488047,0.39215812684999996,-0.1518853952,0.088355,0.20511,0.000504,-0.35163704905,-9.769973129,0.7712341826,-2.7138,1.4843,0.84613,-0.0010700000000000154,-0.0002999999999997449,-0.0006099999999999994,-0.0042728888580640945,0.005854562730637891,-0.004392495740270341
150000000000.0,-1,0.22883817775,0.2935522611,-0.16984137135,0.098981,0.20714,0.011178,-0.35019547149999997,-9.7694827965,0.7775202452499999,-2.7184,1.4837,0.8528,-0.0005800000000000249,-0.0005999999999999339,-2.0000000000020002e-05,-0.001348669968241456,0.0005529103943324731,0.0013393399751828738
150000000000.0,-1,0.19662333249999997,-0.0346763144,-0.13499834389999998,0.098916,0.20924,0.025024,-0.34700831024999995,-9.769286663499999,0.7817371047499999,-2.7238,1.4835,0.86032,-0.0005899999999999794,-0.000600000000000378,-0.00017999999999995797,0.0023938752753298598,-0.0009588849620210116,0.0015062113396169252
150000000000.0,-1,0.20198757004999998,-0.03550987965,-0.1430397969,0.087124,0.21359,0.043142,-0.3523725478,-9.768404064999999,0.7897687510999999,-2.7219,1.4825,0.86054,-0.0007099999999999884,-0.0008999999999996788,-0.00041000000000002146,-0.00173686326435174,-0.0005965865869570486,0.0007906931112717785
150000000000.0,-1,0.20795001325,-0.12022952899999999,-0.1211513541,0.065746,0.22333,0.065491,-0.35639327429999995,-9.768011798999998,0.7937698643,-2.7196,1.482,0.8604,-0.0006699999999999484,-0.0009000000000001229,-0.00043000000000004146,-0.0005343457510533778,-0.0006419107017947567,0.0018636104469802461
150000000000.0,-1,0.23591857904999997,-0.049454935949999994,-0.07962019135,0.043308,0.23839,0.095299,-0.3628068234,-9.767521466499998,0.7963784332,-2.7141,1.4814,0.85724,-0.00043000000000004146,-0.0007999999999999119,-0.00020999999999993246,0.0004959745398986914,-0.00021047308177712942,0.001448882336434032
150000000000.0,-1,0.26984958805,0.16303555625,-0.0604874172,0.022991,0.25557,0.13151,-0.37235850049999997,-9.767031134,0.7974571646999999,-2.7047,1.4809,0.85033,4.0000000000040004e-05,-0.00140000000000029,0.00034000000000000696,0.003457117713012936,-0.011189792368865081,0.011173193044914598
150000000000.0,-1,0.3319551025,0.49790323379999996,-0.0778255744,0.012197,0.26627,0.17309,-0.38507772555,-9.766638868,0.7971335452499999,-2.6916,1.4804,0.83969,-0.0006300000000000194,-0.0008999999999996788,-0.00043999999999999595,-0.0008466484742410962,0.0028359072078940617,0.0010604974669581324
150000000000.0,-1,0.40522058464999994,0.8657702885999999,-0.12367166315,0.005625,0.27586,0.22214,-0.40162154409999995,-9.766050469,0.7956919677,-2.6742,1.4798,0.82491,-0.0008099999999999774,-0.000800000000000356,-0.0005500000000000504,-0.00586402179237111,0.0011888336961651813,0.00042725205522398113
150000000000.0,-1,0.4978836205,1.1992552285,-0.20342914759999997,0.00436,0.28434,0.27549,-0.42950185005,-9.7649717375,0.7949466622999999,-2.6462,1.4785,0.79972,-0.0009600000000000719,-0.0007999999999999119,-0.0005399999999999849,-0.002993007421000282,0.007285169192806196,-0.0022192698438532332
150000000000.0,-1,0.58301514915,1.464525111,-0.25837580754999995,0.011647,0.29488,0.32886,-0.46255026055,-9.76350074,0.7945249763499999,-2.6144,1.4769,0.77067,-0.0006499999999999284,-0.0007999999999999119,-0.00029999999999996696,0.003211077125875539,0.006442717839091339,0.0012752597375982333
150000000000.0,-1,0.6736972416999999,1.6429080745,-0.29952451095,0.025333,0.30643,0.38436,-0.50116884825,-9.76153941,0.795123182,-2.5792,1.4748,0.73837,-0.0006900000000000794,-0.001100000000000101,-0.000540000000000096,-0.0041963038109842365,0.0024215185383404947,0.002895206557609775
150000000000.0,-1,0.72807511595,1.7014537749999998,-0.30321181134999997,0.029378,0.3138,0.44093,-0.5453674198,-9.758989681,0.7962607534,-2.5411,1.4722,0.7032,-0.0005799999999999139,-0.0013000000000000789,-0.0005299999999999194,0.0019262942429432162,0.0010213909250291753,0.0012987429796202932
150000000000.0,-1,0.79356392465,1.651243727,-0.31555838369999994,0.03026,0.32332,0.49322,-0.59484196905,-9.756047685999999,0.7973885181499999,-2.5007,1.4692,0.66583,-0.0008700000000000374,-0.0014999999999996128,-0.0009500000000000064,0.0015981382541254696,0.0023241094765298342,0.0019527016144014198
150000000000.0,-1,0.8536492692,1.5019865139999997,-0.2966707758,0.029031,0.335,0.54443,-0.6493963629999999,-9.752517292,0.7981044035999999,-2.4586,1.4657,0.62685,-0.0006500000000000394,-0.0015000000000000568,-0.001080000000000081,0.00021610453872833446,0.002169951583581131,0.0030819609755150523
150000000000.0,-1,0.9009761620999999,1.2588796605,-0.24856915755,0.022497,0.34567,0.58816,-0.7085402691499999,-9.748398499,0.7981828568,-2.4156,1.4617,0.58711,-0.0006699999999999484,-0.0015000000000000568,-0.0009799999999999809,-0.003489298353529291,0.00519303964370077,0.0038933778513101647
150000000000.0,-1,0.92283518495,1.0107714154999998,-0.1939559237,0.018126,0.35738,0.62763,-0.7717049018,-9.743691306999999,0.7975944577999999,-2.3727,1.4574,0.54748,-0.000500000000000056,-0.0018000000000002458,-0.0012599999999999278,0.0011008692048624091,0.004413775873928882,0.003842548365427856
150000000000.0,-1,0.9680536480999999,0.80411588005,-0.17299911264999998,0.016935,0.36375,0.66284,-0.838468575,-9.738199583,0.79638823985,-2.3305,1.4526,0.5086,-0.0007999999999999119,-0.0017999999999998018,-0.0017099999999999893,0.0013308095874657866,0.004132717611602388,0.0013050446894840029
150000000000.0,-1,1.0185186689999999,0.58432924025,-0.16483997985,0.01367,0.3744,0.6927,-0.9082526964,-9.732119459999998,0.7945151697,-2.2895,1.4474,0.47109,-0.000540000000000096,-0.0017999999999998018,-0.0012800000000000589,-0.0024958044476215413,0.00632482865783679,0.0044627590787880145
150000000000.0,-1,1.0239123264999999,0.030685007849999998,-0.1102855859,0.010419,0.37974,0.71082,-0.97543805555,-9.725843203999998,0.7915829813499999,-2.2525,1.4423,0.43761,-0.0006799999999999029,-0.002200000000000202,-0.0018000000000000238,-0.0005356914120644429,0.005747500237934355,0.003254008011564169
150000000000.0,-1,1.0969718689999999,0.02331040705,-0.1074612707,0.01147,0.38504,0.72255,-1.048527018,-9.718488216499999,0.78875866615,-2.2157,1.4366,0.40439,3.999999999992898e-05,-0.0026000000000001577,-0.0012499999999999734,0.006247281038381125,-0.004304973666610978,0.011846965862417846
150000000000.0,-1,1.0905975465,-0.37172106825,-0.0781982271,0.001856,0.38618,0.7268,-1.1221749595,-9.71054483,0.7849438793,-2.1812,1.4307,0.37343,-0.0014399999999999968,-0.0019000000000000128,-0.002610000000000001,-0.008083577986002677,0.018369806534487942,-0.006517027597380043
150000000000.0,-1,1.0901072139999999,-0.80815621985,-0.0332837701,-0.018392,0.38848,0.7257,-1.1957248345,-9.702209177499999,0.77922660235,-2.1484,1.4247,0.34417,-0.00014999999999998348,-0.0030999999999998806,-0.0016199999999999548,0.005478322995739804,-0.003974205956678745,0.011641094477800484
150000000000.0,-1,1.1105050459999999,-1.221124058,0.040050358599999995,-0.053544,0.39091,0.71816,-1.2686863105000001,-9.693677392,0.77008680455,-2.1164,1.4189,0.31577,-0.0011999999999999789,-0.0020999999999999908,-0.0024399999999999977,-0.0034265734537761716,0.01776436026871253,-0.005384906901699349
150000000000.0,-1,1.119134898,-1.5368001214999998,0.1515323558,-0.10574,0.39668,0.70952,-1.3406671215,-9.685145606499999,0.7560240684499999,-2.0843,1.4132,0.28729,-0.0009200000000000319,-0.0030000000000001137,-0.0022000000000000908,-0.0037246803068693435,0.005585067301664193,0.004915201374011469
150000000000.0,-1,1.154438838,-1.6224121759999999,0.286746446,-0.16209,0.4142,0.69872,-1.4116672675,-9.676613820999998,0.7360185024499999,-2.0514,1.4077,0.25815,-0.0006199999999999539,-0.0028999999999999027,-0.0018699999999999273,0.0026543024671425997,0.006736247726689459,0.003376933580965691
150000000000.0,-1,1.222300856,-1.4505016015,0.40814296635,-0.19289,0.42832,0.6933,-1.481980948,-9.6678859025,0.7117470437,-2.0185,1.4024,0.22915,-0.00031999999999998696,-0.0036000000000000476,-0.0012699999999999934,0.004742104564030125,-0.006849868788029179,0.011377253198585624
150000000000.0,-1,1.3305662719999998,-1.1280589495,0.44856597764999995,-0.20029,0.43584,0.69221,-1.552000429,-9.658765718,0.6858280677499999,-1.9869,1.3969,0.20144,-0.0015300000000000313,-0.0026999999999999247,-0.002630000000000021,-0.00457414321126981,0.019884337809735753,-0.005297022028386333
150000000000.0,-1,1.4618773155,-0.8499129355499999,0.39759101095,-0.18217,0.43568,0.69437,-1.621235378,-9.649155201,0.6607916903,-1.9578,1.3913,0.17634,-0.00045000000000006146,-0.0038000000000000256,-0.0010099999999999554,0.007612596155392115,-0.002006684358103472,0.007573944964826662
150000000000.0,-1,1.5760267215,-0.72899694105,0.24858877084999997,-0.14807,0.42901,0.69338,-1.6909606595,-9.6386620855,0.6383148484999999,-1.9317,1.3854,0.15422,-0.0015599999999998948,-0.0028000000000001357,-0.0020600000000000618,-0.0032193561082376476,0.01566216734385595,-0.0018363481095371448
150000000000.0,-1,1.6680130985,-0.7696847319,0.11945480365,-0.10324,0.42971,0.69025,-1.7602936749999998,-9.627384438,0.61975086005,-1.9093,1.3793,0.13577,-0.0010700000000000154,-0.0038000000000000256,-0.0013100000000000334,0.004382944713689163,0.0071307746857911525,0.003716268803689804
150000000000.0,-1,1.7308737249999997,-0.9268264915,0.06893094285,-0.057319,0.42934,0.68073,-1.828744092,-9.615616457999998,0.6053448911999999,-1.8905,1.3731,0.12093,-0.0006400000000000849,-0.0041999999999999815,-0.0007999999999999119,0.004167988338472206,-0.005708053705094196,0.011098606972068659
150000000000.0,-1,1.7578420124999998,-1.149927779,0.0776882813,-0.014542,0.43114,0.66371,-1.8945467134999998,-9.603456212,0.59478312915,-1.875,1.3669,0.10954,-0.0009799999999999809,-0.0040000000000000036,-0.0008799999999999919,-0.023246986151983284,0.017813165831044975,0.005050556881939228
150000000000.0,-1,1.7951072824999998,-1.3510621704999999,0.09297684865,0.028247,0.43187,0.64244,-1.95936867,-9.590903699999998,0.5880263473,-1.8623,1.3606,0.10104,-0.0020999999999999908,-0.0031999999999996476,-0.0024700000000000832,0.022073141539311614,0.009249826596570143,-0.005787405062422035
150000000000.0,-1,1.8073655949999998,-1.5853430389999998,0.142588691,0.067843,0.42945,0.61476,-2.0215428309999997,-9.578155055,0.5850941589499999,-1.8525,1.3545,0.095403,-0.0010900000000000354,-0.0040000000000000036,-0.0009500000000000064,0.001296008499661383,0.006702018604308524,0.005691105551751896
150000000000.0,-1,1.8019719374999998,-1.9598590024999998,0.221826423,0.096808,0.42924,0.58279,-2.0805788639999996,-9.5655044765,0.5848686059999999,-1.8448,1.3486,0.091928,-0.0012199999999999989,-0.0045999999999999375,-0.0012199999999999989,0.0028506715582039543,0.00833535609909064,0.00148393815131187
150000000000.0,-1,1.7670602635,-2.4690202704999997,0.2809801358,0.11617,0.42592,0.54547,-2.136084503,-9.5531480975,0.58662399635,-1.8388,1.3429,0.090132,-0.0010999999999999899,-0.004400000000000404,-0.0010299999999999754,-0.0011375650128300219,0.005120330007827301,0.00606621634565907
150000000000.0,-1,1.7221458064999997,-2.9220875005,0.33259253475,0.12167,0.41846,0.50066,-2.187471349,-9.5413801175,0.58917372535,-1.8339,1.3377,0.089382,-0.0011200000000000099,-0.0047999999999999154,-0.001040000000000041,0.00372268485417937,0.006501629573914647,0.0033017797258838577
150000000000.0,-1,1.7075338979999999,-3.220307727,0.3780855841,0.1187,0.4196,0.45689,-2.2346413354999997,-9.530298603,0.59156654795,-1.8296,1.3328,0.089256,-0.0011599999999999389,-0.004899999999999682,-0.0007800000000000029,0.0018956839766588462,0.008420800483963875,0.0017177974174178434
150000000000.0,-1,1.6913529255,-3.4414476845,0.48685113925,0.10829,0.42187,0.40883,-2.2772021964999998,-9.5201977535,0.5926354728,-1.8254,1.3285,0.089292,-0.0011799999999999589,-0.0052000000000003155,-0.0005799999999999139,-0.0004699192596853141,0.006894196029995525,0.0035239450076931522
150000000000.0,-1,1.681252076,-3.6020806115,0.5677658084,0.088213,0.4242,0.3725,-2.3160365305,-9.510881436,0.59178229425,-1.821,1.3246,0.089101,-0.0012500000000000844,-0.005399999999999849,-0.00043999999999999595,0.005621640271220141,0.003823429879480811,0.002727838589262177
150000000000.0,-1,1.7150850184999997,-3.6972051164999997,0.602324443,0.060679,0.43405,0.34682,-2.3521250025,-9.502251584,0.58819306035,-1.8158,1.321,0.088273,-0.0011899999999999133,-0.005599999999999827,5.999999999994898e-05,-0.0001664591738652632,0.004796684391688233,0.004240947356759506
150000000000.0,-1,1.791478822,-3.703187173,0.6188780681999999,0.031942,0.43749,0.33823,-2.3868405435,-9.4939159315,0.5816716381,-1.8098,1.3176,0.086566,-0.0013900000000000023,-0.005700000000000038,0.00021000000000004349,0.0007450483576980638,0.007822383281616219,0.0018346136592932716
150000000000.0,-1,1.936028843,-3.5146052935,0.6160243330499999,0.000994,0.442,0.3467,-2.422046417,-9.485678345499998,0.5717963415499999,-1.8026,1.3142,0.083692,-0.0011500000000000954,-0.005700000000000038,0.0008599999999999719,0.00038957270890005447,0.005395841790131195,0.003583039173588265
150000000000.0,-1,2.1560900689999998,-3.041042165,0.5718649881,-0.020453,0.44109,0.36695,-2.4588213545,-9.476852360499999,0.5595478357,-1.7946,1.3107,0.079901,-0.0013599999999999168,-0.006200000000000205,0.0009400000000000519,-0.001259272519904986,0.0013104259907508187,0.004737325548447302
150000000000.0,-1,2.3540863325,-2.3381995595,0.5224786987,-0.030199,0.44114,0.39575,-2.4980479545,-9.4674379765,0.5459362055,-1.786,1.307,0.075577,-0.0012900000000000134,-0.006399999999999739,0.0012499999999999734,0.004127426954048774,0.005886888869503615,0.004987502056266857
150000000000.0,-1,2.5189361189999997,-1.4916895314999998,0.4553619861,-0.027123,0.44215,0.42244,-2.5397262169999997,-9.457140994,0.53209902235,-1.7773,1.303,0.071216,-0.0013000000000000789,-0.006300000000000416,0.0018699999999999273,-0.0009366972381086303,0.002338619596614855,0.006006854563388453
150000000000.0,-1,2.6351449215,-0.6136609304,0.37425118395,-0.02193,0.44101,0.44914,-2.5839542085,-9.4458633465,0.51848739215,-1.7688,1.2987,0.066995,-0.0017599999999999838,-0.006899999999999684,0.0017100000000001003,-0.0009303914690463877,0.005170822845790957,0.0017266687586010576
150000000000.0,-1,2.7584145119999994,0.20416464635,0.2967884556,-0.01246,0.43772,0.47051,-2.6302415965,-9.433801166999999,0.50556222745,-1.7607,1.2942,0.063113,-0.0017699999999999383,-0.007100000000000106,0.0021699999999998942,0.002735565288720432,0.003350309142269303,0.004707679115217411
150000000000.0,-1,2.8486356919999998,0.8657506752999999,0.22954425655,0.004499,0.42904,0.47909,-2.6774115829999996,-9.4211505885,0.4940982535999999,-1.7533,1.2895,0.059891,-0.0013600000000000279,-0.007300000000000084,0.0021900000000000253,0.0020453747012667556,0.004506601030792812,0.006331338607088011
150000000000.0,-1,2.897080543,1.3332140674999997,0.18429637345,0.034309,0.41708,0.47276,-2.72428737,-9.408107743999999,0.48533110849999994,-1.7471,1.2847,0.057821,-0.0021299999999999653,-0.007699999999999818,0.0019700000000000273,0.0004396280887870585,0.004823167297276498,0.0020499734929073643
150000000000.0,-1,2.9001206044999996,1.6050544055,0.1386464177,0.069461,0.3987,0.45471,-2.7694960264999997,-9.395162966,0.47995706429999996,-1.7424,1.2801,0.057132,-0.0018500000000000183,-0.008099999999999996,0.0018700000000000383,0.0009503590794890382,0.003221206281137201,0.005005436050442347
150000000000.0,-1,2.8403000394999998,1.701649908,0.13507679709999998,0.10147,0.37396,0.41531,-2.8113704219999995,-9.382806587,0.47813302739999997,-1.7393,1.2757,0.057842,-0.0014800000000000368,-0.008199999999999985,0.0018699999999999273,0.002095423029304655,0.004462691120452833,0.006364578372938912
150000000000.0,-1,2.7601797089999995,1.695373652,0.13891119725,0.13892,0.3524,0.35991,-2.8483414925,-9.371627006,0.48013358399999995,-1.7378,1.2718,0.06006,-0.0020399999999999308,-0.008600000000000163,0.0015200000000000768,-0.001946223143353798,0.004509233129539769,0.0025485932694286895
150000000000.0,-1,2.6577982829999995,1.5840681745,0.1362339818,0.18284,0.33187,0.29064,-2.8788401739999996,-9.361918422499999,0.48655693975,-1.7382,1.2685,0.064045,-0.0018700000000000383,-0.00869999999999993,0.0012199999999999989,0.002154956971141875,0.004977465852473051,0.003634581148212135
150000000000.0,-1,2.523054912,1.3023231199999998,0.17260684664999998,0.22249,0.30179,0.20751,-2.9017877349999996,-9.354269235499999,0.4974717412,-1.7406,1.2659,0.069765,-0.0016599999999999948,-0.008899999999999908,0.0011899999999999133,0.0012371810288125396,0.0049560779860642334,0.00445331159438167
150000000000.0,-1,2.4236154809999997,0.9062521397999999,0.1749898626,0.2526,0.27499,0.11688,-2.9163015769999996,-9.3489736445,0.51215229625,-1.7446,1.2641,0.076976,-0.0019400000000000528,-0.009100000000000108,0.0010000000000000009,-0.001259765367812804,0.004933563766611693,0.0037560840872865597
150000000000.0,-1,2.3608529209999998,0.49429438659999997,0.16827230734999998,0.28273,0.24501,0.017711,-2.9216952344999996,-9.3462277825,0.5305299583499999,-1.7504,1.2632,0.08569,-0.0019299999999999873,-0.009400000000000075,0.00038000000000004697,-0.001364174600186896,0.0036256394821250204,0.0030913571427304554
150000000000.0,-1,2.2687684774999997,0.0024908890999999996,0.21894326789999996,0.30967,0.21506,-0.083592,-2.9174783749999995,-9.346325849,0.55243801445,-1.7579,1.2632,0.09591,-0.0018799999999999928,-0.00969999999999982,0.000260000000000038,0.0003628864977676116,0.0021821234408712087,0.0036580563885952877
150000000000.0,-1,2.148048616,-0.7255842268499999,0.32815012229999996,0.33127,0.18196,-0.18917,-2.9032587324999994,-9.3491697775,0.5774547785999999,-1.7671,1.2642,0.10755,-0.0017399999999999638,-0.009200000000000097,0.0006399999999999739,-0.0005800521076610998,0.002518329913624884,0.003713736725138972
150000000000.0,-1,2.123728124,-0.71975907675,0.30140738775,0.33473,0.14794,-0.29584,-2.8789382404999997,-9.3550537675,0.6041975131499999,-1.7777,1.2661,0.12023,-0.0016000000000000458,-0.009200000000000097,0.0005199999999999649,0.000761210035310711,0.007714049762421515,0.0015448683022500909
150000000000.0,-1,2.0563564385,-0.9029178788,0.2918851306,0.33072,0.11505,-0.4004,-2.8446149655,-9.3636836195,0.63183265285,-1.7894,1.2691,0.13379,-0.0017899999999999583,-0.00969999999999982,0.00014999999999998348,-0.0033893455668705386,-0.0006713047513502435,0.0027530138679709992
150000000000.0,-1,1.9763341744999998,-0.9779681712499999,0.2987890122,0.31389,0.081195,-0.50284,-2.800386974,-9.375157399999999,0.65919320635,-1.802,1.273,0.14793,-0.0017599999999999838,-0.00990000000000002,0.00041000000000002146,-0.002736247854039364,-9.610579946017772e-05,0.004379183557057464
150000000000.0,-1,1.8766986105,-0.97881154315,0.35746219914999994,0.27574,0.050712,-0.60319,-2.7465484654999996,-9.389278975999998,0.6844649434,-1.815,1.278,0.16218,-0.0017700000000000493,-0.00990000000000002,0.00034999999999996145,-0.002317256932599099,0.0005093827252615757,0.002418115034181545
150000000000.0,-1,1.7841238345,-0.86744722575,0.40470083219999997,0.23011,0.023479,-0.69715,-2.6832955729999997,-9.405950280999999,0.7062160930999999,-1.8281,1.2839,0.17618,-0.0017699999999999383,-0.010099999999999998,0.00043000000000004146,-0.004669960667100792,-0.0022918679686296795,0.0014888389248000067
150000000000.0,-1,1.7010615089999999,-0.6613997026,0.37876224294999994,0.18443,-0.006955,-0.78577,-2.611314762,-9.424779049,0.72466240175,-1.8415,1.2908,0.1901,-0.0019000000000000128,-0.010499999999999954,0.00024999999999997247,0.0009861239868091953,-0.004254613806774499,0.0011324513911039613
150000000000.0,-1,1.6421235424999998,-0.44700672029999994,0.383636148,0.13771,-0.032055,-0.8712,-2.5309002319999996,-9.445569147,0.7395488964499999,-1.8551,1.2986,0.20396,-0.0018799999999999928,-0.010400000000000187,0.0006800000000000139,-0.003774411998759275,-0.005278288501066708,0.002712554831595382
150000000000.0,-1,1.569652399,-0.2689964095,0.37937025524999995,0.10271,-0.057255,-0.95447,-2.4421500495,-9.467928309,0.7514443628999999,-1.8693,1.3072,0.21814,-0.0021300000000000763,-0.010299999999999976,0.0006700000000000594,-0.004194907572351525,-0.003667416990130956,0.0001392361905492301
150000000000.0,-1,1.4732530295,-0.09134894475,0.34157542614999997,0.075184,-0.081455,-1.0356,-2.341435754,-9.492444934,0.7619963182999999,-1.8854,1.317,0.23398,-0.0019399999999999418,-0.01079999999999992,0.0006899999999999684,0.0008863489206512032,-0.007953530263171027,0.0016233580036211226
150000000000.0,-1,1.3471395105,0.00204958985,0.30110338159999994,0.064682,-0.10899,-1.1135,-2.2366026655,-9.5170596255,0.7706065569999999,-1.9026,1.3272,0.25066,-0.0023100000000000342,-0.01110000000000011,0.0005500000000000504,-0.003913809567868354,-0.008417029546063048,0.000257515914103168
150000000000.0,-1,1.2792774925000001,0.014494228699999999,0.21752130364999997,0.063727,-0.14088,-1.1871,-2.1240223234999998,-9.542066582999999,0.7796679016,-1.9226,1.338,0.26988,-0.0021299999999999653,-0.010399999999999965,0.0008799999999999919,-0.0035452719656734466,-0.007149457166614415,0.0006134584322072811
150000000000.0,-1,1.1657164855,0.0480133584,0.13863661105,0.064935,-0.17384,-1.2682,-2.0033024619999997,-9.56736774,0.78926861195,-1.9461,1.3494,0.29232,-0.0022999999999999687,-0.01089999999999991,0.0006999999999999229,0.0012019377091423422,-0.009923704105913478,0.0001844398519552648
150000000000.0,-1,1.0078294205,0.0589575798,0.0717062248,0.069417,-0.19617,-1.3471,-1.8731682165,-9.592865029999999,0.7996342409999999,-1.9743,1.3616,0.31916,-0.0023500000000000743,-0.010699999999999932,0.0008900000000000574,0.00036252843551065617,-0.009331782945388056,-0.0004415733418581258
150000000000.0,-1,0.7850713657499999,0.035137226949999996,-0.03003776895,0.065318,-0.22163,-1.4218,-1.7366596484999999,-9.617577788,0.80980373705,-2.0071,1.3741,0.35054,-0.0024699999999999722,-0.011500000000000066,0.0005399999999999849,-0.0028945311374195537,-0.01256222619131142,0.0011973708413381967
150000000000.0,-1,0.54055235465,-0.10183225359999999,0.0102969825,0.092031,-0.26121,-1.4932,-1.5923057604999997,-9.641506013999999,0.8221405027500001,-2.0474,1.387,0.38899,-0.0025399999999999867,-0.01100000000000012,0.0008700000000000374,-0.001806714396021425,-0.010191954639099166,-0.002205050817514431
150000000000.0,-1,0.4479481587,-0.07397156095,0.03099882065,0.1135,-0.28369,-1.5561,-1.4412833504999998,-9.6639632425,0.8368995109999999,-2.0969,1.4,0.4364,-0.0024699999999999722,-0.011299999999999866,0.0006299999999999084,-0.001918214177685451,-0.014021669103484014,0.0002380374636030691
150000000000.0,-1,0.21120582105,-0.027713592899999997,0.026791767799999998,0.12966,-0.29869,-1.6105,-1.2761393644999999,-9.6857340055,0.85367868915,-2.1604,1.4136,0.49769,-0.0026200000000000667,-0.011300000000000088,0.0006599999999999939,-0.0010180719130232774,-0.013048975876063018,-0.0010897908344777996
150000000000.0,-1,0.0644296905,-0.09348679445,-0.08489616905,0.1637,-0.33836,-1.6541,-1.113839307,-9.704072441,0.87258591035,-2.2353,1.426,0.57022,-0.002610000000000001,-0.011399999999999855,0.000540000000000096,-9.196669780386912e-05,-0.01612893634089496,-0.003984239400574019
150000000000.0,-1,-0.070215614,-0.18632634999999997,-0.3156760635,0.18807,-0.37795,-1.6839,-0.9476165894999998,-9.719665014499999,0.8944743531499999,-2.3274,1.4375,0.65939,-0.0025100000000000122,-0.01110000000000011,0.0007199999999999429,-0.0016602781373542541,-0.014158989475772765,0.0002204935673688624
150000000000.0,-1,-0.15167945554999998,-0.30487894185,-0.30249592589999996,0.17193,-0.41083,-1.7084,-0.77816748415,-9.7328059255,0.9149604449999998,-2.4368,1.448,0.76571,-0.0021700000000000053,-0.010999999999999899,0.0007899999999999574,0.000569162092462383,-0.014897841510135068,-0.0007500748051938455
150000000000.0,-1,-0.3721623675,-0.33514226374999995,-0.162005858,0.12481,-0.45303,-1.7415,-0.6052664379999999,-9.7435932405,0.9312885172499998,-2.5653,1.4573,0.89059,-0.0025100000000000122,-0.011300000000000088,0.0005500000000000504,-0.003124350440372181,-0.015874169156809836,-0.0009282490482791506
150000000000.0,-1,-0.57909248915,-0.260268491,-0.11998436274999999,0.070332,-0.46962,-1.7555,-0.42991372935,-9.751830826499999,0.9419385391499999,-2.7134,1.465,1.0349,-0.002569999999999961,-0.011400000000000077,0.0006599999999999939,-0.0016081767680999892,-0.016567326869427523,-0.0015071159663715417
150000000000.0,-1,-0.73584198275,-0.3073011844,-0.02021150565,0.03966,-0.4459,-1.7716,-0.25296253674999997,-9.757518683499999,0.9476656227499999,-2.8807,1.4706,1.1986,-0.0022600000000000398,-0.01079999999999992,0.0007399999999999629,-0.0032613218909971486,-0.014663903772975218,-0.0029707214781624636
150000000000.0,-1,-0.8788131331,-0.57924939555,0.11933712384999999,0.022465,-0.45217,-1.7566,-0.0767664562,-9.760068412499999,0.9511764034499999,-3.0611,1.4733,1.3753,-0.0022099999999999342,-0.01110000000000011,0.0007400000000000739,0.0024529465413853924,-0.017441269976834928,-0.0015906826038636357
150000000000.0,-1,-0.9778504914499999,-0.8541984415999999,0.1744603035,-0.029169,-0.49545,-1.7417,0.09813514655,-9.760068412499999,0.94992115225,3.0387,1.4733,1.5547,-0.0021700000000000053,-0.010999999999999899,0.0006499999999999284,-0.0015727201597923735,-0.015794152491768854,-0.0005901069177232099
150000000000.0,-1,-1.0411720304999998,-0.996551773,-0.0328130509,-0.094469,-0.50666,-1.7162,0.27112445255,-9.757616749999999,0.9411049738999999,2.8611,1.4708,1.7281,-0.0024899999999999922,-0.011200000000000099,0.0006300000000000194,-0.00416047584687429,-0.01932375480935611,-0.004388441344116423
150000000000.0,-1,-1.0900091475,-0.87874448655,-0.26222001435,-0.12534,-0.4798,-1.6875,0.44116195689999993,-9.752713425,0.9276502500999999,2.6977,1.4659,1.8874,-0.0022800000000000598,-0.010999999999999899,0.0008599999999999719,0.0011708245730188693,-0.01786766692746755,-0.001978379883532222
150000000000.0,-1,-1.272707037,-0.8062537297499999,-0.142980957,-0.14557,-0.4509,-1.6502,0.6072669946,-9.745260370999999,0.91151831085,2.5539,1.4589,2.0274,-0.0023599999999999177,-0.01089999999999991,0.0005800000000000249,0.0002854091152659777,-0.019149108415452254,-0.0031924858213590035
150000000000.0,-1,-1.4147073289999998,-0.5882028669999999,0.0502492746,-0.18101,-0.45278,-1.6054,0.7684000607499999,-9.7357479205,0.8917186844999999,2.4303,1.4505,2.1473,-0.00279000000000007,-0.010600000000000165,0.001060000000000061,0.001547391950075916,-0.016694215425780312,-0.00499068539776637
