Time,placement_label,user_acc_x(m/s^2),user_acc_y(m/s^2),user_acc_z(m/s^2),rotation_rate_x(rad/s),rotation_rate_y(rad/s),rotation_rate_z(rad/s),gravity_x(m/s^2),gravity_y(m/s^2),gravity_z(m/s^2),attitude_roll(rad),attitude_pitch(rad),attitude_yaw(rad),target_delta_x,target_delta_y,target_delta_z,target_delta_roll,target_delta_pitch,target_delta_yaw
150000000000.0,-1,0.06320385925,0.027331133549999997,0.034382114899999996,-0.00326,-0.01982,0.011826,-1.528268336,-9.580900917,1.4283385725,-2.3224,1.3558,1.3933,0.0,0.0,0.0,0.0,0.0,0.0
150000000000.0,-1,0.05004333495,-0.02240819525,0.034705734349999996,-0.006431,-0.015533,0.012878,-1.528464469,-9.580900917,1.428632772,-2.3224,1.3558,1.3931,-0.00034999999999996145,0.0005999999999999339,-0.0005500000000000504,-0.015065679560989587,0.008995138073615072,-0.007894647945518862
150000000000.0,-1,0.043894565399999995,-0.08185610755,0.039510992849999996,-0.005394,-0.01874,0.013951,-1.5285625355,-9.5808028505,1.4287308384999997,-2.3224,1.3558,1.3929,0.00031000000000003247,-0.0006999999999999229,0.0005399999999999849,0.015627037436240165,-0.00904284715440773,0.00783760444730941
150000000000.0,-1,0.033352416649999994,-0.13744019975,0.05263229055,-0.007518,-0.017657,0.013943,-1.528856735,-9.5808028505,1.4289269715,-2.3224,1.3558,1.3927,-2.0000000000020002e-05,0.00034999999999985043,-4.999999999999449e-05,0.000662699742356887,4.64926648855446e-05,0.0001832842390854239
150000000000.0,-1,0.03144992655,-0.16278058334999998,0.05504472645,-0.009675,-0.018709,0.017141,-1.5291509345,-9.580704784,1.4289269715,-2.3223,1.3557,1.3924,-0.00038000000000004697,0.0003500000000000725,-0.0005100000000000104,-0.015842424095843466,0.00864721318636219,-0.008996669756614395
150000000000.0,-1,0.0350685804,-0.14605043845,0.05759445544999999,-0.012861,-0.017617,0.016064,-1.5295432004999998,-9.580704784,1.4287308384999997,-2.3222,1.3557,1.392,-7.00000000000145e-05,-9.999999999998899e-05,-5.999999999994898e-05,-0.0006246013718815835,-0.00021571899858696675,-0.00037330469542373734
150000000000.0,-1,0.0599186315,-0.06151711544999999,0.0481310382,-0.00965,-0.016578,0.016066,-1.529641267,-9.580704784,1.428632772,-2.3221,1.3557,1.3917,-3.999999999992898e-05,-0.00039999999999995595,2.0000000000020002e-05,-0.00022261929758649046,0.00033272059351796557,-0.0004767861030305909
150000000000.0,-1,0.0750797124,0.040893730499999996,0.04319829325,-0.006462,-0.017672,0.017138,-1.5298374,-9.580606717499998,1.4291231045,-2.3221,1.3557,1.3916,0.00041000000000002146,-0.00039999999999995595,0.0006800000000000139,0.019454239898359482,-0.00978655325001343,0.009706830095527863
150000000000.0,-1,0.09056441274999999,0.11903311769999998,0.018387468749999997,-0.001147,-0.020912,0.016083,-1.5299354665,-9.580508651,1.42980957,-2.3224,1.3556,1.3916,-8.000000000008001e-05,-9.999999999998899e-05,6.999999999990347e-05,0.0008485242929336945,-0.00019461822690058916,-0.00021317761306027805
150000000000.0,-1,0.090025047,0.13997031545,0.00252030905,0.005244,-0.023095,0.015027,-1.5298374,-9.580312518,1.430986368,-2.3228,1.3555,1.3918,-6.999999999990347e-05,-4.999999999988347e-05,3.0000000000085514e-05,6.562114839891997e-05,-2.5864513655493582e-05,-0.00041166964539618434
150000000000.0,-1,0.0687053899,0.08968181424999999,-0.018966061099999997,0.008443,-0.025249,0.011832,-1.5297393334999998,-9.580116385,1.432163166,-2.3232,1.3555,1.392,-6.0000000000060005e-05,-5.0000000000105516e-05,1.4999999999987246e-05,0.00020354193168481416,0.00012584551138061784,-0.00010017088295954935
150000000000.0,-1,0.04246279449999999,0.0390500803,-0.0218688295,0.011665,-0.023144,0.010765,-1.5298374,-9.579920251999999,1.4334380304999998,-2.3237,1.3554,1.3921,-9.00000000000345e-05,-5.0000000000105516e-05,1.4999999999987246e-05,-0.0006882552176750156,-0.00040194521174696796,-0.0007522381143063583
150000000000.0,-1,0.041138896749999994,0.0027066354,0.0011571847,0.014858,-0.024236,0.010771,-1.5299354665,-9.5796260525,1.4352032275,-2.3243,1.3552,1.3925,-7.00000000000145e-05,-4.999999999988347e-05,-1.0000000000065512e-05,0.00029932717178859924,-0.00011868487478583489,-0.00027063320920994727
150000000000.0,-1,0.04927841625,-0.024673531399999997,0.02495792425,0.013792,-0.024228,0.010767,-1.5298374,-9.579331853,1.437262624,-2.325,1.3551,1.393,-5.999999999994898e-05,-3.333333333332966e-05,-2.999999999997449e-05,0.0008693728781423715,-3.3374559081700284e-05,-0.000598108544489051
150000000000.0,-1,0.049533389149999996,-0.026330855249999997,0.0334602898,0.011654,-0.024211,0.011829,-1.5297393334999998,-9.5790376535,1.4394200869999998,-2.3258,1.3549,1.3935,-4.0000000000040004e-05,-3.333333333332966e-05,1.0000000000065512e-05,0.000629893538065085,-1.6632702381835784e-05,-0.0007040231276129738
150000000000.0,-1,0.04390437205,-0.006433162399999999,0.02491869765,0.013785,-0.025294,0.010765,-1.529641267,-9.578743454,1.4415775499999999,-2.3265,1.3548,1.394,-2.999999999997449e-05,-3.333333333332966e-05,-6.0000000000060005e-05,0.0004205609232115215,0.00018391380346849395,-0.0005360862283416701
150000000000.0,-1,0.0342644351,0.009718390149999999,0.0163967188,0.010588,-0.024203,0.011824,-1.5299354665,-9.578449254499999,1.443342747,-2.3271,1.3546,1.3943,-0.00012000000000000899,0.00034999999999985043,-0.0003349999999999742,0.0007044086923853055,-0.00012825112451064768,-0.0008262125395215314
150000000000.0,-1,0.031165533699999998,-0.012827098199999998,0.02301620755,0.008483,-0.022053,0.009681,-1.5299354665,-9.578155055,1.4449118109999999,-2.3276,1.3545,1.3946,-0.0004999999999999449,0.0003500000000000725,-0.0003349999999999742,-0.021800003765028775,0.010286434390889276,-0.00879407136587762
150000000000.0,-1,0.03399965555,-0.0335583563,0.0271448072,0.006334,-0.022039,0.012878,-1.5301315995,-9.577958921999999,1.4463828085000001,-2.3281,1.3544,1.3948,2.0000000000020002e-05,4.999999999988347e-05,-1.0000000000065512e-05,-0.0010375681846532814,-0.0007757315569347778,0.00022239711016958097
150000000000.0,-1,0.0321854253,-0.05394638164999999,0.0207116448,0.002053,-0.02307,0.013938,-1.5303277324999998,-9.577762789,1.4472654069999997,-2.3283,1.3543,1.3948,-9.00000000000345e-05,5.0000000000105516e-05,-9.999999999998899e-05,-0.0003773061192273719,0.0006905294380823435,-0.0010687038582002373
150000000000.0,-1,0.0264387284,-0.08800487709999999,0.0210646842,0.003144,-0.020948,0.012865,-1.5298374,-9.5776647225,1.4483441384999998,-2.3288,1.3543,1.3951,-6.0000000000060005e-05,-9.999999999998899e-05,-5.000000000032756e-06,0.0007144519004729233,-0.0006208993411549457,-2.4559495514608898e-05
150000000000.0,-1,0.0273605535,-0.0882402367,0.0204762852,0.004233,-0.018824,0.011796,-1.5308180649999998,-9.577468589499999,1.4489325375,-2.3287,1.3542,1.3948,-2.999999999997449e-05,-9.999999999998899e-05,-4.999999999921734e-06,-0.0005533002299766832,0.0007530205658878852,0.0002329656283088788
150000000000.0,-1,0.017377383799999997,-0.07005870759999999,0.021770763000000002,0.004228,-0.018826,0.012862,-1.5313083975,-9.5772724565,1.4499132025,-2.3289,1.3541,1.3948,-0.000140000000000029,-0.00014999999999987246,-2.999999999997449e-05,-0.0006858125404840543,-0.0001041730111079886,-0.0004126659214822581
150000000000.0,-1,0.01989769285,-0.06051683715,0.0078060934,0.005295,-0.018835,0.012863,-1.5317006635,-9.577076323499998,1.4506977345,-2.3291,1.354,1.3947,-7.999999999996898e-05,-0.0001500000000000945,1.999999999990898e-05,-0.00015454421014271524,0.00015922804736390184,-0.0003710236670371181
150000000000.0,-1,0.0232613738,-0.028174505449999998,-0.0111991943,0.002107,-0.017742,0.011787,-1.5321909959999997,-9.5768801905,1.450991934,-2.329,1.3539,1.3944,-7.999999999996898e-05,-0.0001500000000000945,9.99999999995449e-06,-3.432407159320583e-05,-0.0001990710433321663,-0.00022458765325295005
150000000000.0,-1,0.02293775435,-0.0085513988,0.00648219565,-0.003203,-0.013438,0.013904,-1.5329755279999997,-9.576782124,1.451188067,-2.3288,1.3539,1.3941,-7.00000000000145e-05,-0.00014999999999987246,1.0000000000065512e-05,0.0001857846572150823,0.00011839669440827372,0.00014670779964154335
150000000000.0,-1,0.02680157445,-0.0071490478500000005,0.026713314599999996,-0.009575,-0.009124,0.014952,-1.5336619935,-9.5766840575,1.450991934,-2.3285,1.3538,1.3937,-5.999999999994898e-05,-0.00014999999999987246,1.0000000000065512e-05,-0.00017822284610913286,9.758175560570237e-05,-0.0002921734820549027
150000000000.0,-1,0.0351666469,-0.021231397249999995,0.027801852749999998,-0.011696,-0.006977,0.01601,-1.5343484589999998,-9.5766840575,1.4503054684999999,-2.328,1.3538,1.3931,0.00030999999999992145,-0.0001500000000000945,0.0006599999999999939,0.019503602088693173,-0.011072074384964825,0.009033932624745944
150000000000.0,-1,0.0381086419,-0.036971070499999995,0.04231569475,-0.012722,-0.002706,0.014932,-1.535132991,-9.5766840575,1.4497170695,-2.3276,1.3538,1.3926,-0.00017999999999995797,-1.2499999999970868e-05,-0.00014999999999998348,-0.0009245150343986097,0.0015979625082056526,-0.0010133634765221444
150000000000.0,-1,0.02960627635,-0.0521321514,0.0383440015,-0.01166,-0.002716,0.016,-1.5360155894999998,-9.576585991,1.4490306039999998,-2.3271,1.3538,1.392,-6.0000000000060005e-05,-1.2499999999970868e-05,5.999999999994898e-05,0.0017037997781319536,-0.001086033195033309,0.00018764641492152734
150000000000.0,-1,0.03078307435,-0.0473661195,0.01623000575,-0.007373,-0.001683,0.013869,-1.536702055,-9.576585991,1.4484422049999999,-2.3266,1.3538,1.3915,-0.00013999999999991797,-1.2499999999970868e-05,-2.0000000000020002e-05,-0.000845506441542021,0.00021554714952065623,-4.106286367999701e-05
150000000000.0,-1,0.029527823149999997,0.004344345949999999,0.0018436501999999997,0.000134,0.00039,0.009608,-1.537290454,-9.5764879245,1.4483441384999998,-2.3264,1.3537,1.3913,-9.999999999998899e-05,-1.2499999999970868e-05,-9.99999999995449e-06,0.00033808187073924856,-0.0002928277408302815,-0.00037060854578596647
150000000000.0,-1,0.0362453784,0.0671755525,-0.022270902149999997,0.007576,-0.002868,0.009625,-1.5378788529999998,-9.576389858,1.4487364045,-2.3264,1.3536,1.3912,-8.000000000008001e-05,-1.2500000000192912e-05,-1.0000000000065512e-05,-0.0002510672882507503,0.0003112279277293073,0.000797971420960053
150000000000.0,-1,0.0478760653,0.08670059264999999,-0.038755880799999996,0.018226,-0.005087,0.009646,-1.538074986,-9.5760956585,1.4500112689999998,-2.3267,1.3535,1.3915,-9.999999999998899e-05,-1.2499999999970868e-05,-1.999999999990898e-05,-0.0009079166551511086,0.001250592907092285,-0.0005404965448847499
150000000000.0,-1,0.055613512149999995,0.1030482782,-0.04413973164999999,0.018232,-0.002958,0.011776,-1.5385653185,-9.575899525499999,1.4512861335,-2.327,1.3534,1.3918,-0.00012000000000000899,-1.2499999999970868e-05,-1.0000000000065512e-05,0.0005156217773114591,0.0003103275465541344,-0.0005839582577125135
150000000000.0,-1,0.0636451585,0.059977471399999996,-0.0287530978,0.017156,-0.004015,0.011774,-1.5387614514999999,-9.575605326,1.4528551975,-2.3275,1.3533,1.3922,-7.00000000000145e-05,-1.2499999999970868e-05,-2.0000000000020002e-05,-0.0007448702428125564,0.00038927885595785305,-2.069813474436799e-05
150000000000.0,-1,0.050906320149999996,-0.0140038962,-0.011424747249999999,0.010794,0.002428,0.013884,-1.5392517839999997,-9.575409192999999,1.453737796,-2.3277,1.3532,1.3924,-6.999999999990347e-05,9.999999999998899e-05,-2.0000000000020002e-05,-0.0006924866743098779,0.00040807842846768416,-0.00012825576528774363
150000000000.0,-1,0.0060016698,-0.1409019472,0.0428942871,0.002281,0.005694,0.014928,-1.539447917,-9.57521306,1.454522328,-2.3278,1.3531,1.3926,-0.00043999999999999595,0.0006999999999999229,-0.0006399999999999739,-0.019009453918741537,0.009123080952326834,-0.009041815423037391
150000000000.0,-1,0.007688413599999999,-0.1411373068,0.04314926,-0.001933,0.013186,0.015975,-1.5412131139999998,-9.575016927,1.4543261949999997,-2.3272,1.353,1.3921,-6.0000000000060005e-05,-9.999999999998899e-05,-2.999999999997449e-05,-2.718538796009362e-05,-0.00033513579616273326,-0.0001669513627282626
150000000000.0,-1,0.00542307745,-0.14094117379999999,0.05680992345,-0.000864,0.013177,0.015976,-1.5424879785,-9.5747227275,1.454522328,-2.3269,1.3529,1.3918,-7.00000000000145e-05,-2.4999999999941735e-05,-4.0000000000040004e-05,-0.0002070158347349249,0.0002472209543338266,-3.291827024831662e-05
150000000000.0,-1,0.018240369,-0.10970699355,0.039697319200000004,-0.000869,0.013176,0.017042,-1.5436647764999998,-9.5745265945,1.4546203944999998,-2.3265,1.3528,1.3916,-5.999999999994898e-05,-2.4999999999941735e-05,-9.99999999995449e-06,-0.00016705175140074857,-3.295597406816064e-05,-0.00011921280021809366
150000000000.0,-1,0.033440676499999995,-0.06422375085,0.013435110499999998,0.002351,0.014217,0.014909,-1.5446454415,-9.574428527999999,1.454522328,-2.3262,1.3527,1.3914,-6.0000000000060005e-05,-2.500000000016378e-05,-2.999999999997449e-05,0.0004595663827320351,0.00011828361985100067,0.00016842401057814982
150000000000.0,-1,0.0405014645,-0.0163771055,-0.00401091985,0.005537,0.013124,0.015982,-1.545724173,-9.574232395,1.4546203944999998,-2.3258,1.3526,1.3912,-0.00017000000000000348,-2.4999999999941735e-05,5.999999999994898e-05,-0.00013682400867454092,0.0003068619358095326,0.00013703595393055323
150000000000.0,-1,0.042845253849999994,0.00326561445,-0.017259704,0.010835,0.009881,0.01813,-1.5468029045,-9.573938195499998,1.455110727,-2.3257,1.3525,1.3911,0.000300000000000078,-0.0007999999999999119,0.0005700000000000705,0.01991386273107998,-0.009328417228457786,0.009959049973756073
150000000000.0,-1,0.0544857474,0.0031969679,-0.012121019399999999,0.014014,0.00985,0.022404,-1.5481758355,-9.5735459295,1.4560913919999998,-2.3256,1.3523,1.3911,-0.000140000000000029,5.0000000000105516e-05,-3.0000000000085514e-05,0.0002890098598871127,-0.000622620639581406,0.0005003187180041557
150000000000.0,-1,0.06587126805,0.0033931009,-0.0115522337,0.016128,0.008765,0.024541,-1.5495487665,-9.5731536635,1.4573662564999998,-2.3255,1.3521,1.3911,-9.999999999998899e-05,4.999999999988347e-05,-9.999999999998899e-05,-0.0039448897326936905,0.0019662183461843785,-0.0016418694549336088
150000000000.0,-1,0.07137279869999999,-0.021231397249999995,-0.012062179499999999,0.013988,0.008781,0.025602,-1.5508236309999999,-9.572761397499999,1.4584449879999999,-2.3255,1.352,1.3912,-0.0001100000000000545,-4.999999999988347e-05,1.0000000000065512e-05,0.0002525103991724009,-0.00019648237941116697,-0.0006048404687133413
150000000000.0,-1,0.0659595279,-0.040158231749999995,0.0005099458,0.00972,0.008816,0.025592,-1.5522946284999999,-9.5723691315,1.4593275865,-2.3253,1.3518,1.3911,-5.999999999994898e-05,-5.0000000000105516e-05,4.499999999996174e-05,3.373367027470486e-05,0.0004560949400849168,0.0004876693514801467
150000000000.0,-1,0.0534070159,-0.054142514649999994,0.014876688049999998,0.00652,0.008842,0.025584,-1.5538636925,-9.572074932,1.4601121185,-2.3251,1.3516,1.3909,-2.0000000000020002e-05,-5.0000000000105516e-05,4.499999999996174e-05,-0.0008811032801059326,-0.0006786108417966563,8.088202023603941e-05
150000000000.0,-1,0.041011410299999995,-0.05619210449999999,0.042580474300000004,0.004432,0.013123,0.023436,-1.555530823,-9.571682666,1.460994717,-2.3249,1.3514,1.3907,-5.999999999994898e-05,-5.0000000000105516e-05,-9.99999999995449e-06,-0.0007817007049761848,-0.0004658393375884806,-3.358616219273358e-05
150000000000.0,-1,0.03658861115,-0.030851720899999997,0.0477583855,0.003381,0.014198,0.022363,-1.5571979534999998,-9.571192333499999,1.461779249,-2.3246,1.3512,1.3906,-0.00010000000000010001,0.0002500000000000835,-2.999999999997449e-05,-0.0010286949904056986,0.0002575168750997836,-0.0003104232358883685
150000000000.0,-1,0.05180853195,0.005972249849999999,0.04615990155,0.005455,0.007785,0.024511,-1.5587670175,-9.570800067499999,1.462956047,-2.3245,1.351,1.3905,-0.00045999999999990493,0.0002500000000000835,-0.0005100000000000104,-0.01591670089128483,0.008677944331878074,-0.008534482541528998
150000000000.0,-1,0.06873480985,0.026487761649999997,0.016239812399999998,0.012923,0.007723,0.024522,-1.5601399485,-9.5704078015,1.464328978,-2.3245,1.3508,1.3906,-0.00010000000000010001,-5.0000000000105516e-05,-5.000000000032756e-06,-0.00027380933268861263,4.167760931927944e-07,-2.1748166582291617e-05
150000000000.0,-1,0.09353582769999999,0.030841914249999994,-0.0082964259,0.02141,0.002323,0.02561,-1.56121868,-9.569917468999998,1.4660941749999998,-2.3248,1.3506,1.3909,-9.999999999998899e-05,-4.999999999988347e-05,-5.000000000032756e-06,0.00014394662453676155,-5.86034712908301e-05,-2.384639437691405e-05
150000000000.0,-1,0.09788998029999998,0.0282039254,-0.01987807955,0.029907,-0.003074,0.024563,-1.5621012784999997,-9.5694271365,1.468643904,-2.3254,1.3504,1.3915,-0.00010999999999994348,-9.999999999998899e-05,6.0000000000060005e-05,-0.00017157719813276628,-0.0006022349379888325,0.00044890012952691905
150000000000.0,-1,0.0975173276,-0.0007747253499999999,-0.0375202429,0.03735,-0.007396,0.022445,-1.562591611,-9.5688387375,1.4716839655,-2.3262,1.3501,1.3923,-0.000160000000000049,-9.999999999998899e-05,-4.0000000000040004e-05,0.00017199597278194645,0.0007947529130165609,-0.00030163548861272815
150000000000.0,-1,0.08366053115,-0.03880491404999999,-0.050406180999999994,0.036308,-0.007383,0.017102,-1.562787744,-9.568348405,1.474527894,-2.3271,1.3499,1.3931,-8.999999999992347e-05,9.999999999998899e-05,-7.00000000000145e-05,0.0003690949642678465,0.0007992069612356989,-0.0006559373104004784
150000000000.0,-1,0.051141679749999995,-0.059232165999999996,-0.021780569649999998,0.035244,-0.009501,0.012832,-1.5630819434999998,-9.5678580725,1.4775679554999999,-2.3281,1.3497,1.394,0.00027999999999994696,-0.0008000000000001339,0.000520000000000076,0.01776391081187989,-0.008062723594777887,0.007877003253013548
150000000000.0,-1,0.0393835064,-0.07450112005,0.00214765635,0.026723,-0.008364,0.011746,-1.5632780764999998,-9.56736774,1.4803138175,-2.3289,1.3495,1.3948,-5.999999999994898e-05,-9.999999999998899e-05,3.999999999992898e-05,0.0010439574053155987,-0.0011070017860574932,0.00048668534882567727
150000000000.0,-1,0.0332641568,-0.09011330684999999,0.0302829352,0.016114,-0.002946,0.008514,-1.5632780764999998,-9.5670735405,1.482569347,-2.3297,1.3493,1.3955,-2.0000000000020002e-05,-0.00019999999999997797,-2.999999999997449e-05,0.0009433315012479238,0.00032513171389836337,0.0005789382957335221
150000000000.0,-1,0.035794272499999995,-0.07834532685,0.042806027249999996,0.008654,-0.003947,0.005299,-1.5629838769999997,-9.5668774075,1.4842364775,-2.3304,1.3492,1.3961,-6.0000000000060005e-05,-9.999999999998899e-05,-9.99999999995449e-06,-0.00010376757173657936,-0.00032278679660247,0.0005431541939886486
150000000000.0,-1,0.0451302033,-0.06928398225,0.036284605,0.001179,-0.004951,0.005285,-1.562591611,-9.566779340999998,1.485119076,-2.3308,1.3492,1.3964,-0.00015999999999993797,-9.999999999998899e-05,9.99999999995449e-06,0.00037219166567115103,-0.0007761156140801972,-1.6324671303635796e-07
150000000000.0,-1,0.0540542548,-0.0855336013,0.030155448749999997,-0.000968,-0.006001,0.006348,-1.562003212,-9.5668774075,1.4854132754999998,-2.3311,1.3492,1.3967,-9.999999999998899e-05,-9.999999999998899e-05,2.999999999997449e-05,-0.0007484488697935276,0.0006396990645016754,-0.001292680342981356
150000000000.0,-1,0.059016419699999996,-0.08422931684999999,0.016514398599999997,-0.000968,-0.006001,0.006345,-1.56121868,-9.566975474,1.4854132754999998,-2.3313,1.3492,1.3969,-0.00012000000000000899,-9.999999999998899e-05,3.0000000000085514e-05,-0.00016808702194914815,-0.0006232199467908206,0.000462828926322878
150000000000.0,-1,0.0758446311,-0.056554950550000004,-0.005187717849999999,-0.000993,-0.00707,0.009546,-1.5605322144999998,-9.5670735405,1.4852171425,-2.3315,1.3493,1.3969,-9.999999999998899e-05,-9.999999999998899e-05,3.999999999992898e-05,0.0015346498894661664,1.814536460376104e-05,0.00014791743112496647
150000000000.0,-1,0.0897504608,-0.021143137399999998,-0.013582210249999999,0.003256,-0.009237,0.009553,-1.5597476824999998,-9.567171606999999,1.4854132754999998,-2.3318,1.3494,1.3971,-8.000000000008001e-05,-4.999999999988347e-05,2.0000000000020002e-05,-0.00020795194496781022,-0.0004909839069537902,0.0003660814796750955
150000000000.0,-1,0.09407519345,0.0058839899999999995,-0.02888058425,0.006436,-0.01246,0.008493,-1.5588650839999998,-9.567269673499998,1.4857074749999999,-2.3322,1.3494,1.3974,-0.00010999999999994348,-5.0000000000105516e-05,2.0000000000020002e-05,0.000423672672200226,0.00041702570730839383,-0.00014139976961402567
150000000000.0,-1,0.10396029664999999,0.02576206955,-0.044443737799999994,0.0064,-0.016722,0.008497,-1.5578844189999999,-9.56736774,1.486099741,-2.3326,1.3495,1.3977,-0.0001100000000000545,-9.999999999998899e-05,1.999999999990898e-05,0.00044256762783856374,0.00033728321905535097,0.00021513946528717298
150000000000.0,-1,0.08781855074999999,-0.0013140911,-0.0366964843,0.004255,-0.019898,0.005293,-1.5566095545,-9.567563873,1.4861978074999997,-2.3331,1.3495,1.3979,-0.00019999999999997797,-9.999999999998899e-05,2.0000000000020002e-05,0.0003481044577589021,-0.000185004696801494,-0.0005531618537388816
150000000000.0,-1,0.06414529765,-0.050916126799999996,-0.02740958675,-0.003209,-0.019836,0.004209,-1.555530823,-9.567760005999999,1.4859036079999999,-2.3333,1.3496,1.3979,-0.00012999999999996348,9.999999999998899e-05,2.5000000000052758e-05,-0.002373614321461437,-0.0006425946054955389,0.0003968904947155849
150000000000.0,-1,0.04903325,-0.10911859454999999,0.0083552658,-0.012763,-0.014429,0.003113,-1.5545501579999998,-9.5680542055,1.4850210095,-2.3333,1.3498,1.3978,-0.00024000000000001798,-9.999999999998899e-05,2.4999999999941735e-05,-0.001269099681426189,0.0012850280591623076,-0.0013704135551297902
150000000000.0,-1,0.04678752715,-0.13720484014999998,0.0519164051,-0.017031,-0.016522,-9.5e-05,-1.553177227,-9.5684464715,1.4842364775,-2.3335,1.3499,1.3978,-0.00014999999999998348,0.0001666666666666483,-2.999999999997449e-05,-0.002533441430273564,0.0007013397399009413,-0.0006591131346875834
150000000000.0,-1,0.040040551949999996,-0.1298204327,0.057006056449999995,-0.017007,-0.01439,-0.001169,-1.5518042959999998,-9.5688387375,1.483353879,-2.3336,1.3501,1.3978,-0.000180000000000069,0.0001666666666666483,2.999999999997449e-05,-0.0014681008680343943,-0.00011232504913571972,-0.0004925204874237643
150000000000.0,-1,0.0404230113,-0.0936142809,0.041570389349999994,-0.017005,-0.017582,-0.006503,-1.5501371654999998,-9.5692310035,1.4823732139999999,-2.3338,1.3503,1.3978,-0.00031999999999998696,0.0001666666666666483,-0.00031999999999998696,-0.01649171486397072,0.00659231169255059,-0.007829150750676916
150000000000.0,-1,0.0499354618,-0.04514000995,0.01626923235,-0.010608,-0.020827,-0.010758,-1.5479797024999997,-9.569721336,1.481784815,-2.3343,1.3505,1.3981,-0.00012000000000000899,-9.999999999998899e-05,8.000000000008001e-05,-1.5307058120805905e-05,-0.0005773403992532788,-0.0002969301088810994
150000000000.0,-1,0.045620535799999994,0.0036873003999999994,-0.009188831049999999,-0.006331,-0.022988,-0.016085,-1.5454299734999999,-9.570211668499999,1.481196416,-2.335,1.3507,1.3984,-0.00011999999999989797,-3.333333333332966e-05,4.999999999999449e-05,2.353711627356425e-05,0.00014202935660234672,-0.00023618715642026444
150000000000.0,-1,0.0441103117,0.02784107935,-0.031185147,6.4e-05,-0.026234,-0.02034,-1.542586045,-9.570702000999999,1.4809022164999999,-2.3358,1.351,1.399,-0.000160000000000049,-3.333333333332966e-05,-4.999999999999449e-05,0.00026939192365760256,0.0009801792467645232,-0.0007936589893819956
150000000000.0,-1,0.046758107199999996,0.07182390459999999,-0.0418155556,0.007522,-0.029489,-0.023525,-1.5393498504999998,-9.571094267,1.4812944824999998,-2.337,1.3512,1.4,-0.00012000000000000899,-3.333333333332966e-05,8.999999999992347e-05,0.00014223274502711547,-0.0005357640645857753,9.456440535071664e-05
150000000000.0,-1,0.0407564374,0.09781152709999999,-0.0392266,0.011804,-0.029521,-0.026721,-1.535917523,-9.571486533,1.4823732139999999,-2.3384,1.3514,1.4011,-0.00012000000000000899,-4.999999999988347e-05,4.999999999999449e-05,-0.0006876327214409006,0.0006189163941057174,-0.00025606051439641675
150000000000.0,-1,0.03348970975,0.0915352711,-0.03507838705,0.015004,-0.029547,-0.026716,-1.532583262,-9.571780732499999,1.4838442115,-2.3401,1.3515,1.4025,-0.00015999999999993797,-5.0000000000105516e-05,1.0000000000065512e-05,1.6721173947686907e-05,0.00044253793278814513,-0.0003323871253035904
150000000000.0,-1,0.029057103949999996,0.054779946899999994,-0.03358777625,0.010744,-0.028446,-0.026727,-1.5291509345,-9.5721729985,1.4850210095,-2.3416,1.3517,1.4037,-0.00010000000000010001,-9.999999999998899e-05,5.999999999994898e-05,-0.001330729740671277,0.0004649882464189403,-0.00042636968122788943
150000000000.0,-1,0.03823612835,0.01407254275,-0.029890669199999997,0.007517,-0.031617,-0.026728,-1.525522474,-9.572663331,1.4860016745,-2.3431,1.3519,1.405,-0.00012999999999996348,-9.999999999998899e-05,7.00000000000145e-05,0.00011335749888474744,-0.0003631543735787002,-0.00042570860951007816
150000000000.0,-1,0.022898527749999998,-0.02427145875,-0.01003220295,0.00542,-0.026273,-0.025675,-1.5220901464999999,-9.573055597,1.4867862065,-2.3445,1.3521,1.4061,-7.999999999996898e-05,-9.999999999998899e-05,-2.999999999997449e-05,-0.00014497293179394077,-0.0007587374905515532,-0.00013756720486890472
150000000000.0,-1,0.0059624432,-0.0562117178,0.005668243699999999,0.002222,-0.025182,-0.024616,-1.519050085,-9.573447862999998,1.4873746055,-2.3457,1.3523,1.407,-0.00021999999999999797,-0.00019999999999997797,2.999999999997449e-05,0.0006341159380354178,0.0001625533634204146,-0.0008658234234535378
150000000000.0,-1,0.00561921045,-0.0692741756,0.0054721106999999995,-0.000963,-0.021961,-0.022493,-1.5162061564999998,-9.573840128999999,1.4877668715,-2.3467,1.3525,1.4079,-1.0000000000065512e-05,-0.00010000000000021103,-1.4999999999987246e-05,-0.0007495923371236834,-0.0005484948669238765,-0.0003184277136587532
150000000000.0,-1,-0.0035500073,-0.054142514649999994,-0.0018044235999999999,-0.003078,-0.020876,-0.024634,-1.5134602945,-9.574232395,1.4875707384999999,-2.3476,1.3527,1.4085,-0.00012999999999996348,-9.999999999998899e-05,-1.4999999999987246e-05,3.9249814201447464e-05,-0.00039250864757489623,-0.0006185256959270191
150000000000.0,-1,-0.0059918631499999995,-0.009316317499999999,-0.0079237732,0.000108,-0.021969,-0.023559,-1.5109105655000001,-9.5747227275,1.487668805,-2.3485,1.3529,1.4092,-0.000140000000000029,-9.999999999998899e-05,2.999999999997449e-05,6.831153028419301e-05,2.4763630232182976e-05,-0.00035452097946864214
150000000000.0,-1,-0.00269682875,0.027125193899999997,-0.02093719775,0.00011,-0.020904,-0.022493,-1.508458903,-9.575016927,1.487668805,-2.3492,1.353,1.4098,0.0002500000000000835,-0.0007999999999999119,0.0006000000000000449,0.017110794995989664,-0.010070815156616009,0.0073518563075900545
150000000000.0,-1,-0.0053936575,0.0288511643,-0.029596469699999996,0.000121,-0.018774,-0.021429,-1.5062033735,-9.575409192999999,1.487472672,-2.3499,1.3532,1.4104,-0.00043000000000004146,0.0005999999999999339,-0.0005600000000000049,-0.01658852561577695,0.009115840467172953,-0.007868286498321275
150000000000.0,-1,-0.017426417049999997,0.006501808949999999,-0.0215942433,-0.004133,-0.017672,-0.022506,-1.5040459105,-9.575801459,1.4871784725,-2.3505,1.3534,1.4108,-0.0001100000000000545,-9.999999999998899e-05,-2.0000000000020002e-05,-0.000294344743018371,-0.0006658089239603981,-0.0005315961436975769
150000000000.0,-1,-0.02986124925,-0.026036655749999995,-0.02068222485,-0.005195,-0.015534,-0.020375,-1.5022807134999998,-9.576193725,1.4865900735,-2.3509,1.3536,1.411,-8.999999999992347e-05,-9.999999999998899e-05,2.999999999997449e-05,0.0003451770418685385,-0.0005250426126617302,8.240538683867982e-05
150000000000.0,-1,-0.040177845049999994,-0.06238010065,-0.0151610809,-0.014766,-0.010129,-0.018266,-1.500809716,-9.5766840575,1.4850210095,-2.3509,1.3538,1.4109,-7.00000000000145e-05,-9.999999999998899e-05,4.999999999999449e-05,0.000413242232658817,-0.0005792347652169294,-0.00021137323347453219
150000000000.0,-1,-0.0431100334,-0.0715100918,0.004716998649999999,-0.02116,-0.00582,-0.012946,-1.4998290509999999,-9.577076323499998,1.483157746,-2.3506,1.354,1.4105,-7.00000000000145e-05,-9.999999999998899e-05,1.0000000000065512e-05,0.00047147010170300874,-0.0006980601591799473,-0.00028756967016319024
150000000000.0,-1,-0.029184590399999998,-0.05932042584999999,0.013758729949999998,-0.031804,0.000656,-0.007639,-1.499240652,-9.5776647225,1.480411884,-2.3499,1.3543,1.4098,-4.999999999999449e-05,-9.999999999998899e-05,-1.0000000000065512e-05,0.0005759267346525654,-0.0003559467488589707,-0.00013163698400164847
150000000000.0,-1,-0.01144436055,-0.01256231865,0.03499993385,-0.037114,0.00496,-0.00552,-1.498848386,-9.578155055,1.4773718224999999,-2.349,1.3545,1.4089,-7.999999999996898e-05,-9.999999999998899e-05,2.999999999997449e-05,-0.0003582613030839177,-0.0002926970132697271,-0.00010973241258271926
150000000000.0,-1,-0.0006080123,0.0235555733,0.028439284999999995,-0.038187,0.006031,-0.002322,-1.4987503194999998,-9.5786453875,1.4742336944999999,-2.3479,1.3547,1.4079,0.00030999999999992145,-0.0008999999999999009,0.0006200000000000649,0.01992999053613187,-0.011447215585995707,0.009084946235138336
150000000000.0,-1,0.00438357255,0.0303810017,0.01648497865,-0.036042,0.006015,-0.004453,-1.4985541864999998,-9.5792337865,1.4708994335,-2.3469,1.355,1.4069,-3.999999999992898e-05,-0.00010000000000021103,5.999999999994898e-05,0.0005341356901211736,-0.00015263669961385062,0.00024267731138349902
150000000000.0,-1,-0.01160126695,0.022192448949999995,0.00812971285,-0.029647,0.003834,-0.006572,-1.498259987,-9.579724119,1.468055505,-2.346,1.3552,1.406,-0.0001100000000000545,-9.999999999998899e-05,4.999999999999449e-05,-0.0005134761350782391,-0.0004645838205623587,0.001140455955093156
150000000000.0,-1,-0.03217561865,0.014386355549999999,0.0015886773,-0.025377,0.002735,-0.008696,-1.498063854,-9.580116385,1.4655057759999999,-2.3452,1.3554,1.4052,1.0000000000065512e-05,-3.333333333332966e-05,3.0000000000085514e-05,0.000762580086218767,0.0007745197220647704,-6.821312244609246e-05
150000000000.0,-1,-0.04490465034999999,0.02495792425,-0.0004903325,-0.021105,0.000574,-0.012953,-1.4976715879999998,-9.580508651,1.4632502465,-2.3445,1.3556,1.4046,-0.0001100000000000545,-3.333333333332966e-05,3.999999999992898e-05,0.00034820479231334467,-0.0002412618903402386,0.0003450296273550535
150000000000.0,-1,-0.0420705285,0.053063783149999995,0.0036676871,-0.014704,0.000521,-0.012939,-1.497279322,-9.5808028505,1.4618773155,-2.3442,1.3558,1.4043,-5.999999999994898e-05,-3.333333333332966e-05,2.999999999997449e-05,0.0002010693316747414,-7.424200311945128e-05,0.0003839766248954213
150000000000.0,-1,-0.028233345349999998,0.08440583655,-0.0008433719,-0.007238,-0.000604,-0.01399,-1.4965928565,-9.580998983499999,1.46119085,-2.3442,1.3559,1.4043,-8.000000000008001e-05,-5.0000000000105516e-05,6.0000000000060005e-05,-6.637460564817843e-05,-0.000629610237067757,-2.284325026558065e-05
150000000000.0,-1,-0.00901231135,0.0934377612,0.0010002783,-0.007249,-0.000606,-0.011854,-1.495710258,-9.5811951165,1.4607005174999999,-2.3443,1.356,1.4044,-9.99999999995449e-06,-4.999999999988347e-05,2.999999999997449e-05,0.0004099010202387454,-0.00012834697870856004,0.0006408349934212687
150000000000.0,-1,-0.007992419749999998,0.08610238699999999,-0.00196133,-0.005122,0.000438,-0.00865,-1.495317992,-9.5813912495,1.460210185,-2.3443,1.356,1.4044,-2.999999999997449e-05,-9.999999999998899e-05,2.999999999997449e-05,8.160197303097583e-05,0.00018262927538925666,-0.0010950722492268916
150000000000.0,-1,-0.01448442205,0.030469261549999998,0.00348136075,-0.008319,0.001529,-0.007589,-1.494729593,-9.581587382499999,1.4595237195,-2.3443,1.3561,1.4044,-4.999999999999449e-05,-5.0000000000105516e-05,-1.999999999990898e-05,-0.0006219412162840054,-0.000183136173879328,-0.00035007051070712336
150000000000.0,-1,-0.0283019919,-0.030890947499999998,0.02772339955,-0.010437,0.004741,-0.005462,-1.49453346,-9.581685449,1.4587391874999998,-2.3441,1.3562,1.4042,3.999999999992898e-05,-4.999999999988347e-05,-6.0000000000060005e-05,0.0008711646404626627,0.0001547346207009248,0.0005305166370903613
150000000000.0,-1,-0.041884202149999994,-0.06163479524999999,0.046542360899999996,-0.013624,0.006898,-0.004403,-1.494729593,-9.5817835155,1.458052722,-2.3438,1.3562,1.4039,-1.4999999999987246e-05,-4.999999999988347e-05,1.0000000000065512e-05,1.2171466702293188e-05,-0.0005057895156079795,-0.0002556402060016616
150000000000.0,-1,-0.0384224547,-0.0744324735,0.05673147025,-0.01575,0.009044,-0.002275,-1.4950237924999998,-9.581881582,1.45726819,-2.3434,1.3563,1.4036,-1.4999999999987246e-05,-5.0000000000105516e-05,-8.000000000008001e-05,1.5249972477926477e-05,4.935802407679546e-06,-0.00036276422426340105
150000000000.0,-1,-0.03307783045,-0.08377821095,0.0540934814,-0.014689,0.010098,0.000929,-1.4954160584999998,-9.581881582,1.4563855915,-2.3429,1.3563,1.4033,4.0000000000040004e-05,1.2499999999970868e-05,-2.999999999997449e-05,0.0009605963619176983,0.00015359354589739027,3.8175220482994376e-05
150000000000.0,-1,-0.0279881791,-0.06644986039999999,0.06066393689999999,-0.010417,0.011127,0.002002,-1.4961025239999999,-9.581881582,1.455895259,-2.3426,1.3563,1.403,2.0000000000020002e-05,1.2499999999970868e-05,-2.0000000000020002e-05,-0.00012956252615792252,0.0002883777879969518,0.00016037730543905226
150000000000.0,-1,-0.025673809699999998,-0.01923084065,0.04596376855,-0.008276,0.011111,0.00094,-1.4967889894999997,-9.5817835155,1.4556991259999998,-2.3423,1.3563,1.4028,1.999999999990898e-05,1.2499999999970868e-05,-2.999999999997449e-05,0.00013838815987710085,-0.0006178630699078536,0.00029361717667120146
150000000000.0,-1,-0.02207476915,0.0146119085,0.031842192549999995,-0.005099,0.010016,0.00415,-1.4976715879999998,-9.581685449,1.4556010595,-2.3419,1.3562,1.4025,-9.99999999995449e-06,1.2500000000192912e-05,2.999999999997449e-05,-1.0382450377877106e-05,-6.306055881988293e-05,-0.00011837449495377683
150000000000.0,-1,-0.022221868899999997,0.03313667035,0.01979962635,-0.000835,0.00998,0.005226,-1.498652253,-9.581489315999999,1.4556010595,-2.3416,1.3561,1.4023,-1.0000000000065512e-05,1.2499999999970868e-05,-2.999999999997449e-05,-4.308327905766518e-05,-0.00026108554177839416,-7.871780597623612e-05
150000000000.0,-1,-0.0207312581,0.035892338999999995,0.02181979625,0.002361,0.009952,0.0063,-1.4999271175,-9.581293183,1.4559933255,-2.3413,1.356,1.4021,-9.99999999995449e-06,1.2499999999970868e-05,-2.999999999997449e-05,-0.00013983546501661337,0.0005731927236347634,-0.00028371913904168267
150000000000.0,-1,-0.01521011415,0.030469261549999998,0.029694536199999996,0.005552,0.009924,0.008442,-1.5011039155,-9.580900917,1.4569739905,-2.3413,1.3558,1.4022,2.999999999997449e-05,1.2499999999970868e-05,-2.999999999997449e-05,0.00025032609701591824,-0.0016070682507944856,0.0005636157610759973
150000000000.0,-1,-0.014239255799999998,0.004716998649999999,0.0241635856,0.002333,0.008883,0.010573,-1.5024768465,-9.580606717499998,1.4575623895,-2.341,1.3557,1.402,4.0000000000040004e-05,1.2499999999970868e-05,9.99999999995449e-06,0.00015084624101846522,0.00018013777386860497,0.00036734302349339387
150000000000.0,-1,-0.01736757715,-0.031057660549999998,0.0375398562,-0.000865,0.011037,0.013767,-1.5041439769999998,-9.580312518,1.4579546554999998,-2.3406,1.3555,1.4017,-9.99999999995449e-06,1.6666666666775853e-05,-9.99999999995449e-06,-0.0006386817953858426,-0.00025687623229253553,-0.00030075642509386213
150000000000.0,-1,-0.014719781649999998,-0.0487194372,0.04170768245,-0.004032,0.016389,0.015887,-1.5060072405,-9.5800183185,1.4579546554999998,-2.34,1.3554,1.4012,7.999999999996898e-05,1.666666666655381e-05,-1.0000000000065512e-05,0.0013949729699669344,0.00013141424847873395,0.00029750992219046424
150000000000.0,-1,-0.01107170785,-0.0509749667,0.0411683167,-0.002958,0.018509,0.01802,-1.508066637,-9.579724119,1.4578565889999997,-2.3393,1.3552,1.4007,-1.4999999999987246e-05,1.666666666655381e-05,-9.99999999995449e-06,-0.0011416833424060524,0.00027623012954736126,-0.00047327709352806835
150000000000.0,-1,-0.0137489233,-0.0214765635,0.05727083599999999,0.001337,0.02167,0.018023,-1.5103221665,-9.5792337865,1.4584449879999999,-2.3387,1.355,1.4003,-1.4999999999987246e-05,1.6666666666775853e-05,-4.0000000000040004e-05,-0.00044431677687262194,-0.0004223200586384035,-0.0006664035414516434
150000000000.0,-1,-0.003138128,0.026644668049999997,0.04264912084999999,0.007718,0.019485,0.019106,-1.5125776959999997,-9.578743454,1.459425653,-2.3383,1.3548,1.4001,0.00015999999999993797,1.6666666666775853e-05,-2.0000000000020002e-05,0.0022154736921149443,0.0006247900528464356,0.000808792708591799
150000000000.0,-1,0.00871811185,0.05975191845,0.0122583125,0.016223,0.016217,0.020194,-1.5146370925,-9.578155055,1.4608966504999998,-2.3381,1.3545,1.4001,-2.0000000000020002e-05,1.666666666655381e-05,-2.4999999999941735e-05,-0.0005243016948559553,-0.0004752200639221993,-0.0002586203226968564
150000000000.0,-1,0.012425025549999998,0.0664694737,-0.0129643913,0.023685,0.016154,0.021274,-1.516892622,-9.577566655999998,1.4626618475,-2.338,1.3542,1.4001,4.0000000000040004e-05,5.0000000000105516e-05,-2.5000000000052758e-05,-0.000469152862350386,0.0007760284070648105,0.00021323715237953067
150000000000.0,-1,0.016769371499999998,0.0610365896,-0.03192064575,0.029024,0.016112,0.020216,-1.5189520184999998,-9.576978256999999,1.464721244,-2.338,1.3539,1.4003,7.999999999996898e-05,4.999999999988347e-05,1.0000000000065512e-05,0.0004645926135220524,1.7342696248645595e-05,7.512550951060959e-05
150000000000.0,-1,0.0180246227,0.029145363799999997,-0.022388581949999996,0.033294,0.017141,0.021288,-1.5211094815,-9.576193725,1.467467106,-2.3382,1.3536,1.4007,1.0000000000065512e-05,4.999999999988347e-05,-6.0000000000060005e-05,-0.0010496019515959798,-0.00014545250748021488,-0.00026888321196194553
150000000000.0,-1,0.012552512,-0.01501398115,-0.0101793027,0.032239,0.01928,0.02235,-1.5232669444999998,-9.575409192999999,1.4702129679999998,-2.3385,1.3532,1.4011,7.00000000000145e-05,5.0000000000105516e-05,-2.999999999997449e-05,0.0003021652252328533,3.0264539836899473e-05,-3.67967432963745e-05
150000000000.0,-1,0.0052857843499999994,-0.05184775855,0.008276812599999999,0.02905,0.021436,0.023407,-1.5256205405,-9.574624661,1.4728607634999997,-2.3386,1.3528,1.4015,3.999999999992898e-05,2.4999999999941735e-05,-9.00000000000345e-05,0.0012264934058938692,0.0007208100959688046,-0.00048606375969661997
150000000000.0,-1,-0.00442279915,-0.07284379619999999,0.021368690349999997,0.023731,0.024674,0.025527,-1.5283664024999999,-9.573840128999999,1.475116293,-2.3385,1.3525,1.4016,9.999999999998899e-05,2.500000000016378e-05,-3.999999999992898e-05,-0.00016334007966745112,8.846580155896788e-05,-0.00012843510146742787
150000000000.0,-1,-0.0012160246,-0.07740388845,0.020005566,0.018406,0.025784,0.025515,-1.5309161315,-9.5731536635,1.4767834235,-2.3382,1.3522,1.4015,3.0000000000085514e-05,2.4999999999941735e-05,-8.000000000008001e-05,-0.0006933723301658645,-9.049854888565356e-05,-0.0005793260531303801
150000000000.0,-1,0.0085513988,-0.05859473375,0.02303582085,0.014145,0.027948,0.027638,-1.5336619935,-9.5725652645,1.4781563545,-2.3378,1.3519,1.4013,0.00010999999999994348,2.4999999999941735e-05,1.0000000000065512e-05,0.00039747130565981337,0.00019314614540899555,0.0003000414851879185
150000000000.0,-1,0.02346731345,-0.02464411145,0.0187895414,0.010946,0.030102,0.03083,-1.5366039884999998,-9.571878799,1.479038953,-2.3371,1.3516,1.401,7.00000000000145e-05,4.999999999988347e-05,-8.000000000008001e-05,-0.000459519162040678,0.0005368078922256547,-0.0002023036155129887
150000000000.0,-1,0.0357746592,-0.0189856744,0.01519050085,0.013073,0.031146,0.034033,-1.53964405,-9.571290399999999,1.4800196179999998,-2.3364,1.3513,1.4006,0.0001100000000000545,5.0000000000105516e-05,-1.999999999990898e-05,-0.0012867951138566536,-0.0007206123226248806,0.0006107988296011335
150000000000.0,-1,0.0534462425,-0.0312439869,0.00858081875,0.008793,0.032242,0.038291,-1.5427821779999997,-9.570702000999999,1.480411884,-2.3356,1.351,1.4,9.999999999998899e-05,0.00010000000000021103,-2.0000000000020002e-05,-0.0012050992117214054,0.0010808768526728851,-0.00039412180695741483
150000000000.0,-1,0.0653319023,-0.05782981505,-0.0032950343999999998,0.006646,0.033321,0.042552,-1.546116439,-9.570113602,1.4805099505,-2.3345,1.3507,1.3993,2.999999999997449e-05,0.00019999999999997797,-9.00000000000345e-05,-0.0020949746136482705,0.0014094498614987128,2.3974615852573322e-06
150000000000.0,-1,0.076688003,-0.09900793840000001,-0.0066685220000000005,0.00127,0.032292,0.048945,-1.5497448995,-9.569721336,1.479823485,-2.3331,1.3505,1.3982,4.999999999999449e-05,9.999999999998899e-05,-2.999999999997449e-05,-0.0018704972378618123,-0.0004836844937037288,-0.0015188398391892122
150000000000.0,-1,0.0763349636,-0.14272598409999998,0.011032481249999998,-0.002975,0.036587,0.051061,-1.553569493,-9.5692310035,1.4789408865,-2.3316,1.3503,1.3969,-0.00024000000000001798,0.0007999999999999119,-0.0005399999999999849,-0.01761067822952178,0.01019414920674322,-0.007287597692839931
150000000000.0,-1,0.06432181734999999,-0.16332975575,0.037382949799999995,-0.004024,0.038726,0.051052,-1.557688286,-9.568642604499999,1.4781563545,-2.33,1.35,1.3957,9.999999999998899e-05,9.999999999998899e-05,-2.0000000000020002e-05,-6.571618028061721e-05,-5.961408104782073e-05,0.00031474615050886
150000000000.0,-1,0.0661360476,-0.13115413709999998,0.05607442469999999,-0.000803,0.039767,0.048918,-1.5616109459999998,-9.5680542055,1.477862155,-2.3286,1.3498,1.3947,0.00012999999999996348,9.999999999998899e-05,3.500000000000725e-05,-0.0002674693404385309,0.00028333213954390146,0.0006156470649019141
150000000000.0,-1,0.06429239739999999,-0.05415232129999999,0.050484634199999996,0.00558,0.033327,0.042533,-1.5651413399999998,-9.56736774,1.4783524874999998,-2.3277,1.3495,1.394,9.00000000000345e-05,-0.00029999999999996696,3.500000000000725e-05,-0.0001385606800565764,2.0318233772131933e-05,0.0008475042397502186
150000000000.0,-1,0.0633117324,0.022163028999999997,0.02331040705,0.018402,0.032161,0.037218,-1.5683775344999997,-9.566681274499999,1.479823485,-2.3271,1.3491,1.3938,0.0003300000000000525,-0.00029999999999996696,0.00042999999999993044,0.01521123970513294,-0.007811755406968546,0.007864503907943021
150000000000.0,-1,0.08670059264999999,0.10210683979999999,-0.023271180449999998,0.026924,0.027832,0.032968,-1.5709272635,-9.5658967425,1.4816867485,-2.3269,1.3488,1.3938,8.999999999992347e-05,9.999999999998899e-05,1.0000000000065512e-05,0.00043233259849606576,0.001238911827822653,0.0006865931970354566
150000000000.0,-1,0.10082216865,0.13165427624999998,-0.04649332765,0.032256,0.02566,0.029776,-1.5729866599999998,-9.565210277,1.483942278,-2.3271,1.3485,1.3942,6.0000000000060005e-05,9.999999999998899e-05,9.99999999995449e-06,-2.3032590313665224e-05,0.0007567562034946906,-0.0002373897608785036
150000000000.0,-1,0.1045585023,0.13412555204999999,-0.05012178815,0.038662,0.022417,0.023385,-1.5742615245,-9.564621877999999,1.4867862065,-2.3276,1.3482,1.395,0.00017000000000000348,6.666666666665932e-05,6.0000000000060005e-05,0.0022636120756398537,0.0002612950417659743,0.0016495001783995988
150000000000.0,-1,0.10115559475,0.0949087587,-0.03647093135,0.038691,0.023486,0.01911,-1.5750460565,-9.5639354125,1.4899243345,-2.3284,1.3479,1.396,9.00000000000345e-05,6.666666666665932e-05,9.99999999995449e-06,0.0006504564784000078,-0.0006760924312552152,0.00043520305097866085
150000000000.0,-1,0.08575915424999998,0.0179657828,-0.0018632635,0.038721,0.024555,0.014835,-1.5755363889999998,-9.5633470135,1.4934547285,-2.3294,1.3476,1.3973,9.999999999998899e-05,6.666666666665932e-05,-7.999999999996898e-05,-0.00031920963626319576,-0.0010454352376061404,0.000804197188963407
150000000000.0,-1,0.07707046235,-0.048994023399999996,0.009610516999999999,0.035528,0.023519,0.011625,-1.5757325219999998,-9.562856681,1.496690923,-2.3305,1.3473,1.3986,0.00012999999999996348,9.999999999998899e-05,-2.999999999997449e-05,-0.0014780281726389788,0.0005825108081822794,-0.0003880058589675883
150000000000.0,-1,0.07346161514999999,-0.11314912769999999,0.012836904849999999,0.032347,0.024612,0.009479,-1.5755363889999998,-9.562464414999999,1.4994367849999999,-2.3314,1.3472,1.3998,-0.0001100000000000545,0.0005999999999999339,-0.000500000000000056,-0.017443107417252968,0.008990911740478724,-0.009079148215980659
150000000000.0,-1,0.060624710299999995,-0.13595939559999998,0.01397447625,0.031295,0.024624,0.006272,-1.5752421895,-9.562072149,1.5019865139999997,-2.3324,1.347,1.401,0.00010000000000010001,9.999999999998899e-05,-2.999999999997449e-05,0.00015401741448828332,-0.00019169945971975189,8.654873844493594e-05
150000000000.0,-1,0.06542016214999999,-0.11392385305,0.01466094175,0.028138,0.026786,0.000922,-1.5745557239999999,-9.5617779495,1.5044381765,-2.3334,1.3469,1.4024,0.00013999999999991797,5.0000000000105516e-05,-2.999999999997449e-05,0.0006355048518544848,0.0002984136026060735,1.7766239083449875e-05
150000000000.0,-1,0.07728620865000001,-0.048032971699999996,0.0027654753,0.032428,0.028883,-0.000145,-1.5734769925,-9.5615818165,1.507085972,-2.3346,1.3467,1.4038,0.00012000000000000899,5.0000000000105516e-05,-4.0000000000040004e-05,-0.0005127900752019965,-0.00036962771267723404,-0.0003521297598361173
150000000000.0,-1,0.09040750634999999,0.0043247326499999995,-0.02070183815,0.033485,0.02568,-0.003343,-1.5721040615,-9.5613856835,1.5096357009999999,-2.3359,1.3467,1.4054,0.00014999999999998348,9.999999999998899e-05,-0.00012000000000000899,-0.00019207218273531446,0.001118141479735213,-0.0005510685642469149
150000000000.0,-1,0.09394770699999999,0.0425020211,-0.0380890286,0.030294,0.027836,-0.002289,-1.570829197,-9.561287617,1.5116950975,-2.337,1.3466,1.4068,0.000160000000000049,9.999999999998899e-05,9.99999999995449e-06,0.0001048480977290378,-0.00036030377196438756,0.0002289729716711264
150000000000.0,-1,0.09015253344999999,0.031724512749999996,-0.04585589539999999,0.023892,0.027888,-0.002304,-1.569652399,-9.561287617,1.5130680285,-2.3378,1.3466,1.4079,0.00012000000000000899,9.999999999998899e-05,-8.999999999992347e-05,-0.00034093712097815754,0.0004129875278802153,7.141515274344812e-05
150000000000.0,-1,0.09148623785,0.0025105023999999997,-0.041001603649999996,0.016461,0.032212,-0.003395,-1.568279468,-9.5613856835,1.5137544939999998,-2.3385,1.3467,1.4089,0.00012000000000000899,9.999999999998899e-05,-4.999999999999449e-05,-0.0010340317615431527,-2.8384319630703203e-05,-0.00035854536054946706
150000000000.0,-1,0.080610663,-0.02185902285,-0.00981645665,0.009032,0.036537,-0.004487,-1.5670046034999998,-9.5615818165,1.5139506269999998,-2.339,1.3467,1.4097,0.00021999999999999797,9.999999999998899e-05,-9.999999999998899e-05,-0.0006766247512641765,0.0009534786505573933,0.00025584196985528607
150000000000.0,-1,0.06528286905,-0.0387951074,0.0037559469499999997,-0.002683,0.039828,-0.003449,-1.5660239384999999,-9.5617779495,1.5132641615,-2.3391,1.3469,1.4102,0.00019999999999997797,9.999999999998899e-05,-4.0000000000040004e-05,3.8429761884284375e-05,1.237610840698622e-05,0.00039523006148556306
150000000000.0,-1,0.0638216782,-0.03869704089999999,0.0116699135,-0.012254,0.043105,-0.004541,-1.5649452069999998,-9.5621702155,1.5117931639999997,-2.3389,1.3471,1.4105,0.00012000000000000899,9.999999999998899e-05,-4.999999999999449e-05,-0.0005285947079387565,-0.0006882210793417443,1.5931671616176146e-05
150000000000.0,-1,0.061389628999999994,-0.01379795655,0.0009022117999999999,-0.021836,0.046379,-0.003499,-1.5643568079999999,-9.5627586145,1.509243435,-2.3383,1.3473,1.4103,0.00015999999999993797,-0.000400000000000178,-2.0000000000020002e-05,-0.00042383190433170626,7.323032626826986e-05,0.0006171349541661542
150000000000.0,-1,0.07009793419999999,0.013886216399999998,-0.0189464478,-0.023975,0.048523,0.00076,-1.563964542,-9.5633470135,1.505909174,-2.3373,1.3476,1.4097,0.0006000000000000449,-0.00039999999999995595,0.0005199999999999649,0.022714475619758367,-0.010157482306575982,0.0112044459832088
150000000000.0,-1,0.07746272835,0.030204481999999998,-0.011856239849999999,-0.033592,0.050726,0.007141,-1.563964542,-9.5639354125,1.5019865139999997,-2.336,1.3478,1.4089,0.00021999999999999797,0.00010000000000021103,-9.99999999995449e-06,0.001993731971025703,-0.00024523484066341084,7.675568079879014e-05
150000000000.0,-1,0.07929657189999999,0.0012454445499999998,-0.0027850886,-0.04001,0.050776,0.010329,-1.5642587415,-9.564621877999999,1.4973773885,-2.3343,1.3481,1.4077,5.999999999994898e-05,9.999999999998899e-05,-9.99999999995449e-06,-0.0018940747127715873,-0.0017757268643963098,0.0007435697067896818
150000000000.0,-1,0.0872987983,-0.0572904493,0.005972249849999999,-0.047445,0.05829,0.015636,-1.5649452069999998,-9.5653083435,1.4920817975,-2.3323,1.3485,1.4062,6.0000000000060005e-05,9.999999999998899e-05,-1.0000000000065512e-05,-9.01187951645177e-05,0.0008512428284788154,-0.0004128564034808768
150000000000.0,-1,0.08840694975,-0.10274427205,0.0356373661,-0.049599,0.06043,0.023096,-1.5662200714999999,-9.5658967425,1.4865900735,-2.3301,1.3488,1.4045,0.00012999999999996348,0.00019999999999997797,-3.999999999992898e-05,1.9794988766363986e-05,-0.0005007579686420183,0.0009916989026077516
150000000000.0,-1,0.09230999644999999,-0.12873189455,0.06485137645,-0.04854,0.062547,0.028427,-1.5678872019999999,-9.5664851415,1.4816867485,-2.3279,1.349,1.4029,0.00019000000000002348,9.999999999998899e-05,-4.0000000000040004e-05,-0.00018780820002595178,0.0012033813542746685,0.0005333115755701279
150000000000.0,-1,0.1043623693,-0.1035974506,0.0671167126,-0.047499,0.060404,0.030562,-1.5697504654999999,-9.5668774075,1.47688149,-2.3257,1.3492,1.4012,0.000140000000000029,9.999999999998899e-05,9.99999999995449e-06,0.0017274425054911724,-0.0003369497041565417,0.00010285575904367406
150000000000.0,-1,0.11956267679999999,-0.049317642849999996,0.04678752715,-0.043287,0.053974,0.031643,-1.5715156625,-9.567269673499998,1.4723704309999999,-2.3236,1.3494,1.3996,5.999999999994898e-05,9.999999999998899e-05,-1.999999999990898e-05,-0.0005031054490953757,0.0009399030847256906,0.0009197511170486727
150000000000.0,-1,0.1332331469,-0.0009120184499999999,0.036833777399999997,-0.037941,0.053931,0.029512,-1.5730847264999999,-9.567661939499999,1.468251638,-2.3217,1.3496,1.3982,4.999999999999449e-05,9.999999999998899e-05,-5.0000000000105516e-05,-0.0013700415314721326,-6.0533305380028324e-05,-0.00029166108569356197
150000000000.0,-1,0.1264273318,0.0318323859,0.03829496825,-0.030493,0.048545,0.02526,-1.574359591,-9.567956139,1.46511351,-2.3203,1.3497,1.3971,7.00000000000145e-05,9.999999999998899e-05,3.0000000000085514e-05,0.0004978555606314217,0.0014252614307992406,0.0006874079955858647
150000000000.0,-1,0.10480366854999999,0.03213639205,0.046483521,-0.02086,0.047407,0.017803,-1.575340256,-9.5680542055,1.4630541135,-2.3193,1.3498,1.3966,-9.99999999995449e-06,9.999999999998899e-05,-3.0000000000085514e-05,0.0008160298827653012,0.0008996020650846592,-0.0003995188349663614
150000000000.0,-1,0.0828269659,0.012013146249999999,0.05800633475,-0.009131,0.040925,0.009292,-1.5756344555,-9.568152271999999,1.462171515,-2.3189,1.3498,1.3965,5.999999999994898e-05,0.00019999999999997797,-3.999999999992898e-05,-0.0012597980508235462,0.0018249755131001244,-0.0006735248098417301
150000000000.0,-1,0.07305954249999999,-0.0049425516,0.058271114299999996,-0.001639,0.037676,-0.000299,-1.575144123,-9.568250338499999,1.4620734485,-2.319,1.3499,1.397,-0.00041000000000002146,0.0008000000000001339,-0.0005700000000000705,-0.01797731019171067,0.008640743475316848,-0.008737776055275148
150000000000.0,-1,0.05951655884999999,-0.0183188222,0.0461697082,0.001559,0.034457,-0.004559,-1.5742615245,-9.568348405,1.4623676479999999,-2.3193,1.3499,1.3977,4.999999999999449e-05,9.999999999998899e-05,-4.999999999999449e-05,0.00047850538417471,0.00043117201643538827,0.00039888500103035796
150000000000.0,-1,0.0613307891,-0.013758729949999998,0.04847427095,0.009042,0.033333,-0.008817,-1.5729866599999998,-9.5684464715,1.4633483129999998,-2.3201,1.3499,1.3988,8.000000000008001e-05,4.999999999988347e-05,4.999999999999449e-05,0.0006329215488345419,-0.00045459240560741243,0.00037431089660033834
150000000000.0,-1,0.07878662609999999,0.0072373077,0.045483242699999996,0.015447,0.032217,-0.010942,-1.5711233964999998,-9.5684464715,1.4649173770000001,-2.3212,1.35,1.4003,2.999999999997449e-05,5.0000000000105516e-05,-0.00014999999999998348,0.00045014136799403914,0.0007207025532822708,-0.00020988750160233494
150000000000.0,-1,0.09129010484999998,0.0476799323,0.04463006415,0.018646,0.031125,-0.012005,-1.5689659335,-9.568544538,1.4669767734999999,-2.3226,1.35,1.402,9.999999999998899e-05,9.999999999998899e-05,-9.99999999995449e-06,0.00013369352152681202,0.00017164796942159555,0.00036548885651344065
150000000000.0,-1,0.10288156514999999,0.06781298475,0.04755244585,0.024999,0.024678,-0.011987,-1.5666123374999998,-9.5684464715,1.4699187685,-2.3244,1.3499,1.404,0.00012000000000000899,9.999999999998899e-05,-9.99999999995449e-06,0.0005818942480744216,-3.502196398974533e-05,0.0002313616533120566
150000000000.0,-1,0.10009647655000001,0.0154160538,0.04072701744999999,0.026076,0.025734,-0.011991,-1.564160675,-9.5684464715,1.472762697,-2.3261,1.3499,1.406,7.00000000000145e-05,9.999999999998899e-05,-4.0000000000040004e-05,6.63326777632367e-05,-0.00010736869185956621,0.0001553842148385165
150000000000.0,-1,0.08301329225,-0.0648023432,0.0350685804,0.027135,0.024659,-0.011991,-1.5617090125,-9.5684464715,1.4754104925,-2.3278,1.3499,1.4079,0.00014999999999998348,9.999999999998899e-05,-6.0000000000060005e-05,-0.00021137245896829526,-0.0004260123167727503,0.00034035504986773546
150000000000.0,-1,0.058271114299999996,-0.12061198834999999,0.0629783063,0.028193,0.024648,-0.009857,-1.5597476824999998,-9.568250338499999,1.478450554,-2.3294,1.3499,1.4099,7.00000000000145e-05,-0.00019999999999997797,-4.999999999999449e-05,5.213806298476342e-05,4.6307084896390904e-05,0.0003175056895758921
150000000000.0,-1,0.049964881749999995,-0.1594953556,0.08378801759999999,0.033516,0.023537,-0.008782,-1.5578844189999999,-9.567956139,1.482177081,-2.3313,1.3497,1.412,7.00000000000145e-05,-0.00019999999999997797,-5.999999999994898e-05,6.183773730894515e-05,-3.245757150849293e-05,-0.00011730756731109793
150000000000.0,-1,0.053377595949999995,-0.1588285034,0.0856708944,0.038844,0.022427,-0.008774,-1.5560211554999999,-9.567563873,1.4865900735,-2.3334,1.3496,1.4143,0.0005699999999999594,-0.00019999999999997797,0.0005499999999999394,0.018138740393242037,-0.011358137640691268,0.01036761651761342
150000000000.0,-1,0.0593694591,-0.1079712165,0.051779111999999995,0.046297,0.022361,-0.005562,-1.5545501579999998,-9.567171606999999,1.4911011324999999,-2.3354,1.3493,1.4166,2.999999999997449e-05,0.00039999999999995595,-8.999999999992347e-05,0.0005422837199069441,-0.0009667085470541625,-0.0002734945969669056
150000000000.0,-1,0.07561907814999999,-0.0097674234,0.00965955025,0.051577,0.01805,-0.001279,-1.5532752935,-9.566583208,1.4960044574999998,-2.3374,1.3491,1.4188,-0.00026999999999999247,0.00039999999999995595,-0.0005300000000000304,-0.01829894672751542,0.01103127689313732,-0.009166503556213623
150000000000.0,-1,0.08673001259999999,0.07389310774999999,-0.03494109395,0.056857,0.012676,0.000871,-1.5522946284999999,-9.565994809,1.500809716,-2.3393,1.3488,1.4209,6.0000000000060005e-05,9.999999999998899e-05,-4.0000000000040004e-05,-0.0005076985680196877,-8.842648064844028e-05,-1.876162906055967e-05
150000000000.0,-1,0.10573530029999999,0.11796419285,-0.048778277099999996,0.060043,0.013711,0.005141,-1.55141203,-9.5653083435,1.505909174,-2.3413,1.3485,1.4231,9.999999999998899e-05,9.999999999998899e-05,1.0000000000065512e-05,9.062751547039838e-05,0.00025998101565605225,0.0003253226069905857
150000000000.0,-1,0.09591884364999999,0.11780728644999999,-0.03456844125,0.057885,0.012659,0.008338,-1.5510197639999999,-9.564621877999999,1.5112047649999998,-2.3432,1.3481,1.4251,0.00012000000000000899,9.999999999998899e-05,-9.99999999995449e-06,-0.00030116786731726464,-0.0004536032165998183,7.879638993424365e-05
150000000000.0,-1,0.07677626284999998,0.07905140565,-0.01160126695,0.057891,0.014788,0.010466,-1.5511178305,-9.563641212999999,1.5166964889999999,-2.3449,1.3477,1.427,8.999999999992347e-05,9.999999999998899e-05,-1.0000000000065512e-05,-0.00040102258731389284,-9.346830793766081e-05,0.0003085618437190796
150000000000.0,-1,0.06732265224999999,0.021368690349999997,-0.0172400907,0.053627,0.015887,0.011522,-1.55141203,-9.562856681,1.5215017475000001,-2.3465,1.3474,1.4287,6.0000000000060005e-05,-9.999999999998899e-05,-2.999999999997449e-05,-0.00016779142517875378,-0.0008956950393697038,0.0004154795908632991
150000000000.0,-1,0.051985051649999996,-0.035352973249999996,-0.01144436055,0.049324,0.011659,0.011519,-1.5518042959999998,-9.562072149,1.5259147399999997,-2.3478,1.347,1.4302,7.999999999996898e-05,3.333333333332966e-05,-9.00000000000345e-05,-0.0012796161906252213,0.00019301748491340476,0.0002556148619810017
150000000000.0,-1,0.0397561591,-0.05611365129999999,-0.018966061099999997,0.042942,0.014907,0.012568,-1.5524907614999999,-9.5613856835,1.5297393334999998,-2.3488,1.3467,1.4314,7.999999999996898e-05,3.333333333332966e-05,-5.999999999994898e-05,-0.0003932171332023948,-0.0002591306025250262,-6.844100869907166e-05
150000000000.0,-1,0.03158721965,-0.0691172692,-0.025105024,0.035468,0.014968,0.013621,-1.5532752935,-9.5607972845,1.532583262,-2.3495,1.3464,1.4322,6.0000000000060005e-05,3.333333333332966e-05,-6.0000000000060005e-05,-0.0005996907589793654,-8.946495757267137e-05,9.214924732159346e-05
150000000000.0,-1,0.034401728199999995,-0.08123828859999999,-0.0156710267,0.02372,0.015062,0.015733,-1.554157892,-9.5604050185,1.5344465255,-2.3498,1.3462,1.4327,5.999999999994898e-05,2.4999999999941735e-05,-7.00000000000145e-05,-0.0008995267404505736,0.00014937795846514668,0.0002721698990022503
150000000000.0,-1,0.046091255,-0.08368995109999999,0.007433440699999999,0.013066,0.018344,0.017841,-1.5550404904999997,-9.560012752499999,1.5358194564999998,-2.35,1.346,1.433,9.999999999998899e-05,2.500000000016378e-05,-5.999999999994898e-05,-0.0004705524113719495,0.00015770370116952037,0.00022145226391412365
150000000000.0,-1,0.042394147949999995,-0.10680422514999999,0.023967452599999998,-0.001877,0.019529,0.021012,-1.556315355,-9.5598166195,1.5358194564999998,-2.3496,1.3459,1.4328,2.0000000000020002e-05,2.4999999999941735e-05,-9.00000000000345e-05,0.0006167906537430934,0.000678422270750989,-0.00029354387062907605
150000000000.0,-1,0.0446790974,-0.12991849919999998,0.03851071455,-0.012533,0.021746,0.022055,-1.557688286,-9.559718553,1.5349368579999998,-2.3488,1.3459,1.4322,7.00000000000145e-05,2.4999999999941735e-05,-9.99999999995449e-06,-0.0005605343733559032,4.764730339235079e-05,-0.00012259140257819823
150000000000.0,-1,0.0466404274,-0.12195549939999999,0.0373044966,-0.018931,0.022863,0.023107,-1.5591592834999999,-9.559718553,1.533171661,-2.3478,1.3459,1.4313,4.999999999999449e-05,9.999999999998899e-05,-3.0000000000085514e-05,-0.00047273844514461594,0.0001986322776541538,-8.121507940073158e-05
150000000000.0,-1,0.047071919999999996,-0.07561907814999999,0.026115108949999997,-0.021045,0.023948,0.020964,-1.560630281,-9.5598166195,1.531014198,-2.3466,1.346,1.4304,4.0000000000040004e-05,3.333333333332966e-05,-3.999999999992898e-05,-0.00022276572457058386,0.00012354092759725432,0.0002781337958812635
150000000000.0,-1,0.06034031744999999,-0.034529214649999994,0.0188483813,-0.018933,0.021798,0.022036,-1.5621012784999997,-9.559914685999999,1.529052868,-2.3455,1.346,1.4294,9.99999999995449e-06,3.333333333332966e-05,-2.999999999997449e-05,5.2679460646354315e-05,0.00012622233870507316,0.00036281061686160854
150000000000.0,-1,0.06824447735,-0.00987529655,0.00444241245,-0.016823,0.01752,0.019909,-1.5632780764999998,-9.560012752499999,1.5270915379999999,-2.3445,1.3461,1.4286,1.0000000000065512e-05,3.333333333332966e-05,1.4999999999987246e-05,0.00024199718239326096,-0.00016287088123756455,0.00014579343359510943
150000000000.0,-1,0.07520719884999999,-0.0178677163,-0.029292463549999998,-0.01472,0.013241,0.01885,-1.5640626084999998,-9.560306952,1.524737942,-2.3435,1.3462,1.4277,3.999999999992898e-05,9.999999999998899e-05,1.4999999999987246e-05,0.0005537600222667027,0.0008503502526766571,0.00028697899842011765
150000000000.0,-1,0.07092169279999999,-0.02797837245,-0.0236536398,-0.016855,0.013258,0.018843,-1.5648471404999997,-9.560503084999999,1.522580479,-2.3425,1.3463,1.4268,-9.99999999995449e-06,5.0000000000105516e-05,-4.0000000000040004e-05,5.557985244242225e-05,5.5186722513367314e-05,9.1582300147941e-06
150000000000.0,-1,0.0725299834,-0.0603305108,0.0010591181999999998,-0.018973,0.013278,0.015634,-1.565337473,-9.5607972845,1.520423016,-2.3417,1.3464,1.4261,9.99999999995449e-06,4.999999999988347e-05,2.0000000000020002e-05,0.0002087565972861416,7.050100740912946e-05,3.142870902417272e-05
150000000000.0,-1,0.06339999225,-0.0687250032,0.026154335549999998,-0.023224,0.013316,0.012421,-1.5656316724999997,-9.561091484,1.518461686,-2.3409,1.3465,1.4254,4.999999999999449e-05,9.999999999998899e-05,2.0000000000020002e-05,-0.0003799278685971963,-0.0002391855892964756,0.0007307429036829127
150000000000.0,-1,0.05875164014999999,-0.052387124300000004,0.03509800035,-0.023193,0.014385,0.008147,-1.5656316724999997,-9.5613856835,1.516304223,-2.3402,1.3467,1.4248,-3.999999999992898e-05,9.999999999998899e-05,-2.999999999997449e-05,-0.000490247613307071,0.0005754000995936703,-0.0002483563766957353
150000000000.0,-1,0.05761406875,-0.0441495383,0.03054771475,-0.027459,0.011229,0.002805,-1.5650432735,-9.561876016,1.5140486935,-2.3396,1.3469,1.4243,4.999999999999449e-05,5.0000000000105516e-05,-2.0000000000020002e-05,-0.0001386903380098392,-0.0002746070471593143,-0.00013862616548721007
150000000000.0,-1,0.04009939184999999,-0.03956983275,0.029400336699999995,-0.028507,0.010177,-0.002534,-1.5642587415,-9.5623663485,1.511400898,-2.339,1.3471,1.4238,2.0000000000020002e-05,5.0000000000105516e-05,3.999999999992898e-05,0.0004087071478438009,0.0004038785782738419,0.0007002935776894148
150000000000.0,-1,0.0334210632,-0.032146198699999996,0.038128255199999996,-0.028481,0.011245,-0.005739,-1.5632780764999998,-9.5629547475,1.5089492355,-2.3385,1.3474,1.4234,-1.0000000000065512e-05,9.999999999998899e-05,3.0000000000085514e-05,0.0001503560132751769,0.0004307843464430583,-0.0006120209471371929
150000000000.0,-1,0.041658649199999995,-0.019603493349999997,0.0290080707,-0.026355,0.010162,-0.005735,-1.5621012784999997,-9.56344508,1.5065956394999998,-2.3381,1.3476,1.423,9.99999999995449e-06,5.0000000000105516e-05,-4.0000000000040004e-05,-0.00033656520605984674,-0.00011901724169893768,7.770456998557052e-05
150000000000.0,-1,0.0687250032,0.015710253299999997,0.03401926885,-0.017844,0.009022,-0.002519,-1.5607283475,-9.5639354125,1.505124642,-2.3381,1.3479,1.4231,1.0000000000065512e-05,4.999999999988347e-05,2.0000000000020002e-05,0.00022277949237081707,-6.355298479032712e-05,0.00036861798120790823
150000000000.0,-1,0.09221192995,0.0310282406,0.022574908299999998,-0.007214,0.004671,-0.001429,-1.55925735,-9.5643276785,1.5044381765,-2.3383,1.348,1.4234,-4.999999999999449e-05,9.999999999998899e-05,2.0000000000020002e-05,0.0003761446378314215,0.00026107291748456163,-0.0002187621763134473
150000000000.0,-1,0.09360447424999999,0.03276401765,-0.015710253299999997,0.006616,0.000293,-0.000334,-1.5577863524999997,-9.564523811499999,1.5044381765,-2.3388,1.3481,1.4239,-9.99999999995449e-06,9.999999999998899e-05,-3.0000000000085514e-05,-4.900497748128174e-05,0.0004919287744831191,-5.9489875292584316e-06
150000000000.0,-1,0.08154229475,0.029988735699999998,-0.0299298958,0.01408,0.001294,0.001809,-1.556707621,-9.564621877999999,1.5052227084999998,-2.3394,1.3482,1.4245,-1.0000000000065512e-05,9.999999999998899e-05,2.0000000000020002e-05,0.0005853379331859365,-0.000404548169310015,-0.0002530024838720557
150000000000.0,-1,0.07326548214999999,-0.0011571847,-0.04104083025,0.020463,-0.00089,0.00182,-1.555530823,-9.564621877999999,1.5064975729999999,-2.3402,1.3481,1.4253,5.000000000032756e-06,5.0000000000105516e-05,-3.999999999992898e-05,-0.00021880915024530267,0.00021147987397540646,0.0002467894415052463
150000000000.0,-1,0.059114486200000003,-0.04521846314999999,-0.025722842949999998,0.018314,-0.001939,0.002883,-1.5547462909999998,-9.564523811499999,1.5077724375,-2.3408,1.3481,1.4259,5.000000000032756e-06,4.999999999988347e-05,9.99999999995449e-06,3.855479347603108e-05,-0.00013501553587569326,3.522469691130681e-05
150000000000.0,-1,0.04629719465,-0.10784373004999999,0.0060997363,0.012991,0.000234,0.003935,-1.5540598255,-9.564425745,1.5089492355,-2.3415,1.3481,1.4266,9.99999999995449e-06,9.999999999998899e-05,-4.999999999999449e-05,-0.0005508901559663215,-0.0007250618815892729,-0.00022614504894669096
150000000000.0,-1,0.03060655465,-0.1338999991,0.03427424175,0.003438,0.005642,0.002839,-1.5534714264999998,-9.564425745,1.5097337675,-2.3419,1.3481,1.4271,9.99999999995449e-06,-9.999999999998899e-05,5.999999999994898e-05,-8.06013130429939e-05,-0.00036962044177779596,0.0005791452341576964
150000000000.0,-1,0.02203554255,-0.10953047384999999,0.05458381389999999,-0.002945,0.007825,0.002822,-1.5530791605,-9.564425745,1.5101260334999997,-2.3422,1.3481,1.4274,3.0000000000085514e-05,4.999999999988347e-05,-3.999999999992898e-05,-0.0007015720752541199,-7.279184815778272e-05,-4.675757989414109e-05
150000000000.0,-1,0.025556129899999995,-0.046856173699999996,0.06481214985,-0.005029,0.013171,0.001741,-1.5528830274999998,-9.5643276785,1.510616366,-2.3424,1.348,1.4277,5.999999999994898e-05,5.0000000000105516e-05,2.0000000000020002e-05,-0.00040884524599382743,-0.00011220013052137823,0.00019630703764628166
150000000000.0,-1,0.037686955949999996,0.00626644935,0.039295246549999996,-0.003954,0.015291,0.003872,-1.552784961,-9.564425745,1.510616366,-2.3424,1.3481,1.4279,2.0000000000020002e-05,5.0000000000105516e-05,-1.0000000000065512e-05,-0.0003165196362215905,-0.0001392567791953514,-9.919746016828768e-05
150000000000.0,-1,0.050376761049999996,0.03384274915,0.010169496049999999,-0.002914,0.013149,0.006011,-1.552784961,-9.564425745,1.5104202329999998,-2.3424,1.3481,1.4279,-1.0000000000065512e-05,4.999999999988347e-05,2.0000000000020002e-05,0.00010999293345514971,-0.00022089561937699287,-0.00012854570894216266
150000000000.0,-1,0.0629783063,0.0385401345,-0.023810546199999998,0.002395,0.012036,0.009222,-1.552784961,-9.564425745,1.5100279669999999,-2.3422,1.3481,1.4279,1.0000000000065512e-05,-0.00029999999999996696,2.999999999997449e-05,9.521114779298401e-05,8.688085544328317e-06,1.561672199779096e-05
150000000000.0,-1,0.06400800455,0.021290237150000002,-0.0314597332,0.008782,0.013044,0.013498,-1.553177227,-9.564425745,1.509831834,-2.3421,1.3481,1.4278,0.00031999999999998696,-0.00029999999999996696,0.0006200000000000649,0.017050545866562627,-0.009597547374832649,0.009813771218625256
150000000000.0,-1,0.06090910315,-0.011934693049999999,-0.02470295135,0.010923,0.014091,0.013497,-1.5536675594999998,-9.564229612,1.5103221665,-2.342,1.348,1.428,9.99999999995449e-06,3.333333333332966e-05,-9.99999999995449e-06,0.00029333876007142656,-3.223528024576261e-05,0.0001749736369527355
150000000000.0,-1,0.0576042621,-0.0491117032,-0.0156318001,0.013037,0.013006,0.015635,-1.5542559584999998,-9.564033478999999,1.5111066985,-2.3421,1.3479,1.4282,-9.99999999995449e-06,3.333333333332966e-05,-1.0000000000065512e-05,0.0009136533654778844,0.0003310415687987067,-8.081297140360988e-06
150000000000.0,-1,0.04745437935,-0.08823043004999999,-0.007472667299999999,0.01091,0.014089,0.015627,-1.5550404904999997,-9.563837346,1.511597031,-2.342,1.3478,1.4282,2.0000000000020002e-05,3.333333333332966e-05,-5.000000000032756e-06,-1.4916640642459456e-05,-0.0012937748157721973,0.0004910704611735817
150000000000.0,-1,0.021358883699999998,-0.11194290974999999,0.004726805299999999,0.004551,0.019469,0.015605,-1.5562172884999999,-9.563641212999999,1.5118912304999998,-2.3417,1.3477,1.4281,-4.999999999999449e-05,-1.2499999999970868e-05,-5.000000000032756e-06,8.396537456967224e-05,0.0005932773751324838,-0.0004974284975114429
150000000000.0,-1,0.016190779149999997,-0.10370532374999998,0.022163028999999997,-0.00397,0.020606,0.014519,-1.5574921529999999,-9.56344508,1.5114989644999999,-2.3412,1.3476,1.4277,3.999999999992898e-05,-1.2499999999970868e-05,-9.99999999995449e-06,-0.0006007775804910409,-0.00031637104636272895,8.1395103490145e-05
150000000000.0,-1,0.0206135783,-0.08043414329999998,0.0379909621,-0.011399,0.025993,0.015563,-1.5587670175,-9.56344508,1.510616366,-2.3405,1.3476,1.4273,-9.99999999995449e-06,-1.2499999999970868e-05,-9.99999999995449e-06,0.0006642768637377117,0.0004735060473688435,-8.737181867424226e-05
150000000000.0,-1,0.0301652554,-0.03947176625,0.04557150255,-0.014564,0.030282,0.015548,-1.560041882,-9.5633470135,1.509439568,-2.3397,1.3476,1.4267,-4.999999999921734e-06,-1.2500000000192912e-05,-1.0000000000065512e-05,-0.0005962798569278949,0.0005010345874387756,-0.0005264505704927203
150000000000.0,-1,0.04938628939999999,0.018475728599999998,0.037686955949999996,-0.016666,0.033496,0.01447,-1.56121868,-9.56344508,1.508066637,-2.3389,1.3476,1.4262,-5.000000000032756e-06,-1.2499999999970868e-05,6.0000000000060005e-05,0.0003782577052813263,-0.0005418599797022416,0.00014669887458618192
150000000000.0,-1,0.06128175585,0.06116407605,0.02964550295,-0.011328,0.032389,0.012344,-1.562003212,-9.56344508,1.5069879055,-2.3383,1.3476,1.4258,-1.0000000000065512e-05,-1.2499999999970868e-05,4.999999999999449e-05,0.000752963863135836,-0.0001072293769130983,0.00025616086670909866
150000000000.0,-1,0.0647435033,0.07124531225,-0.01003220295,-0.006028,0.028082,0.012359,-1.562787744,-9.563543146499999,1.5058111074999998,-2.3376,1.3477,1.4255,2.999999999997449e-05,-1.2499999999970868e-05,9.99999999995449e-06,0.0003076191691180341,0.0006084148416585222,4.97146451117203e-06
150000000000.0,-1,0.06145827555,0.045581309199999996,-0.034833220799999995,-0.001765,0.026982,0.011298,-1.563376143,-9.563543146499999,1.5047323759999998,-2.3371,1.3477,1.4252,3.0000000000085514e-05,-1.2499999999970868e-05,0.000160000000000049,0.004510153865721733,-0.0023484759119392074,0.0024843859543093316
150000000000.0,-1,0.0487978904,-0.00659987545,-0.02458527155,0.000356,0.024835,0.010236,-1.5638664755,-9.563641212999999,1.5038497774999997,-2.3366,1.3477,1.425,-2.0000000000020002e-05,9.999999999998899e-05,1.0000000000065512e-05,-0.0001983486511398791,0.0001609553761618976,-0.0004777409385292586
150000000000.0,-1,0.03501954715,-0.058947773149999994,-0.0151610809,-0.000692,0.028039,0.011294,-1.5646510075,-9.563641212999999,1.5029671789999999,-2.3361,1.3477,1.4247,-7.00000000000145e-05,1.4285714285744433e-05,9.99999999995449e-06,0.001852205717447486,0.00010926057673232847,0.00041742246381160086
150000000000.0,-1,0.0360296321,-0.07810996725,0.0055897905,-0.001733,0.031244,0.011285,-1.565337473,-9.563641212999999,1.5022807134999998,-2.3357,1.3477,1.4245,5.000000000032756e-06,1.4285714285744433e-05,9.99999999995449e-06,-0.00048537261452086256,9.490067502326838e-05,-0.00047658767860481177
150000000000.0,-1,0.0440710851,-0.07014696744999999,0.0346567011,-0.01025,0.033445,0.011264,-1.5660239384999999,-9.563641212999999,1.501398115,-2.3351,1.3477,1.4243,4.999999999921734e-06,1.4285714285744433e-05,-2.999999999997449e-05,0.0010916656371768862,-2.109422493368207e-05,-8.20495646745023e-05
150000000000.0,-1,0.0473661195,-0.0366964843,0.050013915,-0.016621,0.037758,0.01231,-1.5668084704999998,-9.5637392795,1.5001232505,-2.3344,1.3478,1.424,-7.500000000049134e-06,1.4285714285522388e-05,2.999999999997449e-05,-0.0003082882750495841,0.00033077691767346984,0.00012205024381284346
150000000000.0,-1,0.0542307745,-0.0109638347,0.050376761049999996,-0.021931,0.039934,0.011228,-1.567494936,-9.5639354125,1.4983580535,-2.3336,1.3478,1.4235,-7.499999999938112e-06,1.4285714285744433e-05,9.99999999995449e-06,0.0005456279078444037,9.698046773287672e-05,0.0002461648835767605
150000000000.0,-1,0.054524974,0.00962032365,0.05096516005,-0.024064,0.037823,0.008023,-1.5679852685,-9.564131545499999,1.4963967235,-2.3329,1.3479,1.4231,-7.499999999938112e-06,1.4285714285744433e-05,-3.999999999992898e-05,0.00023315019456648933,-0.0003717027682363927,0.0002459507680323547
150000000000.0,-1,0.0502492746,0.0120229529,0.03912853349999999,-0.024016,0.041023,0.003746,-1.5681814015,-9.564425745,1.4942392604999999,-2.332,1.3481,1.4226,-7.500000000049134e-06,1.4285714285744433e-05,3.999999999992898e-05,0.0002174190285550992,-0.0004832033731954066,4.78748310142052e-05
150000000000.0,-1,0.0361669252,-0.0014219642499999998,0.035794272499999995,-0.021896,0.037811,0.001619,-1.568279468,-9.5647199445,1.491983731,-2.3313,1.3482,1.4222,-2.999999999997449e-05,4.999999999988347e-05,4.999999999999449e-05,0.000868474346685133,0.0004034525800495903,0.0001590597632397106
150000000000.0,-1,0.029537629799999996,-0.03274440435,0.03456844125,-0.021842,0.041013,-0.003725,-1.5680833349999999,-9.565112210499999,1.489630135,-2.3305,1.3484,1.4218,-2.999999999997449e-05,5.0000000000105516e-05,3.0000000000085514e-05,-0.00017037854969026434,0.00030428463466902755,-0.0004568047081399129
150000000000.0,-1,0.027448813349999997,-0.0603305108,0.03586291905,-0.018638,0.042051,-0.002655,-1.5677891355,-9.565602542999999,1.487472672,-2.3299,1.3486,1.4216,-4.999999999999449e-05,5.0000000000105516e-05,3.999999999992898e-05,0.0012546640112567342,-0.00037461216876732983,-2.307621383534908e-05
150000000000.0,-1,0.01893664115,-0.08318981194999998,0.036971070499999995,-0.016515,0.039903,-0.003716,-1.567494936,-9.5658967425,1.4856094085,-2.3294,1.3488,1.4215,-0.0001100000000000545,4.999999999988347e-05,-0.00017999999999995797,-0.004438548172442491,0.0025857976890049095,-0.0013702050650974407
150000000000.0,-1,0.02635046855,-0.08575915424999998,0.0416782625,-0.012246,0.039867,-0.003711,-1.5672007365,-9.566190942,1.484138411,-2.329,1.3489,1.4215,-4.999999999999449e-05,9.999999999998899e-05,2.0000000000020002e-05,0.0003468204389152074,-0.0005545579507464371,0.00018440052479551383
150000000000.0,-1,0.0308321076,-0.063154826,0.031940259049999996,-0.011139,0.044121,-0.004785,-1.566710404,-9.5664851415,1.4826674134999998,-2.3286,1.349,1.4216,-4.999999999999449e-05,6.666666666665932e-05,8.500000000000174e-05,0.0016412441620199392,0.00031524839953345207,0.0004335509758357503
150000000000.0,-1,0.04254124769999999,-0.026948674199999998,0.0146903617,-0.009008,0.045167,-0.002651,-1.566318138,-9.566779340999998,1.481196416,-2.3283,1.3492,1.4216,4.0000000000040004e-05,6.666666666665932e-05,8.500000000000174e-05,0.004640289138858389,-0.0024906608063552937,0.002764287470954141
150000000000.0,-1,0.049327449499999995,0.00877695175,0.0117483667,-0.010076,0.046239,-0.000522,-1.5660239384999999,-9.5670735405,1.479823485,-2.3279,1.3493,1.4217,-9.999999999998899e-05,6.666666666665932e-05,-0.000140000000000029,-0.0044205514627837506,0.002484122103900477,-0.001816833461306011
150000000000.0,-1,0.05100438665,0.0432865531,0.012317152399999998,-0.011112,0.049445,-0.001598,-1.5659258719999998,-9.567269673499998,1.4783524874999998,-2.3274,1.3494,1.4217,-1.0000000000065512e-05,9.999999999998899e-05,4.999999999999449e-05,0.0011540650551931098,0.00037434475635089726,0.000913191680561809
150000000000.0,-1,0.06049722385,0.0530932031,0.02582090945,-0.012193,0.04945,0.0016,-1.5658278055,-9.5674658065,1.4769795565,-2.327,1.3495,1.4217,-2.999999999997449e-05,4.999999999988347e-05,1.4999999999987246e-05,-0.0003486852945469021,-0.00010805685384274177,0.00017178418486407665
150000000000.0,-1,0.05461323385,0.03800076875,0.0439926319,-0.011085,0.053704,0.000525,-1.5658278055,-9.567661939499999,1.4759008249999999,-2.3266,1.3496,1.4219,9.99999999995449e-06,5.0000000000105516e-05,1.4999999999987246e-05,0.0007328142786571235,-0.0004228101576886356,0.0002507636214232889
150000000000.0,-1,0.0292630436,-0.0065900687999999995,0.0363434449,-0.007878,0.053678,-0.000538,-1.5660239384999999,-9.5678580725,1.474724027,-2.3262,1.3496,1.4219,-9.99999999995449e-06,9.999999999998899e-05,2.0000000000020002e-05,0.00012114948459607255,0.0002455365191913472,0.0006471881441441063
150000000000.0,-1,0.01879934805,-0.0532108829,0.042933513699999995,-0.000389,0.054684,-0.002663,-1.5662200714999999,-9.5678580725,1.474135628,-2.3259,1.3497,1.4222,4.999999999999449e-05,0.00019999999999997797,4.0000000000040004e-05,-0.0016723964131761804,-0.000332858973832284,0.0009754204375225228
150000000000.0,-1,0.008384685749999999,-0.07747253500000001,0.03313667035,0.009232,0.055673,-0.004784,-1.5662200714999999,-9.5678580725,1.474135628,-2.3259,1.3497,1.4228,-9.99999999995449e-06,4.999999999988347e-05,1.999999999990898e-05,0.000530094617511967,0.00012888640306707444,0.00044735774877358025
150000000000.0,-1,0.006021283099999999,-0.08728899164999998,0.01511204765,0.015642,0.056685,-0.004775,-1.566318138,-9.567760005999999,1.474724027,-2.3261,1.3496,1.4235,-1.0000000000065512e-05,5.0000000000105516e-05,2.0000000000020002e-05,-1.8852422233539556e-05,0.00019117110548561023,-0.000555871629115412
150000000000.0,-1,0.00911037785,-0.09532063799999999,-0.008041452999999999,0.023106,0.055559,-0.005829,-1.566122005,-9.567661939499999,1.475508559,-2.3264,1.3496,1.4244,-2.0000000000020002e-05,9.999999999998899e-05,3.0000000000085514e-05,0.0014078253341580638,0.0006594770040788678,0.0007866781220742247
150000000000.0,-1,0.0035892338999999997,-0.11016790609999999,-0.015396440499999999,0.027367,0.055523,-0.004755,-1.566122005,-9.5674658065,1.4767834235,-2.3268,1.3495,1.4254,-9.99999999995449e-06,9.999999999998899e-05,2.999999999997449e-05,-0.00018691302180817715,0.0004337261852804808,0.0003811373298816534
150000000000.0,-1,-0.0017455836999999998,-0.1342138119,-0.004981778199999999,0.02737,0.058715,-0.000492,-1.5664162045,-9.567269673499998,1.478058288,-2.3272,1.3494,1.4263,-4.0000000000040004e-05,5.0000000000105516e-05,3.999999999992898e-05,-0.0005963010018306125,-0.0003451168971191354,0.0004041445577858127
150000000000.0,-1,0.00120621795,-0.19312235844999998,0.02150598345,0.022064,0.06302,0.000558,-1.566906537,-9.566975474,1.4792350859999999,-2.3274,1.3493,1.4272,3.0000000000085514e-05,4.999999999988347e-05,8.000000000008001e-05,-0.0007329240730331588,0.00044100403764568696,0.0006053470936047134
150000000000.0,-1,0.00367749375,-0.2625044072,0.0412663832,0.015688,0.069461,0.00587,-1.5676910689999999,-9.566779340999998,1.4799215514999997,-2.3274,1.3491,1.4279,7.999999999996898e-05,9.999999999998899e-05,4.999999999999449e-05,-0.00047277046538107825,0.0002502473111907211,0.0007362357706703904
150000000000.0,-1,-0.013346850649999999,-0.3254042603,0.04531652965,0.011467,0.078015,0.010116,-1.569064,-9.566583208,1.479823485,-2.3269,1.3491,1.4282,7.999999999996898e-05,9.999999999998899e-05,0.00017999999999995797,0.005915401257204023,-0.0027948095048697663,0.003545757984174447
150000000000.0,-1,-0.01197391965,-0.36223803769999996,0.06553784195,0.012558,0.084394,0.015442,-1.5709272635,-9.566190942,1.4799215514999997,-2.3264,1.3489,1.4284,-9.00000000000345e-05,0.00010000000000021103,-4.999999999999449e-05,-0.005057759773603454,0.0021968997043819716,-0.0018976218428190528
150000000000.0,-1,-0.015317987299999999,-0.36334618915,0.07099033934999999,0.026434,0.086409,0.017595,-1.5730847264999999,-9.5657006095,1.4809022164999999,-2.326,1.3487,1.4289,-1.999999999990898e-05,9.999999999998899e-05,0.00017000000000000348,-0.000783261738221519,0.0002323399083656863,0.0005939240492764952
150000000000.0,-1,0.00448163905,-0.32610053245,0.037294689949999994,0.036027,0.085264,0.017612,-1.5752421895,-9.565112210499999,1.482569347,-2.3259,1.3484,1.4297,-2.0000000000020002e-05,9.999999999998899e-05,0.00014999999999998348,0.0005199607771242398,0.00030870675406236003,3.281362720297665e-05
150000000000.0,-1,0.00987529655,-0.27738109525,-0.02501676415,0.048849,0.08729,0.016561,-1.577301586,-9.564425745,1.4845306769999997,-2.3259,1.3481,1.4306,-4.999999999999449e-05,0.0003500000000000725,0.0001100000000000545,-0.00031988893920931183,7.730083946722033e-05,0.00011957135781770489
150000000000.0,-1,0.0115522337,-0.2530507966,-0.0825327664,0.058448,0.086148,0.014442,-1.5792629159999998,-9.5637392795,1.48668814,-2.326,1.3478,1.4316,-0.00048000000000003595,0.00034999999999985043,-0.000260000000000038,-0.01921376772393857,0.008320303863088796,-0.008693260317194529
150000000000.0,-1,0.00257914895,-0.2715657518,-0.09996899009999999,0.067036,0.091408,0.011244,-1.5811261795,-9.563052813999999,1.4893359355,-2.3263,1.3475,1.4329,4.999999999999449e-05,5.0000000000105516e-05,0.00024000000000001798,0.0001945591603276231,0.00011803045884573038,0.0008969340682227767
150000000000.0,-1,-0.0137489233,-0.29705323515,-0.0602716709,0.069252,0.098855,0.005896,-1.5827933099999998,-9.562268282,1.4927682629999999,-2.3269,1.3471,1.4345,-4.0000000000040004e-05,4.999999999988347e-05,0.000260000000000038,-0.0008736488332370396,0.0005334894983262117,-0.0003219454508234243
150000000000.0,-1,-0.04147232285,-0.28985515405,-0.04298254694999999,0.071489,0.1095,0.001611,-1.5844604404999998,-9.5613856835,1.4965928565,-2.3277,1.3467,1.4364,2.0000000000020002e-05,-0.00029999999999996696,0.00024999999999997247,-0.0006625174037013792,0.0006846284836907746,0.0009286011617177792
150000000000.0,-1,-0.033646616149999996,-0.22108111760000002,-0.042364728,0.076889,0.11798,0.001606,-1.5863237039999998,-9.5604050185,1.5007116495,-2.3285,1.3462,1.4384,0.0006399999999999739,-0.00029999999999996696,0.0008000000000000229,0.01683938293793874,-0.006564993627657056,0.009803965202128229
150000000000.0,-1,-0.007502087249999999,-0.10821638274999999,-0.08534727495,0.081222,0.13072,0.007995,-1.5886772999999998,-9.5594243535,1.5046343095,-2.329,1.3458,1.4403,9.00000000000345e-05,0.00029999999999996696,0.00029999999999996696,-0.0014115354636783373,-0.0015971500760596502,0.0014550406240982916
150000000000.0,-1,0.0620957078,0.038363614799999994,-0.13275262105,0.087662,0.14344,0.019723,-1.5915212284999998,-9.558345622,1.508655036,-2.3295,1.3453,1.4422,-0.00032999999999994145,0.00029999999999996696,-0.00029999999999996696,-0.018990050492970312,0.009636201307028802,-0.0076996356561016555
150000000000.0,-1,0.176911966,0.25549265244999997,-0.20624365615,0.10259,0.15183,0.034672,-1.59456129,-9.5570707575,1.5130680285,-2.33,1.3447,1.4443,0.00012000000000000899,-9.999999999998899e-05,0.00034999999999996145,-0.0010230635107588704,-0.00095451924583001,0.0011239332362769083
150000000000.0,-1,0.28704064549999997,0.51299566815,-0.27937184519999997,0.11752,0.16128,0.048548,-1.5979936175,-9.5556978265,1.5180694199999998,-2.3305,1.3441,1.4465,0.00013999999999991797,-9.999999999998899e-05,0.00043000000000004146,-0.001118351402755291,9.77517269267203e-05,0.0024511845474468608
150000000000.0,-1,0.3802234338,0.75372931235,-0.34967571905,0.13356,0.1718,0.057097,-1.6059370039999998,-9.552853897999999,1.5277780035,-2.3313,1.3428,1.449,9.999999999998899e-05,-9.999999999998899e-05,0.00039999999999995595,0.0005780295313333461,0.0007454807335258717,0.0013551591577640743
150000000000.0,-1,0.4335716098,0.8995934244499999,-0.41250692559999996,0.14746,0.17701,0.060314,-1.6143707229999997,-9.549715769999999,1.538663385,-2.3322,1.3414,1.4518,0.000180000000000069,-9.999999999998899e-05,0.00043000000000004146,-0.0008710300350203148,-0.0010129204942006531,0.002449107375074977
150000000000.0,-1,0.40870194539999993,0.8636324389,-0.43176718619999993,0.16039,0.18757,0.052846,-1.6225102425,-9.546381509,1.5507255644999998,-2.3336,1.3399,1.4551,0.0005999999999999339,-0.0005999999999999339,0.0006399999999999739,0.01818993556521198,-0.006903996314180816,0.009032241401360164
150000000000.0,-1,0.3268556445,0.6963015699499999,-0.4265696617,0.17334,0.196,0.035775,-1.6294729639999999,-9.543047247999999,1.563964542,-2.3357,1.3384,1.4592,0.00017000000000000348,-0.00020000000000020002,0.000140000000000029,-0.0007409741615820309,0.00042965296364161354,0.0019418671755957462
150000000000.0,-1,0.22811248565,0.47203329110000003,-0.38277316279999996,0.16818,0.2014,0.010139,-1.6340820895,-9.540105253,1.5770073865,-2.3384,1.3371,1.4641,0.000160000000000049,-0.00019999999999997797,5.999999999994898e-05,0.00013014347102924262,-0.0008977028946020038,0.0017888419856877391
150000000000.0,-1,0.10891265489999999,0.21612875934999998,-0.32543368024999997,0.15348,0.21327,-0.021933,-1.634964688,-9.5388303885,1.583577842,-2.3402,1.3366,1.4682,5.999999999994898e-05,-0.00039999999999995595,-7.999999999996898e-05,-0.0007287740125199171,-0.0007656059286358374,0.0010379539627369816
150000000000.0,-1,0.05269113045,0.023251567149999996,-0.27210511755,0.1292,0.22949,-0.047621,-1.6344743555,-9.537359390999999,1.592992226,-2.3433,1.3359,1.4737,0.0001100000000000545,-0.00039999999999995595,-4.0000000000040004e-05,0.0027631425790590747,-0.001925062819815082,0.0027656694780087143
150000000000.0,-1,0.0091594111,-0.1349198907,-0.1957211207,0.099598,0.24681,-0.074388,-1.63182656,-9.536770992,1.5993665485,-2.3461,1.3356,1.479,0.00019999999999997797,-0.00029999999999996696,-0.000260000000000038,-0.0020963403116380785,0.0007715628860778256,0.0013571547978612486
150000000000.0,-1,-0.023859579449999998,-0.20772446029999997,-0.10794179654999998,0.061501,0.27059,-0.099046,-1.6272174345,-9.537163258,1.601818211,-2.3483,1.3358,1.484,4.0000000000040004e-05,0.0004999999999999449,-0.0008799999999999919,-0.021420280680690906,0.012342118668344781,-0.007847637939603747
150000000000.0,-1,-0.02982202265,-0.17513696234999998,-0.0735891016,0.027665,0.29753,-0.11837,-1.6209411784999999,-9.538732322,1.5985820164999998,-2.3492,1.3365,1.488,0.0007599999999999829,-0.0008999999999999009,0.000280000000000058,0.013820681542334956,-0.01018794654182198,0.010935968342561164
150000000000.0,-1,0.0128859381,-0.06900939604999999,-0.08540611484999999,0.003409,0.32226,-0.13553,-1.6135861909999998,-9.540693652,1.594169024,-2.3502,1.3374,1.4922,-6.0000000000060005e-05,0.00039999999999995595,-0.0006200000000000649,-0.0180385181368532,0.009085056162707605,-0.007162354045902042
150000000000.0,-1,0.07040194035,0.0703529071,-0.1154046572,-0.002804,0.34256,-0.14091,-1.6055447379999999,-9.543047247999999,1.5885792335,-2.3509,1.3384,1.4964,0.00038000000000004697,-0.00029999999999996696,-0.00010999999999994348,-0.0024662913429203126,-0.0006385434677400603,0.003112995232937621
150000000000.0,-1,0.1313894967,0.1838550742,-0.1690274194,-0.001542,0.36493,-0.14415,-1.597699418,-9.5453027775,1.5824991105000001,-2.3514,1.3394,1.5007,0.000260000000000038,-0.000400000000000178,-7.999999999996898e-05,0.0022725170221244984,-0.0004797003523686616,0.003779821004056938
150000000000.0,-1,0.13161504965,0.25757166225,-0.26678991325,0.028292,0.36468,-0.13877,-1.5881869675,-9.5482447725,1.574359591,-2.3518,1.3407,1.5049,0.00031999999999998696,-0.00019999999999997797,-9.999999999998899e-05,0.0008640042141343507,-0.00088245286303823,0.0032061570244992232
150000000000.0,-1,0.23960587944999998,0.32760094989999994,-0.40599530999999994,0.0826,0.36208,-0.12159,-1.5819107115,-9.549127370999999,1.5752421895,-2.3541,1.3411,1.5109,0.00041000000000002146,-9.999999999998899e-05,-9.00000000000345e-05,0.0007069993958488396,-0.0009261704515435287,0.003830098027120421
150000000000.0,-1,0.3489794469,0.37149551529999997,-0.43654302474999995,0.12322,0.38198,-0.10448,-1.577497719,-9.5490293045,1.580243581,-2.3571,1.3411,1.5178,0.0008899999999999464,-0.0008999999999999009,0.00048000000000003595,0.01820091503834753,-0.011164002957941621,0.013315131117684675
150000000000.0,-1,0.43756291634999994,0.47503412599999995,-0.45790190844999995,0.15946,0.38699,-0.090547,-1.5746537904999998,-9.548146705999999,1.5885792335,-2.3606,1.3407,1.5254,0.00034999999999996145,-9.999999999998899e-05,-0.000320000000000098,0.0004309815492753444,0.0007154728593785631,0.002569075188301184
150000000000.0,-1,0.47825070719999996,0.5168889082,-0.5150452579999999,0.19675,0.39199,-0.074497,-1.5670046034999998,-9.548538972,1.5936786914999999,-2.3646,1.3409,1.5336,-9.99999999995449e-06,0.0004999999999999449,-0.0009000000000000119,-0.018752059138940513,0.00959782413764132,-0.006700304420294678
150000000000.0,-1,0.4224116421,0.2995539309,-0.4830657723499999,0.22248,0.41521,-0.062752,-1.567298803,-9.546087309499999,1.6079964005,-2.369,1.3398,1.5423,0.0009200000000000319,-0.0014000000000000679,0.00043000000000004146,0.021470860833028294,-0.011885915624800347,0.013587858664152463
150000000000.0,-1,0.34404670195000003,0.057329675899999995,-0.4035436475,0.22691,0.44181,-0.053185,-1.5689659335,-9.5433414475,1.6229025085,-2.3731,1.3385,1.5509,0.00039000000000000146,-0.00039999999999995595,-0.00039000000000000146,-0.005514408783730662,0.0003827750994418455,0.0032440306969250265
150000000000.0,-1,0.23093680084999998,-0.09907658494999999,-0.40823122619999996,0.21426,0.46854,-0.039378,-1.5723001945,-9.540399452499999,1.6366318185,-2.3762,1.3373,1.5589,0.0006800000000000139,-0.0004999999999999449,-0.00031999999999998696,0.00458377636804852,-0.0010557641303503562,0.0044625395522297495
150000000000.0,-1,0.1960741601,-0.19520136824999998,-0.4784664535,0.18352,0.5082,-0.021364,-1.5740653915,-9.539909119999999,1.637906683,-2.376,1.337,1.5639,0.00014999999999998348,0.00019999999999997797,-0.0012499999999999734,-0.021824181181876234,0.008517694472015558,-0.00511411265553674
150000000000.0,-1,0.21606011279999998,-0.12930068025,-0.510730332,0.16348,0.54884,-0.003325,-1.5821068445,-9.5372613245,1.6454578034999998,-2.3758,1.3359,1.5692,0.0008899999999999464,-0.0016000000000000458,0.00012999999999996348,0.015101057120534334,-0.0126549245826304,0.014917615182502342
150000000000.0,-1,0.31629388244999995,0.13085013095,-0.51046555245,0.16792,0.58288,0.016903,-1.5926980265,-9.534417395999998,1.652028259,-2.3745,1.3346,1.5738,-0.00017999999999995797,-0.00039999999999995595,-0.0021099999999999453,-0.022966502869775196,0.02207693385046805,-0.0056615386332152795
150000000000.0,-1,0.4281387257,0.4380042156,-0.46962085519999996,0.183,0.61364,0.038223,-1.6059370039999998,-9.530887001999998,1.6593832464999998,-2.3726,1.3331,1.578,0.0006699999999999484,-0.0006999999999999229,-0.00036000000000002697,-0.0004787742277740925,-0.0002006679527140065,0.0038545948002148833
150000000000.0,-1,0.48461522305,0.7232600507999999,-0.5195759302999999,0.20868,0.63259,0.052108,-1.6197643805,-9.527160475,1.6671305,-2.3706,1.3315,1.5825,0.0008299999999999974,-0.0008000000000001339,-0.0004899999999999904,0.0021839597764556906,-0.00042206331234551087,0.005177342590234613
150000000000.0,-1,0.564666907,0.8956021179,-0.6528777237499999,0.23118,0.65477,0.069186,-1.6368279515,-9.5223552165,1.6780158815,-2.3686,1.3294,1.5872,0.0005500000000000504,-0.0007999999999999119,-0.0006200000000000649,-0.0002779673920954018,-0.0005993800936114901,0.002586780820524215
150000000000.0,-1,0.600755379,0.97085835,-0.8064792827,0.25378,0.68228,0.074514,-1.6552644534999998,-9.516961558999999,1.6905683934999998,-2.3667,1.3271,1.5922,0.0013799999999999368,-0.0020999999999999908,1.0000000000065512e-05,0.016652353292172295,-0.009866616960374719,0.01878007157231476
150000000000.0,-1,0.64450284465,1.0401913655,-0.9133227344499999,0.27309,0.70023,0.081987,-1.6747796869999998,-9.511077569,1.7044938364999997,-2.365,1.3247,1.5976,0.0007800000000000029,-0.0006999999999999229,-0.00048000000000003595,0.0006027950252156522,0.0009568877042398505,0.0061055892331665085
150000000000.0,-1,0.6655577222,1.0337189764999999,-0.92854265525,0.2903,0.72458,0.093716,-1.6957659179999998,-9.504605179999999,1.7196941439999998,-2.3632,1.322,1.6031,4.0000000000040004e-05,-0.00010000000000021103,-0.0021599999999999397,-0.01580516704339474,0.01656329861561323,-0.0070572001581461485
150000000000.0,-1,0.6251543242,1.009888817,-0.8682219511,0.29794,0.75115,0.10222,-1.7182231465,-9.497740525,1.7351886509999999,-2.3611,1.3191,1.6087,0.0009799999999999809,-0.0011999999999998678,-0.0008900000000000574,-0.0012426874619864137,-0.002790020211776323,0.008096449229339608
150000000000.0,-1,0.6346275480999999,1.0190090015,-0.7921223471,0.2803,0.81417,0.10208,-1.7417591064999998,-9.4909739365,1.7486237614999998,-2.3581,1.3164,1.6138,0.0008900000000000574,-0.0012000000000000899,-0.0011099999999999444,-0.0062738520128224895,0.0038280712092546576,0.00804843096914798
150000000000.0,-1,0.6331467439499999,0.8921599837499999,-0.72005327625,0.23944,0.90083,0.091182,-1.766177665,-9.484991879999999,1.7568613475,-2.3535,1.3139,1.6182,0.0009199999999999209,-0.0017000000000000348,-0.0012600000000000389,0.0014201196117886727,-7.816935829874083e-05,0.007622628010777621
150000000000.0,-1,0.5641569612,0.6154457406999999,-0.78509097905,0.19948,0.96511,0.077123,-1.7905962235,-9.4797943555,1.7598033425,-2.3475,1.3119,1.6218,0.0012600000000000389,-0.0013999999999998458,-0.0011100000000000554,-0.005572154302292631,-0.0013812319974608744,0.00921523066177965
150000000000.0,-1,0.565843705,0.45868644045,-1.043623693,0.15159,0.98361,0.081277,-1.8153089814999999,-9.475577496,1.7575478129999997,-2.34,1.3102,1.6242,0.0015899999999999803,-0.0028000000000001357,-0.0007499999999999174,0.013323503575902729,-0.009571489836824876,0.019734880327836102
150000000000.0,-1,0.59301793215,0.33814309865,-1.262704254,0.1334,0.98375,0.091919,-1.8410024045,-9.4715567695,1.7522522219999999,-2.3315,1.3086,1.6256,0.000500000000000056,-0.0004999999999999449,-0.0024200000000000887,-0.02025167457929289,0.013444700116115316,-0.002855487392784184
150000000000.0,-1,0.6284689719,0.306948145,-1.2370108309999999,0.15802,1.0027,0.1058,-1.8678726255,-9.467143777,1.74754503,-2.3229,1.3069,1.627,0.0009299999999999864,-0.0019000000000000128,-0.0017499999999999183,0.001506276628077119,0.0016348275934894296,0.00869763691024783
150000000000.0,-1,0.7487769541,0.378340557,-0.8073128479499999,0.18697,1.0302,0.12182,-1.8969003094999999,-9.461848186,1.7453875669999999,-2.3146,1.3048,1.629,0.0010599999999999499,-0.0018000000000000238,-0.0017200000000000548,0.0018116775878274094,0.002192787862910661,0.009433675950541343
150000000000.0,-1,0.7521798616500001,0.36775918165,-0.3047122288,0.18077,1.0654,0.13669,-1.92798739,-9.455964196,1.7427397715,-2.3058,1.3026,1.6308,0.0011600000000000499,-0.0016000000000000458,-0.0017199999999999438,0.0010125534683631532,0.0028903510436799618,0.009634767649181697
150000000000.0,-1,0.7504440845999999,0.27683192284999997,-0.056241137749999996,0.15413,1.0826,0.15796,-1.9611338669999998,-9.450178272499999,1.7371499809999997,-2.2957,1.3004,1.6316,0.0011200000000000099,-0.0020999999999999908,-0.0020299999999999763,-0.0032763039218901557,0.002916117088314296,0.009556306142277204
150000000000.0,-1,0.78687578935,0.17553903499999998,-0.08530804835,0.1285,1.0913,0.17818,-1.9961436074999999,-9.444588482,1.7281278629999999,-2.2844,1.2982,1.6311,0.0012099999999999334,-0.0020000000000000018,-0.0018700000000000383,0.0031929160048420613,0.002305001134411455,0.00943246622380256
150000000000.0,-1,0.83626207875,0.1724989735,-0.22311109415,0.12419,1.0999,0.1995,-2.0334088775,-9.438508359,1.717732814,-2.2722,1.2959,1.6299,0.0011400000000000299,-0.0021999999999999797,-0.0021600000000000508,-0.002806309958972353,0.0030060618597651523,0.010801232162673813
150000000000.0,-1,0.9180397331,0.2842751702,-0.25009899495,0.14015,1.1072,0.2198,-2.0726354775,-9.4317417705,1.7077300309999999,-2.26,1.2934,1.6287,0.0012100000000000444,-0.0020999999999999908,-0.0020199999999999108,0.0017037114837479272,0.002141487189863067,0.01093186820393477
150000000000.0,-1,0.99439431,0.42107793769999996,-0.21635431229999996,0.16031,1.107,0.24118,-2.113725341,-9.42419065,1.6992963119999998,-2.2479,1.2906,1.6277,0.0009799999999999809,-0.0024999999999999467,-0.0021600000000000508,-0.0006484735397132013,0.00309702310593174,0.009325997365188243
150000000000.0,-1,1.06107953,0.47341602874999994,-0.2077440736,0.16982,1.1069,0.26041,-2.1563842685,-9.415953064,1.6913529255,-2.2359,1.2876,1.6267,0.0011799999999999589,-0.0020999999999999908,-0.0020799999999999708,0.0018520246296507281,0.004318981452208437,0.009330585513963818
150000000000.0,-1,1.0827522264999998,0.3866565962,-0.22952464324999997,0.17175,1.0909,0.27646,-2.2005141935,-9.407127079,1.6835076054999998,-2.2239,1.2844,1.6256,0.0009700000000000264,-0.0026999999999999247,-0.0023500000000000743,-0.0008715297303987235,0.0036931811263329895,0.014081900710488426
150000000000.0,-1,1.0949124725,0.111599677,-0.20855802555,0.1696,1.0941,0.28498,-2.2456247835,-9.397908827999998,1.675171953,-2.2117,1.2811,1.6243,0.0009500000000000064,-0.0024000000000001798,-0.0021999999999999797,0.002401899739202351,0.0030708868082036656,0.009698677536959188
150000000000.0,-1,1.0213625975,-0.25814044794999996,-0.1032051846,0.16635,1.0877,0.28286,-2.2905392405,-9.388690577,1.666149835,-2.1997,1.2778,1.6231,0.0010499999999999954,-0.0027999999999999137,-0.0025100000000000122,0.0013839569881792801,0.006054321335026591,0.011880472394341979
150000000000.0,-1,0.8685847971499999,-0.9945904429999999,0.15189520185,0.15669,1.0771,0.27859,-2.3344730325,-9.379668459,1.656147052,-2.1878,1.2746,1.622,0.0010299999999999754,-0.0026999999999999247,-0.0024699999999999722,-0.0017765971339167574,0.0032887990443919435,0.009804377637574468
150000000000.0,-1,0.9115281175,-1.0033183614999999,0.16356511534999998,0.14505,1.0804,0.26362,-2.3774261595,-9.3709405405,1.6444771384999999,-2.176,1.2716,1.6209,0.0010900000000000354,-0.0027000000000001467,-0.0025100000000000122,0.0005443927795854009,0.004325255472191758,0.011109994646310906
150000000000.0,-1,0.8225523820499999,-1.3349792645,0.30311374485,0.12921,1.0817,0.2337,-2.41831989,-9.362801021,1.6311400944999999,-2.1642,1.2688,1.62,0.0009899999999999354,-0.0029999999999998916,-0.0025800000000000267,-1.4167547037091666e-05,0.004016976131103744,0.010126468870187644
150000000000.0,-1,0.7973590982,-1.7427397715,0.43399329575,0.1387,1.0454,0.19749,-2.4544083619999997,-9.3556421665,1.61809725,-2.1537,1.2663,1.62,0.0014200000000000879,-0.0038000000000000256,-0.0019199999999999218,0.011173317783461423,-0.007841215093495224,0.02056045862216216
150000000000.0,-1,0.84510767705,-2.148440882,0.5818677711,0.13973,1.0273,0.17618,-2.4882413045,-9.348875578,1.6055447379999999,-2.1438,1.264,1.6205,0.00024000000000001798,-0.0024999999999999467,-0.002850000000000019,-0.007568620036674245,0.01674942317033956,0.0005353131680236878
150000000000.0,-1,0.6248993513,-2.9141441139999995,0.7547393973,0.13542,1.0029,0.14526,-2.518739986,-9.342795455,1.5930902925000001,-2.1348,1.262,1.6216,0.0008899999999999464,-0.0030000000000001137,-0.0021999999999999797,-0.0022899934019315893,0.00503540040493311,0.011768099998914927
150000000000.0,-1,0.5306672514499999,-3.4326216995,0.8795976650999999,0.11829,0.97746,0.11645,-2.54580634,-9.337794063499999,1.579655182,-2.1262,1.2603,1.6228,0.0009299999999999864,-0.0030999999999998806,-0.0019200000000000328,0.0003362043369656842,0.003927357797163689,0.010045306918966546
150000000000.0,-1,0.40557362404999997,-3.8578380435,0.94568467945,0.094775,0.95956,0.096162,-2.5704210315,-9.333577204,1.5644548745,-2.1176,1.2589,1.6239,0.0008200000000000429,-0.0033000000000000806,-0.0018099999999999783,0.0029539760310159924,0.002601009804344967,0.009200071555170997
150000000000.0,-1,0.20211505649999997,-4.137229501999999,0.9991015019999999,0.063764,0.9449,0.086527,-2.5934666589999997,-9.330144876499999,1.5466067714999998,-2.1085,1.2578,1.6244,0.0010599999999999499,-0.0041999999999999815,-0.0008299999999999974,0.009523556514914322,-0.007870787974519455,0.020854755185482077
150000000000.0,-1,0.03488225405,-4.2238222215,1.0491154169999999,0.045749,0.94295,0.058747,-2.6141586904999996,-9.327693214,1.5266012055,-2.0994,1.257,1.6247,0.000260000000000038,-0.0026999999999999247,-0.0017000000000000348,-0.006903953139058894,0.013423256754699242,-1.159000549200151e-05
150000000000.0,-1,0.0418155556,-4.089569183,1.0896168815,0.056517,0.94395,0.040618,-2.632497126,-9.325731884,1.5066937059999999,-2.0906,1.2563,1.6255,0.0005800000000000249,-0.0035000000000000586,-0.0007699999999999374,0.0007233053732436101,0.001503024249396523,0.009255357424812205
150000000000.0,-1,0.35405929159999994,-3.7699704594999996,1.1231556245,0.089521,0.94047,0.04922,-2.6508355614999997,-9.323378287999999,1.4894340019999999,-2.0827,1.2555,1.627,0.00032999999999994145,-0.0038000000000000256,-0.0002300000000000635,0.0049622645696183465,0.003631361264776034,0.01145470811383098
150000000000.0,-1,0.54461230775,-3.4927364639999996,1.0500960819999998,0.12345,0.92951,0.073849,-2.670939194,-9.319847893999999,1.475312426,-2.0754,1.2544,1.6292,0.0005300000000000304,-0.0035000000000000586,4.999999999999449e-05,-0.0023523814612853577,0.0030182588470832883,0.008334896756830634
150000000000.0,-1,0.7693022725499999,-3.2037344884999994,0.817678477,0.16365,0.90783,0.10918,-2.6937886884999998,-9.314944569,1.4650154434999998,-2.0689,1.2528,1.6319,0.00036000000000002697,-0.0035999999999998256,0.0005800000000000249,0.0012702682246890085,0.001258024208516284,0.008164676873204435
150000000000.0,-1,0.995767241,-2.8064670969999996,0.5250676542999999,0.2156,0.89031,0.14773,-2.7198743774999996,-9.308177980499998,1.4597198525,-2.0634,1.2506,1.6355,0.00027999999999994696,-0.0037000000000000366,0.0011900000000000244,0.005867117312408299,0.001216236314971475,0.009959054826014446
150000000000.0,-1,1.1325700085,-2.2892643759999998,0.31329304755000004,0.26976,0.87811,0.1788,-2.748803995,-9.299646195,1.459425653,-2.0589,1.2479,1.6401,0.000140000000000029,-0.0040999999999999925,0.0009899999999999354,0.0006274226263689453,0.0029229666167482904,0.01008119810395125
150000000000.0,-1,1.226419649,-1.7158695504999997,0.18662054949999998,0.31862,0.86596,0.20346,-2.7798910754999997,-9.2897414785,1.4640347785,-2.0555,1.2447,1.6457,0.00017000000000000348,-0.0041999999999999815,0.0014100000000000223,0.001043294856928778,0.0009590880693521875,0.007945507873052815
150000000000.0,-1,1.3252706810000001,-1.0780450344999999,0.11400230624999999,0.36006,0.85069,0.21209,-2.8120568875,-9.278659964,1.472762697,-2.0532,1.2412,1.6523,0.00019000000000002348,-0.0039000000000000146,0.0020200000000000218,0.0002701088219725367,0.003969404976988056,0.008436491884644015
150000000000.0,-1,1.4173551244999998,-0.4965303028,0.07110801915,0.39731,0.83866,0.21218,-2.844320766,-9.266891983999999,1.4850210095,-2.052,1.2375,1.6599,-3.0000000000085514e-05,-0.0048000000000001375,0.0015800000000000258,0.0004913990412407365,0.0016936801789142475,0.008399715115867679
150000000000.0,-1,1.4832558125,-0.0195740734,0.06332153905,0.42611,0.83311,0.2037,-2.874525248,-9.255124004,1.5001232505,-2.0518,1.2338,1.6685,0.0002500000000000835,-0.0045999999999999375,0.0019199999999999218,-0.00038592638658996314,0.003276951946159068,0.011114142498138913
150000000000.0,-1,1.4863939405,0.34461548764999994,0.04108005685,0.4506,0.81694,0.18882,-2.9048277965,-9.242865691499999,1.5175790875,-2.0522,1.23,1.6777,0.00023999999999990695,-0.004999999999999893,0.0018400000000000638,-0.0008153287972541001,0.0030740178812518337,0.008983596492121215
150000000000.0,-1,1.487472672,0.55357558585,-0.010463695549999999,0.46337,0.803,0.17286,-2.9334632144999997,-9.230607378999999,1.5366039884999998,-2.0533,1.2263,1.6874,0.0001300000000000745,-0.0049000000000001265,0.0019599999999999618,-0.0012219515392788427,0.0023088095541112796,0.007710598963396764
150000000000.0,-1,1.471585899,0.5751992491,-0.0391677601,0.46656,0.79127,0.15581,-2.9604315019999996,-9.2187413325,1.5560211554999999,-2.0547,1.2228,1.6974,3.999999999992898e-05,-0.005300000000000082,0.0019099999999999673,0.0008644865253035761,0.0038148325730673616,0.00918438405709443
150000000000.0,-1,1.4493248035,0.49143084479999993,-0.05971269184999999,0.46228,0.78279,0.14514,-2.986321058,-9.207071419,1.5754383224999997,-2.0562,1.2193,1.7074,0.000180000000000069,-0.005099999999999882,0.0017100000000001003,-0.0009762415453611339,0.0026223163494101254,0.007785659279304191
150000000000.0,-1,1.4793331525,0.3650427396,-0.02170211645,0.45801,0.77644,0.13447,-3.01064155,-9.195891838,1.594365157,-2.0578,1.216,1.7174,0.00032999999999994145,-0.005400000000000071,0.0017399999999999638,-0.0019736417079991853,0.004324789347852409,0.007298431548062201
150000000000.0,-1,1.531994863,0.29341496799999994,0.029135557149999998,0.45693,0.76793,0.12488,-3.0346678424999998,-9.184712257,1.6130958585,-2.0594,1.2127,1.7272,-4.999999999999449e-05,-0.00529999999999986,0.0013699999999999823,-0.0006914887549378523,0.002079049830284063,0.009782605980445114
150000000000.0,-1,1.6108403289999997,0.36628818415,0.01379795655,0.46111,0.75192,0.1153,-3.05771347,-9.1736307425,1.6323168924999998,-2.0612,1.2095,1.7372,6.0000000000060005e-05,-0.005600000000000049,0.0015500000000000513,-0.0010246795797905772,0.0034935623599079424,0.006649017547037728
150000000000.0,-1,1.6772313494999997,0.53912058375,-0.027811659399999997,0.47485,0.72944,0.10576,-3.0797784325,-9.162549228,1.6530089239999999,-2.0634,1.2064,1.7475,-0.000160000000000049,-0.005700000000000038,0.0012799999999999478,-0.00032420691300827365,0.002774376112326671,0.005821143356463443
150000000000.0,-1,1.77108099,0.7290067477,-0.07983593765000001,0.49706,0.69943,0.096245,-3.100666597,-9.151369647,1.6760545515,-2.0663,1.2032,1.7582,2.0000000000020002e-05,-0.005700000000000038,0.0013199999999999878,-0.0008564814467171278,0.002788763120184168,0.00832647695526778
150000000000.0,-1,1.842081136,0.8667705669,-0.1462367648,0.52145,0.66941,0.079262,-3.119691498,-9.1400919995,1.7020421739999998,-2.0702,1.2,1.7697,-0.00041999999999997595,-0.006000000000000005,0.0011400000000000299,0.0004494751733266078,0.0010741621160546,0.004814733609013189
150000000000.0,-1,1.8858187949999998,0.92536530065,-0.21444201555,0.55005,0.63403,0.063363,-3.1369512019999997,-9.128618219,1.7314621239999999,-2.0751,1.1968,1.7819,0.00030999999999992145,-0.005800000000000027,0.0011299999999999644,0.00020462733696557933,0.004092583229773128,0.011017826161239697
150000000000.0,-1,1.9039610974999999,0.8827063731499999,-0.27283080964999995,0.57654,0.59867,0.044258,-3.152053443,-9.1171444385,1.764412468,-2.0811,1.1936,1.7948,-0.00020999999999993246,-0.006099999999999994,0.0010000000000000009,-0.0037805191453310627,0.002592581328139998,0.005384986784728429
150000000000.0,-1,1.899548105,0.7414611931999999,-0.29893611194999997,0.59769,0.56228,0.024078,-3.164802088,-9.1055725915,1.80050094,-2.0881,1.1904,1.8084,-0.000280000000000058,-0.006099999999999994,0.0007700000000000484,-0.0038213660501551505,0.00012897569963010724,0.006741220226563316
150000000000.0,-1,1.8746392139999999,0.5364139483499999,-0.32778727625000004,0.60072,0.52712,0.000662,-3.1750990705,-9.094491076999999,1.8382565425,-2.0956,1.1873,1.8223,0.000200000000000089,-0.006299999999999972,0.0006899999999999684,-0.006419895955729782,0.0018714619818807066,0.006432390360342932
150000000000.0,-1,1.8272730944999998,0.3029470318,-0.33178838945,0.58465,0.49958,-0.030272,-3.1825521244999995,-9.084292161,1.875619879,-2.1033,1.1846,1.8362,7.999999999996898e-05,-0.006299999999999972,0.0006199999999999539,-0.003919399034670867,0.002486184326049745,0.008835134307513481
150000000000.0,-1,1.7470546974999999,0.11247246884999999,-0.32241323205,0.55478,0.47642,-0.068716,-3.1831405234999997,-9.076642974,1.911119952,-2.1115,1.1825,1.8501,-6.0000000000060005e-05,-0.006699999999999928,0.00039000000000000146,-0.0033726753390352915,0.001248527182079906,0.006006918130160299
150000000000.0,-1,1.6556567195,0.00079433865,-0.27873441295,0.51008,0.46085,-0.11573,-3.1826501909999996,-9.069876385499999,1.9437760965,-2.1191,1.1807,1.8633,0.000200000000000089,-0.00670000000000015,0.000320000000000098,-0.001256159710140814,-3.5078273528332815e-05,0.009631153702475803
150000000000.0,-1,1.563376143,-0.06628314735,-0.19871214894999997,0.45367,0.44432,-0.17024,-3.1773545999999997,-9.065659526,1.972117315,-2.1263,1.1796,1.876,-6.0000000000060005e-05,-0.006899999999999906,0.00022999999999995246,-0.006816099124503205,0.000997922432825149,0.003939378114233394
150000000000.0,-1,1.4759008249999999,-0.13914655685,-0.1237010831,0.3866,0.42895,-0.22476,-3.1668614844999996,-9.064286595,1.9948687429999998,-2.1329,1.1792,1.8879,-4.999999999999449e-05,-0.006699999999999928,0.00021000000000004349,-0.0019003712313363508,0.0008489122075012734,0.0057076925021388725
150000000000.0,-1,1.3563577614999998,-0.23907632035,-0.0849059757,0.31205,0.4147,-0.28151,-3.1199856974999998,-9.0769371735,2.011343915,-2.1434,1.1826,1.903,0.00029999999999996696,-0.007000000000000117,0.00018999999999991246,-0.004300784826254178,6.309567541729066e-05,0.005779421796949125
150000000000.0,-1,1.2739819014999998,-0.33624060855,-0.04139386965,0.23757,0.40684,-0.33606,-3.0989014,-9.081840498499998,2.0218370305,-2.1489,1.1839,1.9134,-0.00034000000000000696,-0.007299999999999862,8.000000000008001e-05,-0.003801293402112771,-0.00020936800565363178,0.004464306409406094
150000000000.0,-1,1.221516324,-0.3762811605,0.00626644935,0.17694,0.39887,-0.38632,-3.0730118440000003,-9.089489685499998,2.026838422,-2.1539,1.186,1.9231,0.0001500000000000945,-0.006800000000000139,0.00023999999999990695,-0.0024244949901750523,-0.0016241342381715373,0.0070580855095125905
150000000000.0,-1,1.2151420015,-0.33830981169999996,0.014817848149999998,0.13117,0.38544,-0.43014,-3.0427092955,-9.0994924685,2.0277210205,-2.1586,1.1887,1.9324,2.999999999997449e-05,-0.007299999999999862,0.0002300000000000635,-0.005412969468268081,0.00014868873335993626,0.0070309609983634225
150000000000.0,-1,1.2074928145,-0.24238116139999996,-0.0440318585,0.094852,0.35914,-0.47401,-2.968276822,-9.124499426,2.0256616239999996,-2.1696,1.1956,1.9473,-0.00036000000000002697,-0.007000000000000117,0.00019000000000002348,-0.001064948274165145,-0.001882603803365912,0.002903256714564373
150000000000.0,-1,1.2184762624999999,-0.1261527456,-0.1714006287,0.067082,0.32957,-0.51564,-2.9288540889999997,-9.1379345365,2.0226215625,-2.1752,1.1994,1.9569,-0.00024999999999997247,-0.00770000000000004,0.00021999999999999797,0.003047874700744968,-0.004652630471721153,0.009138502465331433
150000000000.0,-1,1.1990590955,-0.01734796385,-0.287727111,0.050038,0.30631,-0.55832,-2.8850183635,-9.152742578,2.018404703,-2.1813,1.2036,1.9668,-0.0005300000000000304,-0.007199999999999873,0.00029000000000001247,-0.005161694450216858,0.0010292021735527346,0.0011009976483353778
150000000000.0,-1,1.136198469,0.02868445125,-0.32916020724999995,0.033009,0.28625,-0.59888,-2.8369657784999998,-9.168825484,2.013501378,-2.188,1.2082,1.9771,-0.00048000000000003595,-0.007800000000000029,8.999999999992347e-05,0.006607397391690251,-0.008095606124056687,0.006980920163700999
150000000000.0,-1,1.0356803065,-0.005933023249999999,-0.29758279425,0.011731,0.27474,-0.63414,-2.7727322209999996,-9.190498180499999,2.0043811934999995,-2.1967,1.2144,1.9892,-0.00025999999999992696,-0.007400000000000073,0.00040000000000006697,-0.0063585849700789066,-0.0013196318859820533,0.004846824008579498
150000000000.0,-1,0.9638171752999999,-0.08980930069999998,-0.27237970375,-0.017043,0.26222,-0.66085,-2.7177169144999995,-9.208640483,1.9962416739999997,-2.2043,1.2198,2.0001,-0.00043000000000004146,-0.008000000000000007,0.00010999999999994348,0.003442518423530716,-0.005022052074877159,0.004571319515774386
150000000000.0,-1,0.90528128145,-0.1820506506,-0.2508148804,-0.056432,0.25724,-0.68653,-2.6600538124999997,-9.227861517,1.9849640265,-2.2119,1.2255,2.0109,-0.0007000000000000339,-0.007399999999999851,0.000280000000000058,-0.0041445448137247265,-0.004749556985381043,0.002647691326862267
150000000000.0,-1,0.8154327541499999,-0.2764102369,-0.2295736765,-0.095793,0.25971,-0.70582,-2.6004293805,-9.248063215999998,1.9703521179999997,-2.2192,1.2316,2.0214,-8.999999999992347e-05,-0.008099999999999996,0.00021999999999999797,0.0049221592312505,-0.005673578064308904,0.007280689140329866
150000000000.0,-1,0.7219067331,-0.28920791515,-0.20434116605,-0.14264,0.26651,-0.71874,-2.527565971,-9.272972107,1.9478948895,-2.2274,1.2394,2.0328,-0.00038000000000004697,-0.007500000000000062,0.00020999999999993246,-0.000558024127911283,-0.004803956913499885,0.003025541252171804
150000000000.0,-1,0.64970036915,-0.27785181445,-0.17355809169999997,-0.19161,0.27651,-0.72418,-2.4656860094999997,-9.2944486705,1.924456996,-2.2335,1.2462,2.0421,-0.0005499999999999394,-0.008299999999999974,0.000160000000000049,0.0006922683230206061,-0.008187454324978694,0.004523356413402624
150000000000.0,-1,0.5809263326999999,-0.22748486005,-0.1397643758,-0.2385,0.28541,-0.72108,-2.403806048,-9.3164155665,1.8965080435,-2.2388,1.2533,2.0506,-0.00040000000000006697,-0.008000000000000007,0.00020999999999993246,0.003708749218467977,-0.006282700651436102,0.004829498220626283
150000000000.0,-1,0.58154415165,-0.1041073964,-0.11106031124999999,-0.27258,0.3006,-0.70942,-2.342808685,-9.338284395999999,1.8648325639999999,-2.2431,1.2605,2.0583,-0.00034999999999996145,-0.008099999999999996,0.00021000000000004349,0.0004638987506324632,-0.006667262484831626,0.0009890765449380723
150000000000.0,-1,0.59470467595,0.051779111999999995,-0.06173286175,-0.29925,0.31465,-0.68922,-2.280634524,-9.3605454915,1.8298228235,-2.247,1.268,2.0656,-0.0006899999999999684,-0.008500000000000174,0.00021999999999999797,0.00343139245522317,-0.005851468740931454,0.0046830303428617714
150000000000.0,-1,0.6205059720999999,0.19437760964999998,-0.06045799725,-0.31321,0.32219,-0.65937,-2.2221868899999997,-9.381629789,1.7934401519999998,-2.2498,1.2753,2.0719,-9.00000000000345e-05,-0.007699999999999818,0.00029999999999996696,0.001723778884898275,-0.006092512197512168,0.003959943034615998
150000000000.0,-1,0.64411057865,0.2849224091,-0.1032051846,-0.31226,0.32748,-0.62843,-2.166681251,-9.401635355,1.7566652145,-2.2521,1.2824,2.0776,-0.0005699999999999594,-0.008500000000000174,0.000200000000000089,0.003377869415080781,-0.006835003499092496,0.005461265761364853
150000000000.0,-1,0.64520892345,0.2953174581,-0.16039756739999997,-0.3007,0.32842,-0.59212,-2.113921474,-9.4201699235,1.7207728754999998,-2.254,1.2891,2.0831,-0.00047000000000008146,-0.008199999999999985,0.00029999999999996696,0.0006589149928799554,-0.004737830753650307,0.00010260495441660744
150000000000.0,-1,0.6276844398999999,0.22380736629999998,-0.2078421401,-0.28807,0.32934,-0.55474,-2.066261155,-9.436939295,1.6864496005,-2.2553,1.2954,2.0878,-0.0005399999999999849,-0.008599999999999941,5.999999999994898e-05,0.00785719913445626,-0.007798637601457825,0.00874257464796302
150000000000.0,-1,0.5874477549499999,0.12839846845,-0.2038214136,-0.27863,0.33242,-0.51844,-2.0220331635,-9.452433802,1.6530089239999999,-2.2561,1.3012,2.0921,-0.00041999999999997595,-0.008599999999999941,0.00012000000000000899,0.0068451503005027,-0.006422099553202498,0.00240889376442488
150000000000.0,-1,0.5330012341499999,0.0467188806,-0.15999549475,-0.27979,0.34305,-0.48217,-1.9812374994999997,-9.4668495775,1.6198624469999998,-2.2562,1.3068,2.0957,-0.00036999999999998145,-0.008599999999999941,8.000000000008001e-05,0.0007998446696491079,-0.005089191348071731,0.0055785151646357
150000000000.0,-1,0.4566956905,0.04247260115,-0.0999886034,-0.28301,0.36009,-0.4534,-1.9334791139999998,-9.482834417,1.583773975,-2.2571,1.3131,2.1002,-0.00048000000000003595,-0.008700000000000152,6.999999999990347e-05,0.00480262514298424,-0.0049534110731561665,0.0021822931371895393
150000000000.0,-1,0.3995621476,0.17859870979999998,-0.0350881937,-0.28833,0.37822,-0.42889,-1.8979790409999997,-9.4956811285,1.5494507,-2.2554,1.3183,2.1023,-0.00034000000000000696,-0.008999999999999897,-0.00027999999999994696,0.00022764207079584153,-0.008436797569117749,0.005843035909766758
150000000000.0,-1,0.35582448859999993,0.4160961595,0.019436780299999998,-0.28623,0.38671,-0.40756,-1.8647344975,-9.507743308,1.514931292,-2.2531,1.3233,2.1039,-0.0005399999999999849,-0.009100000000000108,-9.999999999998899e-05,0.0055820389974481355,-0.002205668128696603,0.006471787701337162
150000000000.0,-1,0.34895983359999994,0.6147690818499999,0.047856451999999994,-0.28093,0.39623,-0.38515,-1.8335493504999998,-9.5192170885,1.4807060835,-2.2501,1.3281,2.1049,-0.000260000000000038,-0.008899999999999908,-2.999999999997449e-05,0.002706274674102227,-0.003768473568455555,-0.001238224774753105
150000000000.0,-1,0.34026133504999995,0.66358658555,0.04598338184999999,-0.27032,0.40358,-0.36167,-1.802070004,-9.530200536499999,1.4484422049999999,-2.2478,1.3328,2.1066,-0.0005499999999999394,-0.009200000000000097,-4.999999999999449e-05,0.009314701193631425,-0.0032163044606114966,0.004193168024971161
150000000000.0,-1,0.31425409925,0.54135649995,0.0520340849,-0.24693,0.40975,-0.33602,-1.7752978494999998,-9.540007186499999,1.4169628585,-2.2444,1.3371,2.1073,-7.00000000000145e-05,-0.009099999999999886,-0.00039000000000000146,0.0005637418461217347,-0.006286248926568927,0.004712034691648492
150000000000.0,-1,0.2654464022,0.3257180731,0.0805322098,-0.21926,0.41377,-0.31356,-1.7505850914999999,-9.548833171499998,1.3880332409999998,-2.2412,1.341,2.1083,-0.00041999999999997595,-0.009500000000000064,-0.00042000000000008697,0.0010245453193409304,-0.0031859699282361653,0.006421845838707085
150000000000.0,-1,0.2243369254,0.08976026744999999,0.09812533989999998,-0.18524,0.41346,-0.29002,-1.7280297965,-9.556580425,1.3623398179999997,-2.2384,1.3445,2.1097,-0.00019999999999997797,-0.009199999999999875,-0.00032999999999994145,0.0060873396554845804,-0.001274118269207536,0.0033433692017670325
150000000000.0,-1,0.15719079285,-0.23111332055,0.10941279405,-0.15549,0.41106,-0.27077,-1.7005711765,-9.564425745,1.3414516534999998,-2.2387,1.3481,2.1141,-0.0006000000000000449,-0.009400000000000075,-0.000520000000000076,0.001462558377080203,-0.005315021657224195,0.005773127896120389
150000000000.0,-1,0.061713248449999994,-0.58401542745,0.13251726145,-0.12464,0.41185,-0.25044,-1.6815462755,-9.570505868,1.32193642,-2.237,1.3509,2.1166,-0.00014999999999998348,-0.009300000000000086,-0.00040999999999991044,0.005960210562766521,-0.0012967849793268371,0.0019376906552157624
150000000000.0,-1,-0.045581309199999996,-0.97832121065,0.20302707494999997,-0.10337,0.41485,-0.23119,-1.6642865715,-9.575899525499999,1.304676716,-2.2357,1.3534,2.1194,-0.000280000000000058,-0.009700000000000042,-0.0006500000000000394,-0.0006655821752263869,-0.0030736641075865823,0.00499203527505232
150000000000.0,-1,-0.13702832045,-1.314287233,0.29405240025,-0.097076,0.41797,-0.20557,-1.6493804635,-9.580704784,1.2884957435,-2.234,1.3557,2.122,-0.00039000000000000146,-0.009499999999999842,-0.00034999999999996145,0.009655818326058885,-0.0030185230953778674,0.00247454867567809
150000000000.0,-1,-0.17776514455,-1.5705349974999998,0.39957195425,-0.10457,0.4308,-0.17999,-1.636926018,-9.585117776499999,1.2717263719999998,-2.2313,1.3578,2.1236,-7.999999999996898e-05,-0.009500000000000064,-0.0006200000000000649,-0.007180451095350593,-0.00095273783948846,0.005457822558035064
150000000000.0,-1,-0.21048012894999998,-1.728323996,0.48845942984999996,-0.12378,0.44691,-0.1523,-1.6272174345,-9.589236569499999,1.2529956704999998,-2.227,1.3598,2.1237,-0.00024999999999997247,-0.00990000000000002,-0.00019000000000002348,0.009258608645548394,-0.004296177991646166,0.005351519767222035
150000000000.0,-1,-0.1847768993,-1.7652950665,0.5860650173,-0.1451,0.46517,-0.12675,-1.6201566465,-9.593061163,1.2320094394999999,-2.2209,1.3617,2.1222,0.000140000000000029,-0.009600000000000053,-0.00033999999999989594,-0.0026017942812697203,-0.00263144971409357,0.005000982323895675
150000000000.0,-1,-0.1702826706,-1.7368557814999999,0.6527110107,-0.16962,0.48134,-0.10547,-1.6153513879999999,-9.596885756499999,1.2086696124999998,-2.2132,1.3636,2.1192,-0.00024000000000001798,-0.009499999999999842,3.999999999992898e-05,0.0038852262812221205,-0.0003563098005072707,0.0004837202307870214
150000000000.0,-1,-0.17104758929999997,-1.7115546244999997,0.69071177945,-0.18989,0.49108,-0.090579,-1.6122132599999999,-9.6006122835,1.182878123,-2.2038,1.3655,2.1146,-6.500000000009276e-05,-0.009800000000000031,9.00000000000345e-05,0.00033862883990476433,-0.00018005703592405276,0.0055083635397048525
