Time,placement_label,user_acc_x(m/s^2),user_acc_y(m/s^2),user_acc_z(m/s^2),rotation_rate_x(rad/s),rotation_rate_y(rad/s),rotation_rate_z(rad/s),gravity_x(m/s^2),gravity_y(m/s^2),gravity_z(m/s^2),attitude_roll(rad),attitude_pitch(rad),attitude_yaw(rad),target_delta_x,target_delta_y,target_delta_z,target_delta_roll,target_delta_pitch,target_delta_yaw
150000000000.0,1,0.16414370769999997,0.1015184408,0.16593832464999997,-0.000568,0.024198,0.14289,-1.47688149,-9.619342985,1.2070024819999998,-2.256,1.3751,3.117,0.0,0.0,0.0,0.0,0.0,0.0
150000000000.0,1,0.15588650839999998,-0.0019024901,0.17074358315,0.013269,0.013439,0.13226,-1.4900224009999998,-9.6172835885,1.2076889474999999,-2.2519,1.3739,3.1131,0.00024999999999997247,0.00019999999999997797,-0.00017999999999995797,-0.0007995060568319889,-0.00026541804548019243,0.0006654658195242025
150000000000.0,1,0.1591619295,-0.06416491095,0.1379207256,0.034617,0.002627,0.1131,-1.501398115,-9.6151261255,1.2104348095,-2.2493,1.3728,3.1105,0.00022999999999995246,0.00019999999999997797,-0.00017000000000000348,-0.0007967312827550366,-0.00027623330419457304,2.9537080501462754e-06
150000000000.0,1,0.10162631395,-0.09993957015,0.14593275865,0.042121,-0.005941,0.093904,-1.5085569694999998,-9.6131647955,1.2171033315,-2.2497,1.3718,3.1107,0.000280000000000058,0.000300000000000189,-0.00024999999999997247,-0.0007812182049609095,-0.00024376908392298446,-0.00015693007197481457
150000000000.0,1,0.11364926685,-0.08867172929999999,0.15906386299999997,0.047485,-0.015553,0.072583,-1.515911957,-9.6113995985,1.2218105235,-2.2492,1.3709,3.1101,0.00019000000000002348,0.00010000000000021103,-0.0002500000000000835,-0.0013873107985664657,-0.000815362857046642,-0.0008655693236996331
150000000000.0,1,0.1203275955,0.010924608099999998,0.15419976459999998,0.059267,-0.023087,0.051268,-1.5211094815,-9.609928601,1.227596447,-2.2498,1.3701,3.1105,0.00026999999999999247,9.999999999976694e-05,-0.00024999999999997247,-0.002391536933589178,-0.0007601812194431012,0.00042270498114249655
150000000000.0,1,0.12310287745,0.09874315885,0.16289826315,0.068941,-0.027407,0.029945,-1.5241495429999998,-9.60855567,1.2344611019999998,-2.2515,1.3694,3.112,0.00010999999999994348,0.00010000000000021103,-0.00027999999999994696,-0.00017074605545852606,8.232755750237075e-06,-0.00042521155274766187
150000000000.0,1,0.12920261374999997,0.1444715678,0.14726646305,0.075418,-0.03064,0.011807,-1.522972745,-9.6072808055,1.2457387495,-2.2564,1.3688,3.1166,0.000160000000000049,0.00019999999999997797,-0.00021000000000004349,-0.00042146968232015247,-0.000394580151664492,-0.00016950414884386866
150000000000.0,1,0.13545925645,0.11655203524999999,0.12310287745,0.079731,-0.034921,-0.004189,-1.5224824124999998,-9.6063001405,1.2538782689999999,-2.2598,1.3683,3.1196,0.00017000000000000348,9.999999999976694e-05,-0.000160000000000049,-0.0007302782470890445,-0.0011608911642668751,0.0001045826847059228
150000000000.0,1,0.1335861863,0.0757465646,0.10235200605,0.081921,-0.038121,-0.019133,-1.5177752205,-9.605613674999999,1.264861717,-2.2656,1.3679,3.1251,0.00012999999999996348,0.00019999999999997797,-0.00018999999999991246,0.000395011560525127,0.00012481770922101454,-0.0007606535952722204
150000000000.0,1,0.15293470674999998,0.072373077,0.11396307965,0.083027,-0.040253,-0.028746,-1.5114989644999999,-9.605025276,1.2763354974999999,-2.272,1.3677,3.1312,0.00021000000000004349,0.00010000000000021103,-0.0001500000000000945,0.00013376354973804183,-4.050279314804506e-05,3.5484657849416124e-05
150000000000.0,1,0.1702630573,0.09107435855,0.12135729375,0.086286,-0.038144,-0.035161,-1.5042420435,-9.60463301,1.2882015439999999,-2.279,1.3674,3.1378,0.00020999999999993246,9.999999999976694e-05,-8.999999999992347e-05,0.00021776980907528554,-0.0004179152451813106,-0.0004911653250530001
150000000000.0,1,0.1773630719,0.11222730259999998,0.10456830895,0.091689,-0.033922,-0.040509,-1.4963967235,-9.6041426775,1.3002637235,-2.2862,1.3672,-3.1385,0.00014999999999998348,0.00010000000000021103,-0.000160000000000049,-0.0005160455090162941,-0.000766858119127356,4.7459812432482096e-05
150000000000.0,1,0.17660795985,0.07979671105,0.0544857474,0.094905,-0.033948,-0.042651,-1.4883552704999998,-9.6039465445,1.3114433044999998,-2.2931,1.3671,-3.1319,7.00000000000145e-05,4.999999999988347e-05,-9.999999999998899e-05,-0.0009733369052469243,-0.0002499651650254009,-0.00022980816185436126
150000000000.0,1,0.16294729639999997,-0.009169217749999998,0.046679654,0.094914,-0.033949,-0.043731,-1.4802157509999998,-9.603652344999999,1.3222306195,-2.2999,1.367,-3.1253,9.999999999998899e-05,4.999999999988347e-05,-9.999999999998899e-05,-2.9607900214889682e-05,-0.0001658063072023097,0.0005469800459645402
150000000000.0,1,0.14317708999999998,-0.07736466185,0.026085689,0.090653,-0.033915,-0.044818,-1.4722723645,-9.603554278499999,1.3318411364999998,-2.3062,1.3669,-3.1193,0.00010000000000010001,-2.4999999999941735e-05,-7.999999999996898e-05,-0.0003417947555395262,-0.00013694171888900541,0.0004133934227430469
150000000000.0,1,0.11523794414999998,-0.1536505922,0.05010217484999999,0.076846,-0.026344,-0.044866,-1.4648193105,-9.603456212,1.340961321,-2.3121,1.3669,-3.1136,1.999999999990898e-05,-2.4999999999941735e-05,-0.000160000000000049,-0.00016739573975121935,-6.931381064090303e-05,0.0001650969626656451
150000000000.0,1,0.08369975774999999,-0.2240623392,0.08158152134999999,0.067285,-0.020939,-0.043834,-1.4578565889999997,-9.6033581455,1.3491008405,-2.3175,1.3668,-3.1084,3.0000000000085514e-05,-2.4999999999941735e-05,-0.00010999999999994348,-0.00018758543340369194,-0.0004925182655532989,0.0008107661878142824
150000000000.0,1,0.06644986039999999,-0.26507374949999996,0.09074093245,0.054538,-0.012314,-0.040677,-1.4514822665,-9.6033581455,1.3559654955,-2.3222,1.3668,-3.1038,2.999999999997449e-05,-2.4999999999941735e-05,-0.000180000000000069,-0.0004959939352047193,-0.00043061167527946864,-7.712189698416694e-06
150000000000.0,1,0.07607018404999999,-0.24839263785,0.07842378005,0.038579,-0.005792,-0.038589,-1.4454021435,-9.603554278499999,1.3609668869999998,-2.3261,1.3669,-3.0999,4.999999999999449e-05,-5.000000000032756e-05,-0.00015999999999993797,0.00021855088143274415,0.0002181523539712682,0.0004748168738495373
150000000000.0,1,0.0811009955,-0.22485667785,0.05580964515,0.023684,0.003912,-0.031169,-1.4399104194999999,-9.6039465445,1.3642030815000001,-2.3292,1.3671,-3.0967,3.999999999992898e-05,-4.999999999988347e-05,-0.000160000000000049,1.9153790993930997e-05,-0.00012268352566224827,0.00023454508830345056
150000000000.0,1,0.08701440545,-0.18666958274999998,0.050180628049999995,0.006633,0.011501,-0.022681,-1.4353993605,-9.604436877,1.365674079,-2.3313,1.3674,-3.0945,5.0000000000105516e-05,-9.999999999976694e-05,-0.000140000000000029,-9.659352558477607e-05,0.00029846080997231184,-5.607812710861637e-05
150000000000.0,1,0.1025579457,-0.083748791,0.046483521,-0.008247,0.022272,-0.01633,-1.4316728335,-9.605025276,1.365674079,-2.3326,1.3676,-3.0931,2.999999999997449e-05,-0.00019999999999997797,-0.00017000000000000348,0.000436394421782893,0.0003939104987551456,0.0003403364008072174
150000000000.0,1,0.11574788994999999,0.0327345977,0.045169429899999995,-0.01462,0.030839,-0.007825,-1.4288289049999998,-9.6055156085,1.3649876135,-2.3334,1.3679,-3.0921,0.000140000000000029,-0.0001500000000000945,1.0000000000065512e-05,0.00010908123937380942,0.0006371163158713777,0.0007398178582473935
150000000000.0,1,0.1238776028,0.09500682519999999,0.02691925425,-0.016766,0.03298,-0.001436,-1.4267695085,-9.606005941,1.3638108155,-2.3336,1.3681,-3.0915,4.999999999999449e-05,-0.0001500000000000945,-0.00017000000000000348,6.713447611672585e-05,-6.544561104293578e-05,0.0006350055613488781
150000000000.0,1,0.12949681324999998,0.1308991642,0.00222610955,-0.0114,0.039324,0.002824,-1.4252004444999997,-9.606398207,1.3624378844999998,-2.3337,1.3684,-3.0911,0.00013999999999991797,-0.00019999999999997797,-0.00014999999999998348,0.0001858632645099778,-0.00033874712316461775,0.0005773052271333956
150000000000.0,1,0.1596326487,0.12879073445,-0.028066632299999998,-0.00285,0.042446,0.004957,-1.4234352474999998,-9.606790473,1.36116302,-2.3338,1.3686,-3.0906,0.000140000000000029,-0.00019999999999997797,-0.00014999999999998348,-0.0004893467816957653,0.0010006325721412246,0.00047558533478619935
150000000000.0,1,0.1316640829,-0.025301156999999998,-0.020495898499999998,0.012081,0.044447,0.009239,-1.4222584495,-9.606986606,1.3610649535,-2.3342,1.3687,-3.0897,0.00012999999999996348,-9.999999999976694e-05,-8.000000000008001e-05,-0.0005668176547000137,0.0004909392440859417,0.0005915093654769166
150000000000.0,1,0.07948289824999999,-0.25643409084999996,-0.0120033396,0.018461,0.043325,0.011378,-1.4217681169999998,-9.6070846725,1.3612610864999999,-2.3345,1.3687,-3.0891,8.000000000008001e-05,-0.000300000000000189,-7.00000000000145e-05,-0.0005266422282841354,0.0010997312639549062,-0.0004643131582908744
150000000000.0,1,0.0521909913,-0.34597861199999996,-0.03282285755,0.016344,0.046536,0.012429,-1.4216700504999997,-9.607182738999999,1.3606726875000001,-2.3343,1.3688,-3.0888,0.00018999999999991246,-0.00019999999999997797,-7.999999999996898e-05,-0.00012231050623801032,0.0005249559498092804,0.0007607534733746757
150000000000.0,1,0.05386792844999999,-0.26686836645,-0.01893664115,0.01853,0.053974,0.01348,-1.4219642499999998,-9.6070846725,1.3607707539999998,-2.3342,1.3687,-3.0884,0.000140000000000029,-0.00019999999999997797,-0.00010999999999994348,0.00011982962120793417,0.0011107878035061525,0.0005731232512120599
150000000000.0,1,0.08390569739999999,-0.08828926995,-0.0146315218,0.02812,0.053891,0.015625,-1.4224545825000001,-9.6068885395,1.361947552,-2.3345,1.3686,-3.0876,0.0001300000000000745,-0.000300000000000189,-9.00000000000345e-05,-0.00046563179675329636,0.00032668404499469617,0.0005921231122694159
150000000000.0,1,0.10941279405,0.05579003184999999,-0.013954862949999999,0.036649,0.05701,0.022031,-1.4232391145,-9.606398207,1.3643992145,-2.3351,1.3684,-3.0864,0.00021999999999999797,-0.0002999999999997449,-0.00014999999999998348,-3.40925471631337e-06,0.00032349347924531813,0.00099530800635117
150000000000.0,1,0.12020010905,0.05896738645,-0.03686319735,0.038743,0.058047,0.031632,-1.4247101119999999,-9.605809807999998,1.3668508769999999,-2.3355,1.3681,-3.0854,0.00017999999999995797,-0.00019999999999997797,-0.000140000000000029,0.00019716472684172537,0.0010358338917906273,0.0009811892550406487
150000000000.0,1,0.12918300045,-0.0089828914,-0.0639981979,0.035537,0.059134,0.03375,-1.4263772424999999,-9.605417542,1.368419941,-2.3354,1.3678,-3.0849,4.999999999999449e-05,-0.000500000000000167,-0.00024000000000001798,-0.0002873451554772366,0.0009542037036254225,-7.116624607839128e-05
150000000000.0,1,0.1021656797,-0.04159000265,-0.07595250425,0.038711,0.060164,0.04015,-1.4290250379999998,-9.604829143,1.3696948054999998,-2.335,1.3676,-3.0847,0.000140000000000029,-0.000300000000000189,-0.00019000000000002348,0.00014101078851824767,0.0013998031887672013,0.0003379185531220408
150000000000.0,1,0.0934377612,-0.054632847150000004,-0.046856173699999996,0.044044,0.062247,0.043351,-1.4320650995,-9.604044610999999,1.3718522684999999,-2.3347,1.3672,-3.0844,0.00018999999999991246,-0.0002999999999997449,-0.00017999999999995797,-0.00036300947362133407,0.00040318213382306567,0.0008193209807070279
150000000000.0,1,0.05662359709999999,-0.0564078508,-0.021849216199999997,0.047261,0.06435,0.043348,-1.4359877595,-9.6029658795,1.3749903964999999,-2.3345,1.3666,-3.0839,9.00000000000345e-05,-0.000500000000000167,-0.00010999999999994348,-0.0011796667672354655,0.0008874712761222092,0.0009195460054323146
150000000000.0,1,0.0496020357,-0.04011900515,-0.05100438665,0.051515,0.064312,0.045486,-1.4403026854999998,-9.601887148,1.378030458,-2.3341,1.3661,-3.0837,0.00019000000000002348,-0.00039999999999995595,-0.00012000000000000899,1.2543047401392116e-05,3.876845123151895e-06,0.0007350840240005763
150000000000.0,1,0.0526420972,-0.048994023399999996,-0.0835918846,0.051474,0.064302,0.052953,-1.4452060105,-9.6008084165,1.3804821205,-2.3333,1.3656,-3.0839,7.999999999996898e-05,-0.00039999999999995595,-0.000140000000000029,0.0013507191009596298,8.358381616990762e-05,4.245925360590874e-05
150000000000.0,1,0.052014471599999994,-0.05853589385,-0.07185332455,0.051463,0.065363,0.056149,-1.450403535,-9.5996316185,1.383129916,-2.3325,1.365,-3.0841,0.000260000000000038,-0.00019999999999997797,-4.499999999996174e-05,-0.0007298911439082012,0.0006733643320919747,0.0007338417822113641
150000000000.0,1,0.051131873099999996,-0.0244773984,-0.0819443674,0.054647,0.066397,0.060419,-1.4560913919999998,-9.598454820499999,1.385875778,-2.3315,1.3644,-3.0844,0.00022999999999995246,-0.00039999999999995595,-4.500000000007276e-05,0.00039791183408066644,2.1406368257315123e-05,0.0009639116876050124
150000000000.0,1,0.060614903649999996,0.010973641349999999,-0.07495222594999999,0.053542,0.065333,0.065751,-1.4622695814999997,-9.5970818895,1.3887197065,-2.3304,1.3637,-3.0848,0.00021000000000004349,-0.00019999999999997797,-9.999999999998899e-05,0.00029810635813576347,0.0002929790151191547,0.00012209997804091266
150000000000.0,1,0.05687856999999999,0.0025889556,-0.08167958784999999,0.050327,0.065356,0.067877,-1.4687419704999998,-9.5957089585,1.3912694355,-2.3291,1.363,-3.0854,0.00024000000000001798,-0.00039999999999995595,-7.999999999996898e-05,0.0002048668328713532,0.00027785739114105645,0.0010631458548235884
150000000000.0,1,0.0377556025,-0.0501904347,-0.08409202375,0.041778,0.065423,0.069993,-1.4756066254999998,-9.594434094,1.392936566,-2.3274,1.3624,-3.0865,9.999999999998899e-05,-0.00039999999999995595,-7.999999999996898e-05,0.0008309151314007668,0.0003940619735196549,-0.000750020604766588
150000000000.0,1,0.011513007099999998,-0.14467750745,-0.07672722959999999,0.026848,0.065546,0.06783,-1.482569347,-9.593257295999999,1.3932307655,-2.3251,1.3618,-3.0881,0.00010999999999994348,-0.00039999999999995595,2.999999999997449e-05,0.001448327381533998,0.0010521999968295948,-0.00030754703198998534
150000000000.0,1,-0.024320492,-0.17193999445,-0.05378947525,0.018314,0.063489,0.063548,-1.4898262679999998,-9.5921785645,1.392936566,-2.3226,1.3613,-3.0901,0.000200000000000089,-0.00040000000000040004,0.00012000000000000899,-0.0009882426180456427,0.0002492519151564565,0.0013319871942685246
150000000000.0,1,-0.06653812025,-0.17496044265,-0.0252227038,0.010862,0.064618,0.061401,-1.497279322,-9.591099833,1.392348167,-2.3199,1.3608,-3.0922,0.00014999999999998348,-0.0004999999999997229,-6.0000000000060005e-05,1.8469389501118982e-05,0.00046834237462412,0.00011541595561159745
150000000000.0,1,-0.07754118155,-0.12506420745,-0.00397169325,0.004542,0.068943,0.05178,-1.5044381765,-9.590119168,1.391367502,-2.3172,1.3603,-3.0942,0.00015999999999993797,-0.000300000000000189,-2.999999999997449e-05,0.00011322395905533078,0.00026870295946590517,-0.0011150077966302074
150000000000.0,1,-0.051023999949999996,-0.0870438254,-0.01579851315,0.009837,0.061444,0.047535,-1.5107144325,-9.589236569499999,1.3906810364999997,-2.3148,1.3599,-3.0959,0.00021999999999999797,-0.00039999999999995595,-5.999999999994898e-05,0.0008101899716994598,0.00034621546655921875,-0.0001254149530895976
150000000000.0,1,-0.0497981687,-0.1355082897,-0.0168282114,0.011914,0.053969,0.046486,-1.5165984225,-9.588353971,1.3903868369999999,-2.3128,1.3594,-3.0974,0.00021999999999999797,-0.0002999999999997449,8.999999999992347e-05,0.0006127701353892956,0.000372228574290423,0.00037891468929207583
150000000000.0,1,-0.02695848085,-0.1177974798,-0.040207265,0.011899,0.049711,0.042224,-1.5215998139999998,-9.5876675055,1.389602305,-2.3109,1.3591,-3.0988,0.000200000000000089,-0.000300000000000189,1.0000000000065512e-05,0.0008201181831739568,0.0003429684720877013,0.00019672215975896634
150000000000.0,1,-0.00640374245,-0.05607442469999999,-0.03853032785,0.013998,0.044367,0.040102,-1.5262089394999998,-9.58698104,1.3893081054999998,-2.3093,1.3588,-3.1,0.00021999999999999797,-0.000300000000000189,7.00000000000145e-05,0.0003690825764917083,0.00036091371648971915,0.0006029161489100598
150000000000.0,1,-0.0048640984,-0.129251647,0.006688135299999999,0.017158,0.03795,0.037983,-1.530229666,-9.5862945745,1.389994571,-2.3082,1.3584,-3.1007,0.00023999999999990695,-0.0002999999999997449,0.00014999999999998348,-0.00010147834655938048,0.0007783679648274422,0.001008482411146927
150000000000.0,1,-0.0167889848,-0.17676486624999999,0.0301848687,0.006492,0.036974,0.035831,-1.5340542595,-9.585608108999999,1.3904849035,-2.3071,1.3581,-3.1014,0.00021000000000004349,-0.00039999999999995595,2.999999999997449e-05,0.001549636181713332,-0.00046415082642115024,-8.18648529277155e-06
150000000000.0,1,-0.03070462115,-0.1477273756,0.01372931,-0.004193,0.03174,0.030485,-1.5376827199999998,-9.585117776499999,1.389602305,-2.3057,1.3579,-3.1026,0.00017999999999995797,-0.000300000000000189,4.999999999999449e-05,0.001363584439252996,-0.00018176856938789676,1.6050148410329257e-07
150000000000.0,1,-0.031165533699999998,-0.09615420324999999,0.037814442399999995,-0.012687,0.032882,0.024065,-1.5409189144999997,-9.584823577,1.388425507,-2.3042,1.3577,-3.1037,0.000280000000000058,-0.0002999999999997449,0.000160000000000049,0.0012013027907384899,0.0009164105522807553,-0.0007640390538259378
150000000000.0,1,-0.02293775435,-0.06324308584999999,0.0645865969,-0.016927,0.033987,0.020855,-1.5437628429999999,-9.5845293775,1.3873467755,-2.3029,1.3575,-3.1047,0.00020999999999993246,-0.000300000000000189,3.999999999992898e-05,-3.3596129442203804e-05,-0.0010973908638514107,-5.525522709493025e-05
150000000000.0,1,-0.012366185649999998,-0.048484077599999995,0.0683131239,-0.016932,0.02973,0.015526,-1.545920306,-9.5843332445,1.3862680440000001,-2.3018,1.3574,-3.1055,0.0001100000000000545,-0.00019999999999997797,0.00017000000000000348,9.70884903297442e-05,-0.000509025481625347,-4.026590030581367e-05
150000000000.0,1,-0.012944777999999999,-0.0684308037,0.05141626595,-0.01584,0.028663,0.009126,-1.5474893699999999,-9.584235177999998,1.3849931795,-2.3008,1.3574,-3.1062,4.499999999996174e-05,-0.000300000000000189,0.00012000000000000899,-0.001113365223116336,-0.0008664741900412665,0.00046363016400352564
150000000000.0,1,-0.04319829325,-0.10517632125,0.02103526425,-0.013711,0.023325,0.001668,-1.548666168,-9.5843332445,1.383129916,-2.2998,1.3574,-3.107,4.500000000007276e-05,-0.0002999999999997449,0.00014999999999998348,0.0005151780627921099,-0.0009367285014683091,-0.00020753066745582416
150000000000.0,1,-0.0592125527,-0.09650724265,0.0074040207499999995,-0.012628,0.020129,-0.006861,-1.549254567,-9.584431311,1.381560852,-2.299,1.3575,-3.1076,1.999999999990898e-05,-0.000300000000000189,9.00000000000345e-05,-0.0006630086306880223,-0.0009726546773274336,-0.00011835211753385977
150000000000.0,1,-0.054662267099999995,-0.06653812025,0.022104189099999998,-0.010482,0.016923,-0.01432,-1.5490584339999998,-9.584627443999999,1.3804821205,-2.2987,1.3576,-3.1077,0.000140000000000029,-0.0002999999999997449,0.00017999999999995797,0.0011473465736264732,5.774993224716418e-05,0.0006012087907147912
150000000000.0,1,-0.058173047799999995,-0.06594972125,0.04423779815,-0.013639,0.016958,-0.022862,-1.5480777689999998,-9.5849216435,1.379599522,-2.2987,1.3577,-3.1075,0.0001100000000000545,-0.00019999999999997797,0.000200000000000089,0.0008385337282090788,0.00015055813506603677,0.00015603826778143315
150000000000.0,1,-0.06276256,-0.1036759038,0.0710393726,-0.02322,0.015978,-0.028211,-1.5464106384999998,-9.5853139095,1.3783246575,-2.2988,1.358,-3.1073,0.00012999999999996348,-0.00039999999999995595,0.00014999999999998348,0.0012299951644521023,-0.001117149257805261,-0.00011884609205292662
150000000000.0,1,-0.0741578873,-0.15193442845,0.07081381965,-0.032819,0.012866,-0.033556,-1.544351242,-9.586000375,1.376069128,-2.2986,1.3583,-3.1073,9.00000000000345e-05,-0.00020000000000042206,0.00012000000000000899,0.0011154849253409704,-0.00014069711177810973,-0.0001536324739250805
150000000000.0,1,-0.08329768509999999,-0.19879060215,0.0721573307,-0.044533,0.014031,-0.03571,-1.5418995795,-9.5868829735,1.3726368005,-2.2982,1.3587,-3.1077,7.00000000000145e-05,-0.0002999999999997449,0.00013999999999991797,0.0026195515692817306,-0.00022890713688217268,-1.6407765947468178e-05
150000000000.0,1,-0.07882585269999999,-0.21547171379999996,0.08714189189999999,-0.060521,0.013102,-0.040003,-1.539055651,-9.5880597715,1.3679296085,-2.2974,1.3593,-3.1083,8.999999999992347e-05,-0.000300000000000189,0.000160000000000049,0.00025096736135421516,-0.0007862470803507993,0.0007160543571400613
150000000000.0,1,-0.0742363405,-0.15726924604999998,0.1052645811,-0.077543,0.017508,-0.042172,-1.5360155894999998,-9.589334636,1.361947552,-2.2962,1.3599,-3.1094,-9.99999999995449e-06,-0.0002999999999997449,9.00000000000345e-05,0.0003990281715471333,-0.000157734897643369,-0.00038283334836952676
150000000000.0,1,-0.06922514234999999,-0.09507547175,0.12318133064999999,-0.090298,0.022942,-0.042201,-1.5330735944999998,-9.5908056335,1.355082897,-2.2946,1.3606,-3.1108,0.00012999999999996348,-0.00010000000000021103,0.00015999999999993797,0.0010001014658065355,-0.0006318057796752541,0.0008800486007782826
150000000000.0,1,-0.07688413599999999,-0.00987529655,0.09791940025,-0.097752,0.023007,-0.044344,-1.5304257989999999,-9.592374697499999,1.3471395105,-2.2926,1.3614,-3.1127,0.0001100000000000545,-0.00019999999999997797,0.00017000000000000348,0.0013165750746697569,-0.0006567751171233649,0.0010985531608240784
150000000000.0,1,-0.07563869145,0.07931618519999999,0.06886229629999999,-0.098763,0.026218,-0.049683,-1.5275818705,-9.594041828,1.3385096585,-2.2903,1.3622,-3.1147,2.999999999997449e-05,-9.999999999976694e-05,0.0002300000000000635,-0.00048526456855513267,-0.0002082496684732149,0.000588609703476406
150000000000.0,1,-0.07701162245,0.15238553435,0.04989623519999999,-0.097664,0.027281,-0.053946,-1.5245418089999998,-9.5957089585,1.3297817399999998,-2.2881,1.363,-3.1168,9.00000000000345e-05,-0.00019999999999997797,0.00010999999999994348,0.0010449429023302592,-0.0007482938231282432,0.0009439488336382418
150000000000.0,1,-0.0695683751,0.20371354044999998,0.047503412599999996,-0.091256,0.025102,-0.058194,-1.521207548,-9.597376088999999,1.3216422205,-2.2861,1.3638,-3.1185,0.00013999999999991797,-0.00010000000000021103,0.00021999999999999797,0.0005156351479109755,-0.00041857355632157756,0.0006903671770410735
150000000000.0,1,-0.0817090078,0.15222862795,0.0370887503,-0.081627,0.026093,-0.061375,-1.5174810209999998,-9.598945152999999,1.3141891664999998,-2.2845,1.3646,-3.1198,9.999999999998899e-05,-9.999999999976694e-05,9.00000000000345e-05,0.00033407802718610213,-0.0008336397786514738,0.0006625360368825994
150000000000.0,1,-0.09286897549999999,0.06606740105,0.027831272699999996,-0.077358,0.022868,-0.066693,-1.5131660949999999,-9.60071035,1.3068341789999998,-2.2831,1.3655,-3.121,0.0001300000000000745,-0.00010000000000021103,5.999999999994898e-05,0.0013653890326332796,-0.0007031977801665867,0.000286198437828622
150000000000.0,1,-0.12941836005,-0.03880491404999999,0.043580752599999995,-0.075199,0.021793,-0.073084,-1.508655036,-9.6023774805,1.2996753245000001,-2.2819,1.3663,-3.122,7.00000000000145e-05,-0.00019999999999997797,2.999999999997449e-05,-0.0006428788014933851,-0.0008272057072513661,-0.0005487763426752501
150000000000.0,1,-0.1696746583,-0.09503624514999999,0.07958096475,-0.06878,0.021745,-0.076265,-1.5041439769999998,-9.603848478,1.293693268,-2.2811,1.3671,-3.1226,0.00014999999999998348,-0.00010000000000021103,4.0000000000040004e-05,0.0005670817100318359,-0.0012099475452249653,0.0010512429705169524
150000000000.0,1,-0.16615407094999998,-0.06875442315,0.0877106776,-0.062335,0.024894,-0.079452,-1.4994367849999999,-9.605319475499998,1.2883976769999999,-2.2806,1.3678,-3.1228,0.00019999999999997797,-9.999999999976694e-05,4.999999999999449e-05,0.00018289735348187008,-0.0006010502207385304,0.0009640358567777341
150000000000.0,1,-0.14210816515,0.010414662299999999,0.0963797562,-0.054846,0.026965,-0.079434,-1.4944353934999999,-9.606692406499999,1.284082751,-2.2806,1.3685,-3.1226,0.00017999999999995797,-0.00010000000000021103,9.00000000000345e-05,-0.0002205085152009456,-0.0004925285705952298,0.0011297745525291614
150000000000.0,1,-0.11510065104999999,0.11755231354999998,0.0845137097,-0.043125,0.025803,-0.077269,-1.4894340019999999,-9.6078692045,1.2809446230000001,-2.2811,1.3691,-3.1218,-6.999999999990347e-05,-0.00019999999999997797,-7.00000000000145e-05,-0.0007912609487479294,-0.0006509561442500367,0.00040239488229865117
150000000000.0,1,-0.08424893015,0.19284777224999997,0.05008256155,-0.032453,0.027844,-0.074045,-1.4845306769999997,-9.608947936,1.2785910269999998,-2.2818,1.3697,-3.1208,2.999999999997449e-05,-9.999999999976694e-05,7.999999999996898e-05,0.0008547913717511513,1.6385045417122157e-05,0.00014911718446786182
150000000000.0,1,-0.06540054884999999,0.2764102369,0.0393442798,-0.023942,0.025641,-0.071885,-1.4797254185,-9.609928601,1.27682583,-2.2827,1.3701,-3.1195,-4.0000000000040004e-05,-0.00010000000000021103,6.0000000000060005e-05,0.00041406055017656485,-0.0008153376038535498,-0.00029447485434141996
150000000000.0,1,-0.0587614468,0.31323420764999993,0.04564995575,-0.015386,0.029831,-0.068669,-1.475312426,-9.610713132999999,1.276237431,-2.284,1.3705,-3.118,2.0000000000020002e-05,-9.999999999976694e-05,0.00014999999999998348,0.0008775590549525702,0.0005019138842354831,0.0009184564969619835
150000000000.0,1,-0.05950675219999999,0.30052478925,0.0515241391,-0.010043,0.03298,-0.064389,-1.4712916994999998,-9.611301531999999,1.2763354974999999,-2.2854,1.3709,-3.1162,-4.999999999999449e-05,-0.00010000000000021103,7.999999999996898e-05,0.0014404125673472823,5.4524710087822115e-05,0.0004211088484724623
150000000000.0,1,-0.08223856689999999,0.19777071055,0.06579281484999999,-0.006809,0.039344,-0.060119,-1.4676632389999997,-9.611791864499999,1.2767277634999998,-2.2867,1.3711,-3.1144,-2.999999999997449e-05,-9.999999999976694e-05,7.999999999996898e-05,0.00028964015623667017,-7.617203498111458e-05,0.0002501075947682896
150000000000.0,1,-0.12199472599999998,0.00995374975,0.07762944139999998,-0.008941,0.042554,-0.054783,-1.4649173770000001,-9.6121841305,1.2767277634999998,-2.2877,1.3713,-3.1131,-3.0000000000085514e-05,-0.00019999999999997797,3.0000000000085514e-05,0.0010495799329264255,0.0004584353581649214,-2.6793120603274545e-05
150000000000.0,1,-0.15473913035,-0.16931181224999997,0.1113643174,-0.021766,0.042656,-0.049461,-1.4626618475,-9.612674463,1.2759432314999999,-2.2881,1.3716,-3.1122,-6.999999999990347e-05,-0.00010000000000021103,9.99999999995449e-06,-0.0002242887455110587,0.00042371361382631534,-0.00016358954111894697
150000000000.0,1,-0.16674246995,-0.2630535796,0.14685458375,-0.038792,0.05238,-0.042029,-1.46119085,-9.6131647955,1.273687702,-2.2877,1.3718,-3.1121,1.999999999990898e-05,-9.999999999976694e-05,2.999999999997449e-05,0.0006089363098769063,0.0004128774049199091,0.0008065949619684432
150000000000.0,1,-0.14785486204999998,-0.2598566117,0.20327224119999998,-0.053692,0.062083,-0.032459,-1.4603082514999999,-9.613655128,1.2708437735,-2.2869,1.3721,-3.1123,-2.999999999997449e-05,-0.00019999999999997797,2.999999999997449e-05,-0.00016306997770931808,0.000667914813227366,0.00034921996776193787
150000000000.0,1,-0.1211513541,-0.17043957699999998,0.22718085389999998,-0.056902,0.068488,-0.018596,-1.4605043845,-9.614047394,1.2677056455,-2.2856,1.3723,-3.113,0.00012000000000000899,-0.00019999999999997797,8.000000000008001e-05,0.0003792964226891904,-0.00016888965959394042,0.0013189450109711842
150000000000.0,1,-0.07375581465,-0.0424235679,0.19478948894999998,-0.051603,0.071626,-0.004713,-1.4616811824999998,-9.614243527,1.2646655839999998,-2.284,1.3724,-3.1139,-5.999999999994898e-05,-0.00010000000000021103,-4.0000000000040004e-05,-0.00133358825545149,0.0012077150883402776,-0.00013499824631169055
150000000000.0,1,-0.01897586775,0.06081103665,0.14068620089999997,-0.035687,0.07041,0.012396,-1.463740579,-9.614243527,1.262311988,-2.2824,1.3724,-3.1149,9.99999999995449e-06,-0.00010000000000021103,1.0000000000065512e-05,-0.00018387306423828242,0.0010919688654196236,0.00068054771243653
150000000000.0,1,0.015474893699999999,0.11443379885,0.0872203451,-0.018674,0.069192,0.023101,-1.4666825739999998,-9.614047394,1.2608409904999998,-2.2809,1.3723,-3.1157,-1.4999999999987246e-05,-9.999999999976694e-05,6.999999999990347e-05,-0.0005058724921973567,0.0012066575321736384,0.0008662864338757625
150000000000.0,1,0.0208685512,0.13271339445,0.05520163285,0.000463,0.066891,0.033811,-1.470605234,-9.613458994999998,1.260742924,-2.2795,1.372,-3.1165,-1.4999999999987246e-05,-0.00019999999999997797,1.0000000000065512e-05,-8.375282728922961e-05,0.0007133168398349987,0.0003673128879693177
150000000000.0,1,0.0025105023999999997,0.08041453,0.05918313275,0.018546,0.065666,0.043452,-1.475508559,-9.612478329999998,1.262311988,-2.2785,1.3715,-3.1169,2.0000000000020002e-05,-0.00010000000000021103,9.99999999995449e-06,-0.0005577641616090201,0.00032731744193204015,0.000732937997198535
150000000000.0,1,0.0046679654,0.027262487,0.059791145049999994,0.035564,0.061258,0.047758,-1.4808041499999998,-9.611301531999999,1.2654501159999998,-2.2779,1.3708,-3.1168,-1.0000000000065512e-05,-9.999999999976694e-05,-2.999999999997449e-05,0.000385491091217105,0.0012341426575939174,0.0008166692451534452
150000000000.0,1,-0.00436395925,0.00526617105,0.06344902549999999,0.050479,0.060066,0.050988,-1.4865900735,-9.609732467999999,1.269961175,-2.2778,1.3701,-3.1164,-0.00010999999999994348,-0.00019999999999997797,-9.00000000000345e-05,-0.00214459611265716,0.0003178593717934053,0.0009223811697036677
150000000000.0,1,-0.014405968849999999,-0.010473502199999998,0.06778356479999999,0.057919,0.056806,0.052075,-1.4925721299999999,-9.6080653375,1.275649032,-2.278,1.3692,-3.1156,-4.999999999999449e-05,-0.00010000000000021103,-7.999999999996898e-05,-0.0006127150894095212,0.0006667468025118861,0.0007147565927454469
150000000000.0,1,-0.027262487,-0.0204174453,0.06475330995,0.057924,0.055743,0.049943,-1.4985541864999998,-9.606398207,1.2815330219999999,-2.2783,1.3683,-3.1147,7.999999999996898e-05,-0.00019999999999997797,-9.99999999995449e-06,-0.00016032070044835756,0.0002365052289277081,0.0007570441997784005
150000000000.0,1,-0.0360688587,0.020338992099999998,0.08152268144999998,0.05366,0.055778,0.049938,-1.5047323759999998,-9.60463301,1.2873189454999998,-2.2785,1.3675,-3.114,-2.999999999997449e-05,-9.999999999976694e-05,-8.000000000008001e-05,-0.0008761797424281514,0.0006927714247226824,0.0006256342011849991
150000000000.0,1,-0.01836785545,0.09251593609999999,0.0824739265,0.052629,0.058984,0.048864,-1.510812499,-9.602867813,1.293301002,-2.2788,1.3666,-3.1131,-3.0000000000085514e-05,-0.00010000000000021103,-0.00015999999999993797,-0.0010519252641583154,0.0003238555704929702,0.0001572487660055355
150000000000.0,1,0.014405968849999999,0.15481758354999997,0.09802727339999999,0.055849,0.060022,0.0478,-1.516304223,-9.601102616,1.2997733909999998,-2.2794,1.3657,-3.1118,-1.999999999990898e-05,-9.999999999976694e-05,-0.00012000000000000899,-0.0004987322335354705,0.00042798275251088036,0.0003975279797794329
150000000000.0,1,0.06271352675,0.1854829781,0.0815521014,0.056894,0.057878,0.049937,-1.521207548,-9.599533551999999,1.3061477135,-2.2803,1.3649,-3.1104,1.999999999990898e-05,-0.00019999999999997797,-0.000160000000000049,-0.0013326356257317151,0.0003990307600534315,0.00028517831628649404
150000000000.0,1,0.07794325419999999,0.19384805054999998,0.048258524649999995,0.065393,0.053543,0.051023,-1.5260128064999998,-9.5978664215,1.3128162354999997,-2.2813,1.3641,-3.1089,4.0000000000040004e-05,-0.00019999999999997797,-0.00017999999999995797,-0.0009126288231715574,-0.0002314160377543395,0.0003564953244594715
150000000000.0,1,0.06800911775,0.20564545049999997,0.02644853505,0.080312,0.050222,0.049985,-1.5308180649999998,-9.596003157999998,1.3204654224999999,-2.2825,1.3632,-3.1071,2.0000000000020002e-05,-0.00019999999999997797,-0.000140000000000029,-0.0021985729259290654,0.0005624444284704211,2.230464636077123e-05
150000000000.0,1,0.06449833705,0.21807047605,0.0018240368999999999,0.096313,0.046897,0.045746,-1.5354271904999999,-9.594041828,1.3291933409999999,-2.2843,1.3622,-3.1048,-4.0000000000040004e-05,-0.00020000000000042206,-0.00017000000000000348,-0.0017511642462628707,-0.00028959838605224775,0.001098587984802002
150000000000.0,1,0.06261546024999999,0.1673210623,-0.01240541225,0.11656,0.042469,0.043652,-1.53964405,-9.5919824315,1.3395883899999999,-2.2868,1.3612,-3.1018,-2.0000000000020002e-05,-0.00019999999999997797,-0.00012999999999996348,-0.0024212655380568826,0.00017542478174448206,5.468156230081789e-05
150000000000.0,1,0.06088948985,0.0956736774,-0.043698432399999994,0.13145,0.034889,0.041553,-1.5434686435,-9.589726901999999,1.3509641039999998,-2.2898,1.3601,-3.0984,-1.999999999990898e-05,-0.00019999999999997797,-0.000160000000000049,-6.66978808629981e-05,2.530022259783493e-05,0.0005574484308643601
150000000000.0,1,0.06275275335,0.06365496514999999,-0.08306232549999999,0.1421,0.03267,0.040505,-1.5469990375,-9.5874713725,1.362732084,-2.293,1.359,-3.0948,-1.0000000000065512e-05,-0.00019999999999997797,-0.00014999999999998348,-0.0007785067668351076,-0.0001416154744890985,0.0006076314838172614
150000000000.0,1,0.07295166935,0.0661360476,-0.08460196954999999,0.15169,0.030461,0.039455,-1.5501371654999998,-9.585215842999999,1.3753826625,-2.2965,1.3579,-3.0908,-9.999999999998899e-05,-0.00019999999999997797,-0.00017999999999995797,-0.0006835585227240593,0.0005874574253674769,0.0004616466544238307
150000000000.0,1,0.07669780964999999,0.0083552658,-0.0628213999,0.15274,0.029385,0.039454,-1.553177227,-9.5827641805,1.3887197065,-2.3004,1.3567,-3.0866,9.00000000000345e-05,-0.00019999999999997797,-0.0001100000000000545,-0.0012333341923724817,0.0013192171401679165,0.0008782120282657679
150000000000.0,1,0.0726280499,-0.0865534929,-0.06037954405,0.1453,0.032642,0.03943,-1.5560211554999999,-9.580508651,1.4012722184999997,-2.3039,1.3556,-3.0826,7.00000000000145e-05,-0.0002999999999997449,-0.00014999999999998348,-0.0013292373853914796,0.0005261998143599733,0.0009059827951403143
150000000000.0,1,0.058486860599999996,-0.15226785454999997,-0.06035993075,0.13143,0.032756,0.039401,-1.5588650839999998,-9.578351188,1.4124517994999999,-2.307,1.3546,-3.0792,4.999999999999449e-05,-0.00019999999999997797,-0.00017000000000000348,-0.0015846081476476037,0.0012930747757273764,0.0007760157054867989
150000000000.0,1,0.05905564629999999,-0.17192038115,-0.06035993075,0.12078,0.038167,0.04257,-1.562003212,-9.576389858,1.4225526489999998,-2.3095,1.3537,-3.0762,7.00000000000145e-05,-0.00040000000000040004,-0.00024999999999997247,-0.0011383726747815626,0.00042850255810256144,0.0003941607550770332
150000000000.0,1,0.07567791805,-0.1532387129,-0.0647435033,0.10804,0.047858,0.045727,-1.565337473,-9.5745265945,1.4310844345,-2.3114,1.3528,-3.0738,9.99999999995449e-06,-0.0002999999999997449,-0.00014999999999998348,-0.0003387650963022626,0.0013108059278386097,0.00018829304853551498
150000000000.0,1,0.10358764394999999,-0.10170476715,-0.0771783355,0.10058,0.05324,0.051034,-1.568867867,-9.572761397499999,1.4388316879999998,-2.313,1.352,-3.0716,0.00014999999999998348,-0.000300000000000189,-0.00019999999999997797,-0.000974329959208653,0.0010571836763124676,2.2224572390872055e-05
150000000000.0,1,0.13430207175,-0.035794272499999995,-0.10345035084999998,0.094168,0.054353,0.054215,-1.5724963275,-9.571192333499999,1.4454021435,-2.3141,1.3512,-3.07,1.0000000000065512e-05,-0.0002999999999997449,-0.000160000000000049,-0.0008188746599493424,0.000721094640504294,0.0016788374996272726
150000000000.0,1,0.15838720415,0.034519408,-0.1460210185,0.093108,0.058618,0.058466,-1.5763209209999998,-9.569721336,1.451188067,-2.3149,1.3505,-3.0686,0.00015999999999993797,-0.00039999999999995595,-0.00022999999999995246,0.0005673641082617475,-0.0017611305569660285,0.0011784325465116208
150000000000.0,1,0.17469566309999998,0.09930213789999999,-0.18461018625,0.099517,0.061758,0.060597,-1.5803416474999998,-9.568250338499999,1.456679791,-2.3155,1.3498,-3.0674,0.000140000000000029,-0.000300000000000189,-0.0002300000000000635,0.0004760292109189379,-0.0004503784416693968,0.0015731278285722183
150000000000.0,1,0.18241349664999998,0.10252852575,-0.20771465364999997,0.10701,0.064892,0.059527,-1.584362374,-9.566681274499999,1.4625637809999998,-2.3162,1.3491,-3.0659,4.999999999999449e-05,-0.00019999999999997797,-0.00020999999999993246,-0.00028030683895918784,0.0012427231969553976,0.000924963202476814
150000000000.0,1,0.175342902,0.051975244999999996,-0.22265018159999997,0.10703,0.065961,0.055246,-1.5880889009999999,-9.565210277,1.468251638,-2.317,1.3484,-3.0644,0.000140000000000029,-0.00039999999999995595,-0.00021999999999999797,0.00013199441559508251,0.0006471795701366023,0.0011515201236547146
150000000000.0,1,0.1441969816,0.0028047019,-0.24541141624999996,0.097457,0.067111,0.048815,-1.5916192949999999,-9.5639354125,1.472762697,-2.3174,1.3478,-3.0633,2.999999999997449e-05,-0.00039999999999995595,-0.00034000000000000696,-0.0007297134757575652,0.00018300370242685382,0.000317431431641646
150000000000.0,1,0.1308795509,0.0063350959,-0.24162604935,0.080468,0.072587,0.039162,-1.5946593565,-9.5629547475,1.4757046919999999,-2.3175,1.3474,-3.0625,2.999999999997449e-05,-0.00039999999999995595,-0.00040000000000006697,-0.0006769885927446762,-0.00045262646083266134,0.0002254177652358802
150000000000.0,1,0.12637829855,0.05108283985,-0.19898673514999998,0.062423,0.081267,0.032704,-1.5972090854999998,-9.5621702155,1.4777640884999999,-2.3174,1.347,-3.0617,0.00012000000000000899,-0.00039999999999995595,-0.00032999999999994145,-0.0003334762298170535,-0.0009782676635423648,0.0010270639436293916
150000000000.0,1,0.14116672675,0.12832001524999997,-0.16269232349999999,0.045482,0.091008,0.020909,-1.5987781495,-9.5617779495,1.4787447535,-2.3172,1.3469,-3.061,0.000280000000000058,-0.00039999999999995595,-0.00021000000000004349,0.000361260058631796,-0.0018032017283013957,0.0022068011388847175
150000000000.0,1,0.16046621395,0.179461695,-0.17049841689999998,0.033843,0.098571,0.012329,-1.5993665485,-9.5617779495,1.4783524874999998,-2.3169,1.3468,-3.0603,0.00027999999999994696,-0.00019999999999997797,-0.00014999999999998348,-0.001727251647831718,-0.0005301155288115478,0.001964664524482629
150000000000.0,1,0.1638887348,0.18777773419999996,-0.19533866134999997,0.030703,0.1018,0.003771,-1.5992684819999998,-9.561974082499999,1.4769795565,-2.3165,1.3469,-3.0597,0.00021000000000004349,-0.000300000000000189,-0.00024999999999997247,-0.00021705319446119198,-0.00035779417149295334,0.0014471158760562819
150000000000.0,1,0.1664188505,0.15771054529999998,-0.21175499345,0.03183,0.105,-0.00478,-1.5981897505,-9.562464414999999,1.475116293,-2.3162,1.3472,-3.0589,0.00015999999999993797,-0.000300000000000189,-0.000300000000000078,0.0004228230332317118,0.001196743322324334,0.0007464573934705676
150000000000.0,1,0.14708013669999997,0.05243615755,-0.21225513259999998,0.030813,0.10502,-0.016531,-1.5961303539999998,-9.563150880499999,1.4729588299999998,-2.3161,1.3475,-3.0579,0.000280000000000058,-0.0002999999999997449,-0.00024999999999997247,0.00010130821889675623,-0.0005058901972037066,0.0018658611677555559
150000000000.0,1,0.09895890514999998,-0.056250944399999996,-0.2170211645,0.033,0.10288,-0.032541,-1.5932864254999999,-9.5639354125,1.4707033004999999,-2.3162,1.3479,-3.0567,0.00019999999999997797,-0.00039999999999995595,-0.00044999999999995044,-1.15636208994907e-05,-0.00044821488039148427,0.0007973095088913418
150000000000.0,1,0.0243597186,-0.1173071473,-0.18969003094999998,0.028868,0.11039,-0.049642,-1.5898540979999998,-9.564818011,1.4684477710000001,-2.3165,1.3483,-3.0552,0.00022999999999995246,-0.00039999999999995595,-0.0003500000000000725,0.0012922324743418478,0.0020553900843800488,-0.00013813657237626842
150000000000.0,1,-0.0242028122,-0.0943007464,-0.16297671634999997,0.024679,0.11257,-0.063529,-1.585931438,-9.5658967425,1.4661922415,-2.317,1.3487,-3.0536,0.00045000000000006146,-0.000500000000000167,-0.00037999999999993594,-0.0015002757547830647,-0.0011947875627433824,0.0018573062866416024
150000000000.0,1,-0.014778621550000001,-0.0543680676,-0.14793331524999997,0.020464,0.11475,-0.072079,-1.5809300464999998,-9.5670735405,1.4638386455,-2.3177,1.3493,-3.0516,0.0005799999999999139,-0.000500000000000167,-0.00031000000000003247,0.0006901305424169557,0.0005850041360340175,0.002272405029949187
150000000000.0,1,0.0183580488,0.0105127288,-0.13841105809999998,0.019419,0.11689,-0.074221,-1.575340256,-9.568348405,1.4614850494999998,-2.3187,1.3499,-3.0493,0.00047000000000008146,-0.0005999999999999339,-0.00048000000000003595,-0.0006973490940893612,0.0006297398207673055,0.00012388470509261396
150000000000.0,1,0.052534224049999995,0.0549956932,-0.14056852109999998,0.021521,0.11899,-0.065684,-1.569848532,-9.569525203,1.4593275865,-2.3197,1.3505,-3.0471,0.00032999999999994145,-0.0009000000000001229,-0.0005100000000000104,-0.0013289249393146907,0.0010081680634559387,0.0014661981479526798
150000000000.0,1,0.09515392495,0.09605613674999999,-0.17005711764999998,0.027889,0.12425,-0.05181,-1.5650432735,-9.570702000999999,1.45726819,-2.3205,1.351,-3.0449,0.0004899999999999904,-0.0005999999999999339,-0.00042999999999993044,-0.0032495131512413344,0.0007895433557045806,0.002661472306343171
150000000000.0,1,0.15442531755,0.15158138905,-0.1995064876,0.034181,0.12418,-0.031526,-1.56121868,-9.5715845995,1.4554049264999998,-2.3211,1.3514,-3.043,0.0006400000000000849,-0.0005999999999999339,-0.0003500000000000725,0.0012613198134854287,0.0039043244703607094,0.0014751445533893737
150000000000.0,1,0.18425714685,0.1864636431,-0.22329742049999998,0.046864,0.12618,-0.005898,-1.55925735,-9.572074932,1.4543261949999997,-2.3214,1.3516,-3.0415,0.0004899999999999904,-0.001100000000000101,-0.0005299999999999194,-0.00194916075443885,0.000869324196293153,0.0005866498265647557
150000000000.0,1,0.19653507264999998,0.140627361,-0.20588081009999998,0.065949,0.13026,0.022939,-1.5597476824999998,-9.571878799,1.4552087934999998,-2.3215,1.3515,-3.04,0.0005600000000000049,-0.0008999999999996788,-0.00046000000000001595,-0.0005356497386133086,0.0022033478282050822,0.0010440818835100174
150000000000.0,1,0.20663592214999998,0.05771213524999999,-0.21731536399999998,0.079677,0.13224,0.052836,-1.5626896774999999,-9.571094267,1.4570720569999998,-2.3212,1.3512,-3.0389,0.0006800000000000139,-0.001000000000000334,-0.0005699999999999594,-0.0015367469906133469,0.0021934727082446592,0.0024419615875548306
150000000000.0,1,0.2144714355,-0.0270467407,-0.24550948275,0.091258,0.13212,0.081664,-1.568279468,-9.569819402499999,1.4593275865,-2.3203,1.3506,-3.0386,0.0004899999999999904,-0.0009999999999998899,-0.0006500000000000394,0.001980623342449528,0.003292646653525466,1.4387072088561936e-05
150000000000.0,1,0.22494493769999999,-0.07638399685,-0.24623517485,0.10391,0.13517,0.11369,-1.5766151204999999,-9.567956139,1.4627599139999998,-2.3188,1.3497,-3.0387,0.0007899999999999574,-0.0007999999999999119,-0.00036000000000002697,-0.0006990123920904701,0.0040053822999199795,0.0011986376625743311
150000000000.0,1,0.2355949596,-0.10723571775,-0.22606289579999997,0.11443,0.13719,0.14678,-1.587892768,-9.5653083435,1.467467106,-2.3168,1.3485,-3.0393,0.0006099999999999994,-0.001100000000000101,-0.0005499999999999394,0.00104267245312184,0.003940800245803899,0.00048860372018944
150000000000.0,1,0.2772536088,-0.07842378005,-0.22169893654999998,0.11214,0.1393,0.17878,-1.6017201445,-9.562268282,1.4723704309999999,-2.3141,1.3471,-3.0406,0.0005100000000000104,-0.0015000000000000568,-0.0005700000000000705,-0.0011705484874300343,0.0013731043667961629,0.001615017767928384
150000000000.0,1,0.30960574715,0.011934693049999999,-0.21505002785,0.10347,0.14254,0.2097,-1.6181953164999998,-9.5588359545,1.4767834235,-2.3105,1.3455,-3.0429,0.0006099999999999994,-0.0012999999999996348,-0.00034000000000000696,-0.0003969915328929652,0.0028813528916671327,0.00035179884138436535
150000000000.0,1,0.33711340039999993,0.10425449614999999,-0.20333108109999998,0.094821,0.14791,0.23848,-1.6375144169999998,-9.5549132945,1.4808041499999998,-2.306,1.3437,-3.0461,0.0005300000000000304,-0.0013000000000000789,-0.0004999999999999449,-0.0009560780691522108,0.0029461298865069985,0.0013051909706043308
150000000000.0,1,0.34563537925,0.11249208214999999,-0.18049139325,0.092563,0.1479,0.26194,-1.6589909804999998,-9.5505983685,1.48472681,-2.3008,1.3418,-3.0499,0.0007800000000000029,-0.001100000000000101,-0.000140000000000029,3.733484150059141e-05,0.002352810909252101,0.0022960076297140475
150000000000.0,1,0.33347513325,0.00973800345,-0.17048861025,0.086032,0.14261,0.27793,-1.6821346744999999,-9.545989243,1.4881591374999998,-2.2951,1.3397,-3.0543,0.0005699999999999594,-0.0013000000000000789,-0.00038000000000004697,0.0012801698408555495,0.005098918071666736,-0.0010094675177350076
150000000000.0,1,0.27334075545,-0.18621847684999998,-0.15288567349999999,0.075319,0.14269,0.28537,-1.706749366,-9.541282051,1.4905127334999997,-2.2887,1.3376,-3.0595,0.00038000000000004697,-0.0015999999999998238,-0.00042999999999993044,0.0024142925080372635,0.003590103549406809,0.0008175969277233186
150000000000.0,1,0.2104114824,-0.37800713089999993,-0.12444638849999999,0.058205,0.13964,0.28747,-1.7322466559999998,-9.536574859,1.4913953319999997,-2.2816,1.3355,-3.0653,0.0006099999999999994,-0.0016000000000002679,-0.00040000000000006697,-0.0009096901900422782,0.0028460711630906577,-0.001006306117238731
150000000000.0,1,0.17513696234999998,-0.5215176469999999,-0.08839714309999999,0.041098,0.13658,0.2885,-1.7580381455,-9.531867666999998,1.491003066,-2.2742,1.3335,-3.0716,0.0007399999999999629,-0.0013999999999998458,-0.00046999999999997044,0.000365836227482097,0.0011125330020738122,0.001969056532325153
150000000000.0,1,0.20379199365,-0.5882420936,-0.031430313249999994,0.017576,0.13038,0.28739,-1.7829470365,-9.527552741,1.489041736,-2.2666,1.3316,-3.078,0.0005800000000000249,-0.0017000000000000348,-0.00029999999999996696,0.001996621423772771,0.0043784977821468285,0.0014642058755376386
150000000000.0,1,0.27502749925,-0.54386700235,-0.01554354025,-0.013356,0.13489,0.29267,-1.8127592524999998,-9.5223552165,1.4860016745,-2.2575,1.3294,-3.0861,0.0006099999999999994,-0.0015000000000000568,-0.00043999999999999595,-0.002994499218772262,0.0032753236625064908,0.0021218795939783597
150000000000.0,1,0.35711896639999996,-0.3772618254999999,-0.027811659399999997,-0.030449,0.13609,0.29904,-1.843061801,-9.517353824999999,1.4809022164999999,-2.2477,1.3273,-3.0947,0.0006099999999999994,-0.0015999999999998238,-0.00031000000000003247,0.0029123345405850376,0.0010714912108236163,-0.0006232056023465216
150000000000.0,1,0.4570487299,-0.18458076629999998,-0.05008256155,-0.046468,0.13622,0.30221,-1.873854682,-9.5123524335,1.474331761,-2.2374,1.3252,-3.1039,0.0005799999999999139,-0.0017000000000000348,-0.00041999999999997595,-0.0012986561820071962,0.002633157715183909,0.00022389218234675212
150000000000.0,1,0.5400326021999999,-0.0216726965,-0.07267708315,-0.051879,0.12987,0.30646,-1.8956254449999999,-9.509312372,1.4660941749999998,-2.2291,1.3239,-3.1113,0.0006500000000000394,-0.0017000000000000348,-0.00029999999999996696,0.006352082691346128,0.0032705209885262043,-0.0010220436700161262
150000000000.0,1,0.5934396180999999,0.0854159215,-0.0877106776,-0.060471,0.12142,0.30432,-1.9264183259999998,-9.504409047,1.458248855,-2.2187,1.3219,-3.1207,0.0005800000000000249,-0.0018000000000002458,-0.00042000000000008697,-0.001705714897880073,0.0031542882549739915,-0.0005392278053053534
150000000000.0,1,0.5961462535,0.0777078946,-0.07738427515,-0.065809,0.11508,0.29472,-1.9565247414999998,-9.499505721999999,1.4499132025,-2.2085,1.3199,-3.13,0.00046999999999997044,-0.0018999999999995687,-0.00046999999999997044,-0.00010647539712427267,7.408823338783677e-05,0.00027010522955817073
150000000000.0,1,0.54900568695,0.016082905999999998,-0.04894499014999999,-0.06689,0.10338,0.27873,-1.9849640265,-9.4948965965,1.4414794835,-2.1989,1.318,-3.1389,0.0007000000000000339,-0.0017000000000000348,-0.00017000000000000348,0.0032687375755571235,0.004440627409760145,8.413634692705507e-05
150000000000.0,1,0.48745915154999997,-0.03433308165,-0.02150598345,-0.071132,0.094918,0.2595,-2.00251793,-9.492444934,1.432751565,-2.1918,1.317,3.1379,0.0005399999999999849,-0.002200000000000202,-0.00014999999999998348,0.00010505217221012941,-0.001264750052131669,0.0018823465279953489
150000000000.0,1,0.44227010834999997,-0.0628802398,0.009316317499999999,-0.071114,0.083219,0.2371,-2.026838422,-9.4886203405,1.4242197795,-2.1833,1.3154,3.13,0.0006300000000000194,-0.0019000000000000128,-0.00012000000000000899,0.002448561246458869,0.002563872922532573,-0.0004071959571763095
150000000000.0,1,0.45274361054999995,-0.0900642736,0.03403888215,-0.0754,0.071549,0.22217,-2.049197584,-9.485089946499999,1.4156879939999998,-2.1753,1.314,3.1225,0.00043999999999999595,-0.0020999999999999908,-9.99999999995449e-06,-0.0007092474119629877,0.0011531211445874323,-2.709791348820545e-05
150000000000.0,1,0.4803101037,-0.1432751565,0.05170065879999999,-0.078598,0.062001,0.20617,-2.0700857485,-9.481853752,1.4069600754999998,-2.1678,1.3127,3.1153,0.0006199999999999539,-0.0024000000000001798,-9.999999999998899e-05,0.0026707795525633404,0.0005558436485939566,-0.0015271838243078317
150000000000.0,1,0.49263706274999997,-0.22606289579999997,0.08958374775,-0.085053,0.047155,0.19335,-2.079402066,-9.4809711535,1.3995070215,-2.1632,1.3123,3.1109,0.000500000000000056,-0.0019999999999997797,0.00018999999999991246,0.0033376044410942107,0.0022783448831142916,-0.00020043479543607745
150000000000.0,1,0.50275752555,-0.38128255199999994,0.11512026434999999,-0.095736,0.03873,0.18267,-2.097642435,-9.478323357999999,1.3897984380000001,-2.1559,1.3113,3.1039,0.00046999999999997044,-0.0025999999999999357,-1.999999999990898e-05,0.0021625800898892322,0.001825130932491037,0.0005316126006964517
150000000000.0,1,0.48114366895,-0.56877589335,0.12381876289999999,-0.10643,0.028174,0.17093,-2.1146079395,-9.4760678285,1.3793053224999998,-2.1488,1.3104,3.0967,0.00019999999999997797,-0.0025000000000001688,-2.0000000000020002e-05,-0.0010080955137510283,0.0027983115539225167,-0.0003487189515400946
150000000000.0,1,0.4291978439,-0.7431675502999999,0.14963967235,-0.12139,0.019782,0.16131,-2.130396646,-9.474204564999999,1.3677334755000001,-2.1415,1.3097,3.0895,0.0005800000000000249,-0.0026999999999999247,3.999999999992898e-05,0.005293796472473966,0.0018280617452779424,-0.00022142817701653605
150000000000.0,1,0.4122323393999999,-0.85091321385,0.17777495119999998,-0.14695,0.022135,0.1559,-2.134907705,-9.474989097,1.3555732294999998,-2.1365,1.31,3.0843,0.00017999999999995797,-0.0026999999999999247,-0.00018999999999991246,0.0015699145993834929,0.003428755489897739,-0.002001268296906611
150000000000.0,1,0.44068143104999996,-0.87407652115,0.18610079705,-0.17259,0.019146,0.15906,-2.1501080125,-9.473812299,1.3394903234999997,-2.1279,1.3095,3.0756,0.0003500000000000725,-0.0030000000000001137,-0.000140000000000029,0.002515648526611569,0.002721365742928805,0.001386376938864009
150000000000.0,1,0.5120444231,-0.78713076225,0.20640056254999997,-0.19612,0.019329,0.16969,-2.166092852,-9.472733567499999,1.3209557549999997,-2.1184,1.3091,3.0659,0.00041000000000002146,-0.0028999999999999027,-0.000180000000000069,0.0011034871401924828,0.0035910500213218732,-0.0006963458292232882
150000000000.0,1,0.6257427232,-0.59119389525,0.22245404859999998,-0.21966,0.021636,0.18673,-2.1836467555,-9.471654835999999,1.3000675904999999,-2.1078,1.3087,3.0552,0.0005099999999998994,-0.0032000000000000917,-0.00043999999999999595,0.0029947951792639316,0.0016629926585738364,-0.002011545054660946
150000000000.0,1,0.7292617205999999,-0.36275779015,0.21404974954999997,-0.24106,0.026062,0.20798,-2.1873732825,-9.4733219665,1.2811407559999999,-2.1006,1.3093,3.0477,0.0003700000000000925,-0.0030999999999998806,-0.00022999999999995246,0.0006467007509245448,0.00421847715711321,-0.00021680930751655225
150000000000.0,1,0.8244058389,-0.13691064065,0.20370373379999998,-0.25721,0.021909,0.23038,-2.209045979,-9.471654835999999,1.256624131,-2.088,1.3087,3.0349,0.00041999999999997595,-0.0034000000000000696,-0.00043000000000004146,0.002473993709847244,0.002051902673334549,-0.0017759198677873567
150000000000.0,1,0.89135583845,0.07067652655,0.18719914184999997,-0.26587,0.019827,0.25171,-2.2326800055,-9.4693993065,1.2310287745,-2.0747,1.3078,3.0213,0.00044999999999995044,-0.0032000000000000917,-0.00029999999999996696,0.001857885613645971,0.00443725384520488,-0.00013182334186212508
150000000000.0,1,0.93270067485,0.2282203588,0.17982454104999998,-0.25957,0.016563,0.26668,-2.257883096,-9.4666534445,1.205825684,-2.0613,1.3067,3.0076,0.000260000000000038,-0.0035999999999998256,-0.0004899999999999904,0.003131448196282305,0.0028086449437076944,0.00022638222543069908
150000000000.0,1,0.9348483311999999,0.30752673734999997,0.16917451914999998,-0.2458,0.010052,0.27947,-2.2671994134999998,-9.4668495775,1.1869969159999998,-2.0531,1.3068,2.9989,7.00000000000145e-05,-0.0037000000000000366,-0.00043000000000004146,0.0013925194101751526,0.0030484188056005834,-0.0019357232997430085
150000000000.0,1,0.9444980747999999,0.332053169,0.16256483705,-0.22354,0.000265,0.29234,-2.2946580334999997,-9.462926917499999,1.1651280865,-2.0406,1.3053,2.986,0.00039000000000000146,-0.0033000000000000806,-0.00018999999999991246,0.0024416895369079317,0.006896412759414883,-0.001791468362127846
150000000000.0,1,0.9691421862499999,0.31032163259999995,0.1394701763,-0.20129,-0.012716,0.302,-2.3229011854999997,-9.458415858499999,1.1457109195,-2.029,1.3035,2.9739,0.00017999999999995797,-0.0041999999999999815,-0.0006500000000000394,0.0003176586155226868,0.0015608804654556607,-0.0009568285700527479
150000000000.0,1,0.97222147435,0.2373013167,0.13141891665,-0.18326,-0.021398,0.31059,-2.3519288694999996,-9.453316400499999,1.128549282,-2.0182,1.3015,2.9624,2.0000000000020002e-05,-0.0040000000000000036,-0.0005500000000000504,0.005010959973449136,0.0035060294492390565,-0.00043470172421189446
150000000000.0,1,0.9575409193,0.13034018515,0.1399605088,-0.17804,-0.033162,0.31697,-2.362225852,-9.452139602499999,1.1166832354999998,-2.0124,1.3011,2.9557,0.00012999999999996348,-0.0042999999999999705,-0.0005999999999999339,0.0021815920114482967,0.0027673001816914677,-0.0007174854548448462
150000000000.0,1,0.94768523605,0.03254827135,0.19489736209999997,-0.18342,-0.035253,0.32123,-2.3921361345,-9.446549811999999,1.1004041965,-2.0019,1.299,2.9445,1.0000000000065512e-05,-0.0043999999999999595,-0.0006000000000000449,0.0010997589030321553,0.004173595438017097,-0.0006780221233892991
150000000000.0,1,0.9450276338999999,0.007766866799999999,0.2681922642,-0.20264,-0.036163,0.32333,-2.42224255,-9.440960021499999,1.0825560935,-1.9911,1.2968,2.9329,-7.00000000000145e-05,-0.0043999999999999595,-0.0004999999999999449,0.0026491749634491857,0.004463775961955463,-0.0012916898244508257
150000000000.0,1,0.9641113747999999,0.026487761649999997,0.33606408885,-0.22927,-0.029552,0.32541,-2.4525450984999995,-9.435370231,1.062256328,-1.9795,1.2948,2.9206,0.00017000000000000348,-0.0045000000000001705,-0.0005399999999999849,0.0022805551478473074,0.003223441863788201,0.001256770894138226
150000000000.0,1,0.9860586575,0.0519948583,0.38940245819999997,-0.24952,-0.026179,0.33065,-2.462842081,-9.4340953665,1.0498018825,-1.9737,1.2943,2.9138,-0.0001300000000000745,-0.0046999999999999265,-0.000540000000000096,-0.00010546089887708554,0.0036482591340600834,-0.002520386067999203
150000000000.0,1,1.0395048999999998,0.039638479299999994,0.4096531904499999,-0.26125,-0.020762,0.33809,-2.4943214275,-9.428505576,1.0257755899999998,-1.961,1.2922,2.9003,-0.00013999999999991797,-0.0047999999999999154,-0.0005199999999999649,0.0076585437063370065,0.0034690524159226577,0.0005684253119868643
150000000000.0,1,1.0800063645,-0.0261837555,0.41631190579999994,-0.26344,-0.022884,0.34663,-2.5264872395,-9.422523519499999,1.0014550979999999,-1.9482,1.29,2.8868,4.999999999999449e-05,-0.0051000000000001044,-0.00046000000000001595,0.0029348876332317975,0.003714348878333995,0.00023085714950776826
150000000000.0,1,1.114819972,-0.1540428582,0.40482831864999996,-0.26243,-0.02503,0.35304,-2.5594375835,-9.416149197,0.97737977225,-1.9356,1.2877,2.8734,-9.999999999998899e-05,-0.005099999999999882,-0.00042999999999993044,0.0010665303318193597,0.004794520633177646,-0.0013172998971986427
150000000000.0,1,1.1096224474999998,-0.27614545734999996,0.37154454854999996,-0.26139,-0.026102,0.36151,-2.567773236,-9.4154627315,0.9624736642499999,-1.9294,1.2874,2.8662,-0.00021999999999999797,-0.005300000000000082,-0.000300000000000078,0.003318154305727461,0.004237080328628462,-0.0003864382734910521
150000000000.0,1,1.1241362895,-0.37114247589999994,0.3817336579,-0.26568,-0.022879,0.37003,-2.602292644,-9.4084019435,0.9382218187999999,-1.9168,1.2848,2.8528,-0.00031000000000003247,-0.005700000000000038,-0.00029999999999996696,0.0026186536817185413,0.0054602277182840275,0.0008210660705452177
150000000000.0,1,1.153065907,-0.42922726385,0.42287255464999995,-0.27101,-0.017515,0.37749,-2.637400451,-9.401046956,0.913391381,-1.9042,1.2822,2.8394,-0.00036000000000002697,-0.00550000000000006,-0.00017999999999995797,0.0017046051218641,0.0034851549363563716,-0.0005298557466211218
150000000000.0,1,1.1932731719999998,-0.4505567276,0.48151632164999997,-0.27738,-0.008945,0.38493,-2.6734889229999994,-9.393397769,0.8876587314,-1.8914,1.2794,2.8259,-0.00043999999999999595,-0.005800000000000027,-7.00000000000145e-05,0.001305708711728526,0.0019698773678977766,-0.00033344607711938146
150000000000.0,1,1.2145536024999999,-0.48412489054999996,0.5146137654,-0.27731,-0.000415,0.39018,-2.6855511025,-9.3913383725,0.8722230642999999,-1.8848,1.2787,2.8185,-0.00012000000000000899,-0.005799999999999805,0.00024000000000001798,0.005754538891443284,0.002757759103553248,0.0007566204552353906
150000000000.0,1,1.2395605600000001,-0.58956599135,0.52954929335,-0.27191,0.011257,0.39551,-2.7226202395,-9.383002719999999,0.8463727348999999,-1.8722,1.2758,2.8054,-0.0005499999999999394,-0.006199999999999983,0.00031999999999998696,0.000823662330405206,0.003477764028417818,0.0010124340432633439
150000000000.0,1,1.2337746365,-0.7530134268999998,0.532893361,-0.26653,0.015478,0.39231,-2.759787443,-9.3744709345,0.8207283451499999,-1.8599,1.2728,2.7927,-0.0007700000000000484,-0.006500000000000172,0.00014999999999998348,0.004089762800230767,0.0033905519999049005,0.0007870192922421193
150000000000.0,1,1.1924886399999999,-0.9563445079999999,0.5543110845999999,-0.26001,0.025023,0.38483,-2.796268181,-9.3658410825,0.79556448125,-1.848,1.2698,2.7805,-0.0005699999999999594,-0.006199999999999983,0.0005600000000000049,0.004354341945263407,0.0015958839366345678,0.00042469002162270897
150000000000.0,1,1.1016790609999998,-1.1322758089999998,0.5612149662,-0.25977,0.039967,0.36447,-2.8118607544999996,-9.362604888,0.7781969040999999,-1.8408,1.2687,2.7729,-0.0007500000000000284,-0.006799999999999917,0.0006599999999999939,0.0013443454531538723,0.001891496815714211,0.003292570590837096
150000000000.0,1,1.030875048,-1.3057554474999997,0.59639141975,-0.25952,0.058104,0.34202,-2.8449091650000002,-9.354759567999999,0.7522877348,-1.8293,1.266,2.7614,-0.0009299999999999864,-0.006900000000000128,0.0007300000000000084,0.0017600940989901392,0.00204592004773696,0.001509202632737905
150000000000.0,1,0.9850779924999999,-1.4638386455,0.6335782365499999,-0.26135,0.081585,0.31956,-2.875898179,-9.3474045805,0.7255744202,-1.8179,1.2635,2.7503,-0.0005699999999999594,-0.006699999999999928,0.0010599999999999499,0.0034485444285050626,0.0022392031171301063,0.0016525232939565981
150000000000.0,1,0.9627580571,-1.6007394794999998,0.7048823887,-0.26432,0.095487,0.29605,-2.90472973,-9.3405399255,0.6982727066,-1.8067,1.2612,2.7395,-0.0009900000000000464,-0.007099999999999884,0.0008600000000000829,0.002393780605378648,0.002288250558257321,0.000565483472827033
150000000000.0,1,0.9846857265,-1.6846844035,0.75345472615,-0.27686,0.11692,0.27571,-2.9317960839999997,-9.334165602999999,0.6693038625,-1.7952,1.2591,2.7287,-0.0008099999999999774,-0.007400000000000073,0.0010599999999999499,0.00027732825558857144,-0.0007160710606783915,0.0025892711273880487
150000000000.0,1,1.023618127,-1.7049841689999998,0.80305676185,-0.28722,0.14261,0.25536,-2.9569991745,-9.3283796795,0.6387071145,-1.7835,1.2572,2.7178,-0.0007099999999999884,-0.007100000000000106,0.0011099999999999444,0.0010708908333600942,0.001975561585262575,0.0022766622191314756
150000000000.0,1,1.0558820055,-1.7082203635,0.8515408394499999,-0.28692,0.16713,0.23397,-2.980240935,-9.3230840885,0.6069727950999999,-1.7717,1.2555,2.707,-0.0009600000000000719,-0.007399999999999851,0.0014500000000000624,0.0011448878596245216,3.924097180241226e-05,-0.000687703663028838
150000000000.0,1,1.0730436429999999,-1.679879145,0.8805391034999999,-0.27275,0.18942,0.20941,-3.001423299,-9.31827883,0.57558170845,-1.7603,1.2539,2.6969,-0.0006199999999999539,-0.007500000000000062,0.0016699999999999493,0.0019432435298392114,-0.0028671998802913823,0.0059794755725337545
150000000000.0,1,1.0962854035,-1.62005858,0.8566304908,-0.2426,0.20838,0.18488,-3.0203501334999996,-9.313963904,0.5460734986,-1.7497,1.2525,2.6879,-0.0008900000000000574,-0.007500000000000062,0.0019200000000000328,-0.003007893777960735,-0.0008488250536762276,0.004884458211830367
150000000000.0,1,1.12972608,-1.527483804,0.79528989505,-0.20606,0.22515,0.15929,-3.0370214385,-9.310041243999999,0.5192719241499999,-1.7401,1.2512,2.6802,-0.0010000000000000009,-0.007399999999999851,0.0021900000000000253,0.0034507890268535846,-0.006218886519558708,0.002477731440966302
150000000000.0,1,1.1855259185,-1.393132699,0.7172779942999999,-0.16102,0.23547,0.13053,-3.051044948,-9.306706983,0.4959811304,-1.7319,1.2501,2.674,-0.0010399999999999299,-0.00770000000000004,0.0026599999999999957,4.110167474724591e-05,-0.003027746314954838,0.003165303547738141
150000000000.0,1,1.213474871,-1.255055067,0.6779435211499999,-0.10423,0.24144,0.090058,-3.0616361299999997,-9.3042553205,0.4774073353,-1.7255,1.2493,2.6698,-0.0015600000000000058,-0.007400000000000073,0.0028599999999999737,-0.003878321204137558,-0.005665408340520317,0.005217206377104544
150000000000.0,1,1.1412979269999999,-1.2492691435,0.6888387092999999,-0.046296,0.24422,0.031446,-3.067323987,-9.3030785225,0.4642664243,-1.721,1.2489,2.6676,-0.0015500000000000513,-0.007900000000000018,0.003029999999999977,0.007214226313669636,-0.005313215728126597,0.001493952218049488
150000000000.0,1,0.96525875285,-1.4909049994999999,0.7373424002,0.011738,0.24489,-0.051712,-3.065754923,-9.303961121,0.4566172373,-1.7187,1.2492,2.6677,-0.0018799999999999928,-0.007299999999999862,0.003149999999999986,0.0046870585394831465,-0.0037940468226602686,0.0043103261719585895
150000000000.0,1,0.7172485743499999,-1.917788474,0.7963784332,0.060381,0.24994,-0.17012,-3.0536927434999996,-9.308079914,0.45354775584999996,-1.7182,1.2505,2.6699,-0.0016399999999999748,-0.008099999999999996,0.0029200000000000337,0.005238387613627049,-0.008914721898317879,0.007831022554790179
150000000000.0,1,0.48077101624999996,-2.372817034,0.8985637261999999,0.08234,0.2584,-0.2811,-3.0313335814999998,-9.315336834999998,0.45311626325,-1.7192,1.2529,2.6736,-0.0020999999999999908,-0.007800000000000029,0.00275000000000003,0.004072870018730246,-0.005100472172382187,0.006471046911115774
150000000000.0,1,0.05141626595,-2.9487615885,0.95739381955,0.052104,0.27475,-0.39647,-2.9981871045,-9.3262222165,0.45070382735,-1.72,1.2565,2.6773,-0.0019099999999999673,-0.007900000000000018,0.0023799999999999377,0.006327061926806987,-0.004066024538467383,0.0031174521857293414
150000000000.0,1,-0.1924849262,-3.2394306944999998,1.004593226,-0.030514,0.29364,-0.48737,-2.955920443,-9.3401476595,0.44162286944999996,-1.7191,1.2611,2.6794,-0.0014899999999999913,-0.008299999999999974,0.0021900000000000253,0.0010247780528409578,-0.0080251075804747,0.007904640271622743
150000000000.0,1,-0.2560516315,-3.095174873,1.126391819,-0.16744,0.33853,-0.55814,-2.90669106,-9.356524765,0.41965597344999994,-1.7142,1.2667,2.6777,-0.0017200000000000548,-0.008199999999999985,0.0019799999999999818,0.0021269348472803262,-0.006401100576624685,0.006820501245772048
150000000000.0,1,0.05984998495,-2.1460872859999998,1.2952623319999998,-0.29035,0.41419,-0.60865,-2.8522641524999996,-9.3748632005,0.38355769479999996,-1.7045,1.2729,2.6716,-0.0009500000000000064,-0.008000000000000007,0.0019100000000000783,-0.001074737121131486,-0.004955554011176755,0.003915343820306338
150000000000.0,1,0.45905909314999993,-0.7589562568,1.4202971194999998,-0.33651,0.49346,-0.63876,-2.7945029839999997,-9.393986168,0.3391335703,-1.6916,1.2797,2.6631,-0.0014899999999999913,-0.008500000000000174,0.0016499999999999293,-0.0032637696394692828,-0.005550154523732198,0.007631467194133323
150000000000.0,1,0.7400098089999999,0.38760784125,1.378030458,-0.31785,0.55512,-0.6431,-2.735270818,-9.412814936,0.29491538544999996,-1.6782,1.2864,2.6548,-0.0012199999999999989,-0.008599999999999941,0.0016500000000000403,-0.005807293096846022,-0.005821688432640748,0.006441013449254962
150000000000.0,1,1.0630408599999999,1.3897984380000001,1.058725934,-0.24521,0.57475,-0.6302,-2.677019317,-9.4307611055,0.25431585445,-1.6655,1.293,2.6475,-0.0013999999999999568,-0.008399999999999963,0.0016800000000000148,-0.0007586181551990645,-0.006756728689018443,0.006288582262418574
150000000000.0,1,1.2829059529999998,1.9749612435,0.61176824695,-0.12906,0.56951,-0.60865,-2.62033688,-9.4474324105,0.22395446605,-1.6561,1.2993,2.6436,-0.0013500000000000734,-0.008399999999999963,0.0016199999999999548,-0.0014231431383546767,-0.007423197655750391,0.004783950389856129
150000000000.0,1,1.3495911729999999,2.1781550315,0.2533646094,0.03294,0.56069,-0.58807,-2.56541964,-9.462828851,0.20841092579999998,-1.6519,1.3052,2.6451,-0.0015199999999999658,-0.008499999999999952,0.0017700000000000493,-0.0030677290356173614,-0.004783542758793891,0.0039993973907024305
150000000000.0,1,1.266823047,2.1006824965,0.04725824635,0.21404,0.53468,-0.57383,-2.5118753309999997,-9.47714656,0.21027418929999997,-1.6543,1.3108,2.6533,-0.0015000000000000568,-0.008400000000000185,0.0015499999999999403,-0.00498859986213418,-0.005357856474401457,0.006134107084401652
150000000000.0,1,1.0778489015,1.6405544785,0.012434832199999999,0.36523,0.49933,-0.5671,-2.459115554,-9.4905816705,0.22907353735,-1.6637,1.3162,2.6683,-0.0020000000000000018,-0.008599999999999941,0.0013699999999999823,0.0003230993443303909,-0.009511753712078352,0.006216325599854411
150000000000.0,1,0.8318196662999999,0.9789292229499998,0.09232960974999999,0.44718,0.47201,-0.56905,-2.406355777,-9.5033303155,0.2584248408,-1.6778,1.3214,2.6877,-0.0017999999999999128,-0.00869999999999993,0.0013700000000000934,-0.00287420252472792,-0.0072647833017165375,0.007338192092293028
150000000000.0,1,0.5580768382,0.42014630594999997,0.274978466,0.46859,0.47079,-0.58502,-2.352419202,-9.5158828275,0.29155170449999995,-1.6941,1.3267,2.7094,-0.0017300000000000093,-0.008399999999999963,0.0010999999999999899,-0.00497899230540888,-0.0027451996381784305,0.006047982392995088
150000000000.0,1,0.32445301525000003,0.13627320839999998,0.4990800318,0.46132,0.48259,-0.60747,-2.296521297,-9.5284353395,0.32467856819999996,-1.7112,1.332,2.732,-0.0020200000000000218,-0.00890000000000013,0.0007499999999999174,0.0005083498549312004,-0.009908728450090498,0.004672512335399226
150000000000.0,1,0.16882147975,0.12607429239999998,0.7001751967,0.43597,0.49881,-0.63316,-2.2384659289999997,-9.541085918,0.35581468195,-1.7284,1.3376,2.7548,-0.0018000000000000238,-0.008599999999999941,0.0006800000000000139,-0.008657061540461752,-0.004892340056504185,0.006805349541904482
150000000000.0,1,0.077080269,0.29984813039999997,0.8202085927,0.40959,0.52143,-0.65459,-2.178253098,-9.5539326295,0.38556805804999994,-1.746,1.3433,2.7781,-0.0020499999999999963,-0.008799999999999919,0.000260000000000038,-0.0009327264853049577,-0.00497471186047993,0.007468824325096879
150000000000.0,1,0.0364022848,0.5347173979,0.8277989398,0.38527,0.5387,-0.67174,-2.116471203,-9.566681274499999,0.4113497408999999,-1.7628,1.3491,2.8008,-0.0015499999999999403,-0.008800000000000141,0.00019000000000002348,-0.0026009178327257576,-0.003630285312574477,0.005667735626203152
150000000000.0,1,0.06469447005,0.8172665976999999,0.74182403925,0.37683,0.54943,-0.67391,-2.054297042,-9.57913572,0.4361213387999999,-1.78,1.355,2.824,-0.0020300000000000873,-0.009099999999999886,-0.00014999999999998348,-0.00555658905464429,-0.004687774370150555,0.003707679931563179
150000000000.0,1,0.15024768465,1.1578711654999998,0.6082574662499999,0.37793,0.559,-0.66432,-1.9927112799999998,-9.5910017665,0.46104984309999997,-1.7982,1.3607,2.8483,-0.0015799999999999148,-0.00890000000000013,-0.00014999999999998348,-0.0077953978391549494,-0.005250212454765757,0.005723234945547384
150000000000.0,1,0.2996323841,1.5882850339999999,0.4847230962,0.38739,0.55783,-0.63762,-1.9335771805,-9.6017890815,0.48702765894999994,-1.8175,1.366,2.8738,-0.0019500000000000073,-0.009099999999999886,-0.000500000000000056,-0.00667416099254714,-0.005459555216969392,0.007551919382863925
150000000000.0,1,0.4221566692,1.9455412935,0.39317801844999994,0.40856,0.55762,-0.60449,-1.8774831425,-9.611497665,0.5151237112,-1.8386,1.3709,2.901,-0.0015800000000000258,-0.00890000000000013,-0.0003300000000000525,-0.0032003683725745358,-0.002039253583722589,0.0031347194212394403
150000000000.0,1,0.5025123593,2.1991412625,0.29243430299999995,0.44885,0.54766,-0.56918,-1.8248214319999998,-9.6198333175,0.5470345502999999,-1.862,1.3753,2.9305,-0.0018299999999999983,-0.009199999999999875,-0.0007099999999999884,-0.0067614239395301645,-0.004606149650406399,0.005588620304913583
150000000000.0,1,0.49709908849999995,2.3129964689999998,0.1983100763,0.49975,0.53016,-0.5349,-1.775592049,-9.6268941055,0.58429001365,-1.8887,1.379,2.9632,-0.0019299999999999873,-0.009000000000000119,-0.0007699999999999374,-0.003836923105601464,-0.0025174452673755177,0.004813036013741279
150000000000.0,1,0.4463006415,2.2384659289999997,0.1385679645,0.55915,0.50726,-0.50167,-1.7295988605,-9.632483896,0.62757656675,-1.9189,1.3821,2.9991,-0.0018900000000000583,-0.009199999999999875,-0.0008099999999999774,-0.009461843128610425,-0.0031482038536641,0.005511826746015025
150000000000.0,1,0.33845691145,1.972509581,0.08917186845,0.61005,0.48549,-0.47272,-1.686547667,-9.636798822,0.6768255630499999,-1.9524,1.3844,3.0383,-0.0018199999999999328,-0.009100000000000108,-0.0010900000000000354,-0.005772319771438106,-0.004417773554388882,0.004106936165257924
150000000000.0,1,0.2334571099,1.634376289,0.07230443045,0.6471,0.46704,-0.44381,-1.6463404019999999,-9.6398388835,0.7306542649,-1.9885,1.3861,3.0798,-0.002080000000000082,-0.009299999999999864,-0.0010200000000000209,-0.002130028144827767,-0.00040994742951494523,0.004970387675192756
150000000000.0,1,0.16021124105,1.3522389685,0.0421489817,0.67452,0.44547,-0.41383,-1.6091731985,-9.641604080499999,0.78789568095,-2.0261,1.3871,3.1226,-0.0019899999999999363,-0.009100000000000108,-0.0013100000000000334,-0.009117222525857116,-0.002139938516356521,0.006323433590291749
150000000000.0,1,0.10511748134999999,1.1570866334999999,0.02038802535,0.68278,0.42726,-0.3871,-1.5747518569999999,-9.642290546,0.8469121006499999,-2.0642,1.3874,-3.1174,-0.0020700000000000163,-0.009099999999999886,-0.0014699999999999713,-0.0022755698445073858,-0.0035871113454708503,0.0010850115145653039
150000000000.0,1,0.045159623249999996,1.0452908235,0.02842947835,0.67507,0.41025,-0.36574,-1.542586045,-9.642094412999999,0.9059089070499999,-2.1018,1.3874,-3.075,-0.0020299999999999763,-0.009300000000000086,-0.0015499999999999403,-0.004039343281571517,-0.0014237607527092244,0.004294631836758933
150000000000.0,1,-0.04670907395,1.0260697895,0.059349845799999995,0.65462,0.40081,-0.34654,-1.5124796295,-9.641309881,0.9634249092999999,-2.138,1.3869,-3.0341,-0.0020000000000000018,-0.009400000000000075,-0.0016200000000000658,-0.006740239170980988,-0.000534743209136268,0.005504356183406944
150000000000.0,1,-0.11111915115,1.0974622015,0.0662733407,0.63209,0.39672,-0.32843,-1.4843345439999998,-9.63993695,1.018910935,-2.1724,1.3862,-2.995,-0.0021299999999999653,-0.009399999999999853,-0.0018399999999999528,-0.006592535802830257,-0.001596397727831489,0.004761498994633184
150000000000.0,1,-0.1299969524,1.1687565469999999,0.0677639515,0.61057,0.38728,-0.3071,-1.458248855,-9.638171753,1.072455244,-2.2049,1.3851,-2.9579,-0.001960000000000073,-0.009500000000000064,-0.0021300000000000763,-0.003506597571835357,-0.00044759223822898875,0.0018027438904675286
150000000000.0,1,-0.09454591265,1.2161226664999998,0.0097870367,0.58794,0.37466,-0.2815,-1.4346148285,-9.635818157,1.1243324225,-2.2355,1.3838,-2.9229,-0.0017500000000000293,-0.009200000000000097,-0.0022199999999999998,-0.0035793654612628067,0.0009371379840552585,0.002232445147439588
150000000000.0,1,-0.05747677564999999,1.224654452,-0.06130136914999999,0.56737,0.35455,-0.25375,-1.4136285975,-9.632876162,1.174444404,-2.2641,1.3823,-2.8902,-0.0020999999999999908,-0.00969999999999982,-0.0024799999999999267,-0.00742040697239621,-0.0002870450111482903,0.004341707556765995
150000000000.0,1,-0.036755324199999995,1.2339707695,-0.12094541445,0.54787,0.33763,-0.2228,-1.3955843614999999,-9.629541901,1.222889255,-2.2903,1.3804,-2.86,-0.0016499999999999293,-0.009800000000000031,-0.002670000000000061,-0.00710085398152871,-0.00046276351659479964,0.0015886751403060284
150000000000.0,1,-0.01999575935,1.287417012,-0.16021124105,0.53909,0.32488,-0.1929,-1.3802859874999998,-9.6255211745,1.270353441,-2.3147,1.3783,-2.8318,-0.0019100000000000783,-0.009800000000000031,-0.002769999999999939,-0.00544517352467766,0.0013971130169994073,0.0053020142488238164
150000000000.0,1,0.0141608026,1.3708716035,-0.2182568024,0.5409,0.30672,-0.15764,-1.368419941,-9.6208139825,1.3181118265,-2.3375,1.3758,-2.8054,-0.0013900000000000023,-0.009600000000000053,-0.002829999999999999,-0.0013412893976127993,0.003440228916033794,-0.0010317477141874587
150000000000.0,1,0.07562888479999999,1.5063014399999999,-0.29650406275,0.55545,0.28311,-0.11808,-1.3597900889999999,-9.615224192,1.3671450765,-2.3589,1.3729,-2.7806,-0.0016799999999999038,-0.009800000000000031,-0.0031200000000000117,-0.015454002962786317,-0.00025902673657607345,0.002281841376083671
150000000000.0,1,0.1367831542,1.601229812,-0.40570111049999996,0.56996,0.25631,-0.074247,-1.3552790299999997,-9.6084576035,1.41804159,-2.3788,1.3694,-2.7576,-0.0014700000000000824,-0.009700000000000042,-0.0029200000000000337,-0.0024486761141540025,0.00030795727050914046,0.0005362984765209244
150000000000.0,1,0.2458134889,1.6612465099999998,-0.52288077135,0.60042,0.22723,-0.025043,-1.355082897,-9.6004161505,1.4718800985,-2.3975,1.3653,-2.7361,-0.0011899999999999133,-0.00969999999999982,-0.0027199999999999447,-0.004945637846090367,0.001724643509275925,0.003225913939293612
150000000000.0,1,0.32390384285,1.6252561044999998,-0.57936707535,0.63086,0.1939,0.023102,-1.35920169,-9.590903699999998,1.5291509345,-2.4149,1.3606,-2.7162,-0.0014399999999999968,-0.00990000000000002,-0.002910000000000079,-0.00908748422813277,0.0012170638363748765,-0.0022753456054456223
150000000000.0,1,0.36298334309999997,1.5075763045,-0.6218200632,0.6528,0.16703,0.072288,-1.3678315419999998,-9.579920251999999,1.5889714995,-2.4308,1.3553,-2.6982,-0.0015400000000000968,-0.009600000000000053,-0.0026799999999999047,-0.003921025430124292,-0.00014809990052899735,0.0007368963608960222
150000000000.0,1,0.33903550379999997,1.2753548325,-0.6789143795,0.67691,0.13483,0.10654,-1.379599522,-9.567661939499999,1.6511456605,-2.4455,1.3496,-2.6817,-0.0014799999999999258,-0.009800000000000031,-0.0024500000000000632,-0.009783260124387017,0.0019797902615192875,0.00012699560098861085
150000000000.0,1,0.2613864491,1.0382300355,-0.7463056782999999,0.71176,0.10361,0.13014,-1.393524965,-9.5541287625,1.7168502154999998,-2.4598,1.3434,-2.6659,-0.0015100000000000113,-0.00990000000000002,-0.0023299999999999432,-0.005365953011465807,0.0012567954687257021,0.0016285063659140508
150000000000.0,1,0.12486807444999999,0.6942617867499999,-0.7480512619999999,0.73598,0.072496,0.14305,-1.4083330064999997,-9.539320721,1.7854967655,-2.4737,1.3368,-2.6507,-0.0012300000000000644,-0.009700000000000042,-0.0018400000000000638,-0.0017773522896713523,0.0013424491175850761,0.001432058468040509
150000000000.0,1,-0.044767357249999994,0.2456761958,-0.74456990125,0.73895,0.043699,0.14204,-1.423141048,-9.524414613,1.8521819855,-2.4864,1.3303,-2.6371,-0.0013499999999999623,-0.010000000000000009,-0.0017099999999999893,-0.003364226966691586,0.0031928260049938206,-0.0014543944480380766
150000000000.0,1,-0.19180826734999998,-0.32280549805,-0.7229658512999999,0.7195,0.011893,0.13992,-1.436870358,-9.508723973,1.9211227349999997,-2.4994,1.3237,-2.6236,-0.0013100000000000334,-0.009899999999999798,-0.0017599999999999838,-0.0024175941736144235,0.0028726287215170565,-0.00023550018132056927
150000000000.0,1,-0.30770325705,-0.9048399822,-0.6445126513,0.67666,-0.009066,0.13989,-1.4501093354999999,-9.4931313995,1.9867292234999998,-2.5111,1.3173,-2.6116,-0.0011399999999999189,-0.009700000000000042,-0.0014199999999999768,0.00017034582412334132,0.002507209257347709,0.00031057988556160154
150000000000.0,1,-0.36292450319999997,-1.409607871,-0.5135546472,0.6072,-0.019154,0.14405,-1.4632502465,-9.478519490999998,2.046451722,-2.5209,1.3114,-2.6017,-0.0010999999999999899,-0.00990000000000002,-0.0013800000000000479,-0.0074984131761222095,0.0017964590409709214,-0.001601503121893888
150000000000.0,1,-0.40694655505,-1.7805934405,-0.36963225180000003,0.52612,-0.015296,0.15031,-1.4769795565,-9.4648882475,2.0985250335,-2.5283,1.306,-2.5941,-0.0010000000000000009,-0.00990000000000002,-0.0013299999999999423,-0.0095659509064272,0.0014772645173268817,-0.0029052865026577557
150000000000.0,1,-0.43432672185,-2.0541989755,-0.3141168061499999,0.45475,0.002336,0.15549,-1.4914933984999998,-9.452629935,2.143145291,-2.5336,1.3013,-2.5887,-0.0006099999999999994,-0.009800000000000031,-0.000980000000000092,-2.6342327302142365e-05,-0.00010953722987672165,0.004217210625079737
150000000000.0,1,-0.462089348,-2.188255881,-0.36069839365,0.41112,0.019741,0.15966,-1.5068898389999998,-9.4411561545,2.1826660904999997,-2.5374,1.2969,-2.5846,-0.00047000000000008146,-0.009700000000000042,-0.0007599999999999829,-5.9615926024214616e-05,0.0008557272783544789,0.0007616576083560034
150000000000.0,1,-0.44959567589999994,-2.1497157464999996,-0.5008844554,0.38772,0.029522,0.16173,-1.522580479,-9.430074639999999,2.2193429614999998,-2.5403,1.2928,-2.5813,-0.0006499999999999284,-0.010099999999999998,-0.0006599999999999939,-0.0042583472740671535,0.0037169932494907076,0.0015962244314275953
150000000000.0,1,-0.39871877569999997,-2.0095787179999998,-0.7069417852,0.38024,0.029582,0.16279,-1.538663385,-9.4189931255,2.254941101,-2.5428,1.2887,-2.5783,-0.0006900000000000794,-0.009800000000000031,-0.0006599999999999939,-0.005772792954321426,0.0018678844324140353,-0.0029884978708911714
150000000000.0,1,-0.34230111825,-1.849926456,-0.88405969085,0.37701,0.028539,0.16705,-1.554942424,-9.407911611,2.2900489079999997,-2.5451,1.2846,-2.5756,-0.00012999999999996348,-0.009799999999999809,-0.00022999999999995246,-0.0008139529733190987,0.0010789069745595903,0.003352217937435009
150000000000.0,1,-0.27938165184999997,-1.733227321,-0.96361123565,0.37804,0.025331,0.1692,-1.5715156625,-9.396535897,2.325156715,-2.5473,1.2806,-2.5731,-4.0000000000040004e-05,-0.009800000000000031,-0.000180000000000069,-0.0004774805444698327,0.004583832332026194,-0.0026237401978865815
150000000000.0,1,-0.2595624122,-1.6999827775,-0.9647782269999999,0.37377,0.024302,0.16812,-1.587892768,-9.3850621165,2.3599703224999997,-2.5493,1.2765,-2.5707,-0.0005499999999999394,-0.009800000000000031,4.999999999999449e-05,0.0013125905442574748,-0.0010556520304880745,0.005602229220130095
150000000000.0,1,-0.26400482464999997,-1.7708848569999998,-0.9420660255999999,0.36741,0.025426,0.16277,-1.603975674,-9.373588336,2.3942935975,-2.5514,1.2725,-2.5683,0.00019000000000002348,-0.010399999999999965,2.0000000000020002e-05,-0.005484442578528759,0.0022232853906969385,0.0007365423004312976
150000000000.0,1,-0.2911594385,-1.8664016279999998,-0.9272775973999999,0.35145,0.027694,0.1574,-1.6195682474999997,-9.362506821499998,2.4270478085,-2.5532,1.2687,-2.5661,-2.0000000000020002e-05,-0.010099999999999998,0.00036000000000002697,-0.0003786491475106235,0.0005985723908075169,0.0017567826370836759
150000000000.0,1,-0.2983967462,-1.9211227349999997,-0.9559326286999998,0.33976,0.030992,0.15311,-1.6347685549999997,-9.351621439999999,2.4586252214999997,-2.5548,1.265,-2.5641,2.0000000000020002e-05,-0.010400000000000187,0.00024000000000001798,-0.003188787990109354,0.0034124862500310993,-0.0018834362679163164
150000000000.0,1,-0.27686134279999997,-1.9846698269999998,-0.9932175119999999,0.33548,0.02996,0.15417,-1.6498707959999999,-9.3407360585,2.4896142354999995,-2.5563,1.2613,-2.5622,0.00019999999999997797,-0.009899999999999798,0.00034999999999996145,0.005422955897766979,0.0017080013004937555,0.0009537428683668026
150000000000.0,1,-0.2353988266,-2.126277853,-1.009104285,0.31939,0.024757,0.16162,-1.6654633695,-9.330046809999999,2.5194264515,-2.5575,1.2577,-2.5607,0.00020999999999993246,-0.010300000000000198,0.00045000000000006146,-0.001887784551458882,0.0032098876766233353,-0.0013366968285324354
150000000000.0,1,-0.2044294259,-2.2779867284999997,-1.0120462799999999,0.27881,0.027209,0.17436,-1.682036608,-9.319847893999999,2.546002473,-2.5578,1.2544,-2.5601,0.00036000000000002697,-0.009999999999999787,0.00046999999999997044,-0.001022693780455608,0.0013257241285935528,0.0009832292453451075
150000000000.0,1,-0.13990166889999997,-2.306720213,-1.0007686325,0.21366,0.030923,0.19345,-1.7003750434999998,-9.3107277095,2.5670867705,-2.5566,1.2514,-2.5611,0.0005899999999999794,-0.010200000000000209,0.0006399999999999739,0.0033243494433945475,0.0018965227543705776,-0.0003489460708421266
150000000000.0,1,-0.01825017565,-2.0538067095,-0.97051511725,0.13255,0.042225,0.21464,-1.720870942,-9.303176589,2.5806199475,-2.5535,1.249,-2.5639,0.00045000000000006146,-0.010000000000000009,0.0006599999999999939,0.001925432328732768,0.0013491722004184137,0.0008293749563148545
150000000000.0,1,0.12211240579999999,-1.4956121915,-0.96166951895,0.055804,0.058828,0.22729,-1.7431320375,-9.297390665499998,2.5864058709999997,-2.5486,1.2471,-2.5685,0.0008899999999999464,-0.009999999999999787,0.0010900000000000354,-0.0011628759544506373,-0.001691470752189117,0.0007580430351907808
150000000000.0,1,0.2226697949,-0.9237177834499999,-0.94631230505,0.001478,0.073123,0.2325,-1.7666679975,-9.292977673,2.586602004,-2.5424,1.2457,-2.5743,0.00041000000000002146,-0.010000000000000009,0.0010999999999999899,0.0011881510202980117,0.0001925137709142266,-0.0011056813847636349
150000000000.0,1,0.240262925,-0.56183278515,-0.9130383416,-0.033808,0.072301,0.22385,-1.7751997829999997,-9.306020517499999,2.5331557614999998,-2.5303,1.2499,-2.5857,0.0008000000000000229,-0.010000000000000009,0.0016699999999999493,0.00553792333265557,-0.0026018992449370337,0.000758341933419171
150000000000.0,1,0.1836197146,-0.5442984949499999,-0.9692500593999999,-0.056214,0.057592,0.20035,-1.7960879475,-9.3036669215,2.5271737049999996,-2.5237,1.2491,-2.592,0.0006399999999999739,-0.00990000000000002,0.0018600000000000838,0.006032007606577849,-0.0008499942099422508,-0.0013216624988388048
150000000000.0,1,0.029596469699999996,-0.7904748299,-1.0215587305,-0.076405,0.039689,0.15552,-1.812857319,-9.302392056999999,2.519720651,-2.5179,1.2487,-2.5976,0.000500000000000056,-0.010000000000000009,0.0017099999999999893,0.0033810455165665942,-0.0009072266976213328,0.00039721542765658313
150000000000.0,1,-0.15795571155,-1.1043268565,-1.0156747405,-0.096539,0.019671,0.095743,-1.8238407669999999,-9.3026862565,2.5108946659999996,-2.5134,1.2488,-2.6022,0.0005899999999999794,-0.010099999999999998,0.0020299999999999763,0.0006085752915663267,-0.0028824650070715663,-0.002074654629040884
150000000000.0,1,-0.33533839675,-1.4348109615,-0.9489502939,-0.13158,0.000845,0.031672,-1.8284498925,-9.304843719499999,2.499518952,-2.51,1.2495,-2.6056,0.00039999999999995595,-0.00990000000000002,0.0024199999999999777,0.013264742163248577,-0.0006571068902860855,-0.002173024154947356
150000000000.0,1,-0.44368226594999993,-1.7619608054999998,-0.8308586145999999,-0.18262,-0.016784,-0.031362,-1.826586629,-9.3093547785,2.484024445,-2.5075,1.251,-2.6084,0.0005600000000000049,-0.010499999999999954,0.0021100000000000563,0.00039074945791939264,-0.0015140856593478524,-0.00010050552306961613
150000000000.0,1,-0.4881161971,-2.0089903189999996,-0.6876815246,-0.25719,-0.034231,-0.082696,-1.8193297079999997,-9.316513633,2.4623517484999997,-2.5053,1.2533,-2.6111,0.0006000000000000449,-0.009700000000000042,0.0023900000000000032,0.011797396172950725,-0.0028635915300292414,0.0013146826996395244
150000000000.0,1,-0.46156959554999993,-2.1928650065,-0.5253716604499999,-0.34777,-0.045166,-0.12233,-1.8076597945,-9.326516415999999,2.4328337319999997,-2.5026,1.2566,-2.6144,0.00046000000000001595,-0.010099999999999998,0.0020199999999999108,0.007577787745189468,-0.004377533923745958,-0.0042080203713434905
150000000000.0,1,-0.40886865845,-2.2768099305,-0.3695537986,-0.45011,-0.05069,-0.14811,-1.7932440189999999,-9.3393631275,2.393999398,-2.4987,1.2608,-2.619,0.00044999999999995044,-0.010000000000000009,0.0021500000000000963,0.007121333406510111,0.00048649356758878604,-0.0013545200746825081
150000000000.0,1,-0.32984667274999996,-2.200416127,-0.23393763575,-0.55881,-0.046579,-0.16645,-1.7768669134999997,-9.354857634499998,2.3450642145,-2.4932,1.2661,-2.6253,0.0004899999999999904,-0.010000000000000009,0.0016599999999999948,0.009425730062455173,-0.0054066593136288255,-0.001631724478731389
150000000000.0,1,-0.2376935827,-1.8561046454999999,-0.21095084814999998,-0.65475,-0.046835,-0.18477,-1.7589207439999999,-9.372705737499999,2.2866165804999996,-2.4859,1.2722,-2.6334,0.0006099999999999994,-0.010099999999999998,0.0019000000000000128,0.004104509473125351,-0.0017159655053555767,0.0001828882396877063
150000000000.0,1,-0.18496322564999998,-1.299381125,-0.25149153925,-0.73254,-0.048302,-0.20731,-1.738915178,-9.392417104,2.2203236265,-2.4772,1.2791,-2.643,0.0006300000000000194,-0.010099999999999998,0.0013099999999999223,0.0069189145549770625,-0.005105296024760397,-0.0010545367001173478
150000000000.0,1,-0.1513558361,-0.6696569018999999,-0.27920513215,-0.79116,-0.055255,-0.23089,-1.7167521489999997,-9.4135014015,2.1468718179999997,-2.4671,1.2867,-2.6541,0.0007000000000000339,-0.00990000000000002,0.0011100000000000554,0.011996554157749362,-0.0027868751921527046,-0.004665800108515583
150000000000.0,1,-0.1060294998,-0.05635881755,-0.29695516865,-0.84017,-0.062285,-0.25551,-1.691843258,-9.4352721645,2.069595416,-2.4563,1.2947,-2.6659,0.0007800000000000029,-0.009929999999999994,0.0009399999999999409,0.009004471799318958,-0.003484880442886862,0.003117320983410332
150000000000.0,1,-0.061468082199999996,0.49493181885,-0.3063793593,-0.88174,-0.071508,-0.27905,-1.664580771,-9.4576313265,1.9882002209999998,-2.4445,1.3032,-2.6788,0.0006199999999999539,-0.010040000000000049,0.0006300000000000194,0.002423016676527334,-0.004385342652877711,-0.004314415261047033
150000000000.0,1,0.0014709974999999999,0.9924329799999999,-0.3039669234,-0.90623,-0.075552,-0.29509,-1.6355530870000001,-9.4799904885,1.903863031,-2.4319,1.312,-2.6927,0.0009799999999999809,-0.00983999999999996,0.00036999999999998145,0.006135946414800975,-0.0036509688345802704,-0.001919309811560188
150000000000.0,1,0.10915782115,1.4099020705,-0.30966458705,-0.90832,-0.07659,-0.30577,-1.6052505385,-9.501859318,1.818741309,-2.4185,1.3208,-2.7073,0.0012499999999999734,-0.009650000000000047,0.000260000000000038,0.006787638872586488,-0.003551038083186242,-0.0029338223713670786
150000000000.0,1,0.22092421119999997,1.757155547,-0.33951602965,-0.88496,-0.090635,-0.3057,-1.5745557239999999,-9.522649416,1.7351886509999999,-2.4047,1.3295,-2.7224,0.001040000000000041,-0.00979999999999992,-0.00024000000000001798,0.0030035710838454133,-0.005308630011318316,-0.0011261437513618855
150000000000.0,1,0.28726619844999995,2.0247790254999996,-0.41727295749999993,-0.83709,-0.10914,-0.30772,-1.5434686435,-9.54187045,1.6556567195,-2.3913,1.3379,-2.7373,0.0012699999999999934,-0.00941000000000003,-7.999999999996898e-05,0.009491438848932443,-0.0036995445172560704,-0.003454183104395714
150000000000.0,1,0.29652367604999996,2.196885733,-0.5153492641499999,-0.7668,-0.13102,-0.31717,-1.511400898,-9.559326287,1.5825971769999998,-2.3792,1.3458,-2.751,0.0009200000000000319,-0.009759999999999991,-0.000160000000000049,-0.0004255088947624497,-0.00545048851271468,-0.004548854642903555
150000000000.0,1,0.2163739256,2.318488193,-0.58399581415,-0.68799,-0.16149,-0.33619,-1.4773718224999999,-9.575311126499999,1.5169906885,-2.3694,1.3532,-2.7626,0.0010099999999999554,-0.00943000000000005,-0.00043999999999999595,0.003632687343464225,-0.006731406987028787,-0.002648048356434396
150000000000.0,1,0.08858346945,2.4217522175,-0.6198979598,-0.61229,-0.18765,-0.36697,-1.4403026854999998,-9.589923035,1.4590333869999998,-2.3627,1.3602,-2.7713,0.0011400000000000299,-0.00922999999999996,-0.00019999999999997797,0.00493403143509763,-0.004343308364074261,0.0012685436749304557
150000000000.0,1,-0.060212830999999994,2.515994124,-0.5971171118499999,-0.54719,-0.20627,-0.39991,-1.399801221,-9.603554278499999,1.4078426739999998,-2.3591,1.3669,-2.7771,0.0015100000000000113,-0.010110000000000063,0.00043999999999999595,0.006994009623057185,0.008480037435547372,-0.00769887354708132
150000000000.0,1,-0.1982512364,2.5232510449999994,-0.50464040235,-0.4874,-0.22377,-0.43821,-1.355475163,-9.616499056499999,1.362535951,-2.3588,1.3735,-2.7796,0.00043000000000004146,-0.008549999999999947,-0.0013999999999999568,0.0015190035485062037,-0.02056443917397477,0.0022632712631460716
150000000000.0,1,-0.33388701255,2.2912257059999996,-0.36824951415,-0.44038,-0.23691,-0.47333,-1.3075206445,-9.628757368999999,1.3222306195,-2.3618,1.38,-2.779,0.0008399999999999519,-0.009319999999999995,-0.0003300000000000525,0.0010373022667753418,-0.006217950544912254,-0.002352215414727521
150000000000.0,1,-0.43556235975,1.8561046454999999,-0.2254941101,-0.4169,-0.252,-0.49888,-1.2567221974999998,-9.640525349,1.2847692164999998,-2.3672,1.3865,-2.7759,0.0006000000000000449,-0.009220000000000006,-0.00031999999999998696,0.007741247482881519,-0.004725061038160616,-0.0024471390101101775
150000000000.0,1,-0.5657652517999999,1.3340966659999998,-0.11597344289999999,-0.41045,-0.26055,-0.5234,-1.2033740215,-9.6521952625,1.2482884784999997,-2.3745,1.3931,-2.7712,0.0004899999999999904,-0.00936999999999999,-0.0005500000000000504,0.0047686730793941035,-0.003422526808781079,-0.003113276812811483
150000000000.0,1,-0.7045489626,0.8277400998999999,-0.00220649625,-0.41142,-0.26052,-0.54155,-1.1482606485,-9.663570976499999,1.2116116074999999,-2.383,1.3997,-2.7652,0.00046000000000001595,-0.009419999999999984,-0.0005799999999999139,0.004882800671859311,-0.006446407255034092,0.0009733293430604917
150000000000.0,1,-0.83059383505,0.3780659708,0.16880186644999998,-0.43166,-0.25928,-0.54582,-1.1016790609999998,-9.673377626499999,1.1755231355,-2.3886,1.4058,-2.7621,0.0005899999999999794,-0.009210000000000051,-0.0007000000000000339,0.006105353426526072,-0.001998265720349668,-0.002820563399591247
150000000000.0,1,-0.9441352287499999,0.08329768509999999,0.3236586766,-0.47857,-0.25357,-0.54378,-1.0458792225,-9.684655273999999,1.133256474,-2.3962,1.4129,-2.7569,0.00037999999999993594,-0.009299999999999975,-0.0008000000000000229,0.008980008431713982,-0.001856564932300575,-0.003474649978964406
150000000000.0,1,-0.9716134620499999,0.03245020485,0.4309826542,-0.53928,-0.23177,-0.53005,-0.9914523149999999,-9.695932921499999,1.084811623,-2.4011,1.4204,-2.7544,0.0006300000000000194,-0.00927,-0.0008699999999999264,0.0070610824384360615,-0.002323227045930132,-0.0003734000813204741
150000000000.0,1,-0.9417325995,0.1968586921,0.548976267,-0.58182,-0.20054,-0.50669,-0.9395162965999999,-9.7069163695,1.0311692474999998,-2.4027,1.4281,-2.7549,0.0005199999999999649,-0.00929000000000002,-0.000980000000000092,0.004280421528881417,-0.0016749884364308798,-0.0042529917058982125
150000000000.0,1,-0.8894239284,0.41375237015,0.6444145848,-0.60528,-0.17587,-0.46833,-0.8973967348499999,-9.716232687,0.97930187565,-2.3998,1.4349,-2.7597,0.00021999999999999797,-0.009429999999999938,-0.0010799999999999699,0.004493919029993743,0.0002989185378925452,-0.00010719381776147507
150000000000.0,1,-0.84689248735,0.54341589645,0.65146556615,-0.61922,-0.15556,-0.42142,-0.8537375290499999,-9.7259412705,0.92077578845,-2.394,1.4424,-2.7672,0.0009400000000000519,-0.010050000000000003,0.00017000000000000348,0.006525309901820764,0.013052778846998736,-0.0063102032606383585
150000000000.0,1,-0.76534038595,0.7531311067,0.5345997181,-0.62367,-0.14492,-0.36701,-0.81527584775,-9.734669189,0.8612200029999999,-2.3836,1.4496,-2.7791,0.00048000000000003595,-0.009199999999999986,-0.0010999999999999899,0.000997478772845506,-0.004155108886964021,0.0023185599443611427
150000000000.0,1,-0.7456388261,0.9341226391,0.45209637165,-0.60678,-0.13446,-0.31363,-0.7823156970999999,-9.7424164425,0.8026154625999999,-2.369,1.4563,-2.7952,-0.00014999999999998348,-0.008650000000000047,-0.0015600000000000058,0.00017536022173558763,-0.00989569130948853,8.696150325571139e-05
150000000000.0,1,-0.7424320515499999,1.0133211444999999,0.4690912961,-0.57816,-0.12303,-0.25701,-0.7594858159,-9.748398499,0.7495614861,-2.3496,1.4618,-2.816,0.00035999999999991594,-0.009079999999999977,-0.0005100000000000104,0.007028471257607638,0.0008806405306938103,-0.0023851762908395635
150000000000.0,1,-0.78970010455,0.9991995684999999,0.5106322655,-0.55058,-0.1084,-0.20149,-0.737656213,-9.754086355999998,0.6960465970499999,-2.3272,1.4672,-2.8396,0.00012000000000000899,-0.009210000000000051,-0.0005899999999999794,0.002338468414142758,0.001426007559409248,-0.001651236647458143
150000000000.0,1,-0.82427835245,0.8829809593499999,0.5455439394999999,-0.51451,-0.099163,-0.14487,-0.7214752404999999,-9.7586954815,0.64571886925,-2.3008,1.4719,-2.8671,0.00026999999999999247,-0.009190000000000031,-0.00014999999999998348,0.0035928418791710826,0.002616574629785706,0.0008304268920009683
150000000000.0,1,-0.8786954533,0.5306084115499999,0.6111896546,-0.48063,-0.09524,-0.086108,-0.7110605782,-9.762520075,0.59862733595,-2.2706,1.4759,-2.8985,0.00031999999999998696,-0.010129999999999972,0.0009500000000000064,0.0037774095684575126,0.01609614480970234,-0.0085151430659558
150000000000.0,1,-0.9417522128,-0.022388581949999996,0.6934870613999999,-0.44983,-0.089112,-0.032539,-0.75110113015,-9.760166479,0.58770272785,-2.2348,1.4734,-2.9354,-0.00041999999999997595,-0.008199999999999985,-0.0007500000000000284,0.00011204137121212376,-0.011033672045251297,0.004352093397361534
150000000000.0,1,-1.0764759705,-0.6076494539499999,0.79985979395,-0.4202,-0.086215,0.020877,-0.7513462964,-9.762520075,0.5465834444,-2.1997,1.4759,-2.9714,0.00026999999999999247,-0.010020000000000029,0.0014100000000000223,0.0032256438517233033,0.018717510876769206,-0.004084183486748882
150000000000.0,1,-1.1996474945,-1.1213904275,0.9012115216999999,-0.38734,-0.081212,0.073228,-0.7567595671999999,-9.7641872055,0.5085238357499999,-2.1625,1.4777,-3.0097,-0.00029999999999996696,-0.008689999999999976,-0.00048000000000003595,0.00043953991662704084,-0.00793517461093618,0.005517514088133169
150000000000.0,1,-1.302911519,-1.526699272,0.9974343714999999,-0.35444,-0.069814,0.1245,-0.7671546162,-9.765069804,0.47382790804999997,-2.1241,1.4787,-3.049,9.00000000000345e-05,-0.009340000000000015,0.0007500000000000284,-0.00230351294466824,0.004963016134866383,-0.0009364373598639286
150000000000.0,1,-1.3402748555000001,-1.8417869365,1.0964815365,-0.32259,-0.05628,0.17897,-0.78291390275,-9.765364003499998,0.44193668225,-2.0847,1.479,-3.0891,0.00026999999999999247,-0.010569999999999968,0.0020099999999999563,0.007061587061373942,0.019649414639001606,-0.00595763839659158
150000000000.0,1,-1.308403243,-2.0604752315,1.160518961,-0.28547,-0.042803,0.24626,-0.8051063517,-9.764775604499999,0.41341894404999996,-2.0452,1.4784,-3.1293,-0.000520000000000076,-0.008000000000000007,0.00014999999999998348,-0.011362903146941994,-0.004262869309458628,0.008076169464250382
150000000000.0,1,-1.2114154744999999,-2.1873732825,1.1690507465,-0.23666,-0.02411,0.3285,-0.83500682755,-9.763304607,0.38927497175,-2.007,1.4767,3.1153,-0.00013999999999991797,-0.009149999999999991,0.0011400000000000299,0.0012559323721155202,0.006030861289373357,0.0030920438940715833
150000000000.0,1,-1.0603930645,-2.1579533325,1.1466915845,-0.18255,-0.008662,0.41609,-0.8735273487499999,-9.7606568115,0.37020103749999994,-1.9716,1.4739,3.0796,-2.0000000000020002e-05,-0.009009999999999962,0.0017900000000000693,-0.003898452030539401,0.007555827099113399,0.001511147949785352
150000000000.0,1,-0.9064874994,-1.978393571,1.0667673869999998,-0.10929,0.002364,0.50479,-0.92073656185,-9.7567341515,0.3576092989,-1.9413,1.4699,3.0491,-0.00041999999999997595,-0.009030000000000094,0.0018999999999999018,-0.0007312427001473498,0.006650863113910832,0.0004051147004011657
150000000000.0,1,-0.8412144369999999,-1.7972647454999997,0.9927271795,-0.024225,0.013306,0.58071,-0.9756930284499999,-9.7516346935,0.3529609468,-1.9179,1.4648,3.0257,-0.000300000000000078,-0.008879999999999999,0.0018100000000000893,0.001709619260721995,0.007301368302484512,0.0016287690794090093
150000000000.0,1,-0.8703892207499999,-1.7610782069999997,0.95776647225,0.068392,0.022076,0.63636,-1.036562905,-9.745162304499999,0.3570993531,-1.9026,1.4588,3.0105,-0.0006399999999999739,-0.008949999999999902,0.0017999999999999128,-0.00429057518850251,0.004544141112066802,0.004821218561690044
150000000000.0,1,-0.9945904429999999,-1.8890549895,0.9396339763999999,0.14307,0.040609,0.66741,-1.101090662,-9.737611183999999,0.3689457863,-1.8941,1.4521,3.0024,-0.0011499999999999844,-0.008990000000000054,0.0016500000000000403,-0.0038136903504863984,0.007309876917764191,0.0008235698082474929
150000000000.0,1,-1.1566943674999999,-2.148244749,0.9341422523999999,0.18913,0.070054,0.67918,-1.1672855494999999,-9.729275531499999,0.38566612455,-1.8899,1.4451,2.9987,-0.000260000000000038,-0.009650000000000047,0.0023800000000000487,0.007185623129186469,0.019106907389996097,-0.0004769757879901082
150000000000.0,1,-1.294085534,-2.362225852,0.94805788875,0.2011,0.10086,0.68128,-1.234068836,-9.7202534135,0.40407320659999996,-1.8872,1.438,2.997,-0.0008199999999999319,-0.008829999999999893,0.0011499999999999844,0.0013963237625331804,0.006485570415798891,0.004752478364805635
150000000000.0,1,-1.3602804215,-2.369875039,0.989883251,0.17472,0.13411,0.67477,-1.3002637235,-9.710937096,0.42035224559999995,-1.8835,1.431,2.9944,-0.0012300000000000644,-0.008030000000000093,0.0004999999999999449,-0.008003289506857358,-0.004980396784014518,0.01057677485928843
150000000000.0,1,-1.3161504965,-2.0226215625,1.0478405524999999,0.12086,0.19531,0.66283,-1.3657721455,-9.701522712,0.4310218808,-1.8765,1.4242,2.9892,-0.0005499999999999394,-0.008929999999999993,0.0007000000000000339,-0.005710612550159588,0.006242340288616477,0.003005997410024275
150000000000.0,1,-1.0798102315,-1.219358861,1.0778489015,0.079759,0.25533,0.65625,-1.4306921684999998,-9.691912194999999,0.43636650505,-1.8668,1.4177,2.9819,-9.00000000000345e-05,-0.008499999999999952,0.0009200000000000319,-0.0018363029705801281,0.004125571652134896,0.0023129563313828427
150000000000.0,1,-0.7699985447,-0.12418160895,1.051469013,0.055727,0.31946,0.65716,-1.4958083245,-9.6820074785,0.43754330304999994,-1.8554,1.4112,2.9734,-0.0006099999999999994,-0.008480000000000043,0.0010199999999999099,-0.0029990920330329462,0.004531683865395708,0.005188648781966121
150000000000.0,1,-0.32558077999999996,0.93358327335,0.9644448009,0.05815,0.36099,0.66563,-1.5613167464999997,-9.671710496,0.43750407644999995,-1.844,1.4047,2.9654,-0.00036000000000002697,-0.009000000000000008,0.0008500000000000174,-0.007283810507579647,0.005465932755433389,0.006050720408081078
150000000000.0,1,-0.05227925115,1.712829489,0.78265892985,0.095772,0.39585,0.66563,-1.6275116339999998,-9.6606289815,0.4395732796,-1.8346,1.398,2.9598,-0.0005199999999999649,-0.008519999999999972,0.0012800000000000589,-0.008174982429249855,0.005952112282640698,0.0033436206741241925
150000000000.0,1,0.18202123065,2.2403291925,0.5844763399999999,0.17171,0.41866,0.66466,-1.693804588,-9.648861001499998,0.4471244001,-1.8289,1.3912,2.9582,-0.0006300000000000194,-0.00875999999999999,0.0011599999999999389,-0.0033125052563998114,0.003566986028057384,0.004774218387988638
150000000000.0,1,0.23694827729999998,2.2425847219999997,0.3286208415,0.31049,0.41967,0.65102,-1.7589207439999999,-9.636406555999999,0.46610026784999997,-1.8298,1.3842,2.9635,-0.0007599999999999829,-0.008650000000000047,0.0011100000000000554,-0.00779687327980616,0.002539562231813175,0.004743654096502237
150000000000.0,1,0.14443234119999998,1.719301878,0.18790522065,0.47894,0.39166,0.63215,-1.8221736364999999,-9.622873379,0.50103155515,-1.8391,1.3769,2.977,-0.0008900000000000574,-0.008569999999999967,0.0013100000000000334,-0.0026424455746392184,0.0018188071184972454,0.006389131041916851
150000000000.0,1,0.056368624199999995,0.9180299264499999,0.10694151824999999,0.60891,0.35332,0.60896,-1.8832690659999998,-9.608359537,0.5501138383999999,-1.855,1.3694,2.9969,-0.0011599999999999389,-0.008349999999999969,0.0015199999999999658,-0.0017353825905088716,0.0032613936195149407,-0.0007498176247817678
150000000000.0,1,-0.00907115125,0.18489457909999998,0.09129010484999998,0.68574,0.33354,0.57604,-1.9417167,-9.5931592295,0.60857127905,-1.8745,1.3618,3.0203,-0.0013800000000000479,-0.008879999999999999,0.0009500000000000064,-0.0039610656924147225,0.0009327555215110639,0.00498213906838596
150000000000.0,1,-0.08762241775,-0.40861368555,0.23999814545,0.69987,0.33773,0.53016,-1.9959474744999999,-9.578056988499998,0.6690586962499999,-1.8942,1.3545,3.0439,-0.0012599999999999278,-0.008539999999999992,0.0008799999999999919,0.00010058932433953949,0.0010849192849951006,0.00868075341914154
150000000000.0,1,-0.184757286,-0.8842460172,0.44403530534999996,0.6607,0.34131,0.47564,-2.0451768575,-9.56344508,0.7267316049,-1.9122,1.3476,3.0658,-0.0012500000000000844,-0.008680000000000021,0.00048000000000003595,-0.004395598705409398,0.003234793055689078,0.0020436516977770935
150000000000.0,1,-0.26870221,-1.1337468065,0.6376676095999999,0.57896,0.35058,0.4061,-2.088424184,-9.550108036,0.7771573991999999,-1.927,1.3416,3.0846,-0.0013799999999999368,-0.008429999999999993,0.00038999999999989043,0.003377238051255338,-0.00012711266879628091,0.004720326625744731
150000000000.0,1,-0.30656568565,-0.9946885095,0.7813154188,0.46763,0.39206,0.33326,-2.1250029885,-9.538732322,0.81651148565,-1.9376,1.3365,3.0993,-0.0013400000000000079,-0.009190000000000031,-0.00042999999999993044,-0.0042932321675872576,0.0011409180092103455,0.006768221617132086
150000000000.0,1,-0.22850475164999998,-0.42846234515,0.8625537074,0.37558,0.44617,0.26362,-2.1554036035,-9.529514071,0.84497038395,-1.9444,1.3325,3.1107,-0.0012800000000000589,-0.008619999999999961,-0.00041000000000002146,-0.008008505594141457,0.0020815946779437766,0.00528133546542664
150000000000.0,1,0.019024901,0.42300004109999995,0.7751960691999998,0.33449,0.47428,0.21333,-2.1826660904999997,-9.519511288,0.8866780663999999,-1.9567,1.3282,3.1278,-0.0011199999999998989,-0.008700000000000041,-0.0008899999999999464,-0.002034801810158582,0.0050624087753938785,0.003031110820187477
150000000000.0,1,0.35052889759999994,1.2892802755,0.5697565583499999,0.31332,0.47768,0.18554,-2.2051233189999997,-9.5124505,0.9064188528499999,-1.9608,1.3252,3.1369,-0.0010700000000000154,-0.009319999999999995,-0.0016599999999999948,-0.0035964439768585432,-0.002619079151591208,0.009743488624415209
150000000000.0,1,0.6810816491499999,2.0474323869999997,0.29841635949999995,0.29844,0.47675,0.17164,-2.22610955,-9.505781978,0.924570962,-1.9645,1.3225,-3.1376,-0.0007400000000000739,-0.008440000000000003,-0.0012500000000000844,-0.005698179355968502,0.004943031500161288,0.0033645372199111456
150000000000.0,1,0.9384179518,2.6557388865,0.0308321076,0.29847,0.47675,0.1663,-2.2464093155,-9.499309589,0.9421052522,-1.9679,1.3198,-3.1291,-0.0010799999999999699,-0.009179999999999966,-0.0017800000000000038,-0.006809267651634032,0.0025544268199650944,0.00469123165007912
150000000000.0,1,1.1411998605,3.1243006234999995,-0.14866881399999998,0.3315,0.47222,0.16743,-2.2668071475,-9.492444934,0.96194410515,-1.9721,1.317,-3.1198,-0.0007500000000000284,-0.008730000000000016,-0.0017899999999999583,-0.0037325549149922477,0.00338009492383029,0.001917700067192607
150000000000.0,1,1.265842382,3.4335042979999995,-0.2430480136,0.39114,0.46319,0.17502,-2.287695312,-9.4848938135,0.9869412559999998,-1.9781,1.3139,-3.1089,-0.0010799999999999699,-0.008919999999999983,-0.0019799999999999818,-0.010597388560478871,0.004032142341231504,0.0008193721282065969
150000000000.0,1,1.3285068755,3.5810943804999997,-0.3325435015,0.46774,0.44018,0.18267,-2.3093680085,-9.476165895,1.0192051345,-1.9864,1.3105,-3.0956,-0.0009099999999999664,-0.009170000000000011,-0.0017800000000000038,-0.005965313584938681,0.005855807523755585,0.007061401138622525
150000000000.0,1,1.3540041655,3.5200970175,-0.47633841044999997,0.54854,0.40647,0.18714,-2.3312368379999997,-9.466359245,1.0596085325,-1.9974,1.3066,-3.0799,-0.0007599999999999829,-0.009309999999999985,-0.0024100000000000232,-0.005672075182755698,-0.0008971711875545019,-2.885198497803998e-05
150000000000.0,1,1.310560706,3.1364608695,-0.55855736405,0.60798,0.37081,0.19051,-2.353399867,-9.4554738635,1.1071707849999999,-2.0105,1.3024,-3.0624,-0.0012100000000000444,-0.009540000000000048,-0.0021799999999999597,0.0059788524402373255,0.003463267592007435,0.0010195869451985473
150000000000.0,1,1.2143574695,2.55365166,-0.55849852415,0.62806,0.34614,0.18952,-2.3753667629999997,-9.4439020165,1.157969232,-2.0244,1.298,-3.0444,-0.0009599999999999609,-0.00983999999999996,-0.0024700000000000832,-0.011295831198625095,0.0056908177708541174,0.003527545466500026
150000000000.0,1,1.0937356745,1.9182788065,-0.47084668645,0.61943,0.33236,0.18632,-2.3970394594999997,-9.43203597,1.2086696124999998,-2.0378,1.2935,-3.0269,-0.000980000000000092,-0.009790000000000021,-0.0023099999999999232,0.004751674734506217,-0.0002085508323850238,0.004315596099672803
150000000000.0,1,0.9647880336499999,1.3838163815,-0.35861938385,0.60341,0.32824,0.18417,-2.418516023,-9.420071857,1.2580951284999997,-2.0505,1.2891,-3.0103,-0.0007499999999999174,-0.010029999999999983,-0.0025500000000000522,-0.001642012547802274,0.00492408033624514,0.00579020606505809
150000000000.0,1,0.8922776635499999,0.9741043511499999,-0.26151393554999997,0.57562,0.32313,0.18626,-2.440090653,-9.408107743999999,1.3050689819999999,-2.0619,1.2847,-2.995,-0.0010200000000000209,-0.010290000000000021,-0.0028000000000000247,-0.005872018574227811,0.006374642609792147,0.0024753339767011884
150000000000.0,1,0.9106160990499998,0.72311295105,-0.2144125956,0.53282,0.31601,0.19901,-2.462645948,-9.396143631,1.3487085745,-2.0718,1.2804,-2.9814,-0.0006300000000000194,-0.010189999999999977,-0.0028199999999999337,0.0003170585937515291,0.003451407626566594,0.0016839519326805608
150000000000.0,1,1.0056719575,0.6005788593,-0.19374998405,0.47619,0.32072,0.22345,-2.4873587059999998,-9.383983384999999,1.3869545095,-2.0795,1.2761,-2.9701,-0.0009899999999999354,-0.010840000000000016,-0.003029999999999977,-0.003629740442965712,0.0029272457818194653,0.0031661692059477
150000000000.0,1,1.1253130875,0.57405187105,-0.18745411474999998,0.41202,0.32441,0.25963,-2.515405725,-9.3717250725,1.4192183879999998,-2.0845,1.2718,-2.9614,-0.0004900000000001015,-0.010610000000000008,-0.003090000000000037,-0.004260001911719158,0.005512401089308838,0.001982179064894396
150000000000.0,1,1.2485826779999998,0.60474668555,-0.1958976404,0.34785,0.33022,0.299,-2.547179271,-9.3591725605,1.4452060105,-2.0869,1.2675,-2.9555,-0.0007999999999999119,-0.010629999999999973,-0.002829999999999999,-0.0015370344180776208,0.0051943013764770285,0.0014323236203379608
150000000000.0,1,1.346453045,0.6269391344999999,-0.22347394019999997,0.29961,0.32631,0.33842,-2.5827774105,-9.3462277825,1.4658980419999998,-2.087,1.2631,-2.9519,-0.000180000000000069,-0.010709999999999997,-0.0030000000000000027,-0.00177776578127542,0.004264593220188129,0.0035843292578565666
150000000000.0,1,1.3987224894999999,0.6534955427,-0.25527690615,0.2727,0.31691,0.37148,-2.6214156115,-9.332596538999999,1.4834519454999997,-2.0858,1.2586,-2.9499,-0.00020999999999993246,-0.01088,-0.0032799999999999496,-0.006409164852507088,0.004651313576012894,0.0012193137976284074
150000000000.0,1,1.423533314,0.6335390099499999,-0.3219915461,0.27139,0.30304,0.39819,-2.662701608,-9.3181807635,1.5005155165,-2.084,1.2539,-2.9485,-0.00040000000000006697,-0.01091000000000003,-0.0029800000000000937,-0.0040427761808758955,0.0038171014360410815,-0.0006618794525861116
150000000000.0,1,1.4401065525,0.55541923605,-0.37761486489999996,0.28603,0.28052,0.42067,-2.7057528014999996,-9.302784323,1.519050085,-2.0824,1.2488,-2.9472,3.0000000000085514e-05,-0.010819999999999996,-0.003029999999999977,-0.008865421629195014,0.005286850071976712,0.0006240493042597439
150000000000.0,1,1.413530531,0.39841476955,-0.43327741029999994,0.31558,0.25147,0.43456,-2.7249738354999997,-9.294644803499999,1.5343484589999998,-2.0836,1.2462,-2.9434,0.00015999999999993797,-0.011079999999999979,-0.002829999999999999,0.0015941438195528068,-0.0007577962856359921,0.00193724111850746
150000000000.0,1,1.382933783,0.25759127555,-0.5204193022,0.35692,0.21916,0.43682,-2.7691037604999997,-9.277287032999999,1.560238015,-2.0839,1.2407,-2.9407,-0.00043999999999999595,-0.011110000000000009,-0.00268999999999997,-0.0037382566971340125,0.005278244045461067,-0.0024315007183073334
150000000000.0,1,1.309187775,0.0992236847,-0.5885559064,0.40152,0.18577,0.42629,-2.8120568875,-9.2591447305,1.5909328295,-2.0857,1.2351,-2.9368,0.00041000000000002146,-0.011429999999999996,-0.0025300000000000322,-0.009842595567286727,-0.0015053450988031791,0.0027644954426848667
150000000000.0,1,1.220535659,-0.025252123749999997,-0.6402369519,0.43977,0.15031,0.40293,-2.8524602855,-9.240610162,1.6263348359999998,-2.089,1.2294,-2.9316,9.99999999995449e-06,-0.011280000000000012,-0.0021900000000000253,-0.0016272814259594703,0.0016269165717963663,-0.0009441134985639366
150000000000.0,1,1.0898130145,-0.2236112333,-0.5826326897999999,0.45354,0.12782,0.37082,-2.8426536355,-9.241296627499999,1.6396718799999999,-2.094,1.2296,-2.9249,4.0000000000040004e-05,-0.01146999999999998,-0.0020799999999999708,-0.004734539587533115,-0.00013000522416084515,0.0005764285613556464
150000000000.0,1,1.0219509965,-0.4712879856999999,-0.54816231505,0.45143,0.1055,0.33029,-2.8759962454999997,-9.2240369235,1.6782120145,-2.099,1.2244,-2.9184,0.000140000000000029,-0.011570000000000025,-0.0016399999999999748,-0.0086372811552613,-0.002202961685113358,-0.0029987185152984264
150000000000.0,1,0.95196093545,-0.84132231015,-0.50018818325,0.44932,0.081052,0.28657,-2.9050239294999995,-9.2077578845,1.717144415,-2.1047,1.2195,-2.9115,0.00045999999999990493,-0.01158999999999999,-0.0013800000000000479,0.006539507657424393,-0.0011512768805526097,0.004352983672183841
150000000000.0,1,0.8796565049999999,-1.2407373579999998,-0.45970633205,0.45254,0.052306,0.23646,-2.929050222,-9.192655643499998,1.756959414,-2.1111,1.215,-2.904,0.0004900000000001015,-0.012050000000000005,-0.0006800000000000139,-0.006785514601270304,0.00044847098253009143,-0.0007154590208009459
150000000000.0,1,0.7782263240499999,-1.6460462025,-0.4481246784,0.45575,0.016111,0.17675,-2.9471925245,-9.178828267,1.7980492775,-2.1186,1.211,-2.8957,-7.00000000000145e-05,-0.011119999999999991,-0.0013599999999999168,0.00016910164966477126,-0.0038100873398372315,-0.0037219844285840686
150000000000.0,1,0.6410116772500001,-2.105880021,-0.41346797729999996,0.44938,-0.019999,0.11169,-2.9588624379999997,-9.1667660875,1.8398256064999998,-2.1271,1.2076,-2.8867,0.0008199999999999319,-0.011539999999999995,-0.000280000000000058,0.002921860965847456,-0.0028783187479395345,0.00288237994379803
150000000000.0,1,0.4788783328,-2.542079813,-0.35510860315,0.42818,-0.044265,0.046586,-2.9638638294999997,-9.156861371,1.8808174034999998,-2.1362,1.2047,-2.8773,0.0005600000000000049,-0.011840000000000017,4.999999999999449e-05,-0.008820098164651569,0.0011999117528673775,-0.0026387272884318413
150000000000.0,1,0.32813050899999996,-2.8555984134999997,-0.30697756494999995,0.38995,-0.05987,-0.015362,-2.962785098,-9.1493102505,1.919161405,-2.1456,1.2026,-2.8679,0.0008600000000000829,-0.011889999999999984,4.999999999999449e-05,0.0012642336773220908,-0.0073289153338966795,-0.0025229900659884397
150000000000.0,1,0.30274109214999995,-2.9583721054999996,-0.27592971104999997,0.34317,-0.071153,-0.066658,-2.9566069084999995,-9.1440146595,1.953680813,-2.1547,1.2011,-2.8588,0.0010000000000000009,-0.012160000000000004,0.0006900000000000794,-0.00752275499489885,-0.005084186277275471,0.003502917811684547
150000000000.0,1,0.3782228772,-2.9422891995000002,-0.24631362804999998,0.29739,-0.083522,-0.10621,-2.946113793,-9.140778465,1.9841794945,-2.1635,1.2002,-2.8503,0.0006299999999999084,-0.012359999999999996,0.0006799999999999029,0.004901468173539314,-0.0036755985597236585,-0.0011195554776946004
150000000000.0,1,0.46084390345,-2.880016972,-0.22864204474999997,0.25803,-0.092749,-0.14362,-2.9320902834999996,-9.139307467499998,2.0112458484999998,-2.172,1.1998,-2.8421,0.0012400000000000189,-0.012160000000000004,0.0016000000000000458,-0.0045007119306597065,-0.0043812771686890795,0.0019692839678444596
150000000000.0,1,0.4583628209999999,-2.9030625995,-0.2627986067,0.22401,-0.10202,-0.18423,-2.9142421804999996,-9.139699733499999,2.0353702075,-2.1805,1.1999,-2.8341,0.0006399999999999739,-0.012604000000000004,0.0013499999999999623,0.008488537428533949,-0.0010461370589345265,-0.002699258748994904
150000000000.0,1,0.34571383245,-3.0831126935,-0.3143815857,0.19534,-0.11558,-0.23228,-2.8917849519999996,-9.1420533295,2.057042904,-2.1891,1.2005,-2.826,0.0015500000000000513,-0.012476000000000001,0.0015600000000000058,-0.0034414751190454673,-0.0037433790877550166,-0.0006955754986783802
150000000000.0,1,0.16920393909999998,-3.4020249514999996,-0.34216382515,0.16346,-0.13019,-0.28248,-2.8644243985,-9.146270188999999,2.0763620045,-2.198,1.2017,-2.8178,0.0011599999999999389,-0.012699999999999996,0.0009700000000000264,0.0074215490078817226,-0.0038423021789188994,0.0004800811724008369
150000000000.0,1,0.0240066792,-3.7033833059999997,-0.34651797775,0.12624,-0.14262,-0.32735,-2.8325527859999995,-9.152448378499999,2.0928371765,-2.2071,1.2035,-2.8096,0.0015500000000000513,-0.013062999999999998,0.0014000000000000679,-0.007111487861274357,-0.003149246162888364,0.0014751978256419829
150000000000.0,1,-0.020780291349999997,-3.8478352604999997,-0.32481586129999995,0.086891,-0.14227,-0.35197,-2.7976411119999995,-9.160195631999999,2.1057819545,-2.216,1.2057,-2.8016,0.0013699999999999823,-0.012418000000000002,0.0016299999999999093,0.008938050307787826,-0.0039771837853326275,0.000791992256591989
150000000000.0,1,0.03977577239999999,-3.7846804345,-0.26567195514999997,0.027265,-0.12899,-0.3553,-2.7622391054999995,-9.16921775,2.1134311415,-2.2239,1.2082,-2.7946,0.0016000000000000458,-0.012793,0.0013500000000000734,-0.006822660540680481,-0.004007131157515165,-0.0036241125651210737
150000000000.0,1,0.28597172065,-3.2989570599999998,-0.2872760051,-0.038784,-0.11034,-0.34584,-2.7277196975,-9.1793185995,2.11431374,-2.2302,1.2112,-2.7891,0.0016999999999999238,-0.01307426,0.0013499999999999623,-0.002899780099836269,-0.0072084411429544915,3.284212393372954e-06
150000000000.0,1,0.6098559501999999,-2.384781147,-0.4209994845,-0.071816,-0.093039,-0.32672,-2.6952596859999995,-9.189615582,2.110979479,-2.2352,1.2142,-2.7847,0.0017800000000000038,-0.01251574,0.0018700000000000383,0.010882841225120954,-0.006984732250286063,0.004429263504895475
150000000000.0,1,0.7477178358999998,-1.370185138,-0.5280684891999999,-0.080458,-0.085572,-0.31733,-2.604253974,-9.226880852,2.0623384949999997,-2.2406,1.2252,-2.7801,0.0016800000000000148,-0.012798,0.0021399999999999197,-0.003962961474483828,-0.005884103482059144,-0.0039866620909301265
150000000000.0,1,0.8949646856499999,-0.42036205224999995,-0.7169641814999999,-0.080518,-0.095159,-0.32052,-2.5728726939999995,-9.2367855685,2.057239037,-2.2453,1.2282,-2.776,0.0009799999999999809,-0.012983000000000001,0.0018600000000000838,0.002587533900681338,-0.0057541747509839425,-0.0044061608377805594
150000000000.0,1,0.8826279199499999,0.1642810008,-0.89875005255,-0.077293,-0.11007,-0.34931,-2.5391378179999995,-9.2471806175,2.052727978,-2.2507,1.2314,-2.7714,0.0023800000000000487,-0.012648,0.0031799999999999606,0.00630093163118195,-0.011359832088607913,0.00873040449148732
150000000000.0,1,0.64748406625,0.11882717804999998,-0.9234628105499999,-0.082591,-0.13875,-0.40264,-2.5005976834999997,-9.2585563315,2.048609185,-2.2572,1.2349,-2.7659,0.0010299999999999754,-0.012730000000000005,0.0023199999999999887,0.010212718937737675,-0.007465599264401268,-0.0050269679112513455
150000000000.0,1,0.22727892039999997,-0.47945692514999994,-0.7197492701,-0.11667,-0.16187,-0.47423,-2.4368544584999996,-9.287093682999998,1.9955552085,-2.257,1.2438,-2.7669,0.0021700000000000053,-0.01296499999999999,0.002950000000000008,-0.0010127355615581202,-0.0046173397354785095,-0.0003113564743211228
150000000000.0,1,-0.13536118995,-1.1287454149999998,-0.51803628625,-0.16438,-0.17312,-0.55328,-2.383800482,-9.302980456,1.9855524254999999,-2.2653,1.2489,-2.76,0.0018700000000000383,-0.01298500000000001,0.00273000000000001,0.000892943725585793,-0.009527217110380404,0.0009286039327196516
150000000000.0,1,-0.3599432816,-1.6597755125,-0.30963516709999994,-0.21633,-0.17794,-0.62701,-2.3234895845,-9.321318891499999,1.9707443839999998,-2.2742,1.2549,-2.7524,0.0017199999999999438,-0.012886999999999996,0.0024899999999999922,0.008188752179820957,-0.008793500362397788,0.0003593079231898333
150000000000.0,1,-0.5230082577999999,-2.158051399,-0.14286327719999997,-0.26622,-0.18173,-0.68473,-2.257294697,-9.3417167235,1.9512291505,-2.2836,1.2616,-2.7445,0.001980000000000093,-0.013119999999999993,0.003029999999999977,-0.002000759881843006,-0.005418376031474104,-0.0002924349667443593
150000000000.0,1,-0.5698938514499999,-2.4902026344999997,-0.06238990729999999,-0.32794,-0.18225,-0.71899,-2.1871771495,-9.363585553,1.9259279935,-2.2928,1.2691,-2.7367,0.0011899999999999133,-0.013350000000000015,0.0023300000000000542,0.009856187644341485,-0.006181203713979899,-0.005497409454710667
150000000000.0,1,-0.46123616944999996,-2.3686001744999996,-0.1017734137,-0.38444,-0.18178,-0.72763,-2.115490538,-9.386336981,1.895037046,-2.3013,1.277,-2.7298,0.0022300000000000653,-0.012699999999999989,0.0028399999999999537,0.004149212514619416,-0.009221863443210632,0.00259527699839901
150000000000.0,1,-0.22564120985,-1.7548019509999997,-0.15668084705000002,-0.41542,-0.18153,-0.71808,-2.0443923254999996,-9.409088408999999,1.860321505,-2.3091,1.2851,-2.7235,0.0012699999999999934,-0.013030000000000014,0.0023800000000000487,0.008218059594636173,-0.005185759853315153,-0.0013440357360958721
150000000000.0,1,-0.04078585735,-1.0356803065,-0.20808730634999997,-0.43262,-0.18674,-0.70209,-1.9743728445,-9.431153371499999,1.8235465675,-2.3165,1.2932,-2.7177,0.0016899999999999693,-0.013249999999999984,0.0024399999999999977,0.011135711637985768,-0.009355548493793941,-0.004681750024393416
