Time,placement_label,user_acc_x(m/s^2),user_acc_y(m/s^2),user_acc_z(m/s^2),rotation_rate_x(rad/s),rotation_rate_y(rad/s),rotation_rate_z(rad/s),gravity_x(m/s^2),gravity_y(m/s^2),gravity_z(m/s^2),attitude_roll(rad),attitude_pitch(rad),attitude_yaw(rad),target_delta_x,target_delta_y,target_delta_z,target_delta_roll,target_delta_pitch,target_delta_yaw
149750000000.0,2,-0.25325673625,0.0012160246,-0.5705018637499999,0.085803,0.006063,-0.029852,0.31685286149999997,-6.084535992499999,-7.684294807,0.04121,0.66932,2.9869,0.0,0.0,0.0,0.0,0.0,0.0
149750000000.0,2,-0.3535101192,-0.013533176999999999,-0.5158886299,0.14453,0.013024,-0.030815,0.3098116868,-6.088556719,-7.6814508785,0.040311,0.66984,2.9872,-9.999999999998899e-05,-9.999999999998899e-05,-9.999999999998899e-05,0.0018980084542885578,-0.0005169707316530214,0.0002915352481283051
149750000000.0,2,-0.3958552339,-0.07528565205,-0.4394163732,0.17859,0.006345,-0.025408,0.3122045094,-6.1015995635,-7.670957763,0.040678,0.67154,2.9868,9.999999999998899e-05,-9.999999999998899e-05,-0.00029999999999996696,0.0015528081986564413,-0.00045044469805577414,-1.2991109121784916e-07
149750000000.0,2,-0.2872171652,-0.16385931485,-0.3272871371,0.19126,-0.00868,-0.023224,0.31325382095,-6.116113405499999,-7.659287849499999,0.040875,0.67343,2.9864,4.999999999988347e-05,6.666666666665932e-05,-9.999999999998899e-05,0.0008878449866686067,-1.6665906657609142e-05,-0.00018759402090362531
149750000000.0,2,-0.28700141889999997,-0.14914933985,-0.33905511709999997,0.19218,-0.031059,-0.029588,0.31303807464999994,-6.1308233805,-7.6475198695,0.040911,0.67535,2.9859,5.0000000000105516e-05,6.666666666665932e-05,9.999999999998899e-05,0.00034908150675294625,-0.0002137141641520568,-7.007299781941478e-05
149750000000.0,2,-0.20383122025,-0.15866179034999997,-0.26473051675,0.17291,-0.049007,-0.043455,0.30603612654999995,-6.1439642915,-7.6373209535,0.040049,0.67706,2.9858,-5.0000000000105516e-05,6.666666666665932e-05,9.999999999998899e-05,-0.0008417204648383247,-0.00019526000257297227,-0.0002245605631859271
149750000000.0,2,-0.15781841845,-0.14785486204999998,-0.22579811624999999,0.14949,-0.05093,-0.057369,0.3053594677,-6.155634205,-7.6279065694999995,0.04001,0.67859,2.9851,-4.999999999988347e-05,0.00029999999999996696,0.00029999999999996696,-0.000807104472895559,-7.745644199741442e-05,-0.00012332608858850458
149750000000.0,2,-0.1488257204,-0.12580951285,-0.1520226883,0.12616,-0.041135,-0.070235,0.30609496645,-6.165440855,-7.619963183,0.040148,0.67988,2.9841,-4.999999999988347e-05,0.00029999999999996696,0.00029999999999996696,-0.001899946354426918,-0.0005847161194374451,-1.149031025626801e-05
149750000000.0,2,-0.14434408135,-0.124740588,-0.06006573125,0.10284,-0.024952,-0.076709,0.30849759569999996,-6.173482308,-7.613294660999999,0.040499,0.68094,2.9831,-5.0000000000105516e-05,0.00029999999999996696,0.000400000000000178,-0.0023435342016510097,-0.0008990808265210148,-0.0001389482574068457
149750000000.0,2,-0.15345445919999998,-0.1160911227,0.0471111466,0.084873,-0.010943,-0.086363,0.30817397625,-6.183092824999999,-7.605645474,0.040498,0.68219,2.9823,-9.999999999998899e-05,0.00039999999999995595,0.00019999999999997797,-0.0013775137921252512,-0.0003343274846432376,-0.00044824974851565
149750000000.0,2,-0.1506497573,-0.11824858569999999,0.14009780189999999,0.070123,0.005175,-0.098158,0.314205066,-6.1883884160000004,-7.601036348499999,0.041313,0.68289,2.9811,4.999999999988347e-05,0.00029999999999996696,0.00029999999999996696,-0.002323617706898262,0.00018377005700909166,-0.0005878347791780092
149750000000.0,2,-0.11806225934999999,-0.08300348559999998,0.20408619314999998,0.05746,0.015947,-0.10887,0.3217169599,-6.192703342,-7.597211755,0.042321,0.68345,2.9797,5.0000000000105516e-05,0.00020000000000020002,0.00014999999999987246,-0.0017115196321089154,-0.0001259470840668797,-0.0005523535441810945
149750000000.0,2,-0.0526028706,-0.0456597624,0.23862521444999998,0.042593,0.021403,-0.11425,0.3303271986,-6.195743403499999,-7.5943678265,0.043469,0.68386,2.9782,-9.999999999998899e-05,0.00039999999999995595,0.0001500000000000945,-0.0018149160133364983,-0.0005582443568952211,-0.0005816615036776107
149750000000.0,2,0.02346731345,-0.00085317855,0.20282113529999998,0.037164,0.010792,-0.11103,0.3394081565,-6.201333194,-7.589366435,0.044691,0.68459,2.9766,-0.00029999999999996696,0.00029999999999996696,0.0004999999999999449,-0.0008065702968363953,-0.0002139730326173872,-0.0007583079071463716
149750000000.0,2,0.07048039354999999,0.045493049349999995,0.20328204785,0.031622,-0.010482,-0.10354,0.34565499255,-6.203490657,-7.5873070385,0.045526,0.68489,2.9753,-9.999999999998899e-05,0.00029999999999996696,-0.0004999999999999449,-0.004068979276068974,-0.004405940248965123,-0.0002219116532743426
149750000000.0,2,0.0987529655,0.06767569165,0.18113863215,0.033607,-0.026487,-0.099234,0.35016605155,-6.20564812,-7.585345708499999,0.04613,0.68517,2.9739,-9.999999999998899e-05,0.00029999999999996696,0.00029999999999996696,-0.0008531094581776255,-0.000506348793735345,-0.0008317214834283604
149750000000.0,2,0.09215309005,0.09739964779999999,0.14557971925,0.042099,-0.031885,-0.09921,0.35391219185,-6.2082959155,-7.5829921124999995,0.046638,0.68551,2.9726,-0.000300000000000189,0.00019999999999997797,0.00019999999999997797,-0.0006725696995851793,-0.0007567308714611087,-0.0008522377559400107
149750000000.0,2,0.07582501779999999,0.09761539409999999,0.1635356954,0.04751,-0.026592,-0.10562,0.36081607345,-6.212120509,-7.579559785,0.047568,0.68602,2.9711,-0.00029999999999996696,0.00029999999999996696,0.00019999999999997797,-0.0011725312724782944,-0.0013600187583544532,-0.0005946721087389806
149750000000.0,2,0.05855550714999999,0.06185054155,0.1873658549,0.049752,-0.017013,-0.11204,0.36626857085,-6.2153567034999995,-7.576617789999999,0.048304,0.68645,2.9696,-0.0004999999999999449,0.00020000000000020002,0.001100000000000101,0.00365185830567194,0.003658506439279119,-0.001358463965257739
149750000000.0,2,0.07369697474999999,0.0441887649,0.20779310685,0.043441,-0.008432,-0.11633,0.3726723133,-6.218396765,-7.573871928,0.049166,0.68684,2.9681,-0.00039999999999995595,0.00019999999999997797,0.00039999999999995595,-5.477752496885202e-05,-0.0004662508540307364,-0.0007390217811323319
149750000000.0,2,0.11051113884999998,0.0359707922,0.21745265709999997,0.034892,-0.009428,-0.11528,0.37925257544999996,-6.2207503609999995,-7.571518331999999,0.050047,0.68716,2.9666,-0.00019999999999997797,0.00019999999999997797,6.666666666665932e-05,0.00013943947119265943,-0.0003437840321460772,-0.0007519952085388026
149750000000.0,2,0.1498063854,0.0205351251,0.22597463595,0.02524,-0.012545,-0.10889,0.39023602344999997,-6.225457553,-7.567203405999999,0.051524,0.68777,2.9647,-0.00019999999999997797,0.00019999999999997797,6.666666666665932e-05,0.0003737859794398224,-0.00045147404146850256,-0.0009286302854490947
149750000000.0,2,0.18745411474999998,0.06644005374999999,0.2369678906,0.014491,-0.014601,-0.096098,0.39538451469999997,-6.226242085,-7.566222741,0.052209,0.68788,2.9634,-0.000400000000000178,0.00019999999999997797,6.666666666665932e-05,-0.000112054865210931,-0.00043200022654010795,-0.0009070691002330822
149750000000.0,2,0.19755496425,0.1175228936,0.23256470475,0.005884,-0.013481,-0.080104,0.39965040744999997,-6.2266343509999995,-7.5657324085,0.052775,0.68793,2.9623,-0.00039999999999995595,0.0002666666666666373,0.0003333333333332966,-0.0005776424982927297,-0.0008041657365840393,-0.0009813309330090059
149750000000.0,2,0.1702630573,0.12144555359999998,0.22375833304999998,-0.003813,-0.01874,-0.069438,0.4028473753499999,-6.226242085,-7.565830474999999,0.053195,0.68788,2.9613,-0.00039999999999995595,0.0002666666666666373,0.00033333333333351867,-0.0005768949939112256,-0.0008047263738937271,-0.000980942199571344
149750000000.0,2,0.13625359509999999,0.12864363469999998,0.16934123219999997,-0.009213,-0.02296,-0.063043,0.40977087025000003,-6.2253594864999995,-7.566222741,0.054105,0.68776,2.9601,-0.00039999999999995595,0.0002666666666666373,0.0003333333333332966,-0.0005761469435417998,-0.000805285180772719,-0.0009805533656099263
149750000000.0,2,0.11134470409999998,0.1215240068,0.1370185138,-0.012527,-0.035719,-0.060898,0.41492916814999997,-6.223888488999999,-7.5671053395,0.054778,0.68757,2.959,-0.00029999999999996696,0.00019999999999997797,0.00019999999999997797,-0.0003818216648395767,-0.0006315932378182509,-0.0010680583150238232
149750000000.0,2,0.10075352209999999,0.0929866553,0.161809725,-0.013753,-0.053823,-0.057671,0.41818497595,-6.2232020235,-7.567497605499999,0.055205,0.68748,2.958,-0.00029999999999996696,0.00010000000000021103,9.999999999998899e-05,-0.0002020515340116491,-0.0004191978755820891,-0.0011942034235469245
149750000000.0,2,0.10441140254999999,0.062958693,0.16087809325,-0.014972,-0.071926,-0.055512,0.4197638466,-6.222907824,-7.5675956719999995,0.055412,0.68744,2.957,-9.999999999998899e-05,9.999999999998899e-05,-9.999999999998899e-05,-0.0005204209354496836,-0.000626143851606642,-0.0006346625290447605
149750000000.0,2,0.11955287015,0.03707894365,0.1632807225,-0.010751,-0.076222,-0.0523,0.42094064459999997,-6.2233981565,-7.567203405999999,0.055569,0.6875,2.956,-9.999999999998899e-05,9.999999999998899e-05,-0.00019999999999997797,-0.0003382900329902405,-0.0008392010762594548,-0.0005552292388953384
149750000000.0,2,0.12790813595,0.0530932031,0.19161213435,-0.010745,-0.074089,-0.049108,0.42200956945,-6.223986555499999,-7.566615007,0.055715,0.68758,2.9551,-0.00010000000000021103,9.999999999998899e-05,-9.999999999998899e-05,0.000642906231935747,8.382760723479876e-05,-0.0007520389140342476
149750000000.0,2,0.102185293,0.085906254,0.20039889274999997,-0.011773,-0.065558,-0.042725,0.42259796844999997,-6.224182688499999,-7.566418874,0.055793,0.68761,2.9542,-9.999999999998899e-05,9.999999999998899e-05,-9.999999999998899e-05,0.0003799541545803642,4.707093096567583e-05,-0.000795351086467555
149750000000.0,2,0.0730791558,0.10647079905,0.20245828924999998,-0.018104,-0.053786,-0.037423,0.42297062115,-6.223692355999999,-7.5669092065,0.05584,0.68754,2.9536,-0.00019999999999997797,4.999999999988347e-05,-9.999999999998899e-05,0.0006957776759332068,2.3642485742714214e-05,-0.0007543281192355922
149750000000.0,2,0.018956254449999998,0.12082773464999999,0.1485511342,-0.028685,-0.041978,-0.036396,0.42248028865,-6.221534892999999,-7.568674403499999,0.055762,0.68726,2.953,-9.999999999998899e-05,5.0000000000105516e-05,-0.00010000000000021103,0.0005622581369232327,0.0004141308997123172,-0.0009340077614238274
149750000000.0,2,-0.01611232595,0.10390145675,0.106892485,-0.040338,-0.030163,-0.034302,0.42178401649999997,-6.218396765,-7.571322198999999,0.055651,0.68684,2.9527,-9.999999999998899e-05,9.999999999998899e-05,-9.999999999998899e-05,-6.396458272828198e-05,0.0004099519960394371,-0.0007513993720353884
149750000000.0,2,-0.01899548105,0.0633705723,0.08956413445,-0.054137,-0.022588,-0.036473,0.42182324309999997,-6.214474105,-7.574460326999999,0.055632,0.68633,2.9523,-9.999999999998899e-05,4.999999999988347e-05,-0.00019999999999997797,6.849341028525302e-05,9.048809232581334e-06,-0.0005060681118562171
149750000000.0,2,-0.004059953099999999,0.0410310236,0.09715448154999999,-0.06475,-0.015042,-0.035437,0.42274506819999996,-6.210159179,-7.577990720999999,0.055728,0.68576,2.9518,-9.999999999998899e-05,5.0000000000105516e-05,-9.999999999998899e-05,-9.964028417241977e-05,-0.0003039383161358433,-0.0006183203176895469
149750000000.0,2,0.02352615335,0.0004707192,0.10736320419999999,-0.065735,-0.006505,-0.037589,0.42523595729999997,-6.206040385999999,-7.581128848999999,0.056033,0.68522,2.9513,-9.999999999998899e-05,9.999999999998899e-05,-9.999999999998899e-05,-0.00012621583579397466,8.367299550959828e-05,-0.0006030458433421426
149750000000.0,2,0.051337812749999996,-0.028596191400000002,0.13456685129999998,-0.06674,-0.003289,-0.044003,0.4290017109,-6.202706124999999,-7.583678578,0.056508,0.68478,2.9507,4.999999999988347e-05,6.666666666665932e-05,-0.00029999999999996696,-0.0007852288519858419,-0.0002781508011995282,-0.0005615528461857533
149750000000.0,2,0.09480088554999999,-0.04270796075,0.16327091585,-0.071067,-0.016028,-0.051462,0.43371870955,-6.1996660635,-7.585934107499999,0.057112,0.68438,2.9499,5.0000000000105516e-05,6.666666666665932e-05,-0.0007999999999999119,-0.0018556057766039302,-0.0021021309900999263,-0.00043552057229701013
149750000000.0,2,0.10867729529999999,-0.033440676499999995,0.16174107845,-0.081931,-0.040443,-0.050375,0.4370431639,-6.195645336999999,-7.588974168999999,0.057526,0.68385,2.9491,-0.00019999999999997797,6.666666666665932e-05,2.4999999999941735e-05,0.0012231191259355345,0.0009912772194617947,-0.0008519086257584019
149750000000.0,2,0.0999886034,-0.0469150136,0.11566943675,-0.09493,-0.059523,-0.04076,0.43795518234999997,-6.190251679499999,-7.5933871615,0.057612,0.68314,2.9484,-0.00029999999999996696,9.999999999998899e-05,2.500000000016378e-05,0.0012985614655425248,0.0009059032429337144,-0.0006601719551464491
149750000000.0,2,0.07537391189999999,-0.05333836935,0.1116977435,-0.10998,-0.063674,-0.02477,0.43668031784999994,-6.183877357,-7.5986827525,0.057405,0.6823,2.9479,-9.999999999998899e-05,5.0000000000105516e-05,2.4999999999941735e-05,0.0022285695946748785,0.0008390602985686169,-0.0004834816709088363
149750000000.0,2,0.0661556609,-0.06279197995,0.0879264239,-0.11425,-0.055126,-0.00985,0.4345326615,-6.176816569,-7.604566742499999,0.057079,0.68137,2.9477,-0.00029999999999996696,4.999999999988347e-05,2.4999999999941735e-05,0.0008411399303880351,-9.816370272197616e-07,-0.0005416615149074211
149750000000.0,2,0.0487194372,-0.10108694819999998,0.042286274799999995,-0.11101,-0.046632,-0.003456,0.43206138569999997,-6.169755781,-7.610352665999999,0.056713,0.68045,2.9477,-9.999999999998899e-05,9.999999999998899e-05,-0.00019999999999997797,0.0003739516056066039,-0.0003724111479106451,-0.0003908615989653419
149750000000.0,2,0.03909911355,-0.10077313539999999,0.02054493175,-0.095993,-0.038227,-0.004513,0.43001179585,-6.163479524999999,-7.6155501905,0.056405,0.67963,2.9476,-0.00019999999999997797,-4.0000000000040004e-05,-0.00019999999999997797,-0.0002575670064705049,-0.00027171259284042293,-0.00046129835209229864
149750000000.0,2,0.044639870799999995,-0.12622139215,0.014386355549999999,-0.077878,-0.04157,-0.004476,0.4282171789,-6.1588703995,-7.619374784,0.056141,0.67902,2.9475,-0.00010000000000021103,-4.0000000000040004e-05,-0.00020000000000020002,0.0005149513624501667,0.00013387725280611384,-0.0006869344898651208
149750000000.0,2,0.06726381235,-0.11139373734999998,0.027213453749999998,-0.059895,-0.058769,-0.000146,0.4254909302,-6.1555361385,-7.6222187125,0.055765,0.67859,2.9475,-9.999999999998899e-05,-3.999999999981796e-05,-0.00039999999999995595,0.0014416335587792428,0.0003268735231864994,-0.0007676229839634896
149750000000.0,2,0.09027021325,-0.12746683669999997,0.026075882349999996,-0.049426,-0.079107,0.008445,0.4211956175,-6.153574808499999,-7.624081975999999,0.055189,0.67832,2.9474,-9.999999999998899e-05,-4.0000000000040004e-05,-0.00019999999999997797,0.0007826381014952588,-0.00021743369597948536,-0.00029849115434399387
149750000000.0,2,0.12349514345,-0.1471585899,0.009943943099999998,-0.035671,-0.088815,0.017022,0.4160961595,-6.1525941435,-7.625160707499999,0.054515,0.67819,2.9474,9.999999999998899e-05,-4.0000000000040004e-05,-0.0005999999999999339,0.0010244489317687844,-0.00041857743438966644,-0.00039707718422349325
149750000000.0,2,0.10554897395,-0.11529678404999999,-0.015504313649999999,-0.028156,-0.081418,0.020221,0.4105455956,-6.1517115449999995,-7.626141372499999,0.053782,0.67808,2.9475,0.000400000000000178,-0.00029999999999996696,-0.0013000000000000789,-0.00011658095032507365,-0.0016879188157059577,2.9459101927753473e-05
149750000000.0,2,0.06120330265,-0.12044527529999999,-0.03466650775,-0.02903,-0.06222,0.012712,0.40551478415,-6.150730879999999,-7.627220104,0.053117,0.67795,2.9476,9.999999999998899e-05,-0.00019999999999997797,-0.0004999999999999449,0.0005458457223193047,-9.464075673792927e-05,-0.00016862634019915168
149750000000.0,2,0.0167301449,-0.12608409905,-0.09123126495,-0.029881,-0.044084,-0.000134,0.40165096405,-6.149161816,-7.628691101499999,0.052601,0.67774,2.9477,-0.000400000000000178,9.999999999998899e-05,0.0007999999999999119,0.0032383504086022086,0.004521263200160108,-0.0009088620419963611
149750000000.0,2,-0.042168594999999996,-0.14897282015,-0.1312914302,-0.03388,-0.020591,-0.016191,0.3993464013,-6.147200485999999,-7.630456298499999,0.052289,0.67749,2.9477,-9.999999999998899e-05,-9.999999999998899e-05,-9.999999999998899e-05,4.7942440188464275e-05,0.0004539352374957062,-0.00033585628199284123
149750000000.0,2,-0.07411866069999999,-0.1573575059,-0.11457109195,-0.035844,-0.008838,-0.031155,0.39853244935,-6.145239156,-7.632025362499999,0.052171,0.67723,2.9475,-1.999999999990898e-05,-4.999999999988347e-05,-9.999999999998899e-05,-0.00015135619389106125,0.0005883031670907979,-0.00047300906371239293
149750000000.0,2,-0.06663618674999999,-0.15125776959999998,-0.11541446385,-0.045316,0.004033,-0.036528,0.39943466115000004,-6.142493294,-7.6341828255,0.052274,0.67688,2.9471,-2.0000000000131024e-05,-5.0000000000105516e-05,-9.999999999998899e-05,5.107837998097331e-05,0.0008220460907744087,-0.00037724259309018793
149750000000.0,2,-0.0510338066,-0.15883831005,-0.10382300354999999,-0.044131,0.020005,-0.034416,0.40163135074999995,-6.1398454985,-7.636144155499999,0.052547,0.67653,2.9468,-1.999999999990898e-05,-9.999999999998899e-05,-0.00019999999999997797,-7.041852680189642e-06,0.0003682764724124432,-0.0003211207387670556
149750000000.0,2,-0.016994924449999997,-0.1564356808,-0.07986535759999999,-0.03552,0.033781,-0.026952,0.4053088445,-6.137884168499999,-7.6375170865,0.053018,0.67628,2.9465,-2.0000000000131024e-05,-4.999999999988347e-05,-9.999999999998899e-05,0.0001289995456870141,0.0006438116737370603,-0.00032035288849113774
149750000000.0,2,0.0083748791,-0.1181701325,-0.043139453349999995,-0.020575,0.041107,-0.016265,0.4097120303499999,-6.13700157,-7.638105485499999,0.05359,0.67615,2.9462,-1.999999999990898e-05,-5.0000000000105516e-05,-4.999999999988347e-05,0.00040887469912809227,0.00019244228682802067,-0.0003754815464773187
149750000000.0,2,0.012415218899999999,-0.060634516949999995,-0.049964881749999995,-0.006748,0.040985,-0.007702,0.4137621768,-6.136413170999999,-7.638301618499999,0.054116,0.67609,2.9461,-9.999999999998899e-05,-9.999999999998899e-05,-5.0000000000105516e-05,0.00046889165201335903,8.738541150576928e-05,-0.0003017122684952911
149750000000.0,2,0.010404855650000001,-0.02731152025,-0.07416769395,0.006897,0.019549,0.003033,0.41590983314999996,-6.136217038,-7.638301618499999,0.054397,0.67606,2.9461,-9.999999999998899e-05,-4.999999999988347e-05,-9.999999999998899e-05,0.0005446870091596612,-0.0002238558820970571,-0.0003222080268743266
149750000000.0,2,0.029557243100000002,-0.010149882749999999,-0.09874315885,0.016305,-0.001846,0.007355,0.4162138393,-6.1367073705,-7.638007418999999,0.054439,0.67611,2.9461,-5.0000000000105516e-05,-5.0000000000105516e-05,-9.999999999998899e-05,0.00044466349818905737,-0.00047052896149768486,-0.00026851110157349867
149750000000.0,2,0.02990047585,0.007021561399999999,-0.09442823285,0.02575,-0.017914,0.012735,0.41496839474999997,-6.1374919025,-7.6373209535,0.054281,0.67622,2.9462,-4.999999999988347e-05,-9.999999999998899e-05,1.666666666655381e-05,0.00040938847213678464,-0.00016429829427822007,-0.00010446525216345481
149750000000.0,2,0.025144250599999998,0.0075315072,-0.07305954249999999,0.034215,-0.026509,0.012764,0.41269325195,-6.139355166,-7.635948022499999,0.053994,0.67647,2.9463,-4.999999999988347e-05,-0.00010000000000021103,1.6666666666775853e-05,0.00043484474833899167,-0.0003910200781351847,7.396829522543502e-05
149750000000.0,2,0.0162594257,-0.0014415775499999998,-0.01701453775,0.038505,-0.024412,0.0117,0.41035926925,-6.1421990945000005,-7.6337905594999995,0.053703,0.67684,2.9464,-5.0000000000105516e-05,-4.999999999988347e-05,1.6666666666775853e-05,0.0002875964801170028,-0.000571729143582278,0.00024109575646719117
149750000000.0,2,0.0156121868,-0.010522535449999999,0.03319551025,0.032147,-0.021158,0.00848,0.40845677915,-6.145435289,-7.631338896999999,0.053472,0.67726,2.9465,-3.333333333332966e-05,-5.0000000000105516e-05,1.666666666655381e-05,-0.0003027010975583666,-0.00034944879311460397,0.00030533062957022183
149750000000.0,2,0.01417060925,-0.0040403398,0.07048039354999999,0.012931,-0.022066,0.009516,0.40645622254999997,-6.1475927519999995,-7.629769833,0.053223,0.67754,2.9466,-3.333333333332966e-05,-9.999999999998899e-05,1.666666666655381e-05,-0.00020960563171001922,-0.00019849436169683266,0.0003204957835694633
149750000000.0,2,0.01073828175,-0.0196329133,0.05673147025,-0.013676,-0.018641,0.001992,0.40495580509999995,-6.147788885,-7.6295737,0.053028,0.67757,2.9466,-3.333333333332966e-05,-4.999999999988347e-05,1.6666666666775853e-05,-0.0005257196529964148,1.979643782812346e-05,0.00012996316956986886
149750000000.0,2,0.0142000292,-0.0261445289,0.03898143375,-0.035972,-0.007796,-0.002335,0.40448508589999993,-6.146121754499999,-7.6309466310000005,0.052956,0.67735,2.9466,9.999999999998899e-05,-5.0000000000105516e-05,-9.999999999998899e-05,-0.0005920770699918698,0.00021167073983652251,2.179134578461639e-05
149750000000.0,2,0.0083160392,-0.03286208415,0.01215043935,-0.049726,0.007235,-0.001318,0.40498522504999995,-6.1429836264999995,-7.63349636,0.053004,0.67694,2.9465,0.00019999999999997797,-9.999999999998899e-05,-9.999999999998899e-05,-0.0007466806463530817,1.926404837315765e-05,0.00012169648745979922
149750000000.0,2,-0.029243430299999998,-0.04439470455,-0.008237586,-0.053851,0.02432,-0.002422,0.40602472995,-6.139257099499999,-7.636438354999999,0.053119,0.67645,2.9466,-9.999999999998899e-05,-4.999999999988347e-05,0.00019999999999997797,-0.0006427016038752509,0.00013212042516252964,-2.0226668870693132e-05
149750000000.0,2,-0.0374221764,-0.0502492746,-0.025409030149999998,-0.042011,0.035946,-0.004555,0.40807431980000003,-6.136020905,-7.6388900175,0.05337,0.67604,2.9466,9.999999999998899e-05,-5.0000000000105516e-05,-0.00019999999999997797,-0.000289386564956029,5.448956746567646e-05,6.404888929356645e-05
149750000000.0,2,-0.023751706299999998,-0.025948395899999997,-0.012856518150000001,-0.023845,0.034739,-0.011992,0.41101631479999995,-6.134059574999999,-7.640361015,0.053744,0.67577,2.9466,-3.333333333332966e-05,-9.999999999998899e-05,9.999999999998899e-05,3.120130090517037e-06,0.00018143949597826392,-1.6241163112384882e-05
149750000000.0,2,-0.01546508705,-0.00812971285,0.0177500365,-0.000459,0.018571,-0.020462,0.41380140339999993,-6.1337653754999995,-7.6404590814999995,0.054106,0.67573,2.9464,-3.333333333332966e-05,-9.999999999998899e-05,-9.999999999998899e-05,0.0003429384131862223,0.0002904097327973698,-0.00017496170709846437
149750000000.0,2,-0.0031185146999999996,0.007207887749999999,0.042521634399999994,0.013211,-0.009243,-0.024659,0.4150762679,-6.134844107,-7.639478416499999,0.054279,0.67588,2.9461,-3.333333333332966e-05,-9.999999999998899e-05,9.999999999998899e-05,0.00046491181074004295,0.0001610976612598236,-0.0001678483014800891
149750000000.0,2,0.026948674199999998,-0.006021283099999999,0.07349103509999999,0.012917,-0.045471,-0.023528,0.4143309625,-6.136609303999999,-7.638105485499999,0.054192,0.6761,2.9457,-4.999999999988347e-05,-9.999999999998899e-05,5.0000000000105516e-05,0.0013504784933391356,0.00010633766124890087,-3.8258052407258436e-05
149750000000.0,2,0.026203368799999998,-0.0273801668,0.07210829745,0.006353,-0.066726,-0.02457,0.411487034,-6.138178368,-7.637026754,0.053828,0.67631,2.9453,-5.0000000000105516e-05,-9.999999999998899e-05,4.999999999988347e-05,0.0001207319134700624,-0.0003885310007947229,7.985452676362303e-05
149750000000.0,2,0.0113168741,-0.05427000109999999,0.05139665265,0.002089,-0.06669,-0.024577,0.40796644665,-6.139355166,-7.636242222,0.053375,0.67647,2.945,-5.0000000000105516e-05,-9.999999999998899e-05,2.4999999999941735e-05,-4.742051725603602e-05,-0.0005907757529954871,0.00013820095782079989
149750000000.0,2,0.0005099458,-0.05651572394999999,0.048248717999999996,-0.000912,-0.045346,-0.029957,0.40575014375,-6.140237764499999,-7.635653822999999,0.05309,0.67658,2.9446,-4.999999999988347e-05,-9.999999999998899e-05,2.4999999999941735e-05,0.000157237548438105,-0.00027055484770266425,-1.857494885137978e-05
149750000000.0,2,-0.049739328799999996,-0.04573821559999999,0.06990180119999999,-0.012413,-0.017544,-0.032158,0.40497541839999995,-6.140531964,-7.635457689999999,0.05299,0.67662,2.9443,-4.999999999988347e-05,-4.999999999988347e-05,2.500000000016378e-05,7.007588610663529e-05,-0.00020232964149791144,-6.333413477854766e-05
149750000000.0,2,-0.08145403489999999,-0.0463658412,0.10068487555,-0.02722,0.001754,-0.026877,0.40497541839999995,-6.140237764499999,-7.635653822999999,0.052988,0.67658,2.9441,-5.0000000000105516e-05,-5.0000000000105516e-05,2.4999999999941735e-05,0.0002498584202038634,-9.471451047904367e-05,-0.000376583442743994
149750000000.0,2,-0.0727261164,-0.027997985749999996,0.0708236263,-0.039989,0.010376,-0.01944,0.40566188389999996,-6.1382764345,-7.637222887,0.053067,0.67632,2.9439,-9.999999999998899e-05,-9.999999999998899e-05,9.999999999998899e-05,-0.00022593974082785184,0.0002716015685089168,-0.0005523991107617143
149750000000.0,2,-0.055603705499999996,-0.028959037449999996,0.0345390213,-0.044313,0.007208,-0.013035,0.4062110563,-6.1355305725000004,-7.63938035,0.053123,0.67596,2.9439,-9.999999999998899e-05,-9.999999999998899e-05,9.999999999998899e-05,-0.0001443230243413085,0.0004590375056408025,-0.0007442484770917579
149750000000.0,2,-0.037461403,-0.018691474899999998,0.01352337035,-0.041236,-0.00561,-0.008736,0.40586782354999995,-6.132490510999999,-7.641930078999999,0.053061,0.67556,2.9438,-9.999999999998899e-05,-9.999999999998899e-05,-5.0000000000105516e-05,-0.00018495696188236543,0.00013877516540383716,-0.0006224852543600945
149750000000.0,2,-0.022741621349999998,0.0328130509,-0.026232788749999996,-0.026449,-0.019593,-0.001213,0.4044654726,-6.129548516,-7.6443817415,0.052862,0.67518,2.9439,-4.999999999988347e-05,-9.999999999998899e-05,-4.999999999988347e-05,9.542959933872552e-05,1.9462597832253792e-05,-0.00043771009069853983
149750000000.0,2,-0.024408751849999997,0.036480738,-0.04045243125,-0.010539,-0.030382,-9.9e-05,0.40194516355,-6.1275871859999995,-7.645950805499999,0.052521,0.67493,2.9439,-5.0000000000105516e-05,-9.999999999998899e-05,-4.999999999988347e-05,0.00020417019695373462,-0.00018617280853128193,-0.00032727988823966214
149750000000.0,2,-0.01928968055,0.04029552484999999,-0.06767569165,0.002194,-0.036885,0.003138,0.39876780894999997,-6.1265084545,-7.647029537,0.0521,0.67479,2.944,-5.0000000000105516e-05,-9.999999999998899e-05,-5.0000000000105516e-05,0.0018997298268391694,0.0008759159136531025,0.0006651702628815981
149750000000.0,2,0.008708305199999999,0.0439926319,-0.115914603,0.012828,-0.034852,0.012758,0.39546296789999996,-6.125821988999999,-7.6477160025,0.051663,0.6747,2.9441,-4.999999999988347e-05,-0.00010000000000021103,1.999999999990898e-05,0.000398489788841605,-0.0003186946366766641,7.151281459449876e-05
149750000000.0,2,0.0127682583,0.0535246957,-0.1266823047,0.020351,-0.022136,0.021288,0.39244251969999994,-6.1257239225,-7.648010202,0.051268,0.67468,2.9443,-9.999999999998899e-05,-0.00019999999999997797,2.0000000000131024e-05,0.0003605856137582908,-0.0001488485245939586,1.5678339410296616e-05
149750000000.0,2,0.02791953255,0.05590771165,-0.10297963164999999,0.025766,-0.008334,0.026608,0.39031447665,-6.126116188499999,-7.647814069,0.050992,0.67473,2.9446,-9.999999999998899e-05,-9.999999999998899e-05,1.999999999990898e-05,0.0004328964377416922,3.231085128829747e-05,4.7589654766810874e-05
149750000000.0,2,0.02109410415,0.06343921884999999,-0.10461734219999999,0.029019,-0.001966,0.025534,0.38876502594999995,-6.1267045875,-7.6473237365,0.050793,0.67482,2.9449,-9.999999999998899e-05,-9.999999999998899e-05,2.0000000000131024e-05,0.00042178963510397516,0.00026161978938121777,-5.02590051629781e-05
149750000000.0,2,0.018956254449999998,0.06986257459999999,-0.08388608410000001,0.030142,0.000164,0.016992,0.38790204074999995,-6.1276852525,-7.6467353375,0.050685,0.67493,2.9451,-9.999999999998899e-05,-9.999999999998899e-05,1.999999999990898e-05,-0.0001778450082455807,0.0004708176505414663,-0.00014021972963240703
149750000000.0,2,0.026105302299999997,0.07241230359999999,-0.07742350174999998,0.030194,0.00443,0.012714,0.3877941676,-6.128567851000001,-7.645950805499999,0.050675,0.67505,2.9452,-9.999999999998899e-05,-9.999999999998899e-05,4.999999999988347e-05,0.0002990104707728536,0.0004130146294720749,-0.00014613931162427152
149750000000.0,2,0.0240066792,0.04681694709999999,-0.07454034664999999,0.02813,0.010845,0.008429,0.3882452735,-6.129548516,-7.6450682070000004,0.05074,0.67519,2.9453,-9.999999999998899e-05,-5.0000000000105516e-05,5.0000000000105516e-05,-0.00021045985639944753,0.0003548437850642294,2.914717339530526e-05
149750000000.0,2,0.029351303449999998,0.026654474699999996,-0.06740110545,0.025019,0.023656,0.010534,0.38962801115,-6.130725314,-7.6441856085,0.050927,0.67533,2.9454,-3.333333333332966e-05,-4.999999999988347e-05,9.999999999998899e-05,-0.00023366634703381184,0.0002473524799448956,0.00019049637656559648
149750000000.0,2,0.03703971705,0.00585457005,-0.03882452735,0.026476,0.070535,0.007251,0.39376641744999996,-6.132490510999999,-7.6425184779999995,0.051478,0.67556,2.9454,-3.333333333355171e-05,-1.2499999999970868e-05,9.999999999998899e-05,-0.00024922042370334463,0.00011543626300247745,0.00017872427879500608
149750000000.0,2,0.06772472489999999,-0.028292185249999997,0.10099868835,0.002693,0.031306,0.007277,0.39764985085,-6.1343537745,-7.640753281,0.051996,0.67582,2.9454,-3.333333333332966e-05,-1.2499999999970868e-05,9.999999999998899e-05,-0.0003225667060109405,-1.612796047312237e-05,0.00014575324100984943
149750000000.0,2,0.17044938365,-0.06778356479999999,0.69965544425,-0.051882,-0.004444,-0.014106,0.40251394924999995,-6.138570634,-7.6371248204999995,0.052656,0.67636,2.945,-4.999999999988347e-05,-1.2499999999970868e-05,0.00019999999999997797,-0.0006926151324317953,-0.00022332783023037983,-5.611947289607677e-05
149750000000.0,2,0.23500656059999997,0.052759777,0.9324947352,-0.11225,-0.088119,-0.02367,0.39870896905,-6.1312156465,-7.6433030099999995,0.052118,0.6754,2.9448,-5.0000000000105516e-05,-1.2499999999970868e-05,9.999999999998899e-05,-0.00013829575382173775,0.00028623450391207506,0.00036132591452225915
149750000000.0,2,0.27518440564999996,0.11115837775,1.030678915,-0.17022,-0.13559,-0.027956,0.39070674265,-6.118957333999999,-7.653501926,0.051005,0.6738,2.9445,-3.333333333332966e-05,-1.2500000000192912e-05,9.999999999998899e-05,-0.0003653871134707831,-0.00012558695745967796,9.30828822611196e-05
149750000000.0,2,-0.0857493476,0.09197657035,0.37442770365,-0.18717,-0.12479,-0.034406,0.3809883525,-6.106993220999999,-7.663602775499999,0.049673,0.67224,2.9443,-3.333333333332966e-05,-1.2499999999970868e-05,0.00010000000000021103,-7.65675279107425e-05,-0.0001799369461104039,0.0004502525518804701
149750000000.0,2,-0.0818266876,0.07871797954999998,0.38516598539999997,-0.16318,-0.064237,-0.041943,0.37705588584999994,-6.093656177,-7.674292024,0.049093,0.67051,2.9439,-3.333333333332966e-05,-1.2499999999970868e-05,0.00019999999999997797,-0.001036896606850135,-0.0006438887959945294,-1.6779651451581667e-05
149750000000.0,2,-0.22381717294999998,0.08737725149999999,0.006933301549999999,-0.12839,0.013272,-0.048424,0.3795958082,-6.082868862,-7.682725743,0.049369,0.6691,2.9434,-4.999999999988347e-05,-1.2499999999970868e-05,-9.999999999998899e-05,0.00026498491426929505,-0.00010454580647034639,2.1395378221766848e-05
149750000000.0,2,-0.20302707494999997,0.13502776384999998,-0.2594055058,-0.10449,0.064227,-0.051674,0.38677427600000003,-6.0743370765,-7.689198132,0.050259,0.66799,2.9429,-5.0000000000105516e-05,-0.00019999999999997797,-9.999999999998899e-05,0.00038828613232499976,-5.1053508203446896e-05,-0.0006243410355878942
149750000000.0,2,-0.15171868215,0.1651047594,-0.42422587235,-0.083896,0.10561,-0.049577,0.39727719814999995,-6.0672762885,-7.6941995235,0.051587,0.66707,2.9423,-9.999999999998899e-05,-0.00029999999999996696,-0.000300000000000189,0.0011663178751243342,0.0008528704128505371,-0.000594622174792947
149750000000.0,2,-0.1004789359,0.10672577194999999,-0.50960256725,-0.07318,0.11936,-0.039974,0.40708384815,-6.0551160425,-7.7032216415,0.052797,0.6655,2.9419,-0.00019999999999997797,-0.00019999999999997797,-0.00029999999999996696,0.0019374001792321627,0.0013304606168147437,-0.0011398951619558395
149750000000.0,2,-0.054544587299999996,0.07134337874999999,-0.462089348,-0.052013,0.10852,-0.02284,0.41726315084999993,-6.050703049999999,-7.7061636364999995,0.054094,0.66493,2.9416,-0.00019999999999997797,-0.00029999999999996696,-0.00019999999999997797,1.1210595203592355e-05,-0.0005428416170232264,-0.002093089156272321
149750000000.0,2,0.01668111165,0.0332053169,-0.4434370997,-0.029737,0.10299,-0.005713,0.4259420361,-6.047859121499999,-7.7079288335,0.055204,0.66456,2.9415,-9.999999999998899e-05,-0.000300000000000189,-0.00029999999999996696,0.0018995563985622077,0.00012841977460187337,-0.00044059287547759673
149750000000.0,2,0.048052584999999995,-0.0180834626,-0.37144648204999997,-0.002155,0.093151,0.010363,0.43303224405,-6.047172655999999,-7.7081249665,0.05612,0.66447,2.9416,-0.00029999999999996696,-9.999999999998899e-05,-0.00019999999999997797,0.0015455474355041687,-0.00014248963118657088,-0.0003865715355960142
149750000000.0,2,0.05020024135,-0.03851071455,-0.27402722095,0.031646,0.059825,0.024354,0.43807286215,-6.04678039,-7.7081249665,0.056772,0.66442,2.9418,-0.00029999999999996696,-9.999999999998899e-05,-4.999999999988347e-05,0.001482857424275008,-0.0008427239178199208,-2.4372028289143532e-05
149750000000.0,2,0.05545660575,-0.035245100099999996,-0.21615817929999998,0.047327,0.023459,0.03085,0.43894565399999996,-6.0502127175,-7.7053791044999995,0.056905,0.66486,2.9422,-0.00019999999999997797,1.999999999990898e-05,-5.0000000000105516e-05,0.00016830555932689784,-0.0016452966401645508,0.000560239639828708
149750000000.0,2,0.0532108829,-0.06734226554999999,-0.18434540669999996,0.06728,-0.015069,0.033088,0.43655283139999995,-6.055214109,-7.701554511,0.056623,0.66551,2.9425,-9.999999999998899e-05,2.0000000000131024e-05,-9.999999999998899e-05,0.0006410620774583986,-0.0013487362505393286,0.0005930714761718248
149750000000.0,2,0.04364939915,-0.09632091629999999,-0.16455558699999998,0.074656,-0.033234,0.022458,0.43279688445,-6.0610000325,-7.697239585,0.056169,0.66626,2.9428,4.999999999988347e-05,1.999999999990898e-05,-9.999999999998899e-05,0.0004376496590366985,-0.0009672467022456832,0.0004756491265328622
149750000000.0,2,0.029096330549999997,-0.11121721764999999,-0.1328016543,0.074739,-0.028962,0.012844,0.4298450828,-6.066982089,-7.692630459499999,0.055819,0.66704,2.9429,5.0000000000105516e-05,2.0000000000131024e-05,-9.999999999998899e-05,0.0003745201086443606,-0.0006300481907093314,0.0006058699309944293
149750000000.0,2,-0.0015102241,-0.1101482928,-0.09476165895,0.057851,-0.0107,0.00531,0.4282760188,-6.0718854140000005,-7.6889039325,0.055643,0.66767,2.943,3.333333333332966e-05,1.999999999990898e-05,4.999999999988347e-05,-9.508749229147906e-05,-0.0005372129096132827,0.0008056793551285968
149750000000.0,2,-0.007649186999999999,-0.10889304159999999,-0.0667832865,0.033467,0.008682,0.005234,0.42828582544999994,-6.0749254755,-7.6865503365,0.055661,0.66806,2.943,3.333333333332966e-05,9.999999999998899e-05,5.0000000000105516e-05,-0.0006771179934289551,-0.0004291420682478453,0.00046908131348016857
149750000000.0,2,-0.01413138265,-0.10587259339999999,-0.07394214099999999,0.011219,0.029111,0.006227,0.42967836974999996,-6.07620034,-7.6853735384999995,0.055851,0.66824,2.9431,3.333333333332966e-05,9.999999999998899e-05,9.999999999998899e-05,-0.0008293957835971977,-0.00014145343460314486,0.0004375718150519403
149750000000.0,2,-0.039736545799999995,-0.07960057804999998,-0.07820803374999999,0.001738,0.040915,0.000854,0.43149259999999995,-6.0767887389999995,-7.684883205999999,0.056089,0.66831,2.9432,-9.999999999998899e-05,0.00010000000000021103,0.00029999999999996696,-0.000986510831581855,0.00040214267967519923,-4.934724139205038e-05
149750000000.0,2,-0.0656849417,-0.06543977545,-0.06720497245,-0.00019,0.057995,-0.013056,0.43618998535,-6.0766906725,-7.6845890064999995,0.0567,0.6683,2.943,-1.2499999999970868e-05,9.999999999998899e-05,9.999999999998899e-05,-0.0013092482990689769,9.92343081425151e-05,3.9935793831602506e-05
149750000000.0,2,-0.0838076309,-0.03902066035,-0.0566039838,0.012788,0.073882,-0.022668,0.44278986079999993,-6.077377138,-7.683706408,0.057564,0.66839,2.9428,-1.2499999999970868e-05,0.00019999999999997797,0.00029999999999996696,-0.0011606444707343844,0.00020297374319322437,-0.0001625200323017717
149750000000.0,2,-0.1041073964,0.00204958985,-0.0028341218499999994,0.033153,0.082245,-0.027984,0.45066460075,-6.079436534499999,-7.681647011499999,0.058601,0.66865,2.9424,-1.2499999999970868e-05,5.0000000000105516e-05,9.999999999998899e-05,-0.0005795326948505597,-6.091547752062887e-05,2.2214846286339185e-05
149750000000.0,2,-0.09799785344999999,0.011179581,0.0746482198,0.051232,0.074634,-0.027936,0.45623477795,-6.083751460499999,-7.6779204844999995,0.059352,0.66922,2.9422,-1.2500000000192912e-05,4.999999999988347e-05,9.999999999998899e-05,0.00016599564759767205,-4.04812987513381e-05,0.000127501736136848
149750000000.0,2,-0.042756994,0.01179739995,0.10660809215,0.060591,0.045782,-0.024666,0.4611479096,-6.0893412510000005,-7.673213292499999,0.060026,0.66994,2.9418,-1.2499999999970868e-05,4.999999999988347e-05,9.999999999998899e-05,-0.0003215090289894196,-0.00036972554342273867,0.0003741724161669402
149750000000.0,2,0.0016279038999999999,0.0418743955,0.1053626476,0.067747,0.010552,-0.018187,0.46404087135,-6.095029107999999,-7.6685061005,0.060439,0.67068,2.9415,-1.2499999999970868e-05,5.0000000000105516e-05,0.00019999999999997797,-0.00024359449659883126,-0.000621018848143251,0.0002860269011158434
149750000000.0,2,0.035588332849999994,0.060104957849999995,0.11017771274999999,0.063193,-0.023512,-0.014934,0.4647959834,-6.100324698999999,-7.664191174499999,0.060571,0.67138,2.9412,-1.2499999999970868e-05,9.999999999998899e-05,9.999999999998899e-05,-5.83648669957304e-05,-0.0008322957193227509,0.00026008815147443576
149750000000.0,2,0.060301090849999996,0.06904862265,0.0842391235,0.05335,-0.052202,-0.012768,0.46343285905,-6.104639625,-7.6608569135,0.06042,0.67194,2.9409,-1.2499999999970868e-05,9.999999999998899e-05,9.999999999998899e-05,-5.858784846757281e-05,-0.0008322800089957116,0.0002601603304063227
149750000000.0,2,0.0764330301,0.06034031744999999,0.0576434887,0.040483,-0.059554,-0.011712,0.46136365589999995,-6.107777753,-7.6585033175,0.06017,0.67234,2.9406,-0.00020000000000020002,9.999999999998899e-05,0.000300000000000189,0.00011086631211720821,-0.0006950763668789328,0.00018318865320987587
149750000000.0,2,0.06559668184999999,0.0529951366,0.05599597149999999,0.028852,-0.047732,-0.01389,0.45962787885,-6.1101313489999995,-7.656738120499999,0.059958,0.67265,2.9402,-9.999999999998899e-05,0.00019999999999997797,9.999999999998899e-05,-0.0004750731229197225,-0.0007946713147759521,0.00013839498593859467
149750000000.0,2,0.027703786249999997,0.05884970665,0.0791004389,0.017243,-0.033779,-0.017138,0.45847069414999997,-6.111700412999999,-7.655561322499999,0.059815,0.67285,2.94,-9.999999999998899e-05,9.999999999998899e-05,0.00029999999999996696,-0.0003216810843074125,-0.00020556426048234933,-3.599956635735868e-06
149750000000.0,2,-0.0027458619999999995,0.05129858615,0.07528565205,0.006728,-0.014512,-0.01719,0.45808823479999994,-6.1123868785,-7.65507099,0.059771,0.67294,2.9397,-9.999999999998899e-05,9.999999999998899e-05,0.00019999999999997797,-0.000671551359408662,-0.00031897928622481864,-2.1487060629654664e-05
149750000000.0,2,-0.015327793949999998,0.056143071249999996,0.07552101165,-0.000651,-0.002731,-0.016156,0.4584020476,-6.1123868785,-7.6549729235,0.059812,0.67295,2.9395,-9.999999999998899e-05,9.999999999998899e-05,0.00019999999999997797,-0.0006916407679847802,0.00010770880123356363,-0.00033995164216948925
149750000000.0,2,-0.0080610663,0.05429942105,0.08077737604999999,0.000437,0.002584,-0.011894,0.45921599955,-6.1125830115,-7.654874857,0.059919,0.67296,2.9394,0.00019999999999997797,9.999999999998899e-05,-0.00019999999999997797,0.0013038975547754461,0.001592117931103365,0.0006496857645860721
149750000000.0,2,-0.0080610663,0.05429942105,0.08077737604999999,0.000437,0.002584,-0.011894,0.45921599955,-6.1125830115,-7.654874857,0.059919,0.67296,2.9394,-9.999999999998899e-05,9.999999999998899e-05,9.999999999998899e-05,-0.000720718890616534,0.00014495928703150973,-0.0003308684389476402
149750000000.0,2,0.0004707192,0.0607620034,0.10143018094999999,0.001421,-0.005952,-0.008675,0.45981420519999994,-6.112877211,-7.6545806574999995,0.059998,0.673,2.9392,-9.999999999998899e-05,0.00019999999999997797,0.00019999999999997797,-0.0001785770574256329,0.0002019600768436991,-0.0002430011571596391
149750000000.0,2,0.02199631595,0.0548780134,0.10850077559999999,0.005604,-0.016642,-0.00865,0.4598338185,-6.1135636765,-7.6539922585,0.060006,0.6731,2.9391,-9.999999999998899e-05,9.999999999998899e-05,0.00014999999999987246,-0.00017308641756785814,0.0001195786424521561,-0.00035408172572187757
149750000000.0,2,0.0326953711,0.06587126805,0.1023421994,0.009809,-0.025199,-0.009696,0.4593140660499999,-6.114348208499999,-7.653403859499999,0.059943,0.6732,2.9389,-9.999999999998899e-05,9.999999999998899e-05,0.0001500000000000945,-0.00046456176203601984,-0.0005104923283203444,-0.0004765822601713321
149750000000.0,2,0.0325973046,0.0616446019,0.10428391609999998,0.011892,-0.031608,-0.009682,0.4583628209999999,-6.11542694,-7.652619327499999,0.059825,0.67333,2.9387,-9.999999999998899e-05,0.00010000000000021103,9.999999999998899e-05,-0.00016196306338656097,-0.0004591842881831454,-2.921493492086258e-05
149750000000.0,2,0.02093719775,0.069038816,0.0977134606,0.00979,-0.028392,-0.01076,0.4573037028,-6.116211472,-7.6520309285,0.059692,0.67344,2.9385,-0.00019999999999997797,9.999999999998899e-05,9.999999999998899e-05,-0.00023623838079034343,-1.774927755016087e-05,-0.00012898312089554276
149750000000.0,2,0.01583773975,0.05504472645,0.0676266584,0.00243,-0.018734,-0.017194,0.45701930994999995,-6.116407605,-7.6518347955,0.059655,0.67347,2.9383,-9.999999999998899e-05,0.00019999999999997797,9.999999999998899e-05,0.000269475166233768,-0.00025827953080259647,-0.00010727112467523447
149750000000.0,2,0.0011375714,0.0355392996,0.047101339949999994,-0.001721,-0.004845,-0.018294,0.45764693554999997,-6.116211472,-7.6520309285,0.059737,0.67344,2.938,-9.999999999998899e-05,9.999999999998899e-05,9.999999999998899e-05,-0.0005532372543823882,-9.28818874157411e-05,-0.0002030966174930704
149750000000.0,2,0.00626644935,0.0364022848,0.038128255199999996,-0.000533,0.009,-0.020451,0.4595592323,-6.1159172725,-7.652128994999999,0.059984,0.6734,2.9378,-9.999999999998899e-05,0.00019999999999997797,4.999999999988347e-05,-0.00026531298555121374,6.677493703821646e-05,-0.00033584568775979484
149750000000.0,2,-0.013552790299999999,0.0331857036,0.0518771785,0.00487,0.01748,-0.020457,0.46186379504999997,-6.116113405499999,-7.6518347955,0.060287,0.67343,2.9375,-9.999999999998899e-05,9.999999999998899e-05,5.0000000000105516e-05,-5.222162750062598e-05,0.000289073044864141,-0.00044447764275401536
149750000000.0,2,0.0009610516999999999,0.03388197575,0.0590948729,0.009105,0.015311,-0.017243,0.46441352405,-6.1167998709999996,-7.65114833,0.060624,0.67352,2.9373,-9.999999999998899e-05,0.00019999999999997797,9.999999999998899e-05,0.0002696296771943496,0.00030388442748696676,-0.00044244941112003833
149750000000.0,2,0.019505426849999997,0.051367232699999994,0.06516518924999999,0.013251,0.001423,-0.015078,0.46621794764999996,-6.117682469499999,-7.650265731499999,0.060866,0.67363,2.937,-0.00019999999999997797,9.999999999998899e-05,0.000300000000000189,-0.0008246929497230937,-0.0006382721563700233,-0.0008433546506370071
149750000000.0,2,0.031616639599999996,0.06495924959999999,0.052740163699999995,0.013091,-0.014565,-0.008646,0.46667886019999993,-6.1183689349999995,-7.6496773325,0.06093,0.67373,2.9368,-9.999999999998899e-05,0.00019999999999997797,4.999999999988347e-05,0.00017363410857573758,0.0002924453920822856,-0.00017643713549853057
149750000000.0,2,0.0464050678,0.06598894785,0.0461697082,0.012978,-0.025225,-0.003292,0.4662473676,-6.118957333999999,-7.649285066499999,0.060878,0.6738,2.9367,-9.999999999998899e-05,9.999999999998899e-05,5.0000000000105516e-05,-0.00021326948788980005,-0.0006056695947807,1.8916101636179405e-05
149750000000.0,2,0.049101896549999996,0.0548191735,0.0462285481,0.016126,-0.033771,-0.006476,0.4650509563,-6.119937998999999,-7.648598600999999,0.060728,0.67393,2.9365,-0.00020000000000020002,0.00019999999999997797,0.00019999999999997797,-0.0002588300244168451,-0.00011801927374088805,9.032582005685796e-06
149750000000.0,2,0.049415709349999996,0.0639785846,0.0624487472,0.015094,-0.032689,-0.011818,0.46413893785,-6.1208205975,-7.6479121354999995,0.060615,0.67405,2.9363,-3.333333333332966e-05,0.00019999999999997797,-5.0000000000105516e-05,-0.00020497007744813,-0.00024241739257768735,5.3678977567084285e-05
149750000000.0,2,0.03135186005,0.0353823932,0.0741971139,0.020506,-0.023142,-0.011826,0.4635015056,-6.122487727999999,-7.6466372709999995,0.060541,0.67426,2.9361,-3.333333333332966e-05,9.999999999998899e-05,-4.999999999988347e-05,-0.0001470696224075141,7.052580345567883e-05,-5.316480632955312e-06
149750000000.0,2,0.012836904849999999,0.0260660757,0.0823366334,0.023742,-0.013587,-0.003298,0.46301117309999995,-6.1247432575000005,-7.644872074,0.06049,0.67455,2.936,-3.333333333332966e-05,0.00020000000000020002,9.999999999998899e-05,-0.00034931491742185017,8.852115512092418e-05,-8.188517836010822e-05
149750000000.0,2,0.0038834333999999996,0.0037853669,0.10927550094999999,0.023745,-0.006139,0.00843,0.46223644775,-6.1275871859999995,-7.642616544499999,0.060408,0.67492,2.936,-9.999999999998899e-05,9.999999999998899e-05,-3.333333333332966e-05,-0.00019905299228972773,0.00028976281787196356,-0.00014404759480685092
149750000000.0,2,0.011689526799999999,-0.0268309944,0.10293059839999999,0.017317,-0.007155,0.01269,0.46131462264999995,-6.130333048,-7.6404590814999995,0.060305,0.67528,2.9361,-9.999999999998899e-05,0.00019999999999997797,-3.333333333332966e-05,-0.00040570711191223463,0.0003027960252137696,-0.0002446194107258992
149750000000.0,2,0.027272293649999998,-0.014307902349999999,0.08096370239999999,0.010895,-0.011361,0.010551,0.46039279755,-6.1321963114999996,-7.638988083999999,0.060196,0.67553,2.9362,9.999999999998899e-05,9.999999999998899e-05,-3.333333333332966e-05,5.306834746543476e-05,9.691792596000504e-05,-0.0004113559187288174
149750000000.0,2,0.0430119669,-0.025889555999999998,0.06647928035,-0.000837,-0.016584,0.003062,0.45961807219999995,-6.1333731095,-7.638105485499999,0.060102,0.67568,2.9362,9.999999999998899e-05,9.999999999998899e-05,-0.00029999999999996696,5.654788805897759e-05,0.00018234368533232015,-0.00027248978955557446
149750000000.0,2,0.04770935225,-0.0631940526,0.0885540495,-0.006073,-0.013327,-0.01083,0.45986323844999993,-6.1343537745,-7.6373209535,0.06014,0.67581,2.936,-9.999999999998899e-05,9.999999999998899e-05,-5.0000000000105516e-05,3.9034120633330005e-05,9.802566256134071e-05,-0.00011966507439575835
149750000000.0,2,0.05376986195,-0.06796989114999999,0.07854145985,-0.008036,0.00162,-0.020467,0.46187360169999997,-6.1351383065,-7.636634487999999,0.060409,0.67591,2.9357,-3.333333333332966e-05,0.00019999999999997797,-4.999999999988347e-05,-0.00011598946403357235,6.432187637139819e-05,1.7361698052664742e-05
149750000000.0,2,0.0234378935,-0.0745109267,0.08880902239999999,-0.010036,0.014431,-0.025831,0.4646783036,-6.135922838499999,-7.6357518895,0.060781,0.67601,2.9354,-3.333333333332966e-05,9.999999999998899e-05,-6.666666666665932e-05,3.8062425485207996e-05,0.00019873351416643814,-3.0961267698303985e-05
149750000000.0,2,0.0055113372999999995,-0.0857885742,0.1182093591,-0.014295,0.015532,-0.024772,0.4676399119,-6.136903503499999,-7.6347712245,0.061175,0.67614,2.935,-3.333333333332966e-05,0.00019999999999997797,-6.666666666688137e-05,-0.00017520490625333451,0.00010539645783147478,-2.081606707671213e-06
149750000000.0,2,0.02599742915,-0.08719092514999999,0.10340131759999999,-0.016521,0.008085,-0.017291,0.4701994475499999,-6.137393835999999,-7.6341828255,0.061513,0.67621,2.9347,9.999999999998899e-05,9.999999999998899e-05,-6.666666666665932e-05,-0.00017411101395858886,-0.00018648888371153305,7.893371620637524e-05
149750000000.0,2,0.0474837993,-0.08805391034999999,0.0834545915,-0.014486,0.003793,-0.003405,0.4719156112999999,-6.137884168499999,-7.633692493,0.061741,0.67628,2.9346,-4.999999999988347e-05,9.999999999998899e-05,-0.00019999999999997797,-0.0003419667987119013,-4.0305270699869666e-05,-0.0001257425998710815
149750000000.0,2,0.06098755634999999,-0.0646846634,0.0807871827,-0.009226,-0.002647,0.001951,0.4729256962499999,-6.138570634,-7.633104094,0.061877,0.67636,2.9345,-5.0000000000105516e-05,9.999999999998899e-05,-9.999999999998899e-05,-0.00015170180949464207,-0.000423126989286704,-0.00012878591871656742
149750000000.0,2,0.06124252924999999,-0.047395539449999996,0.08595528725,0.000417,-0.002717,-0.005506,0.47401423439999996,-6.1396493654999995,-7.632123428999999,0.062027,0.67651,2.9343,-9.999999999998899e-05,9.999999999998899e-05,-4.999999999988347e-05,-8.102417213862179e-05,-0.0006111943182680601,-0.00010408017110180579
149750000000.0,2,0.055407572499999995,-0.00909076455,0.0888678623,0.003709,0.000468,-0.018316,0.47610305085,-6.140728096999999,-7.6312408304999995,0.062309,0.67664,2.9341,-9.999999999998899e-05,9.999999999998899e-05,-5.0000000000105516e-05,-0.0001761373999022986,-0.000316124277217833,-3.568991560592982e-05
149750000000.0,2,0.0493078362,0.0056094038,0.08996620709999999,-0.003711,0.001604,-0.025804,0.478760653,-6.141218429499999,-7.630652431499999,0.06266,0.67671,2.9337,-9.999999999998899e-05,9.999999999998899e-05,-0.00039999999999995595,0.0002987635462068372,-0.00015284454994279884,0.00010185316675914713
149750000000.0,2,0.0485429175,-0.00252030905,0.08979949405,-0.013331,-0.00151,-0.026884,0.48147709504999997,-6.1410222965,-7.630652431499999,0.063014,0.67668,2.9332,-9.999999999998899e-05,0.00019999999999997797,-0.00039999999999995595,-0.00516177738664203,-0.009521036588240106,1.7176719683820174e-06
149750000000.0,2,0.05692760325,-0.024908891,0.11262937525,-0.028309,-0.002458,-0.019438,0.483860111,-6.140139698,-7.631142763999999,0.063321,0.67657,2.9329,-5.0000000000105516e-05,9.999999999998899e-05,-9.999999999998899e-05,0.0001491355640472758,0.0002386096410633698,3.6875757761511974e-05
149750000000.0,2,0.048032971699999996,-0.0358531124,0.1413334398,-0.041207,-0.008753,-0.009844,0.48497806909999996,-6.138766766999999,-7.6322214955,0.063458,0.67639,2.9327,-4.999999999988347e-05,0.00010000000000021103,-2.4999999999941735e-05,-0.00035802789856642647,-0.0005582033899338423,6.622715302939675e-05
149750000000.0,2,0.06655773355,-0.0409133438,0.16389854145,-0.057316,-0.019279,-0.004518,0.48530168855,-6.136609303999999,-7.6339866925,0.063487,0.6761,2.9325,-9.999999999998899e-05,4.999999999988347e-05,-2.4999999999941735e-05,0.0005290805668732856,-2.595756431933438e-05,-0.00013217388017056075
149750000000.0,2,0.09500682519999999,-0.0430904201,0.17804953739999999,-0.068072,-0.028781,-0.00132,0.48514478215,-6.133471176,-7.636438354999999,0.063445,0.6757,2.9324,-9.999999999998899e-05,5.0000000000105516e-05,-2.500000000016378e-05,-0.0002510374547604055,-0.0005600675934283039,-8.373770505987199e-05
149750000000.0,2,0.09714467489999999,-0.0193583271,0.16040737405,-0.076643,-0.032971,-0.000263,0.48449754324999994,-6.129254316499999,-7.6398706825,0.063332,0.67514,2.9323,-4.999999999988347e-05,-3.333333333332966e-05,-2.4999999999941735e-05,0.00025959019720411813,-0.00028194843448603457,-0.0001510386338890446
149750000000.0,2,0.0760799907,-0.013131104349999999,0.13327237349999999,-0.07445,-0.023401,0.003992,0.48371301125,-6.1247432575000005,-7.643597209499999,0.063199,0.67455,2.9323,-5.0000000000105516e-05,-3.333333333332966e-05,-9.999999999998899e-05,0.0007247764526386868,0.0005504926256867382,-0.00028624058630027926
149750000000.0,2,0.0419136221,-0.0094928372,0.1174640537,-0.067993,-0.012803,0.010388,0.48286963934999994,-6.1204283315,-7.647029537,0.063061,0.67399,2.9324,9.999999999998899e-05,-3.333333333332966e-05,-0.00029999999999996696,0.001143387220719716,0.0011370950153939408,-6.78965871986903e-05
149750000000.0,2,0.010502922149999998,-0.0010002783,0.10849096894999999,-0.055139,-0.005451,0.012532,0.48180071449999995,-6.1168979375,-7.6499715319999995,0.062898,0.67354,2.9325,-0.00019999999999997797,-2.4999999999941735e-05,-9.999999999998899e-05,-0.00024342637999275052,-0.0015097329838771323,-0.0005129733872041853
149750000000.0,2,-0.0126113519,-0.0166320784,0.1039897166,-0.043461,-0.013005,0.012566,0.47992764435,-6.114446275000001,-7.6520309285,0.062638,0.67322,2.9328,-9.999999999998899e-05,-2.500000000016378e-05,-0.00010000000000021103,0.00041443078226288677,7.360551606305776e-05,-0.0002570036941379472
149750000000.0,2,-0.006080123,-0.0002549729,0.09632091629999999,-0.036041,-0.022651,0.00726,0.4777407614,-6.112484944999999,-7.6537961254999995,0.062338,0.67295,2.9329,-5.0000000000105516e-05,-2.500000000016378e-05,-0.00019999999999997797,0.0005038080478113605,0.00016947096528152628,-0.00028516684132029457
149750000000.0,2,0.019064127599999998,-0.035451039749999996,0.08434699664999999,-0.033942,-0.033313,-0.002325,0.47578923804999995,-6.1109158809999995,-7.65507099,0.062074,0.67275,2.9329,-4.999999999988347e-05,-2.4999999999941735e-05,-9.999999999998899e-05,0.0009708276661039017,-6.156477725216547e-05,-0.0002863074752780803
149750000000.0,2,0.0283216052,-0.05365218215,0.08556302125,-0.042485,-0.04069,-0.011933,0.47386713465,-6.109150683999999,-7.6566400539999995,0.061811,0.67252,2.9328,-9.999999999998899e-05,-4.999999999988347e-05,-0.00019999999999997797,0.0007507150309010724,-2.5338369877614397e-05,-0.00012554543404014185
149750000000.0,2,0.03480380085,-0.0594871389,0.06469447005,-0.05632,-0.040568,-0.018363,0.47231768394999996,-6.106208689,-7.659091716499999,0.061589,0.67213,2.9325,-3.333333333332966e-05,-5.0000000000105516e-05,-9.999999999998899e-05,-7.958453261225351e-05,-0.0004494970632298312,-1.0515071894590111e-05
149750000000.0,2,0.027752819499999998,-0.070804013,0.0260268491,-0.065824,-0.026639,-0.015202,0.47143508544999996,-6.1021879624999995,-7.662327911,0.061449,0.67161,2.9323,-3.333333333332966e-05,-5.0000000000105516e-05,-0.00019999999999997797,0.0007177637271480464,0.0008295605916630588,9.80684680840227e-06
149750000000.0,2,0.0106696352,-0.0795711581,0.04200188195,-0.069936,-0.004232,-0.009911,0.47146450539999996,-6.097873036499999,-7.6657602385,0.061426,0.67106,2.9322,-3.333333333332966e-05,-4.999999999988347e-05,-9.999999999998899e-05,-9.347191769737417e-05,2.1669364976828476e-05,-5.2937300122957165e-05
149750000000.0,2,-0.015327793949999998,-0.07732543524999999,0.027576299799999995,-0.064372,0.025557,-0.007818,0.47306298934999996,-6.093754243499999,-7.668996433,0.061608,0.67051,2.9322,-9.999999999998899e-05,-4.999999999988347e-05,-0.00019999999999997797,-0.00012057382142993678,-6.748933598110796e-05,-0.00011321378489254075
149750000000.0,2,-0.0202801522,-0.07875720615,0.0012454445499999998,-0.054558,0.051052,-0.008913,0.47667183654999995,-6.090027716499999,-7.6716442285,0.062055,0.67003,2.9322,-9.999999999998899e-05,-5.0000000000105516e-05,-9.999999999998899e-05,0.00027572787444740676,0.0009307021611058008,-0.00043313489448881803
149750000000.0,2,0.0010002783,-0.06867596995,0.0029027683999999997,-0.037432,0.05837,-0.007828,0.48173206794999995,-6.0875760539999995,-7.673311359,0.062697,0.66971,2.9321,-9.999999999998899e-05,-9.999999999998899e-05,-0.00019999999999997797,0.0010352853890089886,0.0002695884340060406,-0.00021856965353950208
149750000000.0,2,0.0321265854,-0.06267430015,-0.01840708205,-0.021546,0.045449,-0.004577,0.48651771315,-6.085908923499999,-7.674292024,0.063311,0.6695,2.932,-5.0000000000105516e-05,-0.00019999999999997797,-9.999999999998899e-05,0.0013673482469412912,0.001215516966217578,-0.00044747338158834804
149750000000.0,2,0.07175525804999999,-0.06569474835,-0.0289100042,-0.010036,0.017649,-0.003443,0.48997946059999997,-6.0853205245,-7.6745862234999995,0.063758,0.66942,2.9318,-5.0000000000105516e-05,-4.999999999988347e-05,-0.00019999999999997797,-1.1213646392449483e-05,-0.0005664303232260082,9.090994579458167e-05
149750000000.0,2,0.11762096009999999,-0.050092368199999994,-0.0319892923,0.003542,-0.017628,-0.001226,0.49140142485,-6.0855166575,-7.674390090499999,0.063945,0.66944,2.9316,-9.999999999998899e-05,-5.0000000000105516e-05,-9.999999999998899e-05,0.0007756856510592325,-0.000724343682939832,-9.321960930341877e-05
149750000000.0,2,0.11974900314999999,-0.042923707049999996,-0.01585735305,0.011899,-0.036881,0.004156,0.49077379925,-6.0864973225,-7.673605558499999,0.063869,0.66958,2.9315,-9.999999999998899e-05,-9.999999999998899e-05,-9.999999999998899e-05,0.0005070153558475177,-0.0008550403715965604,0.00014204295473585482
149750000000.0,2,0.11196252305,-0.047728965549999995,0.00665871535,0.016063,-0.045446,0.011646,0.48867517615,-6.088360585999999,-7.672330694,0.063608,0.66981,2.9315,-9.999999999998899e-05,-4.999999999988347e-05,-0.00010000000000021103,-0.00016216549867142938,-0.0010208290998579006,0.0002191118318626839
149750000000.0,2,0.0866711727,-0.02882174435,0.06720497245,0.011785,-0.044347,0.015904,0.48569395455,-6.090321916,-7.670859696499999,0.063232,0.67007,2.9315,-4.999999999988347e-05,-5.0000000000105516e-05,-9.999999999998899e-05,0.00016657756031723814,0.00044341937956371424,0.00010037105320687134
149750000000.0,2,0.07114724574999999,-0.027958759149999995,0.09146662455,-0.000907,-0.031452,0.01479,0.4832520987,-6.0915967805,-7.6699770979999995,0.062923,0.67024,2.9316,-5.0000000000105516e-05,-9.999999999998899e-05,-9.999999999998899e-05,5.8371751289199025e-06,8.757881485688124e-05,-6.846701150403645e-05
149750000000.0,2,0.0612915625,-0.029694536199999996,0.08626910004999999,-0.010297,-0.007925,0.010461,0.48263427975,-6.0919890465,-7.669780964999999,0.062844,0.67029,2.9317,3.333333333332966e-05,-9.999999999998899e-05,-5.0000000000105516e-05,6.525404037516225e-05,0.00043184934930917684,-0.0001899666223379448
149750000000.0,2,0.05218118465,-0.04206072185,0.09661511579999998,-0.017541,0.017714,0.0072,0.48411508389999997,-6.0919890465,-7.669584832,0.063038,0.67029,2.9317,3.333333333332966e-05,-9.999999999998899e-05,-4.999999999988347e-05,-6.693258974332927e-05,0.0008798609616054165,-0.00017724900100168917
149750000000.0,2,0.0310282406,-0.03807922195,0.1061667929,-0.025995,0.029504,0.010366,0.48627254689999994,-6.091498714,-7.669879031499999,0.063315,0.67022,2.9318,3.333333333332966e-05,-9.999999999998899e-05,-4.999999999988347e-05,0.00039928277150702574,0.0018110534619675267,5.5720613599263835e-06
149750000000.0,2,0.030155448749999997,-0.06198783465,0.08888747559999999,-0.034568,0.026376,0.013559,0.48818484365,-6.090518048999999,-7.670565496999999,0.063559,0.67009,2.9319,0.0001500000000000945,-9.999999999998899e-05,-5.0000000000105516e-05,-3.0487673926771208e-05,0.0010949757210985123,-3.2147834655826824e-05
149750000000.0,2,0.017848103,-0.08624948675,0.08173842775,-0.037922,0.009351,0.017853,0.48867517615,-6.0893412510000005,-7.671546161999999,0.063614,0.66994,2.9321,0.00014999999999987246,-0.00039999999999995595,-9.999999999998899e-05,0.003428416541043755,0.003807269121032908,-0.00012536064950008363
149750000000.0,2,0.014327515649999999,-0.09350640774999999,0.0654495821,-0.03482,-0.00346,0.017881,0.4878612242,-6.0880663864999995,-7.6726248935,0.063499,0.66977,2.9324,-9.999999999998899e-05,-0.00019999999999997797,9.999999999998899e-05,0.00046020737631691233,0.0015797337701466407,0.00039269642153327844
149750000000.0,2,0.014847268099999998,-0.1195038369,0.0746678331,-0.022128,-0.015289,0.022194,0.4858410543,-6.0880663864999995,-7.6726248935,0.063237,0.66978,2.9326,0.00020000000000020002,-0.00020000000000020002,-0.00039999999999995595,-0.0008679937502161783,-0.00047712417092671267,0.0003499609835505568
149750000000.0,2,-0.0030008349,-0.1017538004,0.09254535604999999,-0.007307,-0.030327,0.022248,0.482291047,-6.0892431845,-7.6720364944999995,0.062781,0.66992,2.9329,-0.000300000000000189,-5.0000000000105516e-05,0.0004999999999999449,0.0008764194115736812,0.001194183318087294,0.0003556254304742934
149750000000.0,2,-0.0016671305000000001,-0.11076611175,0.10337189764999999,0.004337,-0.043208,0.021225,0.4778192146,-6.0915967805,-7.670369363999999,0.062214,0.67023,2.9332,-0.00019999999999997797,-4.999999999988347e-05,9.999999999998899e-05,0.0009385448340466507,0.00031818182812792806,0.00014127873761493603
149750000000.0,2,0.00204958985,-0.10847135564999999,0.12396586264999998,0.005331,-0.054932,0.018046,0.47260207679999994,-6.094342642499999,-7.6685061005,0.06155,0.67059,2.9334,9.999999999998899e-05,-0.00019999999999997797,-0.00029999999999996696,0.0014272231297739468,0.0005472876661072323,0.0008000789536918296
149750000000.0,2,0.013003617899999998,-0.09317298165,0.10877536179999998,-0.003248,-0.062317,0.01591,0.46703189959999997,-6.0961078395,-7.667427368999999,0.060836,0.67083,2.9336,-4.999999999988347e-05,-0.00019999999999997797,-9.999999999998899e-05,0.0002590615801985052,0.00012686589302912665,-5.219536079575926e-05
149750000000.0,2,0.011767979999999999,-0.09146662455,0.08187572085,-0.012837,-0.061171,0.015892,0.46139307585,-6.097088504499999,-7.667035102999999,0.060106,0.67095,2.9338,-5.0000000000105516e-05,-0.00019999999999997797,-0.00014999999999987246,0.00041394347970558076,0.0007365304850028842,-0.000358506493451094
149750000000.0,2,-0.0057074703,-0.1013026945,0.0893385815,-0.027678,-0.045071,0.023311,0.45611709814999996,-6.097186570999999,-7.6673293025,0.059419,0.67095,2.9341,9.999999999998899e-05,-0.00029999999999996696,-0.0001500000000000945,-0.00047435222665492827,-0.0018996650263438664,-0.00016390136500959995
149750000000.0,2,-0.052308671099999995,-0.0849059757,0.08540611484999999,-0.042492,-0.02471,0.031792,0.45094899359999996,-6.0959117065,-7.668604167,0.058737,0.67079,2.9346,-0.00019999999999997797,-0.00019999999999997797,-9.999999999998899e-05,-0.0020769877138119286,-0.0036193034492979503,-0.0010881758096923932
149750000000.0,2,-0.07960057804999998,-0.1049507683,0.0849648156,-0.054116,-0.011826,0.030686,0.4465163878,-6.0939503765,-7.670369363999999,0.058147,0.67054,2.9352,4.999999999988347e-05,-0.00029999999999996696,-0.00019999999999997797,-0.0005291722686010525,-0.00019258517623454985,-0.00019073495048760325
149750000000.0,2,-0.0763349636,-0.14008799525,0.059467525599999994,-0.059329,-0.001119,0.024257,0.44325077335,-6.0914006474999995,-7.6726248935,0.057706,0.67021,2.9356,5.0000000000105516e-05,-0.00029999999999996696,-0.00019999999999997797,-0.00026421427739464765,0.0005097059591050446,-5.91414401484025e-05
149750000000.0,2,-0.07371658805,-0.14373606905,0.0161613592,-0.053889,0.006304,0.015718,0.44123060345,-6.0888509185,-7.6747823565,0.057428,0.66987,2.936,-9.999999999998899e-05,-0.000300000000000189,-0.00019999999999997797,-0.0005282398558278389,-0.00018650389131380507,0.00010948133040977748
149750000000.0,2,-0.055740998599999994,-0.139842829,0.02095681105,-0.042145,0.004081,0.011476,0.43985767244999996,-6.086987655,-7.676253354,0.057238,0.66964,2.9363,-9.999999999998899e-05,-0.00019999999999997797,-5.0000000000105516e-05,-5.2286217622432574e-05,-0.00015072911921243382,-3.810750058064194e-05
149750000000.0,2,-0.019113160849999998,-0.15028691125,0.01791674955,-0.024079,-0.006721,0.009393,0.438553388,-6.086595388999999,-7.67664562,0.057066,0.66959,2.9364,-5.0000000000105516e-05,-0.00039999999999995595,-4.999999999988347e-05,0.0003684578694047591,0.0007794539763463781,3.7410591855191466e-05
149750000000.0,2,0.0051582979,-0.1506889839,0.02899826405,-0.002836,-0.018617,0.010518,0.43672935109999994,-6.087870253499999,-7.6757630215,0.056835,0.66975,2.9366,-4.999999999988347e-05,-0.00029999999999996696,-9.999999999998899e-05,0.0005240813401681255,-0.0004796376001694469,-4.801474828058927e-05
149750000000.0,2,0.015023787799999999,-0.15125776959999998,0.03252865805,0.011968,-0.035788,0.010575,0.43373832284999997,-6.090419982499999,-7.673899757999999,0.056461,0.67008,2.9367,-0.00029999999999996696,-0.00029999999999996696,-9.999999999998899e-05,3.6459515308062684e-05,-0.0007556978898359823,-3.902036756670002e-05
149750000000.0,2,0.013278204099999998,-0.17678447955,0.05981075835,0.021554,-0.043317,0.003133,0.43024715545,-6.094342642499999,-7.670957763,0.056029,0.6706,2.9367,-9.999999999998899e-05,-0.00039999999999995595,-3.333333333332966e-05,0.0010603611751972553,-8.41787665217808e-06,0.0003142678524749032
149750000000.0,2,0.013376270599999998,-0.18213891044999997,0.0657437816,0.021614,-0.043305,-0.00754,0.42730516045,-6.098559502,-7.667819635,0.05567,0.67115,2.9366,-0.00019999999999997797,-0.000300000000000189,-3.333333333355171e-05,-0.001613954851635846,-0.0017079429394302181,0.0004943865517618717
149750000000.0,2,0.020338992099999998,-0.18355106805,0.09499701854999999,0.012066,-0.040024,-0.011832,0.42499079105,-6.102482162,-7.664877639999999,0.055389,0.67165,2.9364,-9.999999999998899e-05,-0.0004999999999999449,-3.333333333332966e-05,0.0012949328017352046,0.0031330341898843095,0.0002842643028043712
149750000000.0,2,0.0298710559,-0.2113136942,0.09162353095,0.000388,-0.032469,-0.009731,0.42352960019999997,-6.10562029,-7.6624259775,0.055218,0.67206,2.9362,-9.999999999998899e-05,-0.00039999999999995595,-9.999999999998899e-05,0.0003706986797072931,0.0010289890518688782,-0.0001539505922430462
149750000000.0,2,0.033636809499999996,-0.23960587944999998,0.0882206234,-0.009195,-0.027067,-0.003353,0.42216647584999994,-6.1082680855,-7.660366580999999,0.055054,0.67241,2.9361,-0.00019999999999997797,-0.00029999999999996696,0.00020000000000020002,0.000242894562285767,0.0002654049679413628,-0.0002522256707568338
149750000000.0,2,0.0400699719,-0.2705066336,0.12696669755,-0.016743,-0.032341,0.00625,0.42021495249999996,-6.111112014,-7.658209117999999,0.054816,0.67277,2.9361,-0.000500000000000167,-0.00019999999999997797,-1.6666666666775853e-05,-0.0028003475485561813,-0.0018456974775262758,4.4359414511918605e-05
149750000000.0,2,0.06581242814999999,-0.28397116405,0.16410448109999998,-0.017976,-0.04726,0.018014,0.4169199181,-6.114054009,-7.656051654999999,0.054403,0.67317,2.9363,-0.00019999999999997797,-0.00039999999999995595,-1.666666666655381e-05,-0.0012414697600511282,-4.085144978782651e-05,-0.0001283456622128698
149750000000.0,2,0.0929866553,-0.30660491225,0.1844238599,-0.016027,-0.0654,0.028721,0.41204601304999994,-6.117682469499999,-7.653403859499999,0.053786,0.67363,2.9365,-0.00019999999999997797,-0.000400000000000178,-1.6666666666775853e-05,-0.0008054489652348229,8.345016994604215e-05,-6.796095878969233e-05
149750000000.0,2,0.10132230779999998,-0.3641601411,0.18588505074999997,-0.001258,-0.083642,0.036248,0.4053480711,-6.1225857945,-7.649775398999999,0.052939,0.67428,2.9368,-0.00029999999999996696,-0.00039999999999995595,-1.6666666666775853e-05,0.0005584116384094173,-0.0003368391905211876,-0.0007086749539919057
149750000000.0,2,0.10055738909999999,-0.39591407379999993,0.1809523058,0.016745,-0.094457,0.049106,0.39698299865000003,-6.129352383,-7.644872074,0.051882,0.67515,2.9372,-0.00019999999999997797,-0.0005999999999999339,-1.666666666655381e-05,0.0005639182808506726,0.0002682399298488125,-0.0006370542149018443
149750000000.0,2,0.0630763728,-0.42462794499999995,0.1564945207,0.037964,-0.10529,0.058768,0.38643104325,-6.1376880355,-7.638693884499999,0.050546,0.67625,2.9378,-9.999999999998899e-05,-0.000700000000000145,-1.6666666666775853e-05,-4.13328134849511e-05,0.0014907126971364093,0.0006453180808685954
149750000000.0,2,0.006541035549999999,-0.45874528035,0.1385875778,0.05387,-0.1214,0.055625,0.37368239825,-6.147788885,-7.6312408304999995,0.048929,0.67756,2.9385,-0.00029999999999996696,-0.0004999999999999449,0.00010000000000021103,-0.0002441840592238842,-0.0010180939458857008,6.769814962914733e-05
149750000000.0,2,-0.03688281065,-0.4592650328,0.11312951439999999,0.052748,-0.14268,0.035385,0.35950198234999997,-6.157693601499999,-7.623885842999999,0.04712,0.67887,2.9391,-0.00029999999999996696,-0.0006999999999999229,9.999999999998899e-05,0.0006152074546957875,0.0018167138572644514,-0.0007550741935238858
149750000000.0,2,-0.07534449195,-0.4310022675,0.06757762515,0.043227,-0.1479,0.012969,0.34543924625,-6.1663234534999996,-7.617511520499999,0.045317,0.68,2.9394,-0.00019999999999997797,-0.0008000000000001339,9.999999999998899e-05,-0.0010200692535039524,0.0010573686058745757,0.00021769512058977813
149750000000.0,2,-0.10741223744999999,-0.39553161444999996,0.017779456449999998,0.026315,-0.13709,0.00012,0.33231794854999996,-6.1729919755,-7.6128043285,0.043625,0.68087,2.9396,-0.00020000000000020002,-0.0006999999999999229,0.00019999999999997797,0.00039634693383328035,0.0005968850120463554,-0.0006202130544786244
149750000000.0,2,-0.14648193104999999,-0.33486767754999996,0.03074384775,0.005215,-0.10814,4.2e-05,0.32065784169999995,-6.1775030345,-7.609568133999999,0.042114,0.68146,2.9398,-0.00029999999999996696,-0.0008999999999999009,0.0001500000000000945,5.9004343172741613e-05,0.0005378088695531247,-0.0003964222755896696
149750000000.0,2,-0.1895233179,-0.28585404085,0.05225963785,-0.012669,-0.071766,0.008498,0.31042950575,-6.1802488965,-7.607802937,0.040782,0.68183,2.9402,-0.00029999999999996696,-0.0008000000000001339,0.00014999999999987246,-0.002203444596192705,0.0005401962283357875,-0.00017257686664234884
149750000000.0,2,-0.1946620025,-0.24048847794999997,0.08629852,-0.023187,-0.046112,0.020187,0.30165255399999996,-6.182112159999999,-7.606626138999999,0.039636,0.68207,2.9407,-0.00029999999999996696,-0.0008999999999999009,0.00019999999999997797,0.0009079640784299681,0.00212272065007868,-0.0008707366930191252
149750000000.0,2,-0.1565337473,-0.18999403709999999,0.11606170275,-0.026342,-0.039691,0.022315,0.29420930665,-6.1831908915,-7.606037739999999,0.038661,0.68221,2.9413,-0.0004999999999999449,-0.0009000000000001229,0.00019999999999997797,-0.0028050506376645634,0.0010711199102180213,-0.000150319753171424
149750000000.0,2,-0.06698922615,-0.16023085434999998,0.14188261219999998,-0.015752,-0.050433,0.022356,0.28800169719999996,-6.184759955499999,-7.6050570749999995,0.037851,0.68241,2.9417,-0.00039999999999995595,-0.0009999999999998899,0.00019999999999997797,0.0019017968897365733,0.0017318469073321907,-0.0013859218269949847
149750000000.0,2,0.030841914249999994,-0.09007408025,0.14967889895,-0.001044,-0.074008,0.032028,0.28159795475,-6.1866232189999995,-7.603684144,0.037018,0.68266,2.942,-0.000500000000000167,-0.0009000000000001229,0.00019999999999997797,-0.0015338443016289505,0.0010556586656718103,3.92395897982345e-05
149750000000.0,2,0.11964113,-0.020780291349999997,0.1991730615,0.018941,-0.10083,0.048115,0.27390954115,-6.189761346999999,-7.6014286145,0.036018,0.68308,2.9424,-0.0004999999999999449,-0.0010999999999998789,0.00019999999999997797,0.001356486676780455,0.00027597042195703914,-0.0007042942699374
149750000000.0,2,0.16882147975,0.03411733535,0.25317828305,0.035787,-0.11804,0.067378,0.26437747735,-6.194272406,-7.59819242,0.034781,0.68366,2.9429,-0.0005999999999999339,-0.0009000000000001229,0.00019999999999997797,-0.0019390546664223018,-0.0008731926901091036,0.00015891676860607662
149750000000.0,2,0.1860517638,0.08403318385,0.30687949845,0.037857,-0.12234,0.074851,0.25388436184999996,-6.199077664499999,-7.594563959499999,0.033417,0.6843,2.9436,-0.000500000000000167,-0.0010999999999998789,0.00020000000000020002,0.0013891161690477993,0.002356186690744444,0.00014410867735303867
149750000000.0,2,0.20458633229999998,0.10086139525,0.29253236949999994,0.025265,-0.10092,0.068375,0.24507799014999998,-6.202902257999999,-7.591720031,0.032271,0.68481,2.9442,-0.0006999999999999229,-0.001000000000000112,0.00029999999999996696,-0.0008711567988212154,-0.001638341271919197,-0.0006066514464327932
149750000000.0,2,0.21583455985,0.1226811915,0.25663022385,0.003291,-0.054902,0.055447,0.23636968495,-6.2037848565,-7.591229698499999,0.031127,0.68492,2.9449,-0.00039999999999995595,-0.0011999999999998678,9.999999999998899e-05,0.00013276900393077717,0.0009672375692137969,1.707729081412701e-05
149750000000.0,2,0.21776646989999998,0.15214036809999998,0.25276640375,-0.031463,-0.003458,0.046757,0.23204495229999997,-6.202313859,-7.592602629499999,0.030552,0.68472,2.9455,-0.0005999999999999339,-0.001100000000000101,0.00019999999999997797,0.00035750353429320203,0.0017705452610730088,-0.0006381632693399086
149750000000.0,2,0.2627986067,0.15368001215,0.24413655174999999,-0.069511,0.043739,0.04981,0.23160365304999997,-6.1978028,-7.5963291564999995,0.03048,0.68414,2.9462,-0.000400000000000178,-0.0010999999999998789,0.00019999999999997797,-0.00207419803543063,0.0016061336070154475,0.0002896281591049932
149750000000.0,2,0.2868837391,0.16150571885,0.23532037339999998,-0.11098,0.06857,0.062486,0.23864482774999998,-6.1904478124999995,-7.60211508,0.031381,0.68316,2.9465,-0.00039999999999995595,-0.0013000000000000789,4.999999999988347e-05,0.0015179500522607414,0.0013280303651241887,-0.0004065976945133998
149750000000.0,2,0.32433533545,0.17686293274999998,0.22338568035,-0.14518,0.070966,0.078434,0.23949800629999998,-6.1800527635,-7.610548798999999,0.031459,0.68179,2.9475,-0.00039999999999995595,-0.0013000000000000789,5.0000000000105516e-05,-0.0005233321199670238,0.002352419491829627,-0.00011604110960006242
149750000000.0,2,0.33792735234999993,0.18308034885,0.18123669865,-0.16346,0.064705,0.096559,0.2387723142,-6.167990583999999,-7.620355448999999,0.031324,0.68022,2.9488,-0.0005999999999999339,-0.0011999999999998678,0.00019999999999997797,-0.0016964454887100633,-0.0016184098142026926,0.0001901151295222725
149750000000.0,2,0.30249592589999996,0.19637816624999999,0.14710955665,-0.15823,0.061449,0.11152,0.2367913709,-6.1558303379999995,-7.630162099,0.031024,0.67862,2.9503,-0.00039999999999995595,-0.0014000000000000679,-0.00019999999999997797,0.0017104524556892375,0.002195088447281446,0.00038164668079770925
149750000000.0,2,0.17652950664999997,0.1950346552,0.11935673714999999,-0.12832,0.070781,0.12008,0.2384192748,-6.1441604245,-7.639576483,0.031198,0.6771,2.9515,-0.000500000000000167,-0.0011999999999998678,-5.0000000000105516e-05,-0.0010186193570516089,-0.0024084211971315828,0.001027856439830943
149750000000.0,2,0.027321326899999998,0.17474469635,0.0825327664,-0.082326,0.087448,0.12333,0.2372424768,-6.137393835999999,-7.6450682070000004,0.031022,0.6762,2.9531,-0.00039999999999995595,-0.0014000000000000679,-4.999999999988347e-05,0.0016570832491653587,0.0018234780410519846,0.0007215820229520831
149750000000.0,2,-0.13940152975,0.1557099887,-0.015886773,-0.031053,0.097677,0.12767,0.23682079085,-6.1343537745,-7.6475198695,0.030957,0.67581,2.9548,-0.00029999999999996696,-0.0015000000000000568,-0.00019999999999997797,0.002252754434844073,0.0007375797152768815,0.0011062368808218426
149750000000.0,2,-0.13887197064999998,0.15613167465,-0.01621039245,0.011595,0.097321,0.13309,0.2362814251,-6.1347460405,-7.64722567,0.030889,0.67586,2.9565,-0.00039999999999995595,-0.0013000000000000789,-9.999999999998899e-05,0.0009194012930617834,-0.0010961437456458167,0.0014459092757281855
149750000000.0,2,-0.15385653185,0.15391537175,-0.0695879884,0.037039,0.082187,0.13957,0.2312211937,-6.13504024,-7.647029537,0.030227,0.6759,2.9585,-0.00019999999999997797,-0.0015999999999998238,-0.00029999999999996696,0.001948369823495888,0.0013929324090884432,0.0011187529297955745
149750000000.0,2,-0.1353709966,0.12041585534999999,-0.08821081674999999,0.045402,0.06187,0.14175,0.22755350659999998,-6.1388648335000005,-7.6441856085,0.029759,0.6764,2.9603,-0.000400000000000178,-0.0013000000000000789,-9.999999999998899e-05,0.001888695349653191,-0.0008919575131480784,0.0012136601112900935
149750000000.0,2,-0.087671451,0.14104904694999998,-0.07963980464999999,0.031368,0.037483,0.13537,0.22234617544999996,-6.1420029615,-7.641832012499999,0.029088,0.6768,2.9621,-0.00029999999999996696,-0.0014000000000000679,-9.999999999998899e-05,-0.0009625562861468318,-0.0002104716180673094,0.0017589124760610808
149750000000.0,2,-0.06928398225,0.17807895735,-0.07712930225,-0.000598,0.036691,0.12571,0.21712903765,-6.142885559999999,-7.641145547,0.028408,0.67693,2.9637,-0.00039999999999995595,-0.0013999999999998458,-0.00020000000000020002,0.0005139835669902837,-0.0004628715957633034,0.0017196617413648974
149750000000.0,2,-0.06973508815,0.20170317719999997,-0.10078294204999999,-0.035585,0.060431,0.11707,0.21234339244999997,-6.1374919025,-7.645656605999999,0.027766,0.67623,2.9654,-0.00019999999999997797,-0.0013000000000000789,-9.999999999998899e-05,-0.0006488084408867723,0.0007978499400596029,0.001551580324000379
149750000000.0,2,-0.11417882594999999,0.2071949012,-0.09108416519999998,-0.079,0.10235,0.11799,0.21203938629999997,-6.132588577499999,-7.6496773325,0.027712,0.67557,2.9669,-0.00029999999999996696,-0.0013000000000000789,-3.333333333332966e-05,-0.00045769228897563075,-0.000654947653078386,0.0014647918107690283
149750000000.0,2,-0.1458837254,0.19890828195,-0.0661556609,-0.12564,0.14215,0.12103,0.21486370149999998,-6.124056792,-7.6563458545,0.028057,0.67447,2.9685,-0.00029999999999996696,-0.0012999999999998568,-3.333333333332966e-05,-0.0008236524545451873,0.0019471509790840447,0.0015345477260654272
149750000000.0,2,-0.15165003559999998,0.18478670594999996,-0.0583495675,-0.16283,0.16802,0.1316,0.21928650064999997,-6.112681078,-7.6653679724999995,0.028599,0.67298,2.9702,-0.00039999999999995595,-0.0013000000000000789,-3.333333333332966e-05,-0.0009984813734765785,-0.0001558612354652933,0.0015899459038489772
149750000000.0,2,-0.107677017,0.19829046299999997,-0.07830610025,-0.18639,0.16395,0.14011,0.22139493039999997,-6.0953233075,-7.6790972825,0.028824,0.67073,2.9722,-0.000400000000000178,-0.0012000000000000899,-9.999999999998899e-05,0.0008445554833360625,0.0002090528587654905,0.0006554216670857094
149750000000.0,2,-0.0748443528,0.19986933364999998,-0.10556858725,-0.19187,0.14587,0.14227,0.22448402515000002,-6.0809075319999994,-7.69037493,0.029182,0.66885,2.9741,-0.00029999999999996696,-0.0012999999999998568,-0.00019999999999997797,0.0005493396348090762,0.0009371378996660962,0.0017818981294284164
149750000000.0,2,-0.0385793611,0.21985528635,-0.14967889895,-0.17286,0.11695,0.13488,0.2256314032,-6.067374355,-7.7010641785,0.02929,0.66709,2.9759,-0.0004999999999999449,-0.0013000000000000789,-9.999999999998899e-05,-0.0013635589896480171,-0.0017652248321462505,0.0015400890013167468
149750000000.0,2,-0.043698432399999994,0.26173948849999995,-0.20705760809999998,-0.13021,0.10596,0.12216,0.22640612854999997,-6.05658704,-7.7094978974999995,0.029359,0.66569,2.9776,-0.00029999999999996696,-0.0012999999999998568,-0.00029999999999996696,0.002068997314281784,0.001585559845831419,0.0020730995255381357
149750000000.0,2,-0.06818563744999999,0.2538745552,-0.22243443529999998,-0.067247,0.10332,0.11161,0.22589618274999998,-6.044524860499999,-7.719010348,0.029257,0.66413,2.9792,-0.00039999999999995595,-0.0014000000000000679,-0.00019999999999997797,0.001218743920810561,-0.0012864891735595574,0.0018589422423017088
149750000000.0,2,-0.08691633894999999,0.24225367494999997,-0.1693804588,-0.016003,0.10503,0.10529,0.22577850294999996,-6.037562138999999,-7.724502072,0.029221,0.66322,2.9807,-0.000500000000000167,-0.0013000000000000789,-0.00019999999999997797,0.003320177113037226,0.0005278859737440911,0.0018935235837269082
149750000000.0,2,-0.08132654845,0.2140987828,-0.13183079595,0.007399,0.093127,0.097886,0.22542546354999998,-6.0339336784999995,-7.727247933999999,0.029164,0.66276,2.9821,-0.0004999999999999449,-0.0011999999999998678,-0.00029999999999996696,0.0011146699078914413,-0.0018809872313987341,0.0023453407352013733
149750000000.0,2,-0.03773598919999999,0.20398812665,-0.13415497199999998,0.000854,0.068685,0.085111,0.22508223079999998,-6.030403284499999,-7.730091862499999,0.02911,0.6623,2.9833,-0.00029999999999996696,-0.0014000000000000679,-0.000400000000000178,0.002043545349714848,0.00034837640386919944,0.001120974967831534
149750000000.0,2,0.05857512045,0.21925708069999997,-0.16599716455,-0.034506,0.043416,0.072283,0.22558236994999997,-6.023832829,-7.735191320499999,0.029155,0.66145,2.9842,-0.00039999999999995595,-0.001100000000000101,-0.00019999999999997797,0.0004717537464878907,-0.0005272086525076602,0.0016662721322709406
149750000000.0,2,0.15328774615,0.18669900269999998,-0.22930889695,-0.071954,0.027749,0.065835,0.22708278739999999,-6.014222312,-7.742644374499999,0.029321,0.6602,2.9848,-0.00039999999999995595,-0.0011999999999998678,-9.999999999998899e-05,-0.0004835922082258026,0.0017756249575628935,0.001863334415920015
149750000000.0,2,0.12376972965,0.24509760345,-0.29471925244999997,-0.091235,0.021518,0.064732,0.23102506069999998,-5.995491610499999,-7.7569620834999995,0.029774,0.6578,2.9852,-0.000400000000000178,-0.001000000000000112,-5.0000000000105516e-05,-0.0006237610106637481,-0.001264198127750138,0.0011990492148390985
149750000000.0,2,0.12498575424999998,0.2379485556,-0.28916868855,-0.093234,0.034329,0.058302,0.22980903609999997,-5.988332755999999,-7.762551874,0.029596,0.65687,2.986,-0.00039999999999995595,-0.0010999999999998789,-4.999999999988347e-05,0.001160662528178702,0.00027070014941532605,0.0007936956990796107
149750000000.0,2,0.08010071719999999,0.26800593785,-0.33376933275,-0.071734,0.050147,0.047634,0.23204495229999997,-5.9754860445,-7.772358524,0.029846,0.65521,2.9866,-0.0006999999999999229,-0.0008000000000001339,-9.999999999998899e-05,-0.003090101415819002,-0.00460159473418198,0.0015348817525084324
149750000000.0,2,0.03533335995,0.3213835338,-0.33136670349999997,-0.040617,0.068015,0.03698,0.2353596,-5.964208397,-7.780988376,0.03024,0.65377,2.987,-0.00029999999999996696,-0.0011999999999998678,-0.00019999999999997797,0.0034791432313584503,0.003860307027031551,0.0006676370869420079
149750000000.0,2,-0.027693979599999998,0.37876224294999994,-0.3266987381,-0.007459,0.07308,0.02422,0.2389880605,-5.9548920795,-7.788049163999999,0.030677,0.65256,2.9874,-0.000300000000000189,-0.001100000000000101,-0.00019999999999997797,0.0002511262381751367,0.0020405179561291398,0.0009574905565537528
149750000000.0,2,-0.05888893325,0.41195775319999994,-0.3105373789,0.015895,0.053715,0.012554,0.2415966294,-5.947537092,-7.793540887999999,0.03099,0.65162,2.9877,-0.0004999999999999449,-0.0009999999999998899,-9.999999999998899e-05,0.0018868361289907654,-0.00073172225892848,-0.00014442097485733996
149750000000.0,2,0.0075511204999999994,0.4062895095,-0.2746058133,0.020001,0.028119,-0.000204,0.24429345814999998,-5.941064703,-7.798346146499999,0.031316,0.6508,2.9878,-0.00029999999999996696,-0.001000000000000112,-9.999999999998899e-05,-0.0008435725652069515,-7.137357520337062e-06,0.0012018341109283348
149750000000.0,2,0.0961836232,0.33407333889999996,-0.2660544145,0.017778,0.013231,-0.009791,0.2479905652,-5.935572979,-7.8023668729999995,0.031773,0.6501,2.9875,-0.00039999999999995595,-0.0006999999999999229,-9.999999999998899e-05,0.000409491344329993,-0.0008643135924539802,0.00039699711288232464
149750000000.0,2,0.11025616594999998,0.27191879119999995,-0.27137942545,0.011407,0.016488,-0.01408,0.2521681981,-5.930669653999999,-7.8060934,0.032293,0.64946,2.9872,-0.0004999999999999449,-0.0009000000000001229,-9.999999999998899e-05,0.0005703918923216644,-0.0013171674256013954,0.000887979686892415
149750000000.0,2,0.07012735415,0.30056401585,-0.22976000284999998,-0.001291,0.028321,-0.019463,0.25653215735,-5.924687597499999,-7.810408326,0.032833,0.6487,2.9869,-0.00019999999999997797,-0.0006999999999999229,-9.999999999998899e-05,0.0008759569318629312,0.0008043833752386931,0.0016327279989206134
149750000000.0,2,0.0079629998,0.22026716564999996,-0.20543951084999998,-0.019198,0.050859,-0.032343,0.2619748481,-5.9186074745,-7.814821318499999,0.033511,0.64792,2.9865,-0.000400000000000178,-0.0006999999999999229,9.999999999998899e-05,-0.0007154493926900818,-0.00015253152803862413,-0.0004671914373720609
149750000000.0,2,-0.049013636699999995,0.21870790829999998,-0.2239054328,-0.043361,0.089432,-0.048464,0.27002610774999997,-5.910664088,-7.8206072419999995,0.034514,0.6469,2.986,-0.00039999999999995595,-0.0008000000000001339,-9.999999999998899e-05,-6.939180251508414e-05,0.00025208671370258173,0.00026274312622509566
149750000000.0,2,-0.07222597724999999,0.24851031764999998,-0.2231209008,-0.056864,0.13111,-0.058167,0.28171563455,-5.9009555045,-7.827569963499999,0.035975,0.64566,2.9854,-0.00039999999999995595,-0.0004999999999999449,9.999999999998899e-05,-0.001113961545157971,-0.0009756620458636345,-0.00047736721154795214
149750000000.0,2,-0.07843358669999999,0.27612584405,-0.19959474744999997,-0.067303,0.1589,-0.062504,0.29615102335,-5.890266255999999,-7.8350230175,0.037781,0.6443,2.9848,-0.00019999999999997797,-0.0006999999999999229,-9.999999999998899e-05,0.0007400578916185729,0.000983592424274704,-0.00015929913268336593
149750000000.0,2,-0.0697841214,0.3073207977,-0.1682036608,-0.072664,0.16,-0.058245,0.3113022976,-5.878890542,-7.842966404,0.039671,0.64286,2.9842,-0.00029999999999996696,-0.000600000000000156,-9.999999999998899e-05,0.0003679182973603812,-0.00014871845165753683,0.00020298766230503196
149750000000.0,2,-0.014288289049999998,0.3550203433,-0.15530791605,-0.074006,0.13761,-0.042197,0.3255415534,-5.866926428999999,-7.8513020565,0.041439,0.64133,2.9836,-0.00039999999999995595,-0.0004999999999999449,-5.0000000000105516e-05,-0.0010316350950809738,-0.003176772851962051,-0.00023897917152504444
149750000000.0,2,0.0677051116,0.3481164617,-0.1774219118,-0.063782,0.098083,-0.019696,0.33722127355,-5.855354582,-7.859441576,0.042879,0.63986,2.9832,-0.000400000000000178,-0.0004999999999999449,-4.999999999988347e-05,0.000346442372041067,-0.0009910557279042553,0.000392632060720266
149750000000.0,2,0.09046634625,0.3115768838,-0.18319802864999998,-0.046091,0.057427,0.001753,0.3446841342,-5.845645998499999,-7.8664042975,0.043789,0.63862,2.9831,-0.00039999999999995595,-0.00039999999999995595,-0.00019999999999997797,0.002210546143204928,-0.0009519136305280451,0.0013399286767786789
149750000000.0,2,0.11762096009999999,0.30325103794999997,-0.17527425545,-0.026217,0.021021,0.019997,0.3483518213,-5.837702612,-7.8720921545,0.044223,0.63762,2.9832,-0.00029999999999996696,-0.00039999999999995595,-2.4999999999941735e-05,0.0006445299329668197,-0.0013661923687617872,0.0004977693149805229
149750000000.0,2,0.10992273984999999,0.2835690914,-0.1518657819,-0.005075,0.004858,0.030734,0.3494697794,-5.832112821499999,-7.8762109475,0.044341,0.63691,2.9834,-0.00039999999999995595,-0.000400000000000178,-2.4999999999941735e-05,-1.0073082974293435e-05,-0.0024056409297847914,0.0005742140048805022
149750000000.0,2,0.07697239585,0.25174651215,-0.14522667984999998,0.011948,0.005778,0.0393,0.3491951932,-5.828484360999999,-7.878956809499999,0.044291,0.63644,2.9837,-0.00029999999999996696,-0.00039999999999995595,-2.500000000016378e-05,0.00024304463079993788,-0.0011277044047333096,-0.0006737812405908095
149750000000.0,2,0.05399541489999999,0.2637204318,-0.11510065104999999,0.01951,0.024889,0.048885,0.34912654665,-5.825738499,-7.880918139499999,0.044271,0.6361,2.9842,-0.00019999999999997797,-0.00029999999999996696,-2.4999999999941735e-05,0.0006528649478719784,-0.0008278603621656444,0.0003627210693152305
149750000000.0,2,0.028566771449999997,0.2538745552,-0.08113041545,0.015238,0.032373,0.059538,0.34895983359999994,-5.823581036,-7.882585269999999,0.044241,0.63582,2.9849,-0.00020000000000020002,-0.00029999999999996696,-0.00010000000000021103,0.00038196304827520233,-0.0005734568161828157,0.00023313607517172485
149750000000.0,2,0.023928225999999997,0.21355941705,-0.04853311085,-0.002973,0.028254,0.065917,0.34806742844999994,-5.820835173999999,-7.8846446665,0.044117,0.63547,2.9857,-9.999999999998899e-05,-0.00019999999999997797,-5.0000000000105516e-05,-7.764849875036006e-05,0.0006690022543023311,0.0005911344647576144
149750000000.0,2,0.0317539327,0.16614426429999998,-0.0382655483,-0.025503,0.013523,0.065904,0.34622377825,-5.816912514,-7.887586661499999,0.043867,0.63498,2.9865,-9.999999999998899e-05,-0.00029999999999996696,-4.999999999988347e-05,0.00024350116290705603,0.00096858665312749,0.0004979127742980038
149750000000.0,2,0.08147364819999998,0.0526420972,-0.0446987107,-0.044789,0.001975,0.06162,0.34573344575,-5.810832390999999,-7.8920977205,0.04378,0.63421,2.9871,-9.999999999998899e-05,-9.999999999998899e-05,9.999999999998899e-05,-0.0002564201500075969,-0.00012483422018050305,9.796816771195926e-05
149750000000.0,2,0.0847490693,0.048778277099999996,-0.04170768245,-0.051174,-0.003288,0.049877,0.34246783129999997,-5.807007797499999,-7.895039715499999,0.04335,0.63372,2.9877,-9.999999999998899e-05,-9.999999999998899e-05,-9.999999999998899e-05,-0.0001039361206411904,0.0001385858019431474,0.0005179179362971853
149750000000.0,2,0.060860069899999994,0.021888442799999998,-0.008825985,-0.047903,0.003087,0.045602,0.34106548034999995,-5.802790938,-7.8981778435,0.043156,0.6332,2.9883,9.999999999998899e-05,-0.00020000000000020002,-4.999999999988347e-05,0.0005513665609474527,0.0008911746282525002,0.0006632787382336303
149750000000.0,2,0.02478140455,0.049229383,0.01468055505,-0.042554,0.008367,0.050939,0.33929047669999995,-5.799064411,-7.901021771999999,0.042916,0.63272,2.9889,-9.999999999998899e-05,-9.999999999998899e-05,-5.0000000000105516e-05,5.44871541329206e-05,0.00033627711957273654,0.0008673580224231037
149750000000.0,2,0.0007060788,0.07785499435,0.03605905205,-0.040454,0.008343,0.057347,0.33672113439999996,-5.795337884,-7.903865700499999,0.042577,0.63225,2.9896,-9.999999999998899e-05,-5.0000000000105516e-05,-9.999999999998899e-05,-0.0005846013557421204,-5.3950322874696255e-05,0.0006109079140624307
149750000000.0,2,0.0038049802,0.09995918345,0.013866603099999998,-0.03833,0.006196,0.055219,0.33422043865,-5.7913171575,-7.906905761999999,0.042244,0.63174,2.9903,-4.999999999988347e-05,-4.999999999988347e-05,-9.999999999998899e-05,0.0005660746906365199,0.00036099787650045734,0.00041875847047351256
149750000000.0,2,0.017377383799999997,0.12069044155,-0.01942697365,-0.033034,0.00189,0.055235,0.3317197429,-5.7870022315,-7.9101419565,0.041912,0.6312,2.991,-5.0000000000105516e-05,-4.999999999988347e-05,-9.999999999998899e-05,0.00017569467902467384,8.06810051967588e-06,0.00032428513757098987
149750000000.0,2,0.022447421849999996,0.14163744595,-0.017142024199999998,-0.030934,-0.002388,0.054178,0.32889542769999996,-5.782785371999999,-7.913378151,0.041539,0.63067,2.9916,-5.0000000000105516e-05,-5.0000000000105516e-05,-9.999999999998899e-05,-8.73041795925733e-05,0.00014230112318291965,0.0003212873938525096
149750000000.0,2,0.020848937899999996,0.13383135254999998,-0.023428086849999998,-0.026693,-0.007746,0.049925,0.32570826644999995,-5.778862712,-7.9163201459999994,0.04112,0.63017,2.9923,-4.999999999988347e-05,5.0000000000105516e-05,-0.00019999999999997797,0.0001686666759291855,0.000509153882711999,0.00045013187259967946
149750000000.0,2,0.021564823349999998,0.13402748555,-0.06065413025,-0.01712,-0.009956,0.051012,0.32230535889999995,-5.775332317999999,-7.919066008,0.040677,0.62973,2.9929,2.4999999999941735e-05,4.999999999988347e-05,-9.999999999998899e-05,8.063926658474774e-05,-2.9802811040369193e-05,0.00044478227850347496
149750000000.0,2,0.016661498349999998,0.0983214729,-0.0632136659,-0.008524,-0.002567,0.049946,0.31927510405,-5.7728806555,-7.921027337999999,0.040286,0.62941,2.9935,2.4999999999941735e-05,6.666666666665932e-05,-9.999999999998899e-05,0.00020795551860475214,0.0003479073943417621,0.0004450527828565587
149750000000.0,2,-0.010728475099999999,0.051023999949999996,-0.0417174891,-0.003125,0.003784,0.046742,0.31644098219999994,-5.7717038574999995,-7.922008002999999,0.039923,0.62926,2.9941,2.500000000016378e-05,6.666666666665932e-05,-9.999999999998899e-05,0.00020810451969743848,0.00034781664135352663,0.0004451113145205188
149750000000.0,2,-0.0223395487,0.0168870513,-0.034401728199999995,-0.001984,0.011235,0.043529,0.31428351919999997,-5.771213525,-7.922400269,0.039649,0.6292,2.9947,2.4999999999941735e-05,6.666666666665932e-05,-0.00019999999999997797,0.0013947128538218667,0.0012247684910557943,0.0007895510120068394
149750000000.0,2,-0.0351862602,0.01585735305,-0.0092770909,-0.001953,0.01443,0.042456,0.31231238255,-5.7709193255,-7.9226944685,0.0394,0.62916,2.9953,1.999999999990898e-05,0.00010000000000021103,-9.999999999998899e-05,0.0007790973351631258,0.00034026062985015315,0.000666705637756726
149750000000.0,2,-0.02560516315,0.00585457005,0.0314793465,-0.003035,0.014434,0.045656,0.31051776559999994,-5.7709193255,-7.922792534999999,0.039173,0.62917,2.9959,2.0000000000131024e-05,9.999999999998899e-05,-9.999999999998899e-05,0.0007792981264689303,0.000339743534849557,0.0006669487360044246
149750000000.0,2,-0.00981645665,0.008335652499999999,0.09150585115,-0.002005,0.010161,0.046733,0.30849759569999996,-5.771605790999999,-7.922302202499999,0.03892,0.62926,2.9964,1.999999999990898e-05,0.00019999999999997797,-9.999999999998899e-05,-0.0005830850895287565,-0.001133997800351949,0.0005415179297278971
149750000000.0,2,-0.020927391099999998,-0.0008825985,0.1300165657,0.001256,0.013337,0.040329,0.30673239869999996,-5.7728806555,-7.921517670499999,0.038702,0.62941,2.997,2.0000000000131024e-05,9.999999999998899e-05,-9.999999999998899e-05,-3.209350504196351e-05,0.00011064200944965741,0.0005277193104616384
149750000000.0,2,-0.0140235095,0.0039520799499999995,0.1446677008,0.0109,0.017521,0.039271,0.3055163741,-5.7750381184999995,-7.9199486065,0.038556,0.62968,2.9975,1.999999999990898e-05,0.00019999999999997797,-4.999999999988347e-05,-3.318805346874676e-05,0.0002936188706748055,0.00040120926360004416
149750000000.0,2,-0.01126784085,0.00159848395,0.17702964579999997,0.007751,0.020748,0.034991,0.30485932855,-5.777489781,-7.918281476,0.038482,0.62999,2.9979,-9.999999999998899e-05,0.00029999999999996696,-5.0000000000105516e-05,-0.0007038067396955006,-0.00022081511362648243,0.0003811523139144457
149750000000.0,2,-0.011336487399999998,-0.06752859189999999,0.19378921065,-0.001897,0.012307,0.031787,0.3040257633,-5.7801375765,-7.9163201459999994,0.038386,0.63033,2.9983,-1.1111111111183902e-05,0.00019999999999997797,-9.999999999998899e-05,-0.001357230408735255,-0.0005709173793486677,-0.00016884025345592635
149750000000.0,2,0.025046184099999997,-0.09594826359999999,0.16717396255,-0.015834,0.001771,0.029647,0.30326084459999997,-5.781804706999999,-7.915143347999999,0.038295,0.63054,2.9987,-1.1111111110961858e-05,0.00019999999999997797,-0.00010000000000021103,0.0004908140925512505,0.00022015748636428079,-2.0586654702448026e-05
149750000000.0,2,0.03409772205,-0.1316640829,0.17337176534999998,-0.026624,-0.016249,0.026458,0.30138777445,-5.783079571499999,-7.9142607494999995,0.038064,0.6307,2.999,-1.1111111111183902e-05,0.00029999999999996696,-9.999999999998899e-05,8.46950145373393e-05,-0.0006875804300294774,0.00020391381977435952
149750000000.0,2,0.038569554449999995,-0.176127434,0.18200161734999998,-0.034171,-0.031095,0.020067,0.298710559,-5.784060236499999,-7.913672350499999,0.037729,0.63083,2.9992,-1.1111111111183902e-05,0.00029999999999996696,-9.999999999998899e-05,-0.0001412977413092209,-3.5499880964851016e-05,0.00030938468313296275
149750000000.0,2,0.0195740734,-0.1783633502,0.1924260863,-0.036445,-0.052381,0.015832,0.29436621305,-5.7850409015,-7.913182018,0.037183,0.63094,2.9994,-1.1111111110961858e-05,0.00019999999999997797,-9.999999999998899e-05,0.00012959553643576704,0.0006738280726761303,0.00041375640793001045
149750000000.0,2,-0.024673531399999997,-0.16376124834999997,0.18149167154999998,-0.028108,-0.084408,0.006297,0.28713871199999996,-5.7860215665,-7.9126916855,0.036273,0.63107,2.9996,-1.1111111111183902e-05,0.00020000000000020002,-9.999999999998899e-05,0.0006468068332113885,0.0010062401450703362,0.00017030589327149404
149750000000.0,2,-0.08121867529999999,-0.1330174006,0.13606726875,-0.016268,-0.082361,-0.009696,0.27934242524999997,-5.7871002979999995,-7.9121032865,0.03529,0.63121,2.9996,-1.1111111111183902e-05,0.00019999999999997797,-9.999999999998899e-05,-0.0005170345160238066,0.0004126137870805735,0.0005710868648726164
149750000000.0,2,-0.1143259257,-0.09955711079999999,0.09317298165,0.002986,-0.0889,-0.028862,0.27159517175,-5.7888654950000005,-7.9111226215,0.034317,0.63143,2.9995,-1.1111111110961858e-05,0.00019999999999997797,-0.00019999999999997797,0.00023456483615602597,0.0004323769159797486,0.00021495025855627903
149750000000.0,2,-0.15588650839999998,-0.07950251154999999,0.07734504854999999,0.014821,-0.082603,-0.03739,0.26407347119999997,-5.791415224,-7.9095535575,0.033374,0.63175,2.9992,-1.1111111111183902e-05,9.999999999998899e-05,-0.00019999999999997797,0.0003556902259217454,0.00015719272172054488,-2.206460166603863e-05
149750000000.0,2,-0.14819809479999999,-0.05523105279999999,0.01250347875,0.025662,-0.063516,-0.040605,0.25817967454999996,-5.793964953,-7.9077883605,0.032637,0.63207,2.9989,-0.00019999999999997797,0.00029999999999996696,-9.999999999998899e-05,-0.001462852493875011,-0.0005741893669231057,0.00012957175012984212
149750000000.0,2,-0.13140911,-0.1179739995,-0.02115294405,0.028043,-0.035832,-0.044918,0.25486502685,-5.797397280499999,-7.9054347645,0.032228,0.6325,2.9986,-9.999999999998899e-05,0.00019999999999997797,-9.999999999998899e-05,-0.0005483289406778002,0.0004110490209552342,-0.0006605909132557652
149750000000.0,2,-0.0968112488,-0.13991147555,-0.028311798549999996,0.018611,-0.019767,-0.052433,0.2542275946,-5.8004373419999995,-7.903179234999999,0.032157,0.63289,2.9981,-9.999999999998899e-05,0.00039999999999995595,-0.00039999999999995595,0.0012871467706140338,0.0033846350485711163,-0.001768143520207155
149750000000.0,2,-0.06534170895,-0.1515715824,-0.045934348599999994,-0.00149,-0.008932,-0.068497,0.2559731783,-5.8019083395,-7.9021005035,0.032382,0.63308,2.9974,-9.999999999998899e-05,9.999999999998899e-05,-5.0000000000105516e-05,-3.3191057596249074e-05,-5.680062094004512e-07,-0.000509145081989959
149750000000.0,2,-0.02079990465,-0.17139082204999997,-0.09229038314999999,-0.018434,-0.003449,-0.084547,0.26006255135,-5.8017122064999995,-7.9021005035,0.032899,0.63305,2.9964,-9.999999999998899e-05,9.999999999998899e-05,-4.999999999988347e-05,-3.31907182307134e-05,-5.848257644824884e-07,-0.0005091443799170592
149750000000.0,2,-0.011101127799999999,-0.14621715149999998,-0.07185332455,-0.025832,0.003008,-0.087773,0.2651914293,-5.800535408499999,-7.902786969,0.033544,0.63291,2.9953,-0.00019999999999997797,0.000300000000000189,-0.00019999999999997797,-0.00014130369466114345,0.0003903639342697218,-0.0005858866075418301
149750000000.0,2,0.0025301156999999997,-0.11021693935,-0.030635974599999997,-0.029048,0.006223,-0.079245,0.2704085671,-5.7989663445,-7.903767633999999,0.0342,0.63271,2.9943,-9.999999999998899e-05,0.00019999999999997797,-9.999999999998899e-05,0.0006638015794288021,0.000135466343650803,-0.0002620444556328261
149750000000.0,2,0.0009610516999999999,-0.09884122534999999,-0.011875853149999999,-0.02583,0.012582,-0.071779,0.275566865,-5.7975934135,-7.904552165999999,0.034848,0.63254,2.9934,-0.000300000000000189,0.00029999999999996696,-0.00010000000000021103,-0.00023030918318378557,-0.0016940537536758171,-0.00039856291382889264
149750000000.0,2,0.012366185649999998,-0.08517075525,0.0098458766,-0.016237,0.017821,-0.061098,0.2809212959,-5.796906947999999,-7.904846365499999,0.035523,0.63245,2.9926,-0.00029999999999996696,0.00029999999999996696,-0.00019999999999997797,-0.00038369787241687714,-0.0012410013295034439,-0.0003497961683039952
149750000000.0,2,0.02686041435,-0.0760799907,0.005952636549999999,-0.008817,0.016687,-0.052545,0.28603056055,-5.796906947999999,-7.9047482989999995,0.036169,0.63245,2.9919,-0.00029999999999996696,0.00039999999999995595,-9.999999999998899e-05,0.000666471439259797,0.00114466699572624,-0.0015162360108403883
149750000000.0,2,0.05288726345,-0.07889449925,0.00442279915,-0.001446,0.010225,-0.042915,0.29067891265,-5.797495347,-7.904061833499999,0.036759,0.63253,2.9913,-0.00014999999999987246,0.0001500000000000945,-4.999999999988347e-05,-1.411608963053368e-05,-0.00033943838875538646,-0.00035748085917663985
149750000000.0,2,0.09003485365,-0.0925551627,-0.0327149844,0.001637,0.000604,-0.034355,0.2945329261,-5.7983779454999995,-7.903277301499999,0.037249,0.63263,2.9907,-0.0001500000000000945,0.00014999999999987246,-5.0000000000105516e-05,-1.3994609581180484e-05,-0.00033944293713594753,-0.0003574875306426861
149750000000.0,2,0.12182801295,-0.11047191225,-0.0673912988,0.009997,-0.020773,-0.033238,0.29730820804999997,-5.79965281,-7.9022966365,0.037605,0.63279,2.9901,-0.0004999999999999449,0.000600000000000156,-9.999999999998899e-05,0.0013197492471095362,-0.001019821238207319,-0.0007274412407090036
149750000000.0,2,0.12331862374999998,-0.0911430051,-0.0842587368,0.010993,-0.030365,-0.034289,0.29911263164999996,-5.800731541499999,-7.9014140379999995,0.037837,0.63292,2.9895,-0.0002500000000000835,0.00029999999999996696,4.999999999988347e-05,0.0003515075794229272,-0.00030659086296602744,-0.00015477907660416124
149750000000.0,2,0.1421179718,-0.0742755671,-0.09062325264999999,0.020546,-0.037895,-0.036396,0.30066208234999997,-5.8021044725,-7.9003353065,0.038038,0.63311,2.9889,-0.00024999999999986144,0.00029999999999996696,5.0000000000105516e-05,0.0003515666201213685,-0.0003065371824202412,-0.0001548923769061905
149750000000.0,2,0.15350349245,-0.03197948565,-0.08154229475,0.028075,-0.024108,-0.026804,0.30274109214999995,-5.8037716029999995,-7.899060442,0.038307,0.63331,2.9883,-0.000300000000000189,0.00029999999999996696,9.999999999998899e-05,-0.001138193816465627,-0.0009608597558705689,-0.0004596604447546504
149750000000.0,2,0.12314210404999999,0.0117483667,-0.04488503705,0.036653,-0.00927,-0.011873,0.3046730022,-5.8058309994999995,-7.897393311499999,0.038559,0.63358,2.988,-0.0001500000000000945,0.00034999999999985043,4.999999999988347e-05,-0.00022778942203727226,0.00014361946116925317,-0.0006677245631721007
149750000000.0,2,0.10774566355,7.845319999999999e-05,0.019946726099999996,0.040957,0.004536,0.003051,0.306752012,-5.8091652604999995,-7.894941649,0.038834,0.634,2.9878,-0.00014999999999987246,0.0003500000000000725,5.0000000000105516e-05,-0.0002278817125866972,0.0001434676360649867,-0.0006677455698346768
149750000000.0,2,0.1187193049,-0.01124822755,0.04746418599999999,0.040926,0.009854,0.017983,0.30880160185,-5.812989854,-7.8920977205,0.039108,0.63448,2.9878,-0.00014999999999987246,0.00039999999999995595,9.999999999998899e-05,-0.0007300346672407532,-0.0006333558025204411,-0.00021568635203045305
149750000000.0,2,0.1501201982,-0.0621937743,0.056898183299999995,0.042956,-0.000816,0.022273,0.31031182594999995,-5.817500912999999,-7.888665393,0.039317,0.63506,2.9878,-0.0001500000000000945,0.000400000000000178,9.999999999998899e-05,-0.0007299441073245205,-0.0006335119217746321,-0.00021523532735306938
149750000000.0,2,0.13659682785,-0.12319113729999999,0.07191216445,0.046083,-0.012553,0.019095,0.31082177175,-5.8230907035,-7.8845466,0.039401,0.63576,2.9879,-4.999999999988347e-05,0.00029999999999996696,4.0000000000040004e-05,-1.0623028374512344e-05,0.0001426732063081193,2.7701667325685797e-05
149750000000.0,2,0.14913953319999998,-0.15629838769999999,0.10074371544999998,0.049208,-0.027483,0.011653,0.3106942853,-5.829661159,-7.879643274999999,0.039409,0.63659,2.9878,-5.0000000000105516e-05,0.00029999999999996696,4.0000000000040004e-05,-8.849705694524701e-05,0.0005199791127676878,-9.248910575748726e-05
149750000000.0,2,0.13114433044999999,-0.18329609514999998,0.14769795565,0.054497,-0.038169,0.005275,0.30969400699999994,-5.8372122795,-7.8740534845,0.03931,0.63755,2.9877,-1.666666666655381e-05,0.00029999999999996696,4.0000000000040004e-05,-0.0003490737601949956,-0.0002577369141258945,0.0003359652127150614
149750000000.0,2,0.108461549,-0.19188672055,0.16958639844999998,0.053498,-0.038142,-0.00647,0.30872314865,-5.8450575995,-7.868267561,0.039217,0.63855,2.9875,-1.6666666666775853e-05,0.0003500000000000725,4.0000000000040004e-05,-0.000872648139290666,0.00017538527590277297,-6.512019361482047e-05
149750000000.0,2,0.09804688669999999,-0.17266568655,0.19003326369999998,0.048215,-0.038084,-0.015019,0.30806610309999993,-5.852608719999999,-7.8626777704999995,0.039161,0.63951,2.9872,-1.6666666666775853e-05,0.0003500000000000725,4.0000000000040004e-05,-0.0008726439862152269,0.00017532866063096897,-6.527283985136023e-05
149750000000.0,2,0.0874360914,-0.16628155739999997,0.19798645684999996,0.032325,-0.028351,-0.020401,0.30835049594999997,-5.8589830425,-7.857970578499999,0.039221,0.64032,2.9868,-1.666666666655381e-05,0.00029999999999996696,9.999999999998899e-05,-0.00054437940253238,1.0243747197380415e-05,6.977911779615376e-05
149750000000.0,2,0.09160391764999999,-0.14557971925,0.1787948428,0.012168,-0.01752,-0.024726,0.30972342695,-5.863396034999999,-7.8546363175,0.039411,0.64088,2.9864,-1.666666666655381e-05,0.00019999999999997797,9.999999999998899e-05,-0.00041727209722342007,0.00014790286496846328,3.174484499235408e-05
149750000000.0,2,0.0812971285,-0.1211513541,0.1704591903,-0.008015,-0.006694,-0.023713,0.3117926301,-5.8658476975,-7.8526749874999995,0.039685,0.64119,2.9859,-1.6666666666775853e-05,0.00029999999999996696,9.999999999998899e-05,2.836576262066348e-05,0.0008931765681006176,-0.00013473270603092669
149750000000.0,2,0.08640639314999998,-0.10760837044999999,0.14095098044999999,-0.021783,0.004082,-0.025892,0.31492095145,-5.866534162999999,-7.8520865885,0.040085,0.64128,2.9855,-3.333333333332966e-05,0.00019999999999997797,3.333333333332966e-05,-0.0003051814949310838,0.0007656076596656014,-8.873559237282391e-05
149750000000.0,2,0.09315336835,-0.0881029436,0.1173659872,-0.023838,0.012629,-0.02698,0.31895148459999995,-5.8664360965,-7.851988521999999,0.040598,0.64126,2.9851,-3.333333333332966e-05,0.00019999999999997797,3.333333333332966e-05,-0.0002946973148394427,0.0004966716835190788,-0.00041865407867547333
149750000000.0,2,0.06851906355,-0.03882452735,0.09749771429999998,-0.015267,0.014696,-0.030172,0.32293298449999996,-5.866141897,-7.851988521999999,0.041104,0.64123,2.9846,-3.333333333332966e-05,0.00019999999999997797,3.333333333332966e-05,0.00020140740065355267,-0.00017460836108385003,-0.00039361565110040964
149750000000.0,2,0.041315416449999996,-0.01807365595,0.0881421702,0.002845,0.009225,-0.033334,0.3263456987,-5.866828362499999,-7.8513020565,0.041542,0.64132,2.9842,-9.999999999998899e-05,0.00019999999999997797,3.333333333332966e-05,-0.00017550353145590059,-0.00044546782745813474,-0.0002739653324355662
149750000000.0,2,0.018956254449999998,0.023810546199999998,0.07538371854999999,0.019906,0.003764,-0.0397,0.32955247325000003,-5.8683974265,-7.8501252585,0.041955,0.64151,2.9836,-9.999999999998899e-05,0.00019999999999997797,3.333333333332966e-05,-0.00017538917809045707,-0.00044551687259519746,-0.00027389972512792404
149750000000.0,2,0.03168528615,0.06175247504999999,0.087279185,0.03269,-0.000599,-0.042874,0.3326807946,-5.870652955999999,-7.848261995,0.042364,0.64181,2.983,-9.999999999998899e-05,0.000300000000000189,3.333333333332966e-05,0.00015033617353543693,-0.0006089214711171298,-0.00034344780270678665
149750000000.0,2,0.02670350795,0.0558390651,0.08072834279999999,0.036995,0.004693,-0.041809,0.3360150556,-5.873496884499999,-7.846006465499999,0.0428,0.64216,2.9824,-3.333333333332966e-05,0.00019999999999997797,3.333333333332966e-05,0.0001609839005417557,-0.000618875752435466,-0.00012092869715768506
149750000000.0,2,0.044002438549999995,0.053053976499999995,0.07320664225,0.031738,0.014326,-0.040774,0.3402711417,-5.8760466135,-7.843849002499999,0.043353,0.64249,2.9818,-3.333333333332966e-05,0.00019999999999997797,3.333333333332966e-05,0.001732364102317363,0.001232236749986848,0.0005789590292714086
149750000000.0,2,0.0629979196,0.04158019599999999,0.07073536644999999,0.022217,0.025062,-0.039744,0.3456647992,-5.878007943499999,-7.842181871999999,0.044049,0.64274,2.9812,-3.333333333332966e-05,0.00019999999999997797,3.333333333332966e-05,-0.0008594002429385128,-0.0005301431032789239,-0.000674182074731744
149750000000.0,2,0.05800633475,0.038245934999999995,0.071392412,0.010574,0.037945,-0.037654,0.35185279534999997,-5.8791847415,-7.841005074,0.044843,0.64289,2.9806,-9.999999999998899e-05,0.00019999999999997797,4.999999999988347e-05,-0.00065363781829475,-0.0007618309838590687,-0.0003787498339212769
149750000000.0,2,0.07434421364999999,0.038451874649999995,0.054426907499999996,0.001003,0.041224,-0.038746,0.35870764369999997,-5.879282808,-7.840710874499999,0.045718,0.6429,2.9801,-9.999999999998899e-05,0.00029999999999996696,5.0000000000105516e-05,-0.00179448517645997,-0.002192474958137014,-0.0005964688635416437
149750000000.0,2,0.0857689609,0.041952848699999996,0.06621450079999999,-0.00544,0.038079,-0.035552,0.36568017185,-5.878890542,-7.8406128079999995,0.046606,0.64285,2.9795,1.666666666655381e-05,0.00019999999999997797,9.999999999998899e-05,-0.0004153785675167221,-0.0018842908462528563,-0.00022691140186015257
149750000000.0,2,0.09531083135,0.019662333249999997,0.071392412,-0.005563,0.028483,-0.025931,0.37171126159999995,-5.8785963425,-7.8406128079999995,0.047373,0.64281,2.979,1.6666666666775853e-05,0.00019999999999997797,-3.333333333332966e-05,-0.0002456479419794544,0.00021187167052660882,-0.00018370435638265237
149750000000.0,2,0.09210405679999999,0.0163967188,0.084533323,-0.000414,0.012448,-0.014155,0.37566334155,-5.878792475499999,-7.840220541999999,0.047878,0.64283,2.9786,1.6666666666775853e-05,0.00019999999999997797,-3.333333333332966e-05,-0.00027668839656003197,-0.000642838484068653,-1.4343320702658868e-05
149750000000.0,2,0.08714189189999999,0.00987529655,0.09057421939999999,0.008016,0.001721,-0.009854,0.37823268385,-5.879675074,-7.839436009999999,0.04821,0.64296,2.9784,1.666666666655381e-05,0.000300000000000189,-3.333333333332966e-05,0.00027306116473591047,-0.0015741355425065162,-0.00031530844292165794
149750000000.0,2,0.06991160785,0.028547158149999998,0.0907899657,0.018605,-0.005827,-0.005554,0.3795958082,-5.881342204499999,-7.8381611455,0.048392,0.64316,2.9782,1.666666666655381e-05,0.00019999999999997797,-5.0000000000105516e-05,0.0006889966880662124,8.412423124104507e-06,-0.00029098350873224543
149750000000.0,2,0.056496110649999993,0.041246769899999994,0.09930213789999999,0.027117,-0.006964,-0.002337,0.380301887,-5.8836958005,-7.836297881999999,0.048492,0.64346,2.978,1.6666666666775853e-05,0.00029999999999996696,-4.999999999988347e-05,0.00036276064530760266,-5.7775280057459355e-05,0.00013507365766662893
149750000000.0,2,0.030851720899999997,0.047179793149999996,0.11359042694999999,0.026038,-0.005892,0.001929,0.38035092025,-5.8861474629999995,-7.8344346185,0.048511,0.64378,2.978,4.999999999988347e-05,0.00019999999999997797,-4.999999999988347e-05,-0.00041921358474306114,-9.49614221701367e-06,0.00010255794889219016
149750000000.0,2,0.017779456449999998,0.01538663385,0.11901350439999998,0.015418,0.002717,0.006165,0.3805568599,-5.888501058999999,-7.8326694214999995,0.048547,0.64408,2.978,5.0000000000105516e-05,0.00019999999999997797,-5.0000000000105516e-05,-0.0005751549100903031,-0.0007910511550619503,0.0003525016707890405
149750000000.0,2,0.021456950199999998,-0.025830716099999998,0.12003339599999999,0.000558,0.014559,0.010388,0.38137081185,-5.890070123,-7.8314926235,0.048658,0.64428,2.9781,9.999999999998899e-05,0.00019999999999997797,-9.999999999998899e-05,-0.0003717294701428564,0.00010486217563121514,8.674548480364086e-05
149750000000.0,2,0.0439141787,-0.0789435325,0.12298519764999999,-0.017565,0.017905,0.013552,0.38285161599999995,-5.890854655,-7.830806158,0.048852,0.64438,2.9782,0.00019999999999997797,0.00019999999999997797,-3.333333333332966e-05,-0.00027504730827543344,0.0012327563078686765,-3.135028020617714e-05
149750000000.0,2,0.0838272442,-0.1321348021,0.0946537858,-0.032481,0.019099,0.012456,0.3849894657,-5.8907565884999995,-7.830806158,0.049124,0.64437,2.9783,9.999999999998899e-05,0.00019999999999997797,-3.333333333332966e-05,-0.000315246176564532,0.0005425257527444938,-0.0002694313200750642
149750000000.0,2,0.10903033469999998,-0.16838998714999998,0.0685484835,-0.038957,0.008502,0.011395,0.38701944224999996,-5.8901681895,-7.831198424,0.04938,0.64429,2.9783,0.00019999999999997797,0.00019999999999997797,-3.333333333332966e-05,0.00015085593182262436,0.0003023727606148441,3.314686229138886e-05
149750000000.0,2,0.12816310885,-0.17745133175,0.04774857885,-0.036915,-0.001104,0.015682,0.38839237325,-5.8894817239999995,-7.83159069,0.049552,0.6442,2.9783,9.999999999998899e-05,0.00020000000000020002,-0.00019999999999997797,0.0011976306110268453,0.0012717922693536998,0.00018346034245708687
149750000000.0,2,0.12790813595,-0.16633059065,0.027605719749999997,-0.024199,-0.00867,0.02212,0.3887944459,-5.8893836575,-7.8316887565,0.049603,0.64419,2.9784,9.999999999998899e-05,0.00019999999999997797,-9.999999999998899e-05,0.00022771713341573907,0.00017473579990467947,0.00022997746226294247
149750000000.0,2,0.09629149634999999,-0.1381756985,0.01485707475,-0.015757,-0.016202,0.029618,0.38749016145,-5.889677857,-7.8314926235,0.049438,0.64423,2.9786,9.999999999998899e-05,0.00019999999999997797,-9.999999999998899e-05,0.00024057812831890235,-0.00017436798367076456,0.0003659753533964971
149750000000.0,2,0.07182390459999999,-0.10415642965,-0.026105302299999997,-0.00299,-0.016313,0.037111,0.38517579204999997,-5.8901681895,-7.831198424,0.049145,0.64429,2.979,9.999999999998899e-05,9.999999999998899e-05,-0.00010000000000021103,-0.000538102125156481,-0.0010260347938719772,0.00016994787874963224
149750000000.0,2,0.024408751849999997,-0.0768056828,-0.057104122949999996,0.008789,-0.005762,0.045652,0.38215534384999994,-5.8911488545,-7.8306100249999995,0.048765,0.64442,2.9795,9.999999999998899e-05,0.00019999999999997797,-9.999999999998899e-05,-0.00018699843821312623,-0.0004223755317074307,0.0004133989968938545
149750000000.0,2,-0.00348136075,-0.07810996725,-0.058908546549999996,0.020581,0.003727,0.049926,0.3792231555,-5.893208251,-7.829237093999999,0.048399,0.64467,2.9801,0.00019999999999997797,9.999999999998899e-05,-3.333333333332966e-05,-0.00012411741159590317,-0.0012718009999916902,0.00036048334035976293
149750000000.0,2,-0.02282007455,-0.08591606064999999,-0.0631352127,0.031282,0.006837,0.048872,0.3764184536,-5.895954112999999,-7.8272757639999995,0.048053,0.64503,2.9807,0.00019999999999997797,9.999999999998899e-05,-3.333333333332966e-05,-6.66659845341977e-05,0.00022953622634114268,0.00016299548029696798
149750000000.0,2,0.0037657536,-0.1243875486,-0.057094316299999996,0.040924,0.008894,0.044617,0.37435905709999995,-5.900072905999999,-7.824333769,0.04781,0.64555,2.9813,0.00020000000000020002,9.999999999998899e-05,-3.333333333332966e-05,-0.00028028552624037584,-1.5043978265349978e-06,-8.970518991413545e-05
149750000000.0,2,0.00542307745,-0.14506977345,-0.0392658266,0.047329,0.005652,0.039297,0.37240753375,-5.9050742975,-7.8206072419999995,0.047583,0.64619,2.9818,0.00019999999999997797,0.00019999999999997797,5.0000000000105516e-05,0.0005458018808691678,0.0007120935201816447,4.089884735264393e-05
149750000000.0,2,0.0035500073,-0.1660461978,0.0073353742,0.048325,-0.007136,0.033986,0.36994606459999996,-5.910860221,-7.816292315999999,0.047295,0.64693,2.9822,0.00019999999999997797,9.999999999998899e-05,4.999999999988347e-05,3.722125610150506e-05,6.070250715906056e-05,0.0002640664680504945
149750000000.0,2,-0.00306948145,-0.15437628429999997,0.0101793027,0.043996,-0.022006,0.023332,0.36684716319999994,-5.916450011499999,-7.812271589499999,0.046923,0.64764,2.9825,9.999999999998899e-05,0.00019999999999997797,0.00010000000000021103,-0.0007863689148227548,-0.00012874856157996106,0.0004394746262851301
149750000000.0,2,-0.0058447633999999995,-0.1402743216,0.0009414384,0.03658,-0.021933,0.013714,0.36392478149999996,-5.921059136999999,-7.808839261999999,0.046571,0.64824,2.9827,9.999999999998899e-05,0.00029999999999996696,9.999999999998899e-05,-0.000879980281809023,-0.0011762948830587039,0.0004889156450182397
149750000000.0,2,-0.0240459058,-0.10069468219999998,0.01634768555,0.025967,-0.016515,0.011553,0.36133582589999996,-5.924589531,-7.806289532999999,0.046254,0.64869,2.9828,0.00019999999999997797,9.999999999998899e-05,9.999999999998899e-05,0.00034958718443200976,0.0003528489028397086,0.0002440602854092977
149750000000.0,2,-0.06670483329999999,-0.07880623939999999,0.03543142645,0.014382,0.00276,0.012569,0.35924700945,-5.927237326499999,-7.8044262694999995,0.045998,0.64902,2.9831,9.999999999998899e-05,0.00020000000000020002,9.999999999998899e-05,-0.000642871978885573,0.00038611681618494487,0.00033588415552127104
149750000000.0,2,-0.10315615135,-0.07453053999999999,0.037794829099999996,0.006016,0.026267,0.016787,0.35799175825,-5.92910059,-7.8030533385,0.045846,0.64926,2.9834,0.00019999999999997797,9.999999999998899e-05,9.999999999998899e-05,-0.00045863308998272956,0.0007567946460438346,-3.5607717890517865e-05
149750000000.0,2,-0.0932808548,-0.08162074795,0.04331597305,0.005132,0.04546,0.011418,0.35888416339999996,-5.9307677205,-7.801778474,0.045969,0.64948,2.9837,0.00019999999999997797,0.00019999999999997797,9.999999999998899e-05,-0.0006409710058079554,0.0009855650742880417,-9.178126086528682e-06
149750000000.0,2,-0.0875929978,-0.0665087003,0.06168382849999999,0.010518,0.047553,0.005023,0.3608258801,-5.9329251835,-7.800013277,0.046227,0.64975,2.9839,9.999999999998899e-05,0.00019999999999997797,0.00019999999999997797,-0.0007805587095661704,0.00011764813703463162,3.38725435676257e-05
149750000000.0,2,-0.0490920899,-0.0765703232,0.08709285865,0.012487,0.025162,0.002933,0.36228707094999996,-5.935474912499999,-7.798051946999999,0.046425,0.65007,2.984,9.999999999998899e-05,9.999999999998899e-05,9.999999999998899e-05,-0.0005927681949184915,0.0004814894197668895,0.0003508592407566735
149750000000.0,2,-0.0101596894,-0.06621450079999999,0.08097350905,0.016453,-0.008976,0.009406,0.36165944535,-5.938024641499999,-7.7961886835,0.046356,0.6504,2.9841,9.999999999998899e-05,9.999999999998899e-05,9.999999999998899e-05,-0.0004834671032788451,-0.0007720870002705382,0.00037116886914861924
149750000000.0,2,0.0118268199,-0.051582978999999994,0.06828370395,0.017251,-0.037761,0.017997,0.3583742176,-5.940476304,-7.794325419999999,0.045946,0.65073,2.9842,9.999999999998899e-05,9.999999999998899e-05,9.999999999998899e-05,0.00028263368245617926,-0.0005902883502975076,0.00032958133333993445
149750000000.0,2,0.008227779349999999,-0.0304398416,0.06643024709999999,0.023516,-0.053799,0.020172,0.35330417955,-5.943222166,-7.792560223,0.045307,0.65108,2.9845,4.999999999988347e-05,0.00019999999999997797,9.999999999998899e-05,-0.000281533392997968,-0.0006064718710017125,0.0003853972877204126
149750000000.0,2,-0.0045306723,-0.012385798949999999,0.10634331259999999,0.022469,-0.04953,0.023365,0.34779284225,-5.946164161,-7.790500826499999,0.044614,0.65145,2.9847,5.0000000000105516e-05,9.999999999998899e-05,9.999999999998899e-05,-4.8329252938073e-05,0.00014279417310536502,0.00019063962116455668
149750000000.0,2,-0.02584052275,-2.941995e-05,0.14338302965,0.010859,-0.033451,0.024385,0.3429189372,-5.948517756999999,-7.7889317625,0.043998,0.65175,2.9851,0.00010000000000021103,9.999999999998899e-05,4.999999999988347e-05,-0.0002898187245985451,0.0002633066872765877,8.30487798839652e-05
149750000000.0,2,-0.03207755215,-0.01601425945,0.1442754348,-0.006053,-0.014131,0.024324,0.33942776979999995,-5.949890688,-7.788049163999999,0.043556,0.65193,2.9854,9.999999999998899e-05,9.999999999998899e-05,5.0000000000105516e-05,-0.00029234368687747203,0.0008644331529938931,-0.00030882137726390146
