Time,placement_label,user_acc_x(m/s^2),user_acc_y(m/s^2),user_acc_z(m/s^2),rotation_rate_x(rad/s),rotation_rate_y(rad/s),rotation_rate_z(rad/s),gravity_x(m/s^2),gravity_y(m/s^2),gravity_z(m/s^2),attitude_roll(rad),attitude_pitch(rad),attitude_yaw(rad),target_delta_x,target_delta_y,target_delta_z,target_delta_roll,target_delta_pitch,target_delta_yaw
150000000000.0,-1,-0.021711923099999995,-0.17619608055,-0.0007256920999999999,0.020829,0.010539,-0.014471,-0.2367129177,-9.74584877,1.0645118574999999,-2.9228,1.4594,-2.2649,0.0,0.0,0.0,0.0,0.0,0.0
150000000000.0,-1,-0.0351862602,-0.16268251685,-0.0045502856,0.014452,0.013788,-0.014486,-0.23595780564999996,-9.745750703499999,1.065590589,-2.9237,1.4593,-2.2638,3.999999999992898e-05,-1.999999999990898e-05,-2.999999999997449e-05,-0.0007964951930361508,0.00017869216300958612,-0.00018500700843149254
150000000000.0,-1,-0.036971070499999995,-0.12248505849999998,0.000784532,0.00699,0.015979,-0.012366,-0.23536940665,-9.745652637,1.0662770544999998,-2.9243,1.4592,-2.263,-9.99999999995449e-06,-2.0000000000131024e-05,-3.0000000000085514e-05,-0.0017706642315111765,0.0006372777426730813,-0.0006335968732511521
150000000000.0,-1,-0.02011343915,-0.05535853925,0.01632807225,0.003794,0.019198,-0.008107,-0.23501636725,-9.7455545705,1.0668654535,-2.9248,1.4592,-2.2624,0.00010999999999994348,-1.999999999990898e-05,-9.99999999995449e-06,-0.0003474036619977028,-0.000505857347068428,0.00036139437032134403
150000000000.0,-1,-0.019279873899999998,0.013739116649999997,0.02107449085,-0.001573,0.017108,-0.004909,-0.23495752735,-9.7455545705,1.0672577195,-2.9249,1.4591,-2.2621,2.0000000000020002e-05,-2.0000000000131024e-05,-9.99999999995449e-06,-0.00031532982781001806,-6.890950917548544e-05,-0.00072698915091296
150000000000.0,-1,-0.0020692031499999998,0.0638609048,0.014974754549999999,-0.002629,0.02031,-0.001714,-0.23495752735,-9.7455545705,1.067355786,-2.9249,1.4591,-2.2618,9.999999999998899e-05,-1.999999999990898e-05,2.999999999997449e-05,0.0002595506476783527,-0.000458667645604649,0.0007772498585665311
150000000000.0,-1,0.0016671305000000001,0.07236327035,0.0088455983,0.000531,0.017084,0.001499,-0.23525172684999998,-9.7455545705,1.0674538525,-2.9247,1.4591,-2.2619,2.0000000000020002e-05,-2.4999999999941735e-05,2.999999999997449e-05,6.574485143229225e-05,7.654014525093622e-05,-4.5800388009720194e-05
150000000000.0,-1,-0.00675678185,0.030626167949999998,-0.006462582349999999,-0.001617,0.016035,0.002565,-0.23580089925,-9.7455545705,1.0672577195,-2.9241,1.4591,-2.2623,6.0000000000060005e-05,-2.4999999999941735e-05,2.0000000000020002e-05,-0.00034315258388151193,-0.00011298150264305029,0.00029406496337824883
150000000000.0,-1,-0.01075789505,-0.0009218250999999998,-0.01130706745,-0.002701,0.013913,0.002568,-0.23644813815,-9.7455545705,1.0668654535,-2.9235,1.4591,-2.2628,1.999999999990898e-05,-2.500000000016378e-05,-1.0000000000065512e-05,-5.2155110299878515e-05,-2.610355914911544e-05,0.00017682094655357972
150000000000.0,-1,-0.02356537995,-0.0028341218499999994,-0.009345737449999999,-0.002743,0.010713,0.005777,-0.23754648295,-9.7455545705,1.0663751209999999,-2.9224,1.4592,-2.2638,2.0000000000020002e-05,-2.4999999999941735e-05,6.0000000000060005e-05,0.00019588244768442564,-0.00017127891332258116,-8.197769048257086e-05
150000000000.0,-1,-0.012621158549999999,0.0022555294999999998,-0.0026281822,-0.000615,0.010695,0.006849,-0.23846830804999997,-9.745652637,1.0660809215,-2.9215,1.4592,-2.2645,6.0000000000060005e-05,-5.0000000000105516e-05,-9.99999999995449e-06,-0.00047574853958298746,1.1334125519235627e-05,0.00037957246525932575
150000000000.0,-1,-0.00540346415,0.0173577705,0.00410898635,-0.001662,0.013899,0.007909,-0.23955684619999998,-9.7455545705,1.065982855,-2.9205,1.4592,-2.2654,3.999999999992898e-05,-5.0000000000105516e-05,-3.0000000000085514e-05,-0.0005259479989687676,-0.00014358927048130354,0.0004665604242761745
150000000000.0,-1,-0.0006374322499999999,0.017034151049999998,0.0026674088,0.001505,0.009611,0.007923,-0.24042963805,-9.7455545705,1.0660809215,-2.9198,1.4591,-2.266,3.0000000000085514e-05,-3.333333333332966e-05,-9.99999999995449e-06,-0.0001604073493961522,0.00015530559750720485,-6.940198103655426e-05
150000000000.0,-1,-0.00289296175,-0.00365788045,-0.0072569209999999995,0.00253,0.006402,0.011133,-0.24161624269999998,-9.7455545705,1.0660809215,-2.9187,1.4591,-2.267,6.999999999990347e-05,-3.333333333332966e-05,-2.999999999997449e-05,-0.00010772156014482448,5.1910708034341724e-05,0.00024334105562417996
150000000000.0,-1,-0.00791396655,-0.02862561135,-0.011022674599999999,-0.002801,0.00432,0.006858,-0.2425772944,-9.7455545705,1.0656886555,-2.9178,1.4591,-2.2679,2.0000000000020002e-05,-3.333333333332966e-05,-6.0000000000060005e-05,6.285634619018765e-05,-0.0003054061494158766,0.0005895012379202313
150000000000.0,-1,-0.01679879145,-0.03382313585,0.0026576021499999996,-0.005991,0.004349,0.004719,-0.24342066629999998,-9.7455545705,1.065198323,-2.9169,1.4591,-2.2687,9.00000000000345e-05,-9.999999999998899e-05,-9.99999999995449e-06,0.0003652660665611762,-0.0006343612252794895,0.00041808944139565263
150000000000.0,-1,-0.02397725925,-0.0353235533,0.027801852749999998,-0.005971,0.005416,0.002583,-0.24417577834999998,-9.7455545705,1.06500219,-2.9162,1.4591,-2.2694,2.0000000000020002e-05,-9.999999999998899e-05,2.999999999997449e-05,-0.00021717706697099715,-0.00024320303151648126,-9.41763858650635e-05
150000000000.0,-1,-0.02083913125,-0.02362421985,0.0480721983,-0.013426,0.00548,0.000436,-0.24461707759999998,-9.745652637,1.064609924,-2.9157,1.4592,-2.2698,4.999999999999449e-05,-3.333333333332966e-05,-2.999999999997449e-05,0.00022149035390750527,5.345390807698358e-05,-0.0002207973623755688
150000000000.0,-1,-0.018161915799999998,-0.012013146249999999,0.04554208259999999,-0.018767,0.004458,0.00043,-0.24504857019999998,-9.745750703499999,1.0637273255,-2.9152,1.4593,-2.2704,7.999999999996898e-05,-3.333333333332966e-05,4.999999999999449e-05,-0.0004872186111368748,0.0007604628773785205,0.00026444522767721246
150000000000.0,-1,-0.0105323421,0.0023045627499999996,0.0507788337,-0.017693,0.00445,-0.000636,-0.24520547659999997,-9.745750703499999,1.0628447269999999,-2.9149,1.4593,-2.2706,9.99999999995449e-06,-3.333333333332966e-05,-1.0000000000065512e-05,0.0004985975462385994,4.250756769930142e-05,0.0001187336664256744
150000000000.0,-1,-0.008090486249999999,0.025271737049999996,0.04872924385,-0.017696,0.004449,0.000432,-0.24539180295,-9.74584877,1.062060195,-2.9145,1.4594,-2.2709,8.000000000008001e-05,-9.999999999998899e-05,1.0000000000065512e-05,-0.0007438083316371191,0.0002216403961274871,0.00030296818244623935
150000000000.0,-1,0.00526617105,0.015347407249999999,0.0301848687,-0.01343,0.003349,-0.000627,-0.24529373645,-9.7459468365,1.0611775964999999,-2.9144,1.4595,-2.271,3.999999999992898e-05,-3.333333333332966e-05,2.0000000000020002e-05,0.0006669044457527917,-0.00037335123157355987,0.00019636068312056665
150000000000.0,-1,0.0076295737,-0.00508965135,0.032754211,-0.009168,0.001185,-0.002751,-0.24496031035,-9.746044903,1.060687264,-2.9146,1.4596,-2.2708,3.0000000000085514e-05,-3.333333333332966e-05,-5.000000000032756e-06,-0.0001348714159288278,0.0005055699620835075,-5.21955132963825e-05
150000000000.0,-1,0.0009218250999999998,-0.0063547092,0.01595541955,-0.00915,0.003316,-0.002755,-0.24468572415,-9.7461429695,1.0599027319999998,-2.9147,1.4596,-2.2706,1.999999999990898e-05,-3.333333333332966e-05,-5.000000000032756e-06,6.577055599432668e-05,-0.00011662231666464962,0.00022223390201903115
150000000000.0,-1,-0.00316754795,-0.00885540495,0.00577611685,-0.001728,-0.003137,-0.003798,-0.24433268474999997,-9.7461429695,1.0596085325,-2.915,1.4597,-2.2704,3.0000000000085514e-05,-9.999999999998899e-05,2.3333333333375172e-05,-3.4654667291356134e-05,-0.0008825759281911871,-0.00039963009934695926
150000000000.0,-1,-0.0074922806,-0.005579983849999999,0.0062174160999999995,0.003626,-0.002114,-0.005925,-0.24390119215,-9.7461429695,1.0600007985,-2.9154,1.4597,-2.27,1.4999999999987246e-05,-4.999999999988347e-05,2.333333333326415e-05,0.00040706752221097986,0.0004145277390845692,6.0489609978731096e-05
150000000000.0,-1,-0.0172400907,-0.00489351835,0.014778621550000001,0.004689,-0.005315,-0.010186,-0.2431264668,-9.746044903,1.060687264,-2.9163,1.4596,-2.2692,1.4999999999987246e-05,-5.0000000000105516e-05,2.3333333333375172e-05,-1.8424522894022743e-06,0.00013114340546116487,-0.0003051381476308901
150000000000.0,-1,-0.029665116249999998,0.01346453045,0.0089436648,0.003642,-0.004238,-0.012323,-0.24237135475,-9.746044903,1.061275663,-2.9171,1.4596,-2.2684,4.0000000000040004e-05,-5.0000000000105516e-05,3.3333333333551707e-06,0.00027898890200095394,-5.1285715549242994e-05,-3.2124728766014243e-07
150000000000.0,-1,-0.02362421985,0.013405690549999998,0.01609271265,0.004694,-0.007441,-0.014449,-0.24123378334999998,-9.7459468365,1.062060195,-2.9182,1.4595,-2.2673,2.999999999997449e-05,-4.999999999988347e-05,3.3333333333551707e-06,0.0001851361908942195,-0.00014471432774465498,-9.899757897402495e-05
150000000000.0,-1,-0.01801481605,-0.0026576021499999996,0.03911872685,-0.000628,-0.007395,-0.016592,-0.2398118191,-9.7459468365,1.0628447269999999,-2.9197,1.4595,-2.2659,3.999999999992898e-05,-3.333333333332966e-05,3.3333333333551707e-06,0.0002953692416864939,0.00022584336115838433,0.0001884733117052395
150000000000.0,-1,-0.02635046855,-0.025271737049999996,0.048484077599999995,-0.003816,-0.007366,-0.018732,-0.2383604349,-9.7459468365,1.0633350595,-2.9211,1.4594,-2.2646,2.0000000000020002e-05,-3.333333333332966e-05,-6.0000000000060005e-05,-0.0007009146297027868,-0.00011212045539354953,-0.0003992674646988714
150000000000.0,-1,-0.038755880799999996,-0.030635974599999997,0.049817782,-0.008088,-0.00946,-0.020868,-0.23687963075,-9.7459468365,1.0635311925,-2.9224,1.4595,-2.2633,2.0000000000020002e-05,-3.333333333332966e-05,9.99999999995449e-06,9.213901056970286e-05,2.8186834778010095e-05,-0.0002653876072185035
150000000000.0,-1,-0.03894220715,-0.022810267899999997,0.04347287945,-0.008083,-0.008395,-0.019801,-0.23548708645,-9.7459468365,1.0634331259999998,-2.9237,1.4595,-2.2622,9.99999999995449e-06,-2.4999999999941735e-05,-5.999999999994898e-05,-0.00026871203623102247,9.702311986936607e-05,-1.8123609111686534e-05
150000000000.0,-1,-0.03160683295,0.01071866845,0.045061556749999995,-0.004911,-0.011619,-0.01872,-0.2340062823,-9.746044903,1.063629259,-2.925,1.4595,-2.2609,7.00000000000145e-05,-2.500000000016378e-05,-1.0000000000065512e-05,-0.0005517264544749878,-0.00014660183996917375,0.00018249628935196327
150000000000.0,-1,-0.025428643449999996,0.020603771649999998,0.038834334,-0.00599,-0.012677,-0.017652,-0.2323979917,-9.746044903,1.0638253919999998,-2.9265,1.4595,-2.2595,-2.0000000000020002e-05,-2.4999999999941735e-05,-9.99999999995449e-06,0.00020275578687378726,-0.0002181748736973521,-0.00030161859763300214
150000000000.0,-1,-0.0274193934,0.00196133,0.014013702849999999,-0.004915,-0.013748,-0.020849,-0.23070144125,-9.746044903,1.0637273255,-2.928,1.4596,-2.2582,2.0000000000020002e-05,-2.4999999999941735e-05,-9.99999999995449e-06,0.0005803812576621326,-0.00027920528719471704,0.0002067947629798006
150000000000.0,-1,-0.04074663075,-0.018210949049999998,0.017377383799999997,-0.001767,-0.019104,-0.018697,-0.22934812355,-9.746044903,1.0637273255,-2.9292,1.4596,-2.2571,1.0000000000065512e-05,-3.333333333332966e-05,5.000000000032756e-06,-0.0004189009942052735,8.120760598595567e-05,-0.0002161330604575351
150000000000.0,-1,-0.0495628091,-0.0342448218,0.021937476049999998,0.000353,-0.020188,-0.017621,-0.22816151889999997,-9.746044903,1.0641195915,-2.9304,1.4596,-2.2561,5.000000000032756e-06,-3.333333333332966e-05,4.999999999921734e-06,0.0007130181491001863,-0.0004567232921863784,0.0003225518576837061
150000000000.0,-1,-0.0423451147,-0.04553227595,0.0373044966,0.004622,-0.020222,-0.017611,-0.22685723445,-9.746044903,1.0651002564999998,-2.9317,1.4595,-2.255,4.999999999921734e-06,-3.333333333332966e-05,-4.999999999999449e-05,-0.0004389531807369451,-0.00011262802062472765,-0.0005451804956646544
150000000000.0,-1,-0.051769305349999996,-0.02870406455,0.024565658249999997,0.005676,-0.021297,-0.016537,-0.2258079229,-9.7459468365,1.065982855,-2.9328,1.4595,-2.2541,2.999999999997449e-05,9.999999999998899e-05,4.999999999999449e-05,-0.0006258667163816511,0.00017589623459213222,0.0003003552884219829
150000000000.0,-1,-0.045483242699999996,0.0015592573499999998,0.0093555441,0.010979,-0.024538,-0.015452,-0.22475861134999997,-9.74584877,1.0672577195,-2.934,1.4593,-2.2531,-1.999999999990898e-05,-3.333333333332966e-05,-2.999999999997449e-05,0.0008828408872556537,-0.0003094345331347004,-0.0003660411686077225
150000000000.0,-1,-0.041884202149999994,0.013846989799999999,-0.00665871535,0.016278,-0.027781,-0.013302,-0.22313070744999997,-9.745652637,1.0688267835,-2.9358,1.4592,-2.2516,2.999999999997449e-05,-3.333333333332966e-05,9.99999999995449e-06,-0.000680186977124464,-0.0001370909072653248,-0.0001883116515948302
150000000000.0,-1,-0.0371279769,0.008472945599999998,-0.008688691899999998,0.014127,-0.027766,-0.010101,-0.2223363688,-9.7455545705,1.0701997145,-2.9368,1.4591,-2.2509,2.0000000000020002e-05,-3.333333333332966e-05,-1.999999999990898e-05,0.00037898221973797774,-0.00026776955959118,-1.5656815209652564e-05
150000000000.0,-1,-0.03425462845,-0.0242616521,0.006168382849999999,0.008765,-0.029855,-0.00797,-0.22177738974999997,-9.745456504,1.0713765124999999,-2.9375,1.459,-2.2505,4.999999999999449e-05,-5.0000000000105516e-05,-4.999999999999449e-05,-0.0006699459707526501,-0.0003369424712378333,-0.00016200947549993572
150000000000.0,-1,-0.04437509125,-0.06161518195,0.0252815437,0.004502,-0.028755,-0.006909,-0.2215322235,-9.7453584375,1.0723571775,-2.9379,1.4589,-2.2504,-2.0000000000020002e-05,-4.999999999988347e-05,-3.0000000000085514e-05,0.0001406444752545255,-0.0007814022249448271,-0.00012962175464070747
150000000000.0,-1,-0.0487586638,-0.0920648302,0.04798393844999999,-0.001881,-0.026571,-0.006922,-0.22148319025,-9.745260370999999,1.0729455764999998,-2.938,1.4588,-2.2505,9.99999999995449e-06,-9.999999999998899e-05,-0.00010999999999994348,-0.0005794460756076703,-0.0012373413107287234,4.715871762095425e-05
150000000000.0,-1,-0.06128175585,-0.1169148813,0.0605854837,-0.010414,-0.0265,-0.006933,-0.2215322235,-9.745260370999999,1.0730436429999999,-2.938,1.4588,-2.2507,-9.99999999995449e-06,-3.333333333332966e-05,-1.0000000000065512e-05,-0.00044896010894124316,-0.0003102279143323283,-0.00022981207515204716
150000000000.0,-1,-0.06745994535,-0.13347831315,0.05488782005,-0.012572,-0.029679,-0.006928,-0.22164009664999998,-9.745260370999999,1.072651377,-2.9378,1.4589,-2.2512,-1.0000000000065512e-05,-3.333333333332966e-05,6.0000000000060005e-05,-0.0011169549112830524,-0.000697993143902842,-0.0007919571419532367
150000000000.0,-1,-0.0798065177,-0.1079516032,0.04970990884999999,-0.018954,-0.027494,-0.006938,-0.22201274934999998,-9.7453584375,1.071670712,-2.9373,1.459,-2.252,-2.999999999997449e-05,-3.333333333332966e-05,-4.0000000000040004e-05,0.0004455515731374149,0.0005393670477875645,-0.0006153174422018903
150000000000.0,-1,-0.0701567741,-0.06294888635,0.04041320464999999,-0.015753,-0.02752,-0.006928,-0.2222383023,-9.745456504,1.070690047,-2.9369,1.4591,-2.2527,-2.0000000000020002e-05,-9.999999999998899e-05,-4.999999999999449e-05,0.00047608450529246227,0.0003305963478965612,-0.0001253228776927351
150000000000.0,-1,-0.04839581775,-0.00271644205,0.038549941149999996,-0.013594,-0.023277,-0.004794,-0.2222971422,-9.7455545705,1.0700035815,-2.9367,1.4591,-2.2531,-1.4999999999987246e-05,-9.999999999998899e-05,-4.999999999999449e-05,-0.0007805621218270886,0.0003357446567793243,-0.0008715237659173702
150000000000.0,-1,-0.03743198305,0.05055328075,0.018426695349999998,-0.001897,-0.027637,-0.003697,-0.2223363688,-9.7455545705,1.0699055149999999,-2.9367,1.4591,-2.2534,-1.4999999999987246e-05,-3.333333333332966e-05,4.0000000000040004e-05,-0.0001162962415284241,0.00027636969776589915,-0.0002856227343259743
150000000000.0,-1,-0.019436780299999998,0.09556580425,-0.0206528049,0.006627,-0.027709,-0.001546,-0.22222849565,-9.7455545705,1.0701997145,-2.9369,1.4591,-2.2535,-2.999999999997449e-05,-3.333333333332966e-05,5.999999999994898e-05,0.000282324006332324,-0.0006607660912589797,-0.00024923610151117437
150000000000.0,-1,-0.020407638649999997,0.1202883689,-0.05073960709999999,0.019436,-0.026748,-0.001523,-0.22215004244999997,-9.745456504,1.071278446,-2.9371,1.459,-2.2535,-1.4999999999987246e-05,-3.333333333332966e-05,4.0000000000040004e-05,0.00015848339598534267,-0.00025686493137300204,1.2629491910942647e-05
150000000000.0,-1,-0.034323275,0.12428948209999999,-0.0699802544,0.027943,-0.030014,-0.0015,-0.2222971422,-9.745260370999999,1.0730436429999999,-2.9373,1.4588,-2.2536,-1.4999999999987246e-05,9.999999999998899e-05,7.999999999996898e-05,0.0005312084766035952,-0.00030288046173354566,-0.0003220095455964689
150000000000.0,-1,-0.03405849545,0.0997728571,-0.0748835794,0.03649,-0.030081,-0.004684,-0.22226772225,-9.7449661715,1.0754953055,-2.9378,1.4586,-2.2534,-2.0000000000020002e-05,2.4999999999941735e-05,5.000000000032756e-06,0.0002263839065150819,0.0002817703766999635,-0.0003203289395443676
150000000000.0,-1,-0.03763792269999999,0.056496110649999993,-0.053357982649999997,0.038636,-0.029031,-0.005747,-0.22213042915,-9.744671971999999,1.078535367,-2.9385,1.4583,-2.253,2.0000000000020002e-05,2.4999999999941735e-05,5.000000000032756e-06,-0.000585230307855511,7.187219084126006e-05,-6.834669024424755e-05
150000000000.0,-1,-0.0405210778,-0.018966061099999997,-0.02111371745,0.032211,-0.03111,-0.004684,-0.22209120255,-9.744279705999999,1.0815754284999999,-2.9391,1.458,-2.2527,1.999999999990898e-05,2.500000000016378e-05,-4.0000000000040004e-05,-0.00010968540818545591,0.0004959289862853655,1.7440162612070154e-05
150000000000.0,-1,-0.04700327345,-0.0835918846,0.0014317708999999998,0.02476,-0.028916,-0.004698,-0.22204216929999998,-9.7439855065,1.084223224,-2.9396,1.4577,-2.2525,5.0000000000105516e-05,2.4999999999941735e-05,-1.0000000000065512e-05,0.00031874707348400477,-0.0002242480181295914,-0.0005119850248196389
150000000000.0,-1,-0.04706211335,-0.10711803795,0.0030989013999999995,0.015149,-0.029902,-0.00471,-0.22198332939999998,-9.743789373499999,1.085792288,-2.9399,1.4575,-2.2524,1.999999999990898e-05,-9.999999999998899e-05,-9.999999999998899e-05,-0.0008585065552928484,0.0005246940066077066,-0.00017764574634182573
150000000000.0,-1,-0.03647093135,-0.09033885979999999,0.01691647125,0.008797,-0.022393,-0.002598,-0.22195390945,-9.743691306999999,1.0869690859999999,-2.9402,1.4574,-2.2524,6.0000000000060005e-05,9.999999999998899e-05,-3.999999999992898e-05,-0.0004857670152347282,0.00010936584959586604,-1.387249712503369e-05
150000000000.0,-1,-0.042619700899999995,-0.04557150255,0.0294591766,0.006673,-0.021309,-0.002601,-0.2222383023,-9.7435932405,1.0880478175,-2.9401,1.4573,-2.2527,2.999999999997449e-05,-9.999999999998899e-05,-3.0000000000085514e-05,-0.00023318993534982013,-6.071283678399375e-05,1.7975062569508538e-06
150000000000.0,-1,-0.028154892149999996,-0.013788149899999998,0.01928968055,0.003496,-0.017023,-0.000477,-0.22248346854999998,-9.743495174,1.088734283,-2.94,1.4572,-2.2529,4.999999999999449e-05,-9.999999999998899e-05,-0.00017999999999995797,-0.00019480825348505704,-0.0010060909648301752,0.0002647713744305946
150000000000.0,-1,-0.014268675749999998,0.009963556399999999,-0.0059036033,0.003491,-0.017023,0.000591,-0.22260114835,-9.7433971075,1.089126549,-2.94,1.4572,-2.2532,-4.999999999999449e-05,-0.00020000000000020002,-0.00017999999999995797,-0.0010037027860825276,-0.0010162070588639605,-0.0007533279174387619
150000000000.0,-1,-0.017142024199999998,-0.007374600799999999,-0.03082230095,0.002426,-0.01595,0.001656,-0.22287573454999998,-9.743495174,1.088930416,-2.9397,1.4572,-2.2536,2.999999999997449e-05,5.0000000000105516e-05,-2.0000000000020002e-05,4.873742818833904e-05,-0.00034617847554740955,-8.92544515431748e-05
150000000000.0,-1,-0.019858466249999998,-0.020790097999999996,-0.03817728845,0.000276,-0.016998,0.002723,-0.22329742049999998,-9.743495174,1.088342017,-2.9392,1.4573,-2.2543,4.999999999999449e-05,5.0000000000105516e-05,7.999999999996898e-05,0.00079435247321058,0.0005377580206169519,0.0002473986428945807
150000000000.0,-1,-0.026742734549999998,-0.04766031899999999,-0.025369803549999997,-0.002914,-0.014841,0.003783,-0.22389562615,-9.7435932405,1.0876555515,-2.9386,1.4573,-2.2551,2.0000000000020002e-05,9.999999999998899e-05,6.0000000000060005e-05,-0.00034299481608357496,0.0005848791442275569,-0.0003070994489458023
150000000000.0,-1,-0.02399687255,-0.04594415524999999,-0.0072765343,-0.00609,-0.011618,0.003774,-0.2245526717,-9.7435932405,1.0868710195,-2.9379,1.4574,-2.2559,6.0000000000060005e-05,0.00019999999999997797,9.999999999998899e-05,0.0008273505826466021,0.0010288713695698615,-3.18495677122943e-05
150000000000.0,-1,-0.00952225715,-0.018475728599999998,-0.00589379665,-0.008195,-0.007339,0.00483,-0.22510184409999998,-9.743691306999999,1.085988421,-2.9372,1.4575,-2.2566,3.999999999992898e-05,9.999999999998899e-05,3.999999999992898e-05,-3.282833653539541e-05,-2.7972555560973333e-05,3.268797755362485e-05
150000000000.0,-1,-0.00452086565,0.011836626549999998,0.00130428445,-0.010309,-0.004126,0.005889,-0.2257686963,-9.743789373499999,1.085007756,-2.9364,1.4575,-2.2574,1.0000000000065512e-05,4.999999999988347e-05,-3.999999999992898e-05,-5.362325848778937e-05,-2.6407153188579002e-05,5.348290220563712e-05
150000000000.0,-1,-0.015455280399999998,0.00967916355,-0.007649186999999999,-0.007114,-0.004153,0.006963,-0.22665129479999999,-9.74388744,1.0841251575,-2.9355,1.4576,-2.2584,2.999999999997449e-05,5.0000000000105516e-05,3.999999999992898e-05,2.791937408641587e-05,0.0004112669200002639,-0.000256077636586749
150000000000.0,-1,-0.0241439723,-0.00995374975,-0.020329185450000002,-0.008132,0.000122,0.003753,-0.22755350659999998,-9.7439855065,1.0829483595,-2.9345,1.4577,-2.2595,2.999999999997449e-05,3.333333333332966e-05,-9.99999999995449e-06,6.0409496042801436e-05,-3.417066248023737e-05,0.00023848563751260876
150000000000.0,-1,-0.0302240953,-0.027654752999999997,-0.02409493905,-0.007053,0.00118,0.002688,-0.22834784525,-9.744083573,1.0817715615,-2.9336,1.4578,-2.2604,2.0000000000020002e-05,3.333333333332966e-05,-9.99999999995449e-06,0.0002563613698161049,-0.0002490037706994741,5.863438512365704e-05
150000000000.0,-1,-0.027174227149999997,0.0023732093,-0.00936535075,-0.007029,0.002249,-0.000514,-0.22885779104999998,-9.744279705999999,1.0807908965,-2.9329,1.4579,-2.261,2.0000000000020002e-05,3.333333333332966e-05,9.99999999995449e-06,-0.00039843189364319187,9.681279000472998e-05,3.348880947684485e-05
150000000000.0,-1,-0.028174505449999998,0.052298864449999996,-0.00658026215,-0.00913,0.004401,-0.003722,-0.2292010238,-9.7443777725,1.0798102315,-2.9324,1.458,-2.2614,7.999999999996898e-05,0.00019999999999997797,9.00000000000345e-05,0.0005908610563452044,3.0880119774590042e-06,0.0005061263892669476
150000000000.0,-1,-0.012572125299999999,0.1048919284,0.0022751428,-0.009095,0.008663,-0.003729,-0.22924025039999998,-9.7443777725,1.079123766,-2.9323,1.4581,-2.2615,2.999999999997449e-05,0.00019999999999997797,0.00010999999999994348,-0.0001756859686024015,-0.000524371526051004,0.000306593466950833
150000000000.0,-1,-0.0038049802,0.11784651304999999,0.00975761675,-0.011191,0.014008,-0.002674,-0.22918141049999996,-9.744475839,1.0784373004999999,-2.9322,1.4581,-2.2614,4.999999999999449e-05,9.999999999998899e-05,2.999999999997449e-05,0.0008997655218960787,0.00027465868946530136,0.0003339298379154698
150000000000.0,-1,-0.0024908890999999996,0.09352602104999999,0.011905273099999999,-0.010117,0.014,-0.003739,-0.22899508415,-9.7445739055,1.077750835,-2.9322,1.4582,-2.2613,3.0000000000085514e-05,0.00019999999999997797,4.999999999999449e-05,0.00034682347287962045,-0.00025221320800250524,7.450359265170903e-05
150000000000.0,-1,-0.005021004799999999,0.051259359549999994,0.00438357255,-0.007961,0.016115,-0.004807,-0.2288675977,-9.744671971999999,1.0770643695,-2.9322,1.4583,-2.2611,2.999999999997449e-05,-9.999999999998899e-05,-0.00012999999999996348,-0.00012085346982537715,-0.0010227055012177466,0.00015107542619618997
150000000000.0,-1,-0.019985952699999997,-0.008835791649999999,0.0152395341,-0.006894,0.016106,-0.004804,-0.22885779104999998,-9.744671971999999,1.0764759705,-2.9321,1.4583,-2.261,2.999999999997449e-05,0.00019999999999997797,-4.999999999999449e-05,0.0003788779959315036,0.000674041037344475,0.00026152938017642846
150000000000.0,-1,-0.0315970263,-0.0439534053,0.013660663449999999,-0.004738,0.016093,-0.009068,-0.22877933785,-9.744770038499999,1.076181771,-2.9321,1.4584,-2.2609,4.0000000000040004e-05,9.999999999998899e-05,-2.0000000000020002e-05,0.000531920820458609,0.00023688191748827414,0.00023958743666852023
150000000000.0,-1,-0.03003776895,-0.045296916349999994,0.01983885295,-0.002584,0.019271,-0.008,-0.22868127135,-9.744770038499999,1.0760837044999998,-2.9322,1.4584,-2.2606,7.999999999996898e-05,5.0000000000105516e-05,-8.999999999992347e-05,0.0008457062044193719,0.0004551266107639673,0.0006210059207900631
150000000000.0,-1,-0.0301848687,-0.05308339645,0.023280987099999997,-0.000441,0.020319,-0.007997,-0.22854397824999997,-9.744770038499999,1.0762798375,-2.9324,1.4584,-2.2602,9.00000000000345e-05,4.999999999988347e-05,-8.000000000008001e-05,0.0010535007238114957,0.0006203020689703465,-0.0005856324482593767
150000000000.0,-1,-0.028507931549999997,-0.080022264,0.022251288850000002,-0.00365,0.01928,-0.007999,-0.22841649179999998,-9.744770038499999,1.0762798375,-2.9325,1.4584,-2.2599,2.999999999997449e-05,9.999999999998899e-05,-9.99999999995449e-06,0.0002391414365847666,-5.515378131293325e-05,0.0004724471113108919
150000000000.0,-1,-0.032469818149999996,-0.0952617981,0.02942975665,-0.005788,0.019297,-0.006934,-0.22834784525,-9.744770038499999,1.0760837044999998,-2.9325,1.4584,-2.2597,2.999999999997449e-05,9.999999999998899e-05,-4.999999999999449e-05,0.0005249950389734082,-0.0006386752924814054,0.00018097058077981565
150000000000.0,-1,-0.02295736765,-0.09283955555,0.049013636699999995,-0.012184,0.020414,-0.005879,-0.22828900535,-9.744770038499999,1.075789505,-2.9325,1.4584,-2.2595,7.00000000000145e-05,3.333333333332966e-05,-4.0000000000040004e-05,6.623865989130451e-05,-0.0006010281969004438,0.0004277170466291391
150000000000.0,-1,-0.012395605599999998,-0.06716574585,0.05226944449999999,-0.014327,0.02043,-0.003747,-0.2282203588,-9.744868105,1.0751030395,-2.9324,1.4585,-2.2594,2.0000000000020002e-05,3.333333333332966e-05,-5.999999999994898e-05,-0.0005303298756613728,-0.0011030859059497633,0.00024953686813278253
150000000000.0,-1,-0.0008433719,-0.0117483667,0.06100716965,-0.014314,0.023623,-0.000551,-0.2282595854,-9.7449661715,1.074612707,-2.9323,1.4585,-2.2593,4.999999999999449e-05,3.333333333332966e-05,2.0000000000020002e-05,-0.000550775595923092,-0.0009363725262210298,0.0004257304379793325
150000000000.0,-1,0.0024810824500000003,0.0321265854,0.05591751829999999,-0.011103,0.024661,-0.000548,-0.22843610509999998,-9.7449661715,1.0743185075,-2.9321,1.4586,-2.2592,9.99999999995449e-06,0.00020000000000020002,4.999999999999449e-05,-0.0005347250830336492,-0.00011423349721062515,0.0004373440651679328
150000000000.0,-1,0.0058643767,0.0409721837,0.037686955949999996,-0.009002,0.023573,0.004794,-0.22897547085,-9.7449661715,1.0739262415,-2.9315,1.4586,-2.2596,2.0000000000020002e-05,4.999999999988347e-05,-2.0000000000020002e-05,0.0003551590486861045,-0.00045266996993653663,0.00012070390905205564
150000000000.0,-1,0.0096301303,0.023604606549999997,0.02654660155,-0.004766,0.021403,0.008007,-0.22974038954999998,-9.7449661715,1.0739262415,-2.9308,1.4586,-2.26,2.0000000000020002e-05,5.0000000000105516e-05,2.0000000000020002e-05,0.0003850133547471657,-0.0007740220822092247,-0.0002010242811123497
150000000000.0,-1,0.0032754210999999997,0.010120462799999999,0.0196721399,-0.001581,0.021373,0.011214,-0.2308681543,-9.7449661715,1.0739262415,-2.9298,1.4586,-2.2608,-2.0000000000020002e-05,5.999999999994898e-05,-4.0000000000040004e-05,-4.2206730802796244e-05,-8.354898605444916e-05,5.1369687568803e-05
150000000000.0,-1,0.00581534345,0.007060788,0.00656064885,0.001592,0.019214,0.013358,-0.23221166534999998,-9.744868105,1.0741223745,-2.9287,1.4585,-2.2618,-2.0000000000020002e-05,5.999999999994898e-05,-6.0000000000060005e-05,2.9574788468877955e-05,-0.0002591455495153383,-0.00011907933520460823
150000000000.0,-1,0.0134154972,0.016504591949999998,0.01687724465,0.007965,0.018091,0.01764,-0.2338297626,-9.744770038499999,1.075004973,-2.9274,1.4584,-2.2629,-7.00000000000145e-05,6.000000000017103e-05,-0.00010999999999994348,-0.0001235858848280813,-0.0005394804893099625,0.00021387923614457627
150000000000.0,-1,0.024722564649999997,0.020505705149999998,0.018112882549999997,0.011161,0.018063,0.018711,-0.23541843989999997,-9.7445739055,1.0763779039999999,-2.9263,1.4582,-2.2639,-7.00000000000145e-05,5.999999999994898e-05,-0.00017999999999995797,-0.0022808391551123464,-0.0017171221215486199,-0.000922274942078527
150000000000.0,-1,0.028409865049999997,0.022702394749999997,0.012876131449999998,0.013256,0.013782,0.019788,-0.23700711719999998,-9.7443777725,1.0778489015,-2.9251,1.458,-2.2648,0.0001300000000000745,5.999999999994898e-05,0.00015999999999993797,0.001543273475832052,0.0027760803028415992,0.0007680398515388376
150000000000.0,-1,0.01730873725,0.019662333249999997,0.00940457735,0.012181,0.012725,0.019787,-0.2387723142,-9.744181639499999,1.0792218324999998,-2.9239,1.4578,-2.266,3.500000000000725e-05,-9.999999999998899e-05,-0.00019000000000002348,-2.8319117317820997e-06,0.00010589687446005414,0.0001767805562249425
150000000000.0,-1,0.015278760699999998,-0.00016671305,0.0174950636,0.013237,0.010586,0.018724,-0.24047867129999997,-9.74388744,1.0808889629999998,-2.9227,1.4576,-2.2671,3.500000000000725e-05,0.00019999999999997797,-3.999999999992898e-05,0.0013952736952793643,0.0023707232288245894,0.0008024007719191761
150000000000.0,-1,0.008168939449999999,-0.00789435325,0.0313420534,0.01433,0.011646,0.015521,-0.24204773529999998,-9.743691306999999,1.0827522264999998,-2.9216,1.4574,-2.268,2.999999999997449e-05,-5.0000000000105516e-05,-8.000000000008001e-05,0.0009509030887162595,0.0005794636661720087,-5.948056697202553e-05
150000000000.0,-1,0.00214765635,-0.01230734575,0.0321854253,0.011122,0.010607,0.015517,-0.24366583255,-9.743495174,1.0844193569999998,-2.9206,1.4572,-2.269,5.999999999994898e-05,-4.999999999988347e-05,-0.00019999999999997797,-0.0012726992020928307,-0.00012693891465542784,0.0003287406642331625
150000000000.0,-1,0.016504591949999998,-0.0029812216,0.038971627099999996,0.01327,0.012719,0.016583,-0.24514663669999998,-9.743200974499999,1.0862826204999998,-2.9196,1.457,-2.2698,2.0000000000020002e-05,9.999999999998899e-05,-0.00014999999999998348,-0.000831852208739825,-0.0004045596562214371,0.0010002441596510536
150000000000.0,-1,0.029370916749999997,0.01275845165,0.033872169099999995,0.015366,0.008437,0.01766,-0.24649995439999997,-9.742906775,1.0884400834999999,-2.9189,1.4568,-2.2705,1.0000000000065512e-05,9.999999999998899e-05,7.999999999996898e-05,-0.0005598531300492482,0.0005037927863902336,0.00027698581362844976
150000000000.0,-1,0.0401876517,0.016563431849999997,0.016141745899999997,0.015346,0.005241,0.016596,-0.24757868589999998,-9.742710642,1.0903033469999999,-2.9183,1.4565,-2.271,8.999999999992347e-05,0.00039999999999995595,0.00021999999999999797,0.0007418347076848519,0.001808492304601117,0.0005493249056398586
150000000000.0,-1,0.0409133438,0.0039422733,0.00392266,0.015338,0.004175,0.016595,-0.24860838414999997,-9.742514509,1.091872411,-2.9177,1.4564,-2.2716,2.0000000000020002e-05,0.00029999999999996696,0.000140000000000029,-0.0004331428504018575,0.0014985070637558717,0.0005279227119809882
150000000000.0,-1,0.030008348999999997,-0.029616082999999998,0.01101286795,0.013187,-6.6e-05,0.013395,-0.2495204026,-9.742318376,1.0933434085,-2.9172,1.4562,-2.2721,6.0000000000060005e-05,9.999999999998899e-05,-2.999999999997449e-05,-6.37363610334063e-05,0.0008025683850125809,0.0002660947200385788
150000000000.0,-1,0.013984282899999999,-0.06196822135,0.030812494299999996,0.01,-0.001101,0.00912,-0.25025590135,-9.742122242999999,1.094814406,-2.9169,1.456,-2.2724,-2.0000000000020002e-05,9.999999999998899e-05,-2.999999999997449e-05,0.0004506812351783296,0.00030193150487467513,0.00036259343413691525
150000000000.0,-1,-0.00204958985,-0.0842979634,0.042090141799999994,0.008946,-0.001091,0.006983,-0.2509914001,-9.74192611,1.096187337,-2.9165,1.4559,-2.2728,-4.999999999999449e-05,-9.999999999998899e-05,-0.000160000000000049,-0.002320899812764843,-0.0001817407341975219,-0.0010739719456029917
150000000000.0,-1,-0.00079433865,-0.09609536335,0.0371279769,0.005737,-0.004258,0.003781,-0.25134443949999996,-9.7418280435,1.0972660685,-2.9164,1.4558,-2.2729,-1.0000000000065512e-05,9.999999999998899e-05,-0.00012000000000000899,-0.0003071845119828609,-2.359307856503179e-05,0.00025877729280421313
150000000000.0,-1,0.006276256,-0.064920023,0.03539219984999999,0.002537,-0.004232,0.003775,-0.25153076585,-9.741729977,1.0981486669999998,-2.9164,1.4557,-2.273,1.5000000000098268e-05,9.999999999998899e-05,2.999999999997449e-05,-6.7736049591538e-05,-0.0004932568015370009,-0.000295316211621266
150000000000.0,-1,0.018740508149999998,-0.011836626549999998,0.0120033396,0.002543,-0.004231,0.002706,-0.2514228927,-9.741729977,1.0984428665,-2.9166,1.4556,-2.2729,1.4999999999987246e-05,9.999999999998899e-05,1.0000000000065512e-05,0.00018333443522156045,-0.00030565671337279277,0.0003732877031239479
150000000000.0,-1,0.0254188368,0.0953990912,0.0018044235999999999,0.003622,-0.00211,0.00377,-0.25136405279999996,-9.741631910499999,1.098933199,-2.9167,1.4556,-2.2727,-1.0000000000065512e-05,9.999999999998899e-05,-2.0000000000020002e-05,-0.0001504878100977436,-6.843971767178658e-05,0.00016907663547049978
150000000000.0,-1,0.0498766219,0.2019973767,-0.018917027849999997,0.011108,-4.1e-05,0.003776,-0.2509914001,-9.741533844,1.099913864,-2.9172,1.4555,-2.2722,1.0000000000065512e-05,5.0000000000105516e-05,-7.00000000000145e-05,-0.0005243317469778574,-0.0002464347047859139,4.004394734535843e-05
150000000000.0,-1,0.06260565359999999,0.24972634225,-0.0358727257,0.016414,-0.002218,0.005921,-0.25055010084999996,-9.7414357775,1.1012867949999998,-2.9179,1.4554,-2.2716,1.999999999990898e-05,5.0000000000105516e-05,2.999999999997449e-05,-0.00021246690238907462,0.000125871171124059,0.00019452863521118857
150000000000.0,-1,0.06343921884999999,0.25150134589999995,-0.04812123155,0.020636,-0.006518,0.008067,-0.2501872548,-9.7412396445,1.1029539255,-2.9185,1.4552,-2.271,1.0000000000065512e-05,4.999999999988347e-05,-3.999999999992898e-05,-0.00012055642957431445,9.82202748951444e-05,0.00025807287296641945
150000000000.0,-1,0.04617951484999999,0.2030957215,-0.0490528633,0.023855,-0.005477,0.005933,-0.2499911218,-9.7410435115,1.1049152555,-2.9191,1.455,-2.2705,2.0000000000020002e-05,5.0000000000105516e-05,-2.999999999997449e-05,-0.0001007768221841232,0.00035097148134810574,0.0002954588179922002
150000000000.0,-1,0.02215322235,0.12342649689999999,-0.04364939915,0.023872,-0.006538,0.000597,-0.24990286194999997,-9.740749312,1.106778519,-2.9195,1.4548,-2.2702,3.999999999992898e-05,9.999999999998899e-05,-1.0000000000065512e-05,2.727140156633112e-05,0.0009522177641498875,0.0006772315772343163
150000000000.0,-1,0.00289296175,0.06720497245,-0.016612465099999998,0.024927,-0.008676,-0.000465,-0.2497949888,-9.740553178999999,1.109132115,-2.9201,1.4546,-2.2697,2.0000000000020002e-05,9.999999999998899e-05,-0.00019000000000002348,-0.0015295318164110228,7.94959942707063e-05,-0.00026258419498548236
150000000000.0,-1,-0.0166516917,0.02117255735,-6.864654999999999e-05,0.020684,-0.007572,-0.003675,-0.24970672894999998,-9.740258979499998,1.111289578,-2.9206,1.4544,-2.2693,-4.0000000000040004e-05,9.999999999998899e-05,-0.00014999999999998348,0.001099690517249563,0.0013009352808566188,-0.0004110910729093753
150000000000.0,-1,-0.023800739549999998,-0.018828768,0.017092990949999998,0.013257,-0.006439,-0.010093,-0.24913794325,-9.740062846499999,1.1131528414999998,-2.9214,1.4542,-2.2685,2.0000000000020002e-05,3.333333333332966e-05,-0.00012999999999996348,-0.0009656649973601716,0.0001354786038081368,-0.00024852392457797023
150000000000.0,-1,-0.03286208415,-0.083748791,0.03515684025,0.006859,-0.007449,-0.012236,-0.24846128439999998,-9.73996478,1.1143296395,-2.9222,1.4541,-2.2677,2.999999999997449e-05,3.333333333332966e-05,-0.000160000000000049,-0.0003815571185743494,-0.00048538676100506883,-0.0003175493236822202
150000000000.0,-1,-0.0402661049,-0.14272598409999998,0.04554208259999999,-0.002725,-0.007366,-0.015453,-0.2474806194,-9.73996478,1.1147219055,-2.9231,1.4541,-2.2669,0.0001100000000000545,3.333333333332966e-05,-0.00017000000000000348,0.0012891891753872287,0.00132285234844165,-0.00011836594378444865
150000000000.0,-1,-0.0430119669,-0.18754237459999998,0.05010217484999999,-0.010148,-0.00304,-0.017606,-0.24639208125,-9.740062846499999,1.114427706,-2.924,1.4542,-2.266,5.999999999994898e-05,3.333333333332966e-05,-0.00012999999999996348,-8.305229196814423e-06,-0.00032272203015204504,-0.0006897324167174368
150000000000.0,-1,-0.0439730186,-0.1980551034,0.05969307855,-0.015458,-0.000864,-0.018684,-0.2451270234,-9.740160912999999,1.113643174,-2.9249,1.4543,-2.2651,2.0000000000020002e-05,3.333333333332966e-05,-9.00000000000345e-05,0.0013399010177828075,3.044299530752248e-05,-0.0006641462272150012
150000000000.0,-1,-0.0311459204,-0.17084164964999998,0.057545422199999995,-0.015467,-0.000866,-0.016548,-0.24388157884999997,-9.740258979499998,1.1127605754999998,-2.9258,1.4544,-2.2642,1.0000000000065512e-05,3.333333333332966e-05,-7.999999999996898e-05,0.00032662763529955896,-0.0005610951634134054,4.442976680274491e-05
150000000000.0,-1,-0.018966061099999997,-0.10815754285,0.0397561591,-0.012292,-0.000897,-0.011204,-0.24290091384999998,-9.740357046,1.1118779769999998,-2.9265,1.4545,-2.2635,-2.0000000000020002e-05,4.999999999988347e-05,-9.999999999998899e-05,0.00012843105598303595,-0.0002929121851149574,-0.000122470577194278
150000000000.0,-1,0.019368133750000002,-0.018436501999999997,0.006501808949999999,-0.003767,0.001158,-0.005858,-0.24188102224999997,-9.7404551125,1.111289578,-2.9273,1.4546,-2.2627,-6.0000000000060005e-05,5.0000000000105516e-05,-7.00000000000145e-05,-0.0004350646039732453,-0.0005988119142037451,0.0004287813058081458
150000000000.0,-1,0.046130481599999995,0.05461323385,-0.029625889649999997,0.005788,5e-06,0.00163,-0.2411062969,-9.740553178999999,1.1111915115,-2.9279,1.4546,-2.2621,-9.99999999995449e-06,9.999999999998899e-05,-4.999999999999449e-05,-0.0009265200789299044,-0.0003128438991903959,0.00024848615044459343
150000000000.0,-1,0.05782981505,0.11826819899999999,-0.05227925115,0.018533,-0.001176,0.011258,-0.24098861709999997,-9.7404551125,1.1119760435,-2.9282,1.4545,-2.2619,4.999999999921734e-06,4.999999999988347e-05,-7.00000000000145e-05,0.0005366331298430893,-0.0005052257859898823,0.000287156646550768
150000000000.0,-1,0.057525808899999996,0.15099299004999997,-0.0806695029,0.029127,-0.005533,0.018752,-0.24157701609999999,-9.740258979499998,1.113643174,-2.928,1.4543,-2.2621,5.000000000032756e-06,5.0000000000105516e-05,-2.999999999997449e-05,0.00011386931929724398,0.0001314010426505252,-0.00044025650008450157
150000000000.0,-1,0.0517398854,0.15456261065,-0.0893778081,0.040821,-0.007766,0.023044,-0.2428322673,-9.7398667135,1.116192903,-2.9274,1.454,-2.2628,4.0000000000040004e-05,9.999999999998899e-05,9.99999999995449e-06,8.382537329865158e-05,0.0004114696652530725,0.00013255020082314495
150000000000.0,-1,0.0403053315,0.11000119304999999,-0.08671039929999999,0.045039,-0.011002,0.027324,-0.24470533744999998,-9.7394744475,1.119331031,-2.9264,1.4537,-2.264,4.0000000000040004e-05,4.999999999988347e-05,-0.00014999999999998348,-0.0008614847080092858,-0.0004801572552530775,-0.0008206965530492827
150000000000.0,-1,0.037912508899999996,0.0499943017,-0.0808656359,0.046045,-0.014213,0.033734,-0.24709816005,-9.738984115,1.1227633584999999,-2.925,1.4533,-2.2655,5.999999999994898e-05,5.0000000000105516e-05,-0.00019999999999997797,-0.00038319296612421283,-0.00041742671851596747,-0.00041116964906295905
150000000000.0,-1,0.03478418755,-0.016288845649999998,-0.055495832349999996,0.0396,-0.01736,0.036929,-0.24981460209999998,-9.738591849,1.125999553,-2.9233,1.4529,-2.2674,0.00012999999999996348,9.999999999998899e-05,-7.999999999996898e-05,0.000517531045773012,0.0005302546595147284,-0.000570343199794987
150000000000.0,-1,0.0268309944,-0.05458381389999999,-0.02215322235,0.033199,-0.01518,0.040115,-0.25308021654999996,-9.738101516499999,1.1290396145,-2.9211,1.4525,-2.2697,1.0000000000065512e-05,-4.999999999988347e-05,-9.999999999998899e-05,-0.0009406435760688225,0.0006962191997543776,-0.0007692021793628268
150000000000.0,-1,0.03809883525,-0.059016419699999996,-0.0076099604,0.026771,-0.015133,0.045439,-0.25657138394999995,-9.737807317,1.13168741,-2.9186,1.4522,-2.2724,9.999999999998899e-05,-5.0000000000105516e-05,-0.000160000000000049,4.465290647903686e-05,1.4220668227205024e-05,0.00016746326921524002
150000000000.0,-1,0.044767357249999994,-0.058300534249999994,0.00812971285,0.016087,-0.012921,0.051818,-0.2605430772,-9.737415051,1.13364874,-2.9157,1.4519,-2.2755,0.00012000000000000899,-5.0000000000105516e-05,-0.00012999999999996348,0.000280116858157875,0.0005553202169454874,-0.00012099991560154955
150000000000.0,-1,0.0593106192,-0.03564717275,0.0012944778,0.008608,-0.00967,0.059268,-0.26505413619999996,-9.737218918,1.1346294049999999,-2.9121,1.4517,-2.2792,7.999999999996898e-05,-4.999999999988347e-05,-0.0002300000000000635,-2.1150882876241894e-06,0.0006070227390670979,0.0004898529587271661
150000000000.0,-1,0.08652407294999999,0.030910560799999997,-0.019309293849999996,0.005372,-0.008588,0.067795,-0.26997707449999997,-9.737022784999999,1.1350216709999998,-2.9081,1.4515,-2.2834,0.000180000000000069,-4.999999999988347e-05,-0.00014999999999998348,0.00011212156025663944,0.0006330872830204726,0.00018290375279050863
150000000000.0,-1,0.11491432469999999,0.0831015521,-0.039716932499999996,0.006377,-0.009674,0.078466,-0.27547860515,-9.736826652,1.135217804,-2.9035,1.4514,-2.2881,4.999999999999449e-05,-5.0000000000105516e-05,-2.999999999997449e-05,-0.001991935374050513,-0.00033957556867547645,-0.0007129015361944102
150000000000.0,-1,0.1424121713,0.09351621439999999,-0.04285506049999999,0.009508,-0.012906,0.087008,-0.28127433529999996,-9.736630518999998,1.13561007,-2.8988,1.4512,-2.293,0.00013999999999991797,-9.999999999998899e-05,-0.000140000000000029,0.0011631455643446031,-0.00020509682261660167,0.0007650402900523101
150000000000.0,-1,0.15171868215,0.03511761365,-0.05367179544999999,0.007306,-0.017158,0.093407,-0.2875898179,-9.736434385999999,1.1357081365,-2.8936,1.451,-2.2984,4.999999999999449e-05,-9.999999999998899e-05,-0.00020999999999993246,-0.00047888267311790855,0.0007566383609196592,-0.00019036204411859714
150000000000.0,-1,0.14026451495,-0.052857843499999994,-0.0462677747,0.001944,-0.020312,0.093396,-0.29424853325,-9.736238253,1.135217804,-2.888,1.4509,-2.3043,6.0000000000060005e-05,-0.00019999999999997797,-0.000180000000000069,0.0002083384515225717,0.0005895120068628579,0.00022143742809910272
150000000000.0,-1,0.1142474725,-0.1213671004,-0.034529214649999994,-0.001267,-0.021352,0.093385,-0.3012995146,-9.736140186499998,1.1343352054999998,-2.882,1.4508,-2.3106,4.999999999999449e-05,-9.999999999998899e-05,-0.00024000000000001798,-0.0013628100222895512,0.0018079137542046375,-0.0013077734249975492
150000000000.0,-1,0.08697517885,-0.13104626395,-0.004344345949999999,-0.008709,-0.021286,0.08803,-0.30843875579999996,-9.73604212,1.1333545405,-2.8759,1.4507,-2.3169,4.999999999999449e-05,-9.999999999998899e-05,-0.00021999999999999797,-0.0009508442475425483,0.001184105368813304,-0.00023918225496366574
150000000000.0,-1,0.08269947944999999,-0.08863250269999999,0.026154335549999998,-0.017196,-0.018016,0.083736,-0.31523476424999997,-9.735944053499999,1.1321777425,-2.87,1.4507,-2.323,9.00000000000345e-05,-9.999999999998899e-05,-0.00012999999999996348,-1.8282654760781725e-05,0.0010911189029689794,-0.00036127695100152124
150000000000.0,-1,0.08324865185,-0.014268675749999998,0.0316950928,-0.023565,-0.020085,0.074117,-0.32117759415,-9.735944053499999,1.130510612,-2.8648,1.4507,-2.3285,9.999999999998899e-05,-0.00019999999999997797,-0.00014999999999998348,-6.998111207323632e-05,0.0009363991758679635,3.744266686345199e-05
150000000000.0,-1,0.0820424339,0.02878251775,0.020809711300000002,-0.028836,-0.018965,0.063427,-0.32610053245,-9.73604212,1.1282550825,-2.8602,1.4507,-2.3333,0.00010999999999994348,-0.00020000000000020002,-0.000140000000000029,0.00010858982384487348,0.0004056564409433694,-0.0005897513138830579
150000000000.0,-1,0.06899958939999999,0.023271180449999998,0.0271448072,-0.033031,-0.01998,0.047407,-0.3298172528,-9.736238253,1.1257053535,-2.8566,1.4509,-2.3372,0.0001300000000000745,-0.00019999999999997797,-0.00021999999999999797,-3.906126408281807e-05,-0.0004402155788394424,0.0002685114529339394
150000000000.0,-1,0.039854225599999994,-0.049660875599999994,0.0540934814,-0.0383,-0.022052,0.031388,-0.33239640175,-9.736434385999999,1.122861425,-2.8538,1.4511,-2.3403,6.999999999990347e-05,-0.00019999999999997797,-0.00019000000000002348,3.6558036615730316e-05,0.0007788378587918476,-5.09473519636483e-05
150000000000.0,-1,0.02111371745,-0.1483550012,0.059869598249999996,-0.042496,-0.022003,0.017503,-0.33371049284999993,-9.736826652,1.1192329644999999,-2.8518,1.4514,-2.3424,6.0000000000060005e-05,-0.00019999999999997797,-0.00017000000000000348,-4.639988881471879e-05,0.0008680848770432625,-0.00045149805135302756
150000000000.0,-1,0.01093441475,-0.22902450409999997,0.08376840429999999,-0.050955,-0.024046,-0.000655,-0.3334064867,-9.7373169845,1.115604504,-2.8512,1.4518,-2.3434,5.999999999994898e-05,-0.00019999999999997797,-8.999999999992347e-05,-0.00035293873887987104,0.0009719183875949167,-0.0007261328355578911
150000000000.0,-1,-0.0027066354,-0.2497557622,0.10299924495,-0.055137,-0.02293,-0.015608,-0.33188645594999994,-9.737807317,1.1114857109999998,-2.8514,1.4522,-2.3434,4.0000000000040004e-05,-0.00019999999999997797,-0.0001500000000000945,0.0009490276994483793,0.000243701009634556,-0.00021111856604871804
150000000000.0,-1,-0.006727361899999999,-0.21225513259999998,0.10721610444999999,-0.052896,-0.018672,-0.029488,-0.32906214075,-9.738395716,1.1075630509999999,-2.8528,1.4527,-2.3422,9.99999999995449e-06,-0.00029999999999996696,-0.00012999999999996348,0.00018061391487300682,0.0002442137351885698,-0.0005668255764972319
150000000000.0,-1,0.0058839899999999995,-0.12702553744999998,0.08509230205,-0.045386,-0.019789,-0.03908,-0.32506102755,-9.7388860485,1.1041307235,-2.8553,1.4532,-2.3399,-9.99999999995449e-06,-9.999999999998899e-05,-9.999999999998899e-05,0.00046427633646928257,0.00016416339699443228,0.0003896182437188589
150000000000.0,-1,0.0258699427,-0.04511059,0.06239971394999999,-0.038945,-0.019835,-0.046543,-0.31990272964999994,-9.739376381,1.1009925955,-2.8588,1.4536,-2.3365,4.0000000000040004e-05,-0.00019999999999997797,-9.999999999998899e-05,-0.0001114703842182152,-0.00015013457254653417,-0.00014151676610563158
150000000000.0,-1,0.039079500249999996,0.02644853505,0.027713592899999997,-0.029346,-0.023107,-0.050793,-0.3141168061499999,-9.7398667135,1.0984428665,-2.8631,1.454,-2.3325,1.999999999990898e-05,-0.00019999999999997797,-4.0000000000040004e-05,0.0006848348716319563,0.0001970418175656352,-0.0004509682241151669
150000000000.0,-1,0.0166909183,0.05814362785,-0.0003334261,-0.019755,-0.028507,-0.057172,-0.30803668315,-9.740258979499998,1.09638347,-2.8677,1.4544,-2.3281,2.0000000000020002e-05,-0.00010000000000021103,-5.999999999994898e-05,0.0007672092206858494,-0.0002266360571896442,0.0001422075784434096
150000000000.0,-1,0.0142784824,0.049955075099999996,0.007472667299999999,-0.014427,-0.032808,-0.062494,-0.30142700105,-9.740651245499999,1.095206672,-2.873,1.4547,-2.323,2.999999999997449e-05,-0.00019999999999997797,-6.0000000000060005e-05,0.0006933311418171328,-0.0007123557055972451,-7.811995345763378e-05
150000000000.0,-1,0.0050406181,0.00118660465,0.02762533305,-0.015503,-0.035993,-0.065693,-0.29444466625,-9.740945445,1.0943240735,-2.8788,1.455,-2.3176,1.0000000000065512e-05,-9.999999999998899e-05,-5.999999999994898e-05,0.00044170892441908194,-0.0005849530181971652,-0.00017462253038291742
150000000000.0,-1,-0.015455280399999998,-0.046110868299999996,0.056486304,-0.017623,-0.035973,-0.067831,-0.28756039795,-9.7412396445,1.0936376079999999,-2.8845,1.4552,-2.3122,5.999999999994898e-05,-0.00019999999999997797,-2.999999999997449e-05,0.0003932623442599592,-0.0006573684410147163,-1.0750862248887216e-05
150000000000.0,-1,-0.0251638639,-0.08366053115,0.08468042275,-0.026134,-0.035898,-0.072114,-0.2805486432,-9.741533844,1.092656943,-2.8903,1.4555,-2.3068,9.00000000000345e-05,-9.999999999998899e-05,-6.0000000000060005e-05,0.0007392825851724183,-0.0007634379113810041,0.000261733836785627
150000000000.0,-1,-0.03333280335,-0.06989199454999999,0.10460753554999999,-0.027216,-0.036957,-0.069978,-0.2737232148,-9.7418280435,1.0917743444999999,-2.8959,1.4558,-2.3014,-1.333333333330966e-05,-0.00019999999999997797,-5.999999999994898e-05,0.0008570821492099867,-0.0006379521904997798,-6.875788817839457e-05
150000000000.0,-1,-0.0327934376,-0.0232025339,0.11029539255,-0.031508,-0.037991,-0.065712,-0.26722140585,-9.742122242999999,1.0906956129999998,-2.9013,1.456,-2.2964,-1.3333333333420683e-05,-9.999999999998899e-05,-1.0000000000065512e-05,0.00045535907486016214,-0.0011401279975313816,-0.0009287642106659
150000000000.0,-1,-0.02933169015,0.0194563936,0.11386501314999999,-0.034725,-0.037969,-0.061446,-0.26112166955,-9.7424164425,1.0894207484999998,-2.9063,1.4563,-2.2917,-1.333333333330966e-05,-9.999999999998899e-05,-3.500000000000725e-05,4.2982755206644185e-05,-0.0008791435734523123,-0.0008232696390655381
150000000000.0,-1,-0.03325435015,0.03056732805,0.09219231665,-0.035823,-0.039031,-0.056108,-0.25555149234999996,-9.7428087085,1.087753618,-2.9108,1.4566,-2.2876,4.0000000000040004e-05,-9.999999999998899e-05,-3.4999999999896225e-05,-0.00015568105873864369,-0.0004999436872292762,-0.0001572962634379671
150000000000.0,-1,-0.0217315364,-0.006648908699999999,0.08016936375,-0.031619,-0.043334,-0.049687,-0.25031474125,-9.743102908,1.085792288,-2.915,1.4569,-2.2838,-2.999999999997449e-05,-0.00019999999999997797,-6.0000000000060005e-05,0.0011061109510892564,-0.0010518518116557907,-0.00020602960579574336
150000000000.0,-1,-0.036941650549999996,-0.07111782579999999,0.08004187730000001,-0.031618,-0.042271,-0.047552,-0.24572522905,-9.743495174,1.0840270909999998,-2.9187,1.4572,-2.2805,-4.999999999999449e-05,-0.00019999999999997797,-7.999999999996898e-05,-0.00043418122053306973,-0.00028318243822877953,2.6471389215076968e-05
150000000000.0,-1,-0.0568393434,-0.1254466668,0.07049020019999999,-0.029553,-0.046557,-0.040066,-0.2419888954,-9.743789373499999,1.0821638275,-2.9216,1.4575,-2.2781,-9.00000000000345e-05,-4.999999999988347e-05,-2.0000000000020002e-05,-0.0011483941100225437,0.0005401599171184213,-0.0008375486143226141
150000000000.0,-1,-0.0573689025,-0.16405544785,0.0687250032,-0.030696,-0.052946,-0.034717,-0.2387723142,-9.744083573,1.0802024975,-2.924,1.4577,-2.2761,-7.999999999996898e-05,-5.0000000000105516e-05,7.00000000000145e-05,0.0003871536325057434,-0.0008156971965884718,-0.0002766935820015526
150000000000.0,-1,-0.06472388999999999,-0.16108403289999998,0.07071575315,-0.030759,-0.055086,-0.025103,-0.23649717139999998,-9.7443777725,1.0782411675,-2.9257,1.458,-2.275,-9.999999999998899e-05,-0.00019999999999997797,9.00000000000345e-05,0.0012127690916363676,0.00043798333475741913,0.0004708171813800899
150000000000.0,-1,-0.0617230551,-0.0914175913,0.07794325419999999,-0.032943,-0.055079,-0.014429,-0.235163467,-9.7445739055,1.0763779039999999,-2.9265,1.4582,-2.2747,-3.0000000000085514e-05,-0.00020000000000020002,-8.000000000008001e-05,8.754523171905504e-05,-4.900639115867911e-05,-0.0005129554931497804
150000000000.0,-1,-0.046326614599999996,-0.0162594257,0.0980665,-0.034082,-0.057212,-0.002683,-0.23469274779999996,-9.744770038499999,1.07480884,-2.9266,1.4584,-2.2752,-4.999999999999449e-05,-0.00019999999999997797,3.0000000000085514e-05,0.00022169058927978824,-0.00032192138627040734,-0.00039778598271222876
150000000000.0,-1,-0.02407532575,0.0689015229,0.10554897395,-0.037336,-0.057197,0.009055,-0.23509482045,-9.744868105,1.0731417095,-2.9259,1.4585,-2.2764,3.0000000000085514e-05,-0.00019999999999997797,2.999999999997449e-05,0.0007244555879371006,-0.0005491231848488987,-0.0006705899371315382
150000000000.0,-1,0.00118660465,0.13130123685,0.09295723534999999,-0.035242,-0.05616,0.019731,-0.23626181179999997,-9.745064238,1.0715726455,-2.9246,1.4587,-2.2784,-4.499999999996174e-05,-0.00019999999999997797,-3.0000000000085514e-05,0.0009575049197243501,-0.000609594770909494,0.0012966498381101754
150000000000.0,-1,0.008472945599999998,0.11151141714999999,0.08467061609999998,-0.032116,-0.059394,0.030416,-0.2383212083,-9.745162304499999,1.0701016479999998,-2.9225,1.4588,-2.2811,-4.500000000007276e-05,-0.00019999999999997797,-1.999999999990898e-05,-0.0009552687565506091,0.0003339555560821772,-0.0011270983114965993
150000000000.0,-1,-0.013503757049999999,0.043345393,0.08340555825,-0.02895,-0.061556,0.034696,-0.24117494344999998,-9.745260370999999,1.0688267835,-2.9197,1.4588,-2.2845,-6.0000000000060005e-05,-0.00029999999999996696,9.99999999995449e-06,0.0011282412241175876,-0.0003858162457703873,-5.0080049727618814e-05
150000000000.0,-1,-0.02793914585,-0.0517398854,0.06329211909999999,-0.02795,-0.066897,0.040046,-0.2448524372,-9.7453584375,1.0672577195,-2.9161,1.4589,-2.2888,-3.999999999992898e-05,-0.00029999999999996696,9.99999999995449e-06,3.68725241450818e-05,-0.00047958609335818636,9.4465870721816e-05
150000000000.0,-1,-0.0613504024,-0.11006003295,0.06979392805,-0.023701,-0.070127,0.038996,-0.24884374375,-9.7453584375,1.065982855,-2.9122,1.4589,-2.2933,-0.0001100000000000545,-0.00019999999999997797,4.0000000000040004e-05,0.00014470844721348186,0.0004974452015560349,-0.0006234794345616468
150000000000.0,-1,-0.0671755525,-0.11172716345,0.0769625892,-0.021566,-0.06908,0.041137,-0.25319789635,-9.7453584375,1.0651002564999998,-2.9082,1.4589,-2.2981,-7.00000000000145e-05,-0.000400000000000178,6.0000000000060005e-05,0.0011259458724186544,-0.0010281868979113984,-0.000419761508122507
150000000000.0,-1,-0.0572904493,-0.07095111275,0.08803429705,-0.017321,-0.072311,0.041154,-0.25739514254999996,-9.745260370999999,1.064806057,-2.9044,1.4589,-2.3026,-1.999999999990898e-05,-0.00019999999999997797,-3.0000000000085514e-05,0.0009169836921207875,0.0012232207202313994,-0.00015432741939735983
150000000000.0,-1,-0.0374221764,-0.00854159215,0.09596787689999998,-0.014134,-0.074468,0.041166,-0.26125896265,-9.745162304499999,1.0651002564999998,-2.901,1.4587,-2.3068,-0.0001300000000000745,-0.00039999999999995595,4.999999999999449e-05,0.0013386565249309257,0.00040570411127260897,-0.001586350051414387
150000000000.0,-1,-0.028664837949999997,0.02693886755,0.09094687209999999,-0.013066,-0.075541,0.040104,-0.26492664974999997,-9.7449661715,1.0654925224999998,-2.8979,1.4586,-2.3107,-0.00012999999999996348,-0.00039999999999995595,3.3333333333551707e-06,-0.000289919795599225,0.000299609364128095,-0.0007697275831330952
150000000000.0,-1,-0.0361473119,-0.014317708999999998,0.065312289,-0.012003,-0.077679,0.037977,-0.26851588364999995,-9.744868105,1.0654925224999998,-2.8947,1.4585,-2.3147,-0.00012000000000000899,-0.00039999999999995595,3.3333333333551707e-06,0.0013156021258478034,8.763827186020201e-05,-0.000523219270258668
150000000000.0,-1,-0.04200188195,-0.07848261995,0.0740598208,-0.009873,-0.079825,0.035853,-0.2719384045,-9.744770038499999,1.0656886555,-2.8918,1.4584,-2.3184,-0.00014999999999998348,-0.00029999999999996696,3.3333333333551707e-06,0.0006916364877662673,0.0009512172888719306,-0.0009157012558120847
150000000000.0,-1,-0.03872646085,-0.11173697009999999,0.10066526225,-0.006656,-0.080912,0.031593,-0.27490981945,-9.7445739055,1.0666693205,-2.8893,1.4582,-2.3217,-0.000160000000000049,-0.00029999999999996696,-9.00000000000345e-05,-0.0004992784544430862,0.00048117466077868265,-0.0006369818221141355
150000000000.0,-1,-0.03530394,-0.10238142599999998,0.0917510174,-0.001295,-0.078823,0.030533,-0.27774394129999996,-9.7443777725,1.067944185,-2.8872,1.458,-2.3247,-0.00013999999999991797,-0.000300000000000189,-4.999999999999449e-05,-0.0001564542282785908,0.000597984485851466,-0.0014048391198087096
150000000000.0,-1,-0.0166909183,-0.060291284199999996,0.07791383425000001,0.005111,-0.07994,0.028413,-0.28004850405,-9.744083573,1.0696113155,-2.8855,1.4578,-2.3271,-0.0001500000000000945,-0.00029999999999996696,-7.00000000000145e-05,-0.0019482297919211078,0.00027583361219529756,-0.001510447356253053
150000000000.0,-1,0.0028047019,-0.01422944915,0.057525808899999996,0.016828,-0.08536,0.024173,-0.28157834145,-9.743789373499999,1.072259111,-2.8848,1.4575,-2.3287,-0.00016999999999989246,-9.999999999998899e-05,-5.999999999994898e-05,-0.0019447492484916395,0.0008267201109133371,-0.001067995649004505
150000000000.0,-1,-0.0150630144,0.0033342610000000003,0.02548748335,0.026427,-0.088631,0.019927,-0.28301011234999995,-9.7433971075,1.075397239,-2.8843,1.4572,-2.3301,-0.000140000000000029,-0.00029999999999996696,9.99999999995449e-06,-1.6275987220204513e-05,-4.233326735825216e-05,-0.00042867892162234966
150000000000.0,-1,-0.02984163595,-0.02089797115,0.010600988649999999,0.037101,-0.094036,0.01035,-0.28379464434999996,-9.742906775,1.0792218324999998,-2.8845,1.4568,-2.3308,-0.00019000000000002348,-0.0004999999999999449,6.0000000000060005e-05,0.002750612325447932,0.00014447372753956245,0.0002477493229147143
150000000000.0,-1,-0.0509553534,-0.09964537065,0.012836904849999999,0.042483,-0.09407,0.000756,-0.28393193745,-9.7424164425,1.0835367585,-2.8853,1.4563,-2.3309,-0.00022999999999995246,-0.00019999999999997797,6.999999999990347e-05,5.31949040665225e-05,0.0007415294122070648,-0.0013263999842911822
150000000000.0,-1,-0.07142183195,-0.1284278884,0.008384685749999999,0.045695,-0.097285,-0.0067,-0.28352005815,-9.74192611,1.088145884,-2.8867,1.4559,-2.3305,-0.0001100000000000545,-0.00029999999999996696,9.00000000000345e-05,0.0010469742118557335,0.0006488895985088394,-0.0006377530586498814
150000000000.0,-1,-0.06457679024999999,-0.08764203105,0.0017063571,0.04895,-0.095171,-0.014166,-0.28228442025,-9.7414357775,1.093049209,-2.8889,1.4554,-2.3292,-9.00000000000345e-05,-0.000400000000000178,1.0000000000065512e-05,0.0011049582946540681,0.000294382318733577,-0.00036812407004616077
150000000000.0,-1,-0.037392756449999995,-0.00187307015,-0.0072176943999999995,0.056439,-0.095228,-0.01842,-0.2801367639,-9.7408473785,1.0986389994999999,-2.8919,1.4549,-2.3271,-8.999999999992347e-05,-0.00039999999999995595,-4.999999999999449e-05,-0.002002835433065897,-9.789649177749382e-05,-0.00010733042026878081
150000000000.0,-1,-0.034313468349999994,0.12649597835,-0.0283412185,0.063919,-0.09635,-0.022672,-0.27753800165,-9.740258979499998,1.1048171889999998,-2.8955,1.4544,-2.3245,-9.999999999998899e-05,-0.00029999999999996696,5.999999999994898e-05,-0.0010498169098793753,-0.00020162322236561003,-0.0005379365615851839
150000000000.0,-1,-0.034313468349999994,0.12649597835,-0.0283412185,0.063919,-0.09635,-0.022672,-0.27753800165,-9.740258979499998,1.1048171889999998,-2.8955,1.4544,-2.3245,-0.00019000000000002348,-0.00019999999999997797,7.999999999996898e-05,-0.0015119299624863913,-0.0004110937314172336,-0.0009854502693722456
150000000000.0,-1,-0.02405571245,0.21221590599999998,-0.06748936529999999,0.070353,-0.095332,-0.027998,-0.27432142045,-9.739670580499999,1.1110934449999998,-2.8995,1.4538,-2.3214,-0.00014999999999998348,-0.00019999999999997797,2.999999999997449e-05,-0.0012877387375320737,-0.00027631003976402724,-0.0012279299587019121
150000000000.0,-1,-0.024193005549999997,0.20440000595,-0.08275831935,0.072438,-0.10387,-0.032247,-0.27059489345,-9.738984115,1.1174677675,-2.904,1.4533,-2.3179,-0.000180000000000069,-0.00029999999999996696,7.00000000000145e-05,-0.0006309224657412571,-0.0005047231747763448,-0.0007621445802661331
150000000000.0,-1,-0.05771213524999999,0.13242900159999998,-0.08213069375,0.069283,-0.1017,-0.038657,-0.26684875314999995,-9.738395716,1.123645957,-2.9084,1.4528,-2.3144,-0.00017999999999995797,-0.000300000000000189,7.00000000000145e-05,7.295365677695287e-05,-0.0002145028668341098,-0.0013881373513082718
150000000000.0,-1,-0.09330046809999999,0.017259704,-0.06940166205,0.065055,-0.10166,-0.047197,-0.2628378333,-9.7379053835,1.1292357474999999,-2.9129,1.4523,-2.3109,-0.00014999999999998348,-0.00019999999999997797,-3.999999999992898e-05,-0.002104070038815742,-0.0008020158595478666,-0.0004282416641956388
150000000000.0,-1,-0.1061471796,-0.08123828859999999,-0.049651068949999995,0.057669,-0.096259,-0.055752,-0.25821890115,-9.737415051,1.1345313385,-2.9178,1.4519,-2.307,-0.00019000000000002348,-0.00029999999999996696,1.999999999990898e-05,-0.0006360371345977001,-0.0005373733211320175,-0.0014312200388713059
150000000000.0,-1,-0.11498297124999998,-0.1377834325,-0.0382851616,0.053398,-0.09835,-0.058951,-0.2531292498,-9.7369247185,1.139336597,-2.923,1.4515,-2.3028,-0.00017000000000000348,-0.00019999999999997797,-4.999999999999449e-05,-0.0016922949219111416,-0.00045434663059817915,-0.0006834638945985017
150000000000.0,-1,-0.12814349555,-0.12942816669999999,-0.040991796999999996,0.043843,-0.094004,-0.06217,-0.24804940509999998,-9.736630518999998,1.143259257,-2.9279,1.4512,-2.2987,-0.00014999999999998348,-0.00019999999999997797,3.0000000000085514e-05,0.0002333569615915465,-0.0003891857521616249,-0.0006762825645798554
150000000000.0,-1,-0.1278394894,-0.09119203834999999,-0.05127897285,0.036389,-0.091809,-0.062178,-0.24295975374999998,-9.736434385999999,1.146201252,-2.9327,1.451,-2.2948,-0.00012000000000000899,-0.00019999999999997797,-4.999999999999449e-05,-0.0008046142533251199,-0.00112537879420338,-0.0011027717121168124
150000000000.0,-1,-0.1160911227,-0.03613750525,-0.06429239739999999,0.031058,-0.089635,-0.060049,-0.2379485556,-9.736238253,1.1485548479999999,-2.9373,1.4509,-2.291,-9.00000000000345e-05,-9.999999999998899e-05,-3.0000000000085514e-05,-0.00044548806499644655,-0.0009701508951780458,-0.0009203854085351182
150000000000.0,-1,-0.10144979424999999,-0.0234967334,-0.0681954441,0.02571,-0.087463,-0.054719,-0.23314329709999998,-9.736140186499998,1.1502219785,-2.9416,1.4508,-2.2876,-5.999999999994898e-05,-0.00029999999999996696,-0.00017000000000000348,-0.002117546586682728,-0.0016878546195973065,-0.0032738419700808485
150000000000.0,-1,-0.10600007984999998,-0.06583204145,-0.06670483329999999,0.015037,-0.084183,-0.049399,-0.22888721099999998,-9.736140186499998,1.1510065105,-2.9453,1.4508,-2.2847,-0.000140000000000029,-9.999999999998899e-05,7.00000000000145e-05,0.0009558483045459809,-0.00045138099480435123,-0.0001809602458793247
150000000000.0,-1,-0.11952345019999998,-0.13158562969999998,-0.05288726345,0.007521,-0.086256,-0.044064,-0.22538623694999999,-9.736238253,1.150908444,-2.9482,1.4509,-2.2826,-0.000140000000000029,-9.999999999998899e-05,2.0000000000020002e-05,-0.0003814353012216998,-0.001119356580987274,-0.0005159126297600292
150000000000.0,-1,-0.13072264449999998,-0.18676764924999997,-0.0412859965,-0.002039,-0.076591,-0.037685,-0.22271882814999996,-9.736434385999999,1.149927779,-2.9503,1.4511,-2.2813,-0.00017000000000000348,-9.999999999998899e-05,9.99999999995449e-06,-0.001094688324222659,0.00021035728650087293,-0.0010659816999005756
150000000000.0,-1,-0.1344099449,-0.22722988715,-0.038334194849999996,-0.007364,-0.072288,-0.033424,-0.2205319452,-9.7367285855,1.1483587149999999,-2.9519,1.4513,-2.2804,-0.00012999999999996348,-0.00020000000000020002,4.999999999999449e-05,-0.0010143481367492768,-0.0015600139220783849,-0.0014949564601123289
150000000000.0,-1,-0.14752143595,-0.2502853213,-0.03044964825,-0.015912,-0.07009,-0.028097,-0.21909036764999998,-9.7369247185,1.1461031855,-2.9527,1.4515,-2.2802,-0.00012000000000000899,-9.999999999998899e-05,5.0000000000105516e-05,0.0006185037517667524,-0.000524549623133419,-0.0005362404481747962
150000000000.0,-1,-0.1373127133,-0.23895864055,-0.038834334,-0.025529,-0.066819,-0.020639,-0.21822738244999998,-9.737415051,1.142866991,-2.9529,1.4519,-2.2807,-0.00017999999999995797,-9.999999999998899e-05,2.999999999997449e-05,-0.0008446461286473195,-0.0010842575145018074,-0.0006265967165843822
150000000000.0,-1,-0.12577028625,-0.1968586921,-0.053583535599999996,-0.031937,-0.060382,-0.00998,-0.21824699574999998,-9.7379053835,1.1386501315,-2.9522,1.4523,-2.282,-0.00019000000000002348,-9.999999999998899e-05,0.00010999999999994348,0.00030620599058739373,0.0003635010444040798,-0.001137904093194253
150000000000.0,-1,-0.09766442735,-0.10805947634999999,-0.0605658704,-0.034085,-0.055046,0.000688,-0.21897268785000001,-9.738395716,1.134041006,-2.9509,1.4527,-2.2839,-0.000160000000000049,-9.999999999998899e-05,0.00017000000000000348,0.0005764113388480041,0.0003214994486235856,-0.00017560258962867614
150000000000.0,-1,-0.06530248235,-0.013327237349999998,-0.06136020905,-0.03302,-0.047606,0.012422,-0.22050252525,-9.7388860485,1.1298241465,-2.9488,1.4531,-2.2864,-0.00014999999999998348,-9.999999999998899e-05,0.000140000000000029,0.0004075071078961656,0.00023534735301522502,-0.0007565648452931839
150000000000.0,-1,-0.03488225405,0.05728064265,-0.0828465792,-0.029857,-0.044447,0.024167,-0.22279728135,-9.739278314499998,1.1257053535,-2.9462,1.4535,-2.2895,-7.999999999996898e-05,-9.999999999998899e-05,9.999999999998899e-05,0.0005219995658025667,0.00034209544806795833,-0.0010650961345040066
150000000000.0,-1,-0.022741621349999998,0.0925551627,-0.11880756475,-0.022416,-0.04132,0.033783,-0.22595502264999998,-9.739670580499999,1.121488494,-2.9428,1.4539,-2.2934,-6.0000000000060005e-05,-9.999999999998899e-05,0.00021999999999999797,0.0006996063319366641,-0.00019823551524944527,-8.110608983802337e-05
150000000000.0,-1,-0.030655587899999996,0.12003339599999999,-0.14210816515,-0.020307,-0.040276,0.039125,-0.22986787599999997,-9.740062846499999,1.1172716345,-2.9387,1.4542,-2.2979,-7.999999999996898e-05,-9.999999999998899e-05,0.000140000000000029,0.0002199566086256155,7.663239535582456e-05,4.869765624659905e-05
150000000000.0,-1,-0.0508376736,0.10253833239999999,-0.1300950189,-0.017065,-0.034972,0.038059,-0.23422202859999997,-9.740357046,1.113643174,-2.9343,1.4545,-2.3026,-0.00017999999999995797,-0.00019999999999997797,0.00012999999999996348,0.0003464044919549991,0.0003181669428142797,-0.00044610504049380495
150000000000.0,-1,-0.08209146715,0.038030188699999995,-0.10298943829999999,-0.019154,-0.032815,0.031653,-0.23858598785,-9.740651245499999,1.1102108465,-2.9299,1.4547,-2.3074,-0.00014999999999998348,-0.00019999999999997797,7.00000000000145e-05,0.002237570334433059,-6.102452175182904e-05,-0.0003879343718602435
150000000000.0,-1,-0.09950807754999999,-0.04666984735,-0.0634686388,-0.024452,-0.031698,0.025244,-0.24256748774999998,-9.740945445,1.106778519,-2.9258,1.455,-2.3118,-2.0000000000020002e-05,-9.999999999998899e-05,2.0000000000020002e-05,-0.0026393742195391923,-0.00025578841924578377,-3.504699557099755e-05
150000000000.0,-1,-0.12735896354999998,-0.1339980656,-0.027174227149999997,-0.035019,-0.025205,0.014548,-0.24613710835,-9.741337711,1.1027577924999998,-2.922,1.4553,-2.3159,0.00022999999999995246,-9.999999999998899e-05,0.00026999999999999247,-0.0067383734363728465,-0.0014767935410511246,0.0027330841538331097
150000000000.0,-1,-0.14136285975,-0.18486515914999999,-0.00187307015,-0.044517,-0.016592,0.007053,-0.24903987675,-9.7418280435,1.0981486669999998,-2.9186,1.4557,-2.3195,-0.00013999999999991797,-9.999999999998899e-05,9.99999999995449e-06,-0.0004560245187841261,0.0007883837276640993,-0.0006133581862679538
150000000000.0,-1,-0.14877668715,-0.1905235962,0.0160044528,-0.04868,-0.008024,-0.000433,-0.25150134589999995,-9.742318376,1.093245342,-2.9155,1.4562,-2.3227,-0.000180000000000069,-9.999999999998899e-05,0.0002500000000000835,0.000612063585856859,0.0005334893079791403,-0.0011778156520265703
150000000000.0,-1,-0.1326839745,-0.1539447917,0.02746842665,-0.052872,-0.000526,-0.003648,-0.2533842227,-9.7428087085,1.0882439505,-2.9128,1.4566,-2.3254,0.0006099999999999994,0.00019999999999997797,0.00024999999999997247,-0.004872617353904651,-0.0016223856992105823,0.005183838618912251
150000000000.0,-1,-0.09990034354999999,-0.08603374044999999,0.00865927195,-0.054938,0.008016,-0.003661,-0.25473754039999996,-9.7433971075,1.0827522264999998,-2.9105,1.4571,-2.3276,-0.00017000000000000348,2.4999999999941735e-05,0.00014999999999998348,-0.00013884607492276047,0.0007655553756220623,-0.0012385069563771722
150000000000.0,-1,-0.08016936375,-0.01167972015,-0.029253236949999997,-0.049591,0.011168,-0.001517,-0.2560712448,-9.7439855065,1.0771624359999998,-2.9082,1.4577,-2.3299,-0.00010999999999994348,2.4999999999941735e-05,0.00014999999999998348,0.0004445137148740841,0.0004791232706997661,-2.7937733587002356e-05
150000000000.0,-1,-0.05618229784999999,0.04009939184999999,-0.059222359349999996,-0.048503,0.017548,0.003814,-0.25745398244999995,-9.7445739055,1.0713765124999999,-2.9058,1.4582,-2.3321,-4.999999999999449e-05,2.500000000016378e-05,0.00017999999999995797,-0.0011625559759851356,-0.00023801103325915562,0.0006079412431116982
150000000000.0,-1,-0.03753004955,0.054132707999999995,-0.0516810455,-0.046331,0.023923,0.005945,-0.25890536664999997,-9.745064238,1.065982855,-2.9033,1.4587,-2.3344,-0.00012000000000000899,2.4999999999941735e-05,0.00019000000000002348,0.0005963276606726353,0.0002784010704093287,5.423991340158807e-05
150000000000.0,-1,-0.02788030595,0.047424959399999994,-0.03525490675,-0.038835,0.030251,0.010218,-0.26062153039999997,-9.7455545705,1.0611775964999999,-2.9008,1.4591,-2.3367,-0.00014999999999998348,-3.333333333332966e-05,0.000180000000000069,0.0006029595573684432,-0.0003456033671807024,-0.0002707362068095076
150000000000.0,-1,-0.016553625199999998,0.034597861199999996,-0.02558554985,-0.030266,0.036571,0.013426,-0.26252402049999995,-9.7459468365,1.0574510695,-2.8983,1.4595,-2.3388,-0.000140000000000029,-3.333333333332966e-05,0.00012999999999996348,0.00017031481864027143,-0.0006142019195432002,0.001050672543059905
150000000000.0,-1,-0.017092990949999998,-0.01887780125,-0.02505599075,-0.020648,0.040751,0.016638,-0.26481877659999997,-9.7461429695,1.0547052075,-2.8956,1.4597,-2.3411,-7.999999999996898e-05,-3.333333333332966e-05,0.00021999999999999797,0.0022773556013921947,8.712753128303774e-06,0.0011482382666185842
150000000000.0,-1,-0.01803442935,-0.0710785992,-0.03135186005,-0.013199,0.038559,0.016657,-0.2671723726,-9.7463391025,1.0524496779999999,-2.893,1.4598,-2.3433,0.0008099999999999774,0.00039999999999995595,0.0006099999999999994,0.008633176253153962,0.004416966730367733,-0.0083965825157295
150000000000.0,-1,-0.02484024445,-0.09042711965,-0.04702288674999999,-0.003613,0.039542,0.020943,-0.26994765454999997,-9.746437168999998,1.0507825474999999,-2.8901,1.4599,-2.3458,0.00026999999999999247,0.00019999999999997797,0.00039999999999995595,0.00042222854694795586,0.0008436153564146398,-0.0029208554828230593
150000000000.0,-1,-0.027331133549999997,-0.09948846424999999,-0.03794192885,-0.003576,0.043806,0.01987,-0.27285042295,-9.7465352355,1.049507683,-2.8872,1.46,-2.3483,9.99999999995449e-06,9.999999999998899e-05,0.00021000000000004349,-0.0001268146554131988,0.00023633109950949027,-0.00020410040470775215
150000000000.0,-1,-0.008757338449999999,-0.07122569895,-0.0029223816999999997,-0.002491,0.048056,0.023068,-0.2757041581,-9.7465352355,1.048919284,-2.8846,1.46,-2.3505,0.0001100000000000545,1.2499999999970868e-05,0.00014999999999998348,-0.0015009599019988329,0.0006414513002086508,0.0003344182821951591
150000000000.0,-1,-0.00577611685,-0.0262229821,0.0094928372,-0.004612,0.052332,0.027327,-0.27883247945,-9.746437168999998,1.0484289515,-2.8817,1.4599,-2.3529,9.99999999995449e-06,1.2499999999970868e-05,0.000140000000000029,0.0012003505474904586,7.81321205911567e-05,0.000342564967073411
150000000000.0,-1,0.006276256,0.0382067084,0.015455280399999998,-0.005649,0.056602,0.028384,-0.28205886729999996,-9.746437168999998,1.048134752,-2.8787,1.4599,-2.3553,2.999999999997449e-05,1.2499999999970868e-05,0.00012000000000000899,0.0002674841123599947,-0.00017860492412924422,0.0007771770873072903
150000000000.0,-1,0.0291257505,0.07865913965,0.0146707484,-0.000309,0.05975,0.032656,-0.28530486844999997,-9.746241035999999,1.0482328184999998,-2.8758,1.4598,-2.3576,4.0000000000040004e-05,1.2500000000192912e-05,0.00014999999999998348,0.0004261746707063807,-9.950074257525365e-05,0.0005784611820867092
150000000000.0,-1,0.041119283449999995,0.0900642736,0.0073353742,0.00288,0.059721,0.034796,-0.2892177218,-9.7461429695,1.0482328184999998,-2.8724,1.4597,-2.3605,2.0000000000020002e-05,1.2499999999970868e-05,0.000160000000000049,0.000804464906584812,0.0005745429682646463,-6.093840361209857e-07
150000000000.0,-1,0.042756994,0.07943386499999999,-0.009590903699999999,0.008215,0.059677,0.034804,-0.2926500493,-9.746044903,1.048723151,-2.8695,1.4595,-2.3628,2.999999999997449e-05,1.2499999999970868e-05,0.00010999999999994348,-0.00027130791989815606,0.000567992358621261,0.00036104790542901277
150000000000.0,-1,0.03445076145,0.1024402659,-0.0152395341,0.01035,0.061787,0.038004,-0.29646483614999997,-9.74584877,1.0494096165,-2.8663,1.4594,-2.3654,2.4999999999941735e-05,1.2499999999970868e-05,0.00012999999999996348,0.0005808458499894087,-9.672180834097155e-05,0.0007526192694415901
150000000000.0,-1,0.039422733,0.1348218242,-0.02701732075,0.016756,0.061736,0.036946,-0.30009329664999995,-9.7455545705,1.0505864145,-2.8633,1.4592,-2.3677,2.5000000000052758e-05,1.2499999999970868e-05,0.0001300000000000745,0.00022394362785593813,0.0005019430017658699,0.0004850107107763346
150000000000.0,-1,0.045257689749999996,0.18568891775,-0.0246539181,0.023148,0.060617,0.036957,-0.30368253055,-9.745260370999999,1.0523516115,-2.8607,1.4589,-2.3698,2.0000000000020002e-05,-9.999999999998899e-05,9.999999999998899e-05,0.00037122061810901386,0.0003691438522415158,0.0004940752878528354
150000000000.0,-1,0.051426072600000004,0.22255211509999998,-0.009188831049999999,0.026334,0.060587,0.040162,-0.3074580908,-9.744868105,1.054999407,-2.858,1.4585,-2.3719,7.00000000000145e-05,5.0000000000105516e-05,9.999999999998899e-05,-0.0006567763149343264,0.0007479674801147418,0.0003786137920400723
150000000000.0,-1,0.057859234999999995,0.19833949625,-0.0008139519499999999,0.025254,0.059529,0.041227,-0.31119442444999995,-9.744475839,1.057745269,-2.8554,1.4581,-2.3739,2.999999999997449e-05,4.999999999988347e-05,7.00000000000145e-05,-0.0004395734740372248,0.00045977852031042765,0.00028022567370067364
150000000000.0,-1,0.06781298475,0.11209000949999999,-0.0020692031499999998,0.02206,0.059556,0.04015,-0.3147150118,-9.744083573,1.0600007985,-2.853,1.4578,-2.3758,2.0000000000020002e-05,-9.999999999998899e-05,2.0000000000020002e-05,5.973815864201981e-05,0.0005913090317244407,0.000668440918235147
150000000000.0,-1,0.0622526142,-0.0333622233,0.0047856452,0.017735,0.051068,0.038019,-0.31798062625,-9.743789373499999,1.061864062,-2.8506,1.4575,-2.3776,9.999999999998899e-05,-2.4999999999941735e-05,4.999999999999449e-05,-0.00021308659514929218,0.0005950987008755959,-0.00033417864357221383
150000000000.0,-1,0.043874952099999996,-0.20373315374999998,0.028351025149999997,0.009205,0.049011,0.033736,-0.32114817419999997,-9.7435932405,1.0629427935,-2.8482,1.4573,-2.3796,2.999999999997449e-05,-2.500000000016378e-05,1.999999999990898e-05,-0.00030844214109571055,0.00042236790885663567,0.0010580872500558502
150000000000.0,-1,0.02068222485,-0.35200970175,0.06847983695,-0.00143,0.049105,0.027311,-0.32400190934999995,-9.7433971075,1.0633350595,-2.8458,1.4572,-2.3815,1.0000000000065512e-05,-2.4999999999941735e-05,-9.99999999995449e-06,-0.0002314334800761486,0.0007155351426959555,0.00026301187653610114
150000000000.0,-1,0.006678328649999999,-0.39380564404999996,0.09931194455,-0.015254,0.049228,0.018746,-0.32630647209999997,-9.7433971075,1.0630408599999999,-2.8438,1.4572,-2.3831,3.999999999992898e-05,-2.4999999999941735e-05,2.0000000000020002e-05,0.0002911991637670752,0.00016534377376409282,0.0006550933428548511
150000000000.0,-1,-0.0040403398,-0.34883234714999994,0.11504181114999999,-0.026939,0.049333,0.009118,-0.32785592280000003,-9.743495174,1.061864062,-2.8421,1.4572,-2.3842,4.0000000000040004e-05,-4.999999999988347e-05,0.00012000000000000899,-0.0008855347869349828,0.0006206337277789853,0.000860190177957243
150000000000.0,-1,-0.015553346899999999,-0.21055858214999998,0.11507123109999999,-0.032227,0.047257,-0.002629,-0.3286208415,-9.7435932405,1.0601969315,-2.841,1.4574,-2.3849,-1.0000000000065512e-05,-5.0000000000105516e-05,3.999999999992898e-05,0.00040764017065964,-0.0005734490382609536,0.0013780493601596167
150000000000.0,-1,-0.01560238015,-0.040491657849999994,0.103754357,-0.037476,0.049445,-0.015451,-0.32826780209999995,-9.74388744,1.058137535,-2.8408,1.4576,-2.3846,4.0000000000040004e-05,1.999999999990898e-05,0.000160000000000049,-0.0010120641439606004,0.0011474911416506917,-0.0005467431300623105
150000000000.0,-1,-0.01919161405,0.048386011099999994,0.08558263455,-0.035297,0.047307,-0.027184,-0.32676738465,-9.744181639499999,1.0559800719999999,-2.8415,1.4578,-2.3834,-2.0000000000020002e-05,2.0000000000131024e-05,0.00017999999999995797,0.0007434571805111645,0.00020522209693885074,0.0009583407616429174
150000000000.0,-1,-0.0346763144,0.06966644159999999,0.07336354865,-0.035247,0.045189,-0.039987,-0.32415881575,-9.744475839,1.0537245425,-2.8431,1.4581,-2.3813,-2.0000000000020002e-05,1.999999999990898e-05,0.000140000000000029,-0.00040685820824748475,0.00022178031423369937,0.0006371956397244194
150000000000.0,-1,-0.03898143375,0.04007977855,0.058614347049999994,-0.029857,0.043028,-0.053849,-0.32029499565,-9.744868105,1.051665146,-2.846,1.4585,-2.378,-4.999999999999449e-05,2.0000000000131024e-05,0.000160000000000049,0.0002281502413934433,-0.00026163162733539025,0.0010131412494884806
150000000000.0,-1,-0.057221802749999995,-0.02433029865,0.04970010219999999,-0.025558,0.038743,-0.06664,-0.31537205734999996,-9.745260370999999,1.0497038159999998,-2.8497,1.4588,-2.3738,-9.99999999995449e-06,1.999999999990898e-05,0.00017999999999995797,-0.0004463605395308434,-0.0001270069600278756,0.0003505746370224827
150000000000.0,-1,-0.07457957324999999,-0.07498164589999999,0.04285506049999999,-0.020193,0.034451,-0.079428,-0.3093998075,-9.7455545705,1.0480366855,-2.8545,1.4591,-2.3686,-4.999999999999449e-05,9.999999999998899e-05,0.00014999999999998348,0.00029130944049438057,6.430504629095779e-05,0.0006181898315815726
150000000000.0,-1,-0.08966220094999999,-0.09411442005,0.04768973895,-0.015941,0.026966,-0.087942,-0.3026920589,-9.7459468365,1.0469579539999998,-2.8601,1.4594,-2.3627,4.999999999999449e-05,9.999999999998899e-05,0.00017000000000000348,0.000444345818275238,-0.0005305975159541898,-0.0008274360807933867
150000000000.0,-1,-0.09889025859999999,-0.055417379149999994,0.051573172349999995,-0.009489,0.029051,-0.094334,-0.29540571795,-9.7461429695,1.046761821,-2.8665,1.4597,-2.356,-4.999999999999449e-05,9.999999999998899e-05,0.000180000000000069,0.0002821091060427605,-0.000503499294329357,0.0004185240956056102
150000000000.0,-1,-0.08636716655,-0.00208881645,0.04447315775,-0.003109,0.024739,-0.096446,-0.287727111,-9.7463391025,1.0469579539999998,-2.8734,1.4598,-2.3488,-4.999999999999449e-05,9.999999999998899e-05,0.00030999999999992145,0.002598488012677258,0.000908574924005201,-0.0011340629197931218
150000000000.0,-1,-0.0661164343,0.061497502149999994,0.0402268783,0.00216,0.018299,-0.09322,-0.2798425644,-9.7465352355,1.0478405524999999,-2.8806,1.46,-2.3413,-0.0007700000000000484,-0.00029999999999996696,-0.00015999999999993797,0.013338730538075438,0.0013060927503663056,-0.003139818160999175
150000000000.0,-1,-0.047297472949999995,0.15123815629999998,0.0062174160999999995,0.008503,0.012915,-0.089995,-0.27202666435,-9.746633302,1.048919284,-2.8878,1.4601,-2.3339,2.0000000000020002e-05,0.00019999999999997797,0.00024999999999997247,0.0013056476556378982,-0.0009603861275284675,5.1645947809042525e-05
150000000000.0,-1,-0.044316251349999995,0.2114509873,-0.0216334699,0.015905,0.008586,-0.083567,-0.2646814835,-9.746633302,1.0501941485,-2.8947,1.4601,-2.3269,-0.00014999999999998348,9.999999999998899e-05,0.00021000000000004349,0.0017317644647363295,-0.0008244429708283985,-0.0008983852425521466
150000000000.0,-1,-0.044973296899999994,0.22477822465,-0.0317931593,0.019034,0.00429,-0.076079,-0.2578952817,-9.746633302,1.051861279,-2.9012,1.4601,-2.3203,-7.999999999996898e-05,0.00019999999999997797,0.00015999999999993797,0.0004109142965686985,-0.0001358855163577921,-0.0006816911256071201
150000000000.0,-1,-0.05303436319999999,0.18414927369999998,-0.0102969825,0.020039,0.001078,-0.068597,-0.2519328385,-9.7465352355,1.054018742,-2.907,1.4601,-2.3144,-6.0000000000060005e-05,0.00019999999999997797,9.00000000000345e-05,-7.631733319257705e-05,-0.0007687114483079238,-0.0012189037410383907
150000000000.0,-1,-0.0568393434,0.08544534145,-0.0032067745499999994,0.019943,-0.00426,-0.057911,-0.24692164035,-9.7465352355,1.0560781385,-2.9119,1.46,-2.3095,-0.0006599999999999939,-4.999999999988347e-05,-0.00024000000000001798,-0.002055744323170572,-0.005038453417861799,0.008839061147275284
150000000000.0,-1,-0.05057289405,-0.004118793,0.006648908699999999,0.014513,-0.009554,-0.047234,-0.2427145875,-9.746437168999998,1.057745269,-2.916,1.4599,-2.3054,-0.0005499999999999394,-5.0000000000105516e-05,-0.00024999999999997247,-0.008245421333814562,-0.0021561137877532666,0.0044249156993920735
150000000000.0,-1,-0.0449340703,-0.0710393726,0.00903192465,0.009084,-0.01272,-0.033359,-0.239674526,-9.7463391025,1.0588240004999998,-2.919,1.4599,-2.3026,-0.000140000000000029,9.999999999998899e-05,-4.0000000000040004e-05,-0.0016444286480652437,-0.0020742917346807666,0.0014333895403633168
150000000000.0,-1,-0.0299691224,-0.07850223325,0.0006472389,0.001527,-0.013739,-0.017358,-0.23787990905,-9.746437168999998,1.058922067,-2.9206,1.4599,-2.301,-6.0000000000060005e-05,0.00010000000000021103,6.0000000000060005e-05,-0.000836811649279845,-0.0008327461735628816,0.0004713926987753858
150000000000.0,-1,-0.01301342455,-0.0332053169,-0.009532063799999999,-0.009283,-0.017935,0.00398,-0.23778184255,-9.7465352355,1.0580394684999999,-2.9205,1.46,-2.3013,-9.999999999998899e-05,0.00019999999999997797,6.999999999990347e-05,-0.0014726205655541946,0.00018786391432024097,-0.0008382827772879242
150000000000.0,-1,0.016279039,0.03639247815,-0.00051975245,-0.023224,-0.016771,0.019964,-0.23893902725,-9.746633302,1.0561762049999999,-2.9191,1.4601,-2.3029,-1.999999999990898e-05,9.999999999998899e-05,0.0001300000000000745,0.0006062041108556571,-0.0007848899406721621,4.974613366415248e-05
150000000000.0,-1,0.027556686499999997,0.0749424193,0.013552790299999999,-0.035055,-0.018822,0.035956,-0.2415377895,-9.746927501499998,1.0533322765,-2.9162,1.4604,-2.306,-1.0000000000065512e-05,9.999999999998899e-05,3.999999999992898e-05,-0.0005066127658093222,0.00020270811522826726,5.689758758808949e-06
150000000000.0,-1,0.022388581949999996,0.07465802645,0.0309301741,-0.047928,-0.019795,0.048743,-0.24549967609999998,-9.747221700999999,1.0496057495,-2.9118,1.4607,-2.3106,-2.999999999997449e-05,0.00019999999999997797,0.0001300000000000745,9.474928432684493e-05,-0.0004304921545841278,-0.00020953794304823248
150000000000.0,-1,-0.0083748791,0.062331067399999995,0.0441103117,-0.061802,-0.016491,0.055118,-0.25080507375,-9.747613967,1.044604358,-2.906,1.461,-2.3166,-7.00000000000145e-05,9.999999999998899e-05,4.999999999999449e-05,-2.5859299207731112e-05,0.00021868470611696722,-0.000417236015424427
150000000000.0,-1,-0.0355392996,0.0023339827,0.0655868752,-0.071391,-0.013218,0.0583,-0.25700287655,-9.7481042995,1.038916501,-2.8991,1.4614,-2.3237,-4.999999999999449e-05,5.0000000000105516e-05,3.999999999992898e-05,0.0007402826362410408,-4.164766010061882e-05,-8.739365363608087e-06
150000000000.0,-1,-0.05374044199999999,-0.0643904639,0.08362130455,-0.07567,-0.014249,0.059365,-0.2636419786,-9.748594632,1.0328363779999998,-2.8917,1.4619,-2.3313,-0.0001100000000000545,4.999999999988347e-05,6.0000000000060005e-05,-0.001039128285460933,0.0008865091200795927,-0.0011190780278109713
150000000000.0,-1,-0.047611285749999996,-0.1046369555,0.0974192611,-0.07567,-0.012122,0.063633,-0.2703693405,-9.748986898,1.0268543215,-2.8841,1.4623,-2.339,-0.00010999999999994348,3.333333333332966e-05,3.999999999992898e-05,0.0008835730594700664,0.00030677234196851977,-0.00030654286914200135
150000000000.0,-1,-0.0317147061,-0.11164871024999999,0.0802380103,-0.074625,-0.0132,0.066841,-0.27714573565,-9.7494772305,1.020479999,-2.8764,1.4628,-2.3469,-9.999999999998899e-05,3.333333333332966e-05,5.0000000000105516e-05,0.0006265356083474671,0.0006001125548540376,-0.0004352905769564597
150000000000.0,-1,-0.0048640984,-0.07155912504999999,0.07158854499999999,-0.069311,-0.015376,0.067922,-0.28378483769999996,-9.7498694965,1.0144979425,-2.8688,1.4632,-2.3547,-0.00019999999999997797,3.333333333332966e-05,2.999999999997449e-05,0.001247182590927487,0.0008804156583999134,-0.0012298669356511915
150000000000.0,-1,0.014219642499999997,-0.021525596749999997,0.05730025595,-0.060789,-0.013323,0.074336,-0.29060045944999996,-9.7502617625,1.0092023515,-2.8612,1.4635,-2.3625,-0.00012000000000000899,6.666666666665932e-05,4.999999999999449e-05,0.0007830936680415235,0.0007623850537321619,-0.00024498310731102535
150000000000.0,-1,0.027233067049999997,0.038569554449999995,0.0529951366,-0.052276,-0.014462,0.077554,-0.29763182749999995,-9.750457895499999,1.0047893589999999,-2.8536,1.4637,-2.3703,-9.999999999998899e-05,6.666666666665932e-05,0.00010999999999994348,0.0013746607852658244,0.0003798072131140362,0.00022508513175956146
150000000000.0,-1,0.054789753549999994,0.10570588035,0.0516025923,-0.040592,-0.016698,0.085046,-0.3048299086,-9.750555962,1.0016512309999999,-2.8462,1.4638,-2.3779,-0.0001100000000000545,6.666666666665932e-05,0.000160000000000049,0.0004707428289618676,0.0010323960324563064,-0.00024050405157249877
150000000000.0,-1,0.0782374537,0.16568335174999999,0.04659139415,-0.028888,-0.017867,0.090401,-0.31211624955,-9.750555962,0.999689901,-2.839,1.4638,-2.3854,-0.00012999999999996348,5.0000000000105516e-05,9.999999999998899e-05,0.00012313626731952354,0.0007565995326110908,-2.7515881789286212e-05
150000000000.0,-1,0.09458513925,0.22583734284999998,0.03539219984999999,-0.017205,-0.022231,0.094693,-0.31963795009999996,-9.750457895499999,0.9988073024999999,-2.8319,1.4637,-2.3928,-9.999999999998899e-05,4.999999999988347e-05,7.999999999996898e-05,0.00014369142402514967,0.0009231732774843682,-0.00016399874151273863
150000000000.0,-1,0.10144979424999999,0.24229290155,0.03956983275,-0.0044,-0.022338,0.09471,-0.32724791049999996,-9.750163696,0.9991995684999999,-2.8251,1.4634,-2.3998,-9.999999999998899e-05,9.999999999998899e-05,2.0000000000020002e-05,-0.0009692915580234995,0.0007954863209111984,0.0002923899246281003
150000000000.0,-1,0.09846857264999999,0.20711644799999998,0.05057289405,0.009465,-0.023519,0.09473,-0.3347401911,-9.7496733635,1.001258965,-2.8189,1.4629,-2.4062,-6.0000000000060005e-05,9.999999999998899e-05,4.0000000000040004e-05,0.0020531359840330055,0.0015173389279952154,0.00039938424317487176
150000000000.0,-1,0.09427132645,0.11495355129999998,0.06521422249999999,0.0201,-0.028935,0.093685,-0.34222266504999993,-9.7490849645,1.004397093,-2.8132,1.4624,-2.4123,-5.999999999994898e-05,-1.6666666666775853e-05,9.99999999995449e-06,0.00045593647853703345,0.000984619912040241,-0.00016615472214631666
150000000000.0,-1,0.08953471449999999,-0.012797678249999998,0.07904159899999999,0.025428,-0.031108,0.091563,-0.3508034838,-9.7484965655,1.0068487554999999,-2.8063,1.4619,-2.4195,-9.999999999998899e-05,-1.666666666655381e-05,-2.0000000000020002e-05,-7.342190921111325e-05,0.0010303363082699857,-0.0004684237701868543
150000000000.0,-1,0.08699479215,-0.13518467025,0.0874164781,0.03395,-0.033311,0.091576,-0.35784465849999997,-9.747810099999999,1.0115559475,-2.8016,1.4612,-2.4247,-8.000000000008001e-05,-1.666666666655381e-05,-7.999999999996898e-05,1.9370765207860074e-05,0.0013020918994532948,-0.00032961912686424455
150000000000.0,-1,0.10137134105000001,-0.18534568499999998,0.08919148175,0.039304,-0.033353,0.088376,-0.3644347273,-9.747025568,1.0166554054999999,-2.7974,1.4604,-2.4292,-5.999999999994898e-05,-1.6666666666775853e-05,-4.0000000000040004e-05,0.00046112635006867464,0.0007045384723276538,0.0005841719209975782
150000000000.0,-1,0.1036955171,-0.1881503869,0.0848667491,0.049995,-0.032375,0.086251,-0.37079924314999996,-9.7461429695,1.0226374619999998,-2.7937,1.4596,-2.4332,-6.0000000000060005e-05,-1.6666666666775853e-05,1.0000000000065512e-05,0.00019406989619419335,0.0011171725405274557,-0.00032975279192570817
150000000000.0,-1,0.13059515805,-0.1637514417,0.060614903649999996,0.05424,-0.035609,0.086256,-0.37659497329999997,-9.745260370999999,1.0289137179999999,-2.7907,1.4588,-2.4367,-6.999999999990347e-05,-1.666666666655381e-05,-2.0000000000020002e-05,-5.5726714539794386e-05,0.000551556395700592,0.0003463556753209307
150000000000.0,-1,0.1360378488,-0.0965562759,0.025781682849999998,0.060622,-0.038859,0.085197,-0.3821847638,-9.7443777725,1.0352880405,-2.788,1.458,-2.4399,-0.00010000000000010001,-5.0000000000105516e-05,-2.0000000000020002e-05,-0.00039967416936015354,0.0006508896931232133,-4.61802251414678e-05
150000000000.0,-1,0.13165427624999998,-0.043767078949999996,0.0210254576,0.06492,-0.039953,0.077726,-0.38723518855,-9.7433971075,1.0421526955,-2.7858,1.4572,-2.4424,-6.999999999990347e-05,-4.999999999988347e-05,2.999999999997449e-05,0.0001428131181580028,0.0009438234337149076,-0.00014299075964263608
150000000000.0,-1,0.13939172309999998,-0.0076099604,0.023408473549999996,0.069192,-0.044245,0.07026,-0.3913834015,-9.742514509,1.049507683,-2.7846,1.4563,-2.4441,-6.0000000000060005e-05,-4.999999999988347e-05,6.0000000000060005e-05,0.0001418840196709681,0.0006559740024973948,-0.00039420988895622067
150000000000.0,-1,0.11390423975,0.00652142225,0.016818404749999998,0.072434,-0.045329,0.060654,-0.3950707019,-9.741533844,1.05715687,-2.7839,1.4555,-2.4453,-9.00000000000345e-05,-5.0000000000105516e-05,9.99999999995449e-06,-0.0012819706229088013,0.00010021587847464097,-0.0005223438652792733
150000000000.0,-1,0.10639234584999999,0.0040011132,0.028351025149999997,0.078881,-0.046438,0.049987,-0.39788521044999997,-9.7404551125,1.0654925224999998,-2.7842,1.4546,-2.4455,-0.00013999999999991797,-5.0000000000105516e-05,4.0000000000040004e-05,-0.0010337846707155762,0.0009908671211538156,-0.0006172432114512905
150000000000.0,-1,0.10492134835,0.021201977299999997,0.01817172245,0.08641,-0.046489,0.038252,-0.39955234095,-9.739376381,1.0745146405,-2.7856,1.4536,-2.4446,-7.00000000000145e-05,-4.999999999988347e-05,4.0000000000040004e-05,-0.0005538434961271932,0.0005875557839916112,-0.0006316079445183309
150000000000.0,-1,0.11339429395,0.019387747049999998,-0.00589379665,0.09601,-0.050825,0.031864,-0.4002486131,-9.738395716,1.0839290245,-2.7879,1.4527,-2.4429,-7.00000000000145e-05,-9.999999999998899e-05,9.99999999995449e-06,-0.0003705129621796033,0.0002678750228173321,-7.676323371019755e-05
150000000000.0,-1,0.11815051919999998,0.0108265416,-0.03288169745,0.10351,-0.053008,0.0212,-0.39992499364999995,-9.737218918,1.0936376079999999,-2.791,1.4518,-2.4402,-0.000160000000000049,-5.0000000000105516e-05,-7.00000000000145e-05,-0.002573160678518427,0.0001003884043244696,-0.0008837041518818811
150000000000.0,-1,0.12753548325,0.0113168741,-0.08355265799999999,0.10672,-0.05729,0.012665,-0.39853244935,-9.736238253,1.103051992,-2.7949,1.4509,-2.4369,-9.99999999995449e-06,-4.999999999988347e-05,0.00012999999999996348,0.0010193651277212723,0.0009025078175883827,-9.072692114608927e-05
150000000000.0,-1,0.1319190558,-0.00683523505,-0.1014399876,0.10778,-0.063683,0.003063,-0.39603175360000004,-9.7353556545,1.112270243,-2.7995,1.4501,-2.4329,-7.00000000000145e-05,-4.999999999988347e-05,-5.500000000002725e-05,-0.0015195429160437257,0.0002029426713541227,-0.0005406883764074166
150000000000.0,-1,0.105519554,-0.03927563325,-0.10106733489999999,0.1025,-0.065757,-0.011893,-0.3925209729,-9.734473055999999,1.1209981615,-2.8048,1.4494,-2.4283,-0.00019000000000002348,-5.0000000000105516e-05,-5.499999999991623e-05,-0.003500435470894736,1.5042833221290408e-06,-0.0017648973939876633
150000000000.0,-1,0.06965663494999999,-0.0769625892,-0.08075776274999999,0.087634,-0.06562,-0.026867,-0.38823546685,-9.733688524,1.1288434815,-2.8103,1.4488,-2.4234,8.000000000008001e-05,-9.999999999998899e-05,0.00010999999999994348,0.0010550597616019175,-0.0005757978895615246,0.000347638506992487
150000000000.0,-1,0.032558078,-0.12942816669999999,-0.06806795765,0.073821,-0.068685,-0.043967,-0.38285161599999995,-9.7331981915,1.1353158705,-2.8163,1.4483,-2.418,-4.0000000000040004e-05,-9.999999999998899e-05,4.999999999999449e-05,-0.001592236765588062,4.964131341211875e-05,-0.0009138058630806523
150000000000.0,-1,-0.0073549875,-0.17468585644999998,-0.044836003799999996,0.05684,-0.066399,-0.058945,-0.37661458659999997,-9.7328059255,1.140513395,-2.8226,1.448,-2.4123,-2.0000000000020002e-05,-9.999999999998899e-05,2.0000000000020002e-05,-0.0005224759270152646,-0.00043809172209163805,-0.00030914592909181415
150000000000.0,-1,-0.0334602898,-0.1966821724,-0.03323473685,0.040899,-0.066254,-0.07178,-0.36950476534999993,-9.732707859,1.1441418554999998,-2.8292,1.4479,-2.4064,-9.99999999995449e-06,-1.999999999990898e-05,8.000000000008001e-05,-0.0006112939487792346,-0.0005099542479258812,-0.000413592850321054
150000000000.0,-1,-0.0332837701,-0.16101538634999998,-0.03911872685,0.024941,-0.066112,-0.081414,-0.3613162126,-9.732707859,1.1462993184999999,-2.8362,1.4479,-2.3999,-6.0000000000060005e-05,-2.0000000000131024e-05,5.999999999994898e-05,-0.0010751277643725743,1.7422580422810086e-05,-0.0008278715969594064
150000000000.0,-1,-0.014337322299999998,-0.09986111694999998,-0.06745994535,0.01644,-0.066034,-0.0889,-0.35212738155,-9.733002058499999,1.146985784,-2.8437,1.4481,-2.3931,-8.999999999992347e-05,-1.999999999990898e-05,9.999999999998899e-05,-0.001451535515170299,-0.0004700156550578871,-0.0003880607804673808
150000000000.0,-1,0.0027262486999999995,-0.01764216335,-0.09280032894999998,0.013241,-0.066007,-0.089974,-0.34239918475,-9.733296258,1.1468877174999998,-2.8515,1.4484,-2.3859,-4.0000000000040004e-05,-2.0000000000131024e-05,0.0001100000000000545,8.134022134154151e-05,-0.0006614097220223325,-0.0002490507504098183
150000000000.0,-1,0.0129643913,0.06281159324999999,-0.11517910425,0.01325,-0.06494,-0.091045,-0.33244543499999996,-9.7337865905,1.1462993184999999,-2.8593,1.4488,-2.3786,-0.00012000000000000899,-1.999999999990898e-05,7.999999999996898e-05,-0.00023378836496590338,-0.001256350438245013,-0.0005676239436009922
150000000000.0,-1,0.01134629405,0.0895151012,-0.1421768117,0.018542,-0.068183,-0.088897,-0.32258975175,-9.73408079,1.1461031855,-2.8672,1.4491,-2.3714,-7.00000000000145e-05,-9.999999999998899e-05,9.999999999998899e-05,0.00017708060030408035,-0.0009870343154130268,-0.00034070406523700747
150000000000.0,-1,-0.00846313895,0.07027445389999999,-0.17224400059999997,0.019578,-0.07139,-0.087822,-0.31310672119999994,-9.7341788565,1.1481625819999999,-2.8754,1.4491,-2.3639,-9.00000000000345e-05,-1.4285714285744433e-05,7.00000000000145e-05,-0.0006874965561811663,-0.00034829406158176646,-0.0006654850008693813
150000000000.0,-1,-0.037481016299999996,0.027772432799999996,-0.187503148,0.017407,-0.075633,-0.088884,-0.30413363644999997,-9.7345711225,1.146789651,-2.8824,1.4495,-2.3576,-0.00011999999999989797,-1.4285714285744433e-05,4.999999999999449e-05,-0.0017402334465748126,-0.0005003839314750014,-0.00162582098275732
150000000000.0,-1,-0.05591751829999999,-0.0057466969,-0.17718655219999999,0.012031,-0.077722,-0.085685,-0.29572933739999996,-9.735061455,1.1452205869999998,-2.8889,1.4499,-2.3518,-6.0000000000060005e-05,-1.4285714285744433e-05,9.00000000000345e-05,0.0007419859179789157,-0.001044755870028391,-0.0004765992823154708
150000000000.0,-1,-0.07943386499999999,-0.011130547749999999,-0.1403920014,0.003484,-0.077652,-0.084628,-0.2877859509,-9.7355517875,1.14345539,-2.895,1.4503,-2.3463,-2.999999999997449e-05,-1.4285714285522388e-05,8.999999999992347e-05,-0.0006528822110505317,-0.0003435456330707076,-0.0007562642927700924
150000000000.0,-1,-0.0928297489,0.011179581,-0.1028129186,-0.009317,-0.075417,-0.082515,-0.2803721235,-9.735944053499999,1.1412979269999999,-2.9007,1.4507,-2.3414,-2.999999999997449e-05,-1.4285714285744433e-05,4.999999999999449e-05,1.0837011505060445e-05,-0.0008949040356303062,-0.0006376229548876733
150000000000.0,-1,-0.09092725880000001,0.004118793,-0.08116964204999999,-0.02425,-0.071036,-0.077206,-0.27343882195,-9.736532452499999,1.1380617325,-2.9058,1.4512,-2.3369,-2.0000000000020002e-05,-1.4285714285744433e-05,4.999999999999449e-05,-0.0011717727865825367,-0.0008877195390941672,-0.0002863819736411699
150000000000.0,-1,-0.08306232549999999,-0.013278204099999998,-0.06119349599999999,-0.040242,-0.064518,-0.069769,-0.26708411275,-9.737218918,1.133452607,-2.9102,1.4518,-2.3332,9.99999999995449e-06,-1.4285714285744433e-05,4.999999999999449e-05,0.00027763212916553925,-0.0012934754902711454,-0.0004518586542281433
150000000000.0,-1,-0.07070594649999999,-0.0667636732,-0.0413056098,-0.055209,-0.061209,-0.059124,-0.26148451559999997,-9.738101516499999,1.1276666835,-2.9137,1.4525,-2.3302,1.0000000000065512e-05,5.0000000000105516e-05,6.0000000000060005e-05,0.00022414975522444536,-0.0007678362301359876,-0.000599717680247025
150000000000.0,-1,-0.0638216782,-0.1071866845,-0.0212804305,-0.063775,-0.056889,-0.046334,-0.25700287655,-9.738984115,1.121096228,-2.9162,1.4532,-2.3283,-4.0000000000040004e-05,4.999999999988347e-05,5.999999999994898e-05,-0.00017096185029075173,-0.0006395583877751854,-0.0009014708291028573
150000000000.0,-1,-0.06002650464999999,-0.10641195914999999,-0.03297976395,-0.068089,-0.05367,-0.032468,-0.25376668204999997,-9.7398667135,1.113839307,-2.9176,1.454,-2.3275,4.0000000000040004e-05,-9.999999999998899e-05,9.00000000000345e-05,0.002401933911193588,-0.0005374621836879978,-0.00028782748587397045
150000000000.0,-1,-0.03498032055,-0.0811009955,-0.04876847045,-0.064907,-0.04838,-0.020729,-0.25143269934999996,-9.7408473785,1.1062881864999998,-2.9181,1.4549,-2.3274,-2.0000000000020002e-05,-2.4999999999941735e-05,6.0000000000060005e-05,0.0004109712670148369,-0.0007551830620569078,-0.00045816303583090523
150000000000.0,-1,-0.0077374468499999995,-0.03309744375,-0.0714120253,-0.060711,-0.049492,-0.008978,-0.2497949888,-9.741729977,1.098933199,-2.9181,1.4556,-2.3279,-4.999999999999449e-05,-2.500000000016378e-05,0.00010999999999994348,0.00017864029555081373,-0.0004495426263835256,-0.0010218340788725744
150000000000.0,-1,-0.0078060934,-0.035882532349999996,-0.0841214437,-0.05542,-0.04848,0.000637,-0.2491281366,-9.742514509,1.0919704774999999,-2.9173,1.4563,-2.3292,-1.0000000000065512e-05,-2.4999999999941735e-05,7.999999999996898e-05,0.00038429402931505763,-0.0007049242470160699,-0.0004896628320101293
150000000000.0,-1,-0.009943943099999998,-0.12953603985,-0.0665283136,-0.057597,-0.047406,0.010238,-0.24953020924999997,-9.743200974499999,1.085007756,-2.9155,1.457,-2.3314,2.0000000000020002e-05,-2.4999999999941735e-05,6.0000000000060005e-05,0.0005590382942122218,-0.00037530397327456555,-0.00014797464718063758
150000000000.0,-1,-0.011503200449999999,-0.2715461385,-0.023908612699999998,-0.062965,-0.04524,0.019832,-0.25080507375,-9.7439855065,1.077946968,-2.913,1.4577,-2.3345,9.99999999995449e-06,-5.0000000000105516e-05,7.00000000000145e-05,-0.0002252839590708433,-0.0002977437178528497,-0.0003109900583386782
150000000000.0,-1,-0.023967452599999998,-0.38978491754999994,0.021682503149999997,-0.071544,-0.045178,0.028357,-0.25315866975,-9.744770038499999,1.0707881135,-2.9094,1.4584,-2.3385,1.0000000000065512e-05,-5.0000000000105516e-05,0.00010999999999994348,-2.345087012667335e-05,2.6570731802122438e-05,-0.000691038057891058
150000000000.0,-1,-0.014298095700000001,-0.40894711165,0.06916630245,-0.083298,-0.04083,0.039004,-0.25639486425,-9.745456504,1.0632369929999999,-2.905,1.459,-2.3434,7.00000000000145e-05,-9.999999999998899e-05,0.00014999999999998348,0.0002793294385163847,0.00022210895026253397,-0.00010882690752667123
150000000000.0,-1,0.01415099595,-0.2962196699,0.08252295975,-0.095028,-0.032222,0.051776,-0.26045481735,-9.746241035999999,1.054999407,-2.8996,1.4598,-2.3492,7.999999999996898e-05,-9.999999999998899e-05,0.0001300000000000745,0.001100347730181639,-0.0003453631758725262,0.00012073066819340283
150000000000.0,-1,0.05955578545,-0.10137134105000001,0.08316039199999999,-0.10039,-0.025803,0.068831,-0.26545620885,-9.747025568,1.0465656879999998,-2.8932,1.4605,-2.3559,6.0000000000060005e-05,-9.999999999998899e-05,0.00021999999999999797,0.0010574332806729814,-0.00029914363637040253,-0.0005902389215108883
150000000000.0,-1,0.11020713269999999,0.1267411446,0.08980930069999998,-0.094027,-0.019481,0.086971,-0.27135981215,-9.7477120335,1.038916501,-2.8861,1.4611,-2.3633,-4.999999999999449e-05,-0.00019999999999997797,0.00023999999999990695,0.0020291546235711166,0.0004513857080372663,-0.00045299211694160846
150000000000.0,-1,0.1753036754,0.377163759,0.06322347254999999,-0.083389,-0.01213,0.10618,-0.2782538871,-9.748202366,1.0321499125,-2.8783,1.4616,-2.3713,-4.0000000000040004e-05,-0.00019999999999997797,0.000200000000000089,0.0013630409934162202,0.0010009596703872692,-0.0008554218245606648
150000000000.0,-1,0.23850753464999996,0.5736694117,0.00556037055,-0.05897,-0.014484,0.12651,-0.2899826405,-9.748594632,1.0257755899999998,-2.8661,1.4619,-2.3837,5.999999999994898e-05,-9.999999999998899e-05,0.00029999999999996696,0.0025533911081971894,0.00046452303795785355,-0.001111160607847106
150000000000.0,-1,0.27598855095,0.61176824695,-0.040246491599999996,-0.027063,-0.015831,0.14471,-0.30351581749999995,-9.7484965655,1.0223432625,-2.853,1.4618,-2.397,0.0001100000000000545,-0.00029999999999996696,0.00010999999999994348,0.00028783424029299454,0.000438278893453381,-0.0002547556948711005
150000000000.0,-1,0.27714573565,0.46053989729999995,-0.0636255452,-0.000507,-0.024585,0.15438,-0.31814733929999994,-9.7481042995,1.021656797,-2.8397,1.4615,-2.4106,2.0000000000020002e-05,-0.00039999999999995595,7.00000000000145e-05,0.0005096285114554178,0.0021446437812882024,4.44849579350759e-06
150000000000.0,-1,0.22882837109999998,0.16305516955,-0.055093759699999995,0.019688,-0.033278,0.15548,-0.32908175404999995,-9.747613967,1.0225393955,-2.8302,1.461,-2.4205,0.00013999999999991797,-0.00029999999999996696,4.999999999999449e-05,0.0005222595816247733,0.0013946071816688388,0.00038887191194647563
150000000000.0,-1,0.17660795985,-0.1612605526,-0.0200644059,0.029269,-0.038681,0.15124,-0.34360540269999995,-9.746829434999999,1.0252852575,-2.8182,1.4603,-2.433,0.00010000000000010001,-0.000300000000000189,-9.99999999995449e-06,0.0009907010416654316,0.0022992351327606464,8.550724330902426e-05
150000000000.0,-1,0.13981340905,-0.41511549449999996,0.0380890286,0.030345,-0.040815,0.14591,-0.35753084569999993,-9.746044903,1.0284233855,-2.807,1.4595,-2.4447,0.00012999999999996348,-0.00029999999999996696,2.0000000000020002e-05,-0.00177203383005331,0.0016919821724112882,-0.00028307929541493415
150000000000.0,-1,0.11080533834999999,-0.5424450381,0.10839290245,0.017585,-0.040701,0.13735,-0.37072078995,-9.745260370999999,1.030678915,-2.7963,1.4589,-2.4558,0.000140000000000029,-0.0004999999999999449,-0.00014999999999998348,-0.0010806937529865834,0.0008559340824241257,-0.0007526752556377136
150000000000.0,-1,0.0994982709,-0.5115344773,0.1581420379,-0.001553,-0.038404,0.12876,-0.38111583895,-9.744671971999999,1.0331305775,-2.7882,1.4583,-2.4644,7.999999999996898e-05,-0.00039999999999995595,-3.0000000000085514e-05,-0.0019199100238278533,0.00027327300517066,-0.0008573009048442604
150000000000.0,-1,0.13644972809999997,-0.40654448239999996,0.20822459944999996,-0.033486,-0.034934,0.1191,-0.39262884605000004,-9.7443777725,1.0307769814999999,-2.7777,1.4581,-2.4754,4.999999999999449e-05,-0.0004999999999999449,0.00010000000000010001,0.0013580008813018907,0.0007785313721646592,-0.0010201585201943253
150000000000.0,-1,0.15511178305,-0.30583018689999997,0.23367285619999997,-0.068607,-0.029308,0.11049,-0.40335732115,-9.7445739055,1.0250891245,-2.7667,1.4582,-2.4867,0.000140000000000029,-0.000300000000000189,0.00015999999999993797,-0.0009481445928489762,0.0017939835843898688,0.0008830229130551981
150000000000.0,-1,0.16848805364999997,-0.22477822465,0.2687806632,-0.10157,-0.022631,0.098677,-0.4129972581,-9.745162304499999,1.0159689399999998,-2.7555,1.4587,-2.4982,0.00017000000000000348,-0.00039999999999995595,0.00019000000000002348,0.0005269508347591767,0.002390209789398412,0.00017669881386894737
150000000000.0,-1,0.15604341479999997,-0.1631434294,0.31126307099999995,-0.12808,-0.013872,0.082595,-0.41821439590000004,-9.7455545705,1.0097907505,-2.7489,1.4591,-2.5051,7.999999999996898e-05,-0.0005999999999999339,0.00024000000000001798,0.000888452554169028,0.0010373971059258746,1.060911201200554e-05
150000000000.0,-1,0.12637829855,-0.12671172465,0.318912258,-0.14395,-0.009459,0.063346,-0.42475543144999994,-9.7467313685,0.9960614404999999,-2.7385,1.4601,-2.5156,7.00000000000145e-05,-0.00039999999999995595,0.00024999999999997247,0.00110699393494329,0.0003836187445394046,-0.00031480389300475586
150000000000.0,-1,0.1056764604,-0.1096775736,0.27768510139999997,-0.15663,-0.008265,0.039839,-0.42918803724999993,-9.748006233,0.9812533989999999,-2.7293,1.4614,-2.525,-8.000000000008001e-05,-0.000600000000000156,7.999999999996898e-05,8.936919889457329e-05,0.0011291084294597908,-0.0006885404623631075
150000000000.0,-1,0.0972623547,-0.08967200759999999,0.2306720213,-0.15973,-0.010347,0.017422,-0.43140434015,-9.7494772305,0.9656804388,-2.7215,1.4627,-2.533,-0.00015999999999993797,-0.00039999999999995595,0.00031999999999998696,0.0024527593084666677,0.0011924016804387705,-0.0010867482860681399
150000000000.0,-1,0.08160113465,-0.0768056828,0.21775666324999998,-0.15857,-0.011403,-0.001793,-0.42980585619999995,-9.7506540285,0.9542066583,-2.7184,1.4639,-2.5362,-0.00024000000000001798,-0.0005999999999999339,0.00021999999999999797,0.000286539782797135,-0.00015392814019876688,-0.0006739936667861102
150000000000.0,-1,0.07478551289999999,-0.053818895199999994,0.21053896884999998,-0.15951,-0.008178,-0.021013,-0.4280798858,-9.7522230925,0.9386827313499999,-2.7137,1.4654,-2.541,-0.00012000000000000899,-0.0004999999999999449,0.00024000000000001798,-0.00047732443667047875,8.584339244377404e-05,0.0003009972618939205
150000000000.0,-1,0.08671039929999999,-0.043355199649999995,0.21534422734999997,-0.16051,-0.009218,-0.038092,-0.4245887184,-9.753890222999999,0.9230999645,-2.7105,1.467,-2.5444,-0.00012999999999996348,-0.00029999999999996696,0.00040000000000006697,0.0026586709738181113,0.0008386602270671339,-0.0008390021772908263
150000000000.0,-1,0.11272744174999999,-0.05854570049999999,0.21652102535,-0.16576,-0.008094,-0.053046,-0.41963636015,-9.755557353499999,0.9071151249999999,-2.7083,1.4687,-2.5467,-0.00019999999999997797,-0.000500000000000167,0.00032999999999994145,0.0014858346606523298,0.0006654951255555819,-0.0008902080530230894
150000000000.0,-1,0.11264898855,-0.08364091785,0.20846976569999998,-0.17313,-0.003761,-0.063749,-0.41102612144999995,-9.7571264175,0.89435667335,-2.7108,1.4703,-2.5442,-0.00024000000000001798,-0.0004999999999999449,0.00034999999999996145,0.0036158703340616327,-0.0008947311417908388,-0.0005855403298256068
150000000000.0,-1,0.10904014135,-0.10811831625,0.22858320484999997,-0.17729,0.003742,-0.072309,-0.40413204649999995,-9.758989681,0.8770871627,-2.7098,1.4722,-2.5452,-0.00021999999999999797,-0.0004999999999999449,0.00034000000000000696,0.0031719777745840005,-0.00044149312884655956,0.0004937971443130795
150000000000.0,-1,0.10554897395,-0.08891689555,0.25604182485,-0.17294,0.009043,-0.08085,-0.39644363289999995,-9.7608529445,0.85995494515,-2.7096,1.4741,-2.5454,-0.00031999999999998696,-0.00039999999999995595,0.0003300000000000525,0.0004307782634800361,-0.0005718368262654927,0.001462951609342511
150000000000.0,-1,0.10466637545,-0.04470851735,0.26684875314999995,-0.1686,0.012208,-0.086193,-0.38568573785,-9.762225875499999,0.8487067175999999,-2.7151,1.4756,-2.5398,-0.0003500000000000725,-0.000400000000000178,0.00029999999999996696,-0.00047989365726142097,0.00011292719199640366,-0.0010201269464880092
150000000000.0,-1,0.10629427934999999,0.00318716125,0.24507799014999998,-0.15787,0.016384,-0.089392,-0.3745944167,-9.7635988065,0.8380076624499999,-2.7212,1.4771,-2.5335,-0.00034000000000000696,-0.0004999999999999449,0.00036000000000002697,0.0024528740361375867,0.0007884924609082855,-0.0003371992030729576
150000000000.0,-1,0.10121443464999999,0.0026576021499999996,0.24548006279999998,-0.14929,0.018448,-0.093658,-0.36322850935,-9.764873670999998,0.8281715924999999,-2.7283,1.4785,-2.5263,-9.999999999998899e-05,-0.00029999999999996696,0.00039999999999995595,0.0027755124377817353,-0.0011341115860588058,0.0006985616544286088
150000000000.0,-1,0.0834938181,-0.027733206199999996,0.24677454059999998,-0.14391,0.020535,-0.094726,-0.35209796159999995,-9.766050469,0.8189435348499999,-2.7355,1.4798,-2.5188,-0.00031999999999998696,-0.0004999999999999449,0.00034000000000000696,0.0014745070996102783,-0.0006179522576357233,-0.0008089596787455022
150000000000.0,-1,0.06940166205,-0.07854145985,0.26137664245,-0.14065,0.026901,-0.094737,-0.34130083995,-9.7671292005,0.81017638975,-2.7429,1.481,-2.5112,-0.00042999999999993044,-0.000600000000000156,0.00040000000000006697,0.0030336672771777984,-0.0011516729158678185,4.629633603459027e-05
150000000000.0,-1,0.06338037895,-0.10309731144999999,0.28175486115,-0.13844,0.037533,-0.08942,-0.33108231065,-9.768207932,0.8019191904499999,-2.7501,1.4822,-2.5037,-0.000520000000000076,-0.0006999999999999229,0.00031999999999998696,0.00043117366497469334,-0.0018573679770048646,0.0010542461832276917
150000000000.0,-1,0.07638399685,-0.10187148019999999,0.3073011844,-0.13308,0.042809,-0.083021,-0.32133450054999996,-9.7690905305,0.79462304285,-2.7573,1.4833,-2.4961,-0.00034999999999996145,-0.00039999999999995595,0.00039000000000000146,0.0010727780709336443,-0.0005446885528126444,0.0006388565984740691
150000000000.0,-1,0.08417047695,-0.0964189828,0.32438436870000004,-0.12771,0.051279,-0.073426,-0.31237122245,-9.769973129,0.7881702671499999,-2.7643,1.4842,-2.4886,-0.00043000000000004146,-0.0004999999999999449,0.00037999999999993594,0.0015185756188369481,-0.0009905346322109931,-0.000428125693521908
150000000000.0,-1,0.09199618365,-0.07202003759999999,0.30663433219999997,-0.12021,0.059729,-0.06276,-0.30432976945,-9.7706595945,0.7818253646,-2.7704,1.4851,-2.482,-0.00034000000000000696,-0.000500000000000167,0.00048000000000003595,0.00264144958951551,-0.0002343185284370275,0.0008733971758791981
150000000000.0,-1,0.08498442889999999,-0.006080123,0.27149710525,-0.1138,0.067123,-0.051026,-0.2977691206,-9.771346059999999,0.7756667883999999,-2.7751,1.486,-2.4766,-0.00030999999999992145,-0.0004999999999999449,0.00043999999999999595,-0.0006510250304874177,-0.0011752977622270233,-0.00025991722807217066
150000000000.0,-1,0.09163333759999999,0.09971401719999999,0.23677175759999997,-0.099918,0.074453,-0.038213,-0.2924539163,-9.772032525499998,0.7701358378,-2.7787,1.4867,-2.4723,-0.0005600000000000049,-0.0006999999999999229,0.00036000000000002697,0.0034203881936303304,-0.000744984359562384,-0.0009364334489583293
150000000000.0,-1,0.0988118054,0.24024331169999996,0.20457652565,-0.084982,0.082837,-0.022197,-0.28856067625,-9.772424791499999,0.7656738120499998,-2.7812,1.4873,-2.469,-0.0007200000000000539,-0.000700000000000145,0.00029999999999996696,-0.0008920618144419024,0.00022965219197046416,0.0011054220360591227
150000000000.0,-1,0.11496335795,0.3735549118,0.20065386564999999,-0.066844,0.091194,-0.006177,-0.2860011406,-9.772718991,0.7630162099,-2.783,1.4876,-2.4664,-0.0005100000000000104,-0.0007999999999999119,0.00026999999999999247,0.0012063502080916777,-0.0012291484015600762,0.0013918813074327296
150000000000.0,-1,0.1446873141,0.45994169164999993,0.1932498449,-0.042355,0.095233,0.013062,-0.28474588939999995,-9.7728170575,0.7627808503,-2.7843,1.4877,-2.4641,-0.0004899999999999904,-0.0006999999999999229,0.00043999999999999595,0.002865109682606004,-0.0004127656881440789,0.0009339189026587036
150000000000.0,-1,0.18060907304999999,0.5144568589999999,0.15485681015,-0.016787,0.10033,0.031231,-0.28460859629999996,-9.772718991,0.7642126211999999,-2.7851,1.4875,-2.4624,-0.00036000000000002697,-0.000600000000000156,0.00038000000000004697,-0.0009838650893829737,-0.0006371653106873598,0.0012920642865905663
150000000000.0,-1,0.19586822045,0.51427053265,0.13416477864999998,0.011986,0.1054,0.048336,-0.28595210735,-9.772326725,0.7679979880999999,-2.7852,1.4871,-2.4613,-0.0005100000000000104,-0.0007999999999999119,0.00048000000000003595,0.002285882327609734,0.0004820623576076155,-0.0007918168034042328
150000000000.0,-1,0.21710942434999997,0.42524576394999997,0.13345869985,0.040745,0.10941,0.06439,-0.29267946925,-9.771934458999999,0.7710968895,-2.7788,1.4866,-2.4665,-0.0006699999999999484,-0.0008999999999999009,-5.0000000000105516e-05,-0.0006734223312863108,-0.0009494731841945825,0.0008054713552909654
150000000000.0,-1,0.2056650638,0.21032322255,0.1379403389,0.057799,0.11458,0.076152,-0.30069150229999997,-9.7712479935,0.77604924775,-2.7719,1.4858,-2.4723,-0.0006000000000000449,-0.0009000000000001229,2.0000000000020002e-05,-0.0018526463684107597,0.0014877735315776963,0.0011603514559452854
150000000000.0,-1,0.18374720105,-0.06516518924999999,0.14826674135,0.066277,0.11344,0.085775,-0.30974304025,-9.7704634615,0.7820313042499999,-2.7645,1.4849,-2.4787,-0.00044999999999995044,-0.0008999999999999009,0.00021999999999999797,0.002105352200185706,0.0009573983824253673,0.0010598104516283957
150000000000.0,-1,0.1663992372,-0.31945162374999997,0.17551942169999998,0.064144,0.11771,0.09429,-0.31633310905,-9.769580863,0.7911318754499999,-2.7612,1.4838,-2.4808,-0.00048000000000003595,-0.0009000000000001229,0.0001300000000000745,2.8556410498481455e-06,0.00045247895052358267,0.0017649218526976096
150000000000.0,-1,0.15182655529999997,-0.44663406759999996,0.21698193789999998,0.048172,0.12636,0.10172,-0.3270517775,-9.768796330999999,0.7959175206499999,-2.7517,1.4829,-2.4891,-0.00034999999999996145,-0.0009999999999998899,0.00021999999999999797,-0.001784430617882471,0.00021681429761777338,0.00023338800203442922
150000000000.0,-1,0.1673210623,-0.38982414415,0.2650933628,0.032215,0.1382,0.11128,-0.3388001442,-9.768207932,0.79897719545,-2.7405,1.4822,-2.499,-0.0005199999999999649,-0.0009000000000001229,3.999999999992898e-05,-0.004062009011041923,0.0012288977961520953,0.0007483549381730459
150000000000.0,-1,0.20564545049999997,-0.1373519399,0.29289521555,0.01524,0.15751,0.12295,-0.3516860823,-9.767619533,0.80035012645,-2.7276,1.4815,-2.5105,-0.000520000000000076,-0.0010999999999998789,9.999999999998899e-05,-0.0008137701249957274,0.0012516202374783791,0.0015952747575576076
150000000000.0,-1,0.26484819654999997,0.21803124945,0.2723895104,0.011021,0.17137,0.13892,-0.3607670402,-9.766736934499999,0.8072442014,-2.7213,1.4805,-2.5151,-0.0006099999999999994,-0.001100000000000101,0.000160000000000049,0.00027892997444034506,0.0006733565483347803,0.0011811487058539516
150000000000.0,-1,0.34243841134999997,0.5789061628,0.22703375415,0.014235,0.18305,0.15491,-0.37700685259999994,-9.766050469,0.80770511395,-2.7049,1.4798,-2.5298,-0.0006499999999999284,-0.0011999999999998678,0.00027999999999994696,0.0014768624012484466,0.0013829396255404802,0.001504653616800855
150000000000.0,-1,0.41368372359999994,0.83614439895,0.16476152665,0.035538,0.18925,0.17202,-0.3949726354,-9.7651678705,0.80982335035,-2.6878,1.4788,-2.5451,-0.0006500000000000394,-0.001100000000000101,0.00036000000000002697,0.0004535095981541559,0.0012693311973110966,0.0012274213116367783
150000000000.0,-1,0.47295511619999997,0.9433997299999999,0.0956736774,0.069656,0.19429,0.18488,-0.41429173589999996,-9.7639910725,0.81502087485,-2.6713,1.4774,-2.5597,-0.0006300000000000194,-0.0011999999999998678,2.999999999997449e-05,-0.00023760222534274789,0.002314014653562513,0.001831161659436864
150000000000.0,-1,0.48120250885,0.7779223178999999,0.048640984,0.10906,0.1865,0.18816,-0.43421884869999994,-9.762323942,0.82404299285,-2.6566,1.4757,-2.5725,-0.0007199999999999429,-0.0014000000000000679,-0.00015999999999993797,-0.002659506487372454,0.0003071124307045814,0.0016293963188360738
150000000000.0,-1,0.4511255133,0.41602751295,0.006913688249999999,0.13352,0.1767,0.18818,-0.44454525115,-9.760754877999998,0.8370368040999999,-2.6534,1.474,-2.5741,-0.0008700000000000374,-0.0013000000000000789,4.999999999999449e-05,0.00027127133633353395,0.0027780801353953777,-0.0004855923385673755
150000000000.0,-1,0.40069971899999995,-0.052406737599999996,0.014258869099999998,0.14092,0.16279,0.17968,-0.46369763859999996,-9.7586954815,0.8500502286499999,-2.6422,1.4719,-2.5836,-0.0007300000000000084,-0.0017000000000000348,-0.0003300000000000525,-0.0005304943175961085,0.0014923995125721845,0.003020199528897649
150000000000.0,-1,0.35077406385,-0.4470459469,0.0645473703,0.13559,0.15645,0.16794,-0.48171245464999995,-9.7567341515,0.8627498403999999,-2.6324,1.4699,-2.592,-0.0005499999999999394,-0.0013999999999998458,-0.00020999999999993246,-6.623362493130003e-06,0.001963711729542572,0.001957070080304879
150000000000.0,-1,0.31618600929999996,-0.6531130833500001,0.1610644196,0.11216,0.1524,0.15296,-0.4984425995499999,-9.754968954499999,0.87368425515,-2.6231,1.468,-2.5997,-0.0005800000000000249,-0.0014000000000000679,-9.00000000000345e-05,-0.0012594344888938735,0.0024616053987172037,0.0027883560085486536
150000000000.0,-1,0.30011290995,-0.6181621827499999,0.28667779945,0.073885,0.15912,0.14005,-0.5070626449,-9.753399890499999,0.88604063415,-2.6218,1.4665,-2.5995,-0.0005800000000000249,-0.0015000000000000568,-5.999999999994898e-05,-0.0016303790494802683,0.001123549981126848,0.0004672828811036478
150000000000.0,-1,0.31131210425,-0.37324109899999997,0.36813183435,0.036701,0.17222,0.12929,-0.5213999671999999,-9.752321159,0.88957102815,-2.6114,1.4655,-2.6083,-0.0007899999999999574,-0.0016000000000000458,-0.00021000000000004349,-0.005437334397018212,0.001588380447475668,0.0012994976075673126
150000000000.0,-1,0.36120833944999997,-0.037834055699999994,0.37689897945,0.01552,0.18732,0.12175,-0.5350900506,-9.751438560499999,0.8905320798499999,-2.6005,1.4647,-2.6174,-0.0006599999999999939,-0.0018000000000000238,-0.00019999999999997797,0.00013583641992553908,0.0018957928415059833,0.0018780324454081843
150000000000.0,-1,0.42033263229999995,0.26890814965,0.3449587204,0.013443,0.19373,0.12067,-0.54857419435,-9.7506540285,0.8907478261499999,-2.5896,1.4639,-2.6264,-0.0007500000000000284,-0.0015999999999998238,0.00017999999999995797,0.0016783674901015289,0.0032960835947744016,0.0026891381345461873
150000000000.0,-1,0.4776623082,0.43105130075,0.25058932744999995,0.018784,0.18942,0.11638,-0.5506826241,-9.7498694965,0.8983283666,-2.5917,1.4631,-2.6226,-0.0008900000000000574,-0.0017000000000000348,7.00000000000145e-05,-0.0009969274683507834,4.905418359779645e-05,0.0009188155923716135
150000000000.0,-1,0.5027477188999999,0.38680369594999997,0.1398624423,0.028324,0.17763,0.11001,-0.56320571615,-9.748986898,0.8998189773999999,-2.5823,1.4623,-2.6301,-0.0010299999999999754,-0.0018000000000000238,-0.00017999999999995797,-0.0022734023017969562,0.000375264203231529,0.0006865049288848901
