Time,placement_label,user_acc_x(m/s^2),user_acc_y(m/s^2),user_acc_z(m/s^2),rotation_rate_x(rad/s),rotation_rate_y(rad/s),rotation_rate_z(rad/s),gravity_x(m/s^2),gravity_y(m/s^2),gravity_z(m/s^2),attitude_roll(rad),attitude_pitch(rad),attitude_yaw(rad),target_delta_x,target_delta_y,target_delta_z,target_delta_roll,target_delta_pitch,target_delta_yaw
150000000000.0,1,0.01568083335,-0.08719092514999999,0.027644946349999998,-0.0016,0.029955,-0.024188,-1.4517764659999999,-9.5243165465,1.8303131559999999,-2.471,1.3303,2.74,0.0,0.0,0.0,0.0,0.0,0.0
150000000000.0,1,0.01511204765,-0.08995640045,0.020721451449999997,0.004786,0.026708,-0.026307,-1.4492267369999998,-9.524708812499998,1.8303131559999999,-2.4719,1.3304,2.7412,-4.999999999999449e-05,0.00010000000000021103,-4.999999999999449e-05,0.00013513058513114906,0.0001411580815371405,0.000546639466337151
150000000000.0,1,0.022368968649999998,-0.0772175621,0.01915238745,0.010132,0.026666,-0.028434,-1.4464808749999998,-9.525003011999999,1.8308034884999997,-2.4729,1.3306,2.7425,6.0000000000060005e-05,9.999999999976694e-05,9.00000000000345e-05,-0.0010967202189859915,0.00046623077266749746,-0.00042377745225286034
150000000000.0,1,0.010600988649999999,-0.07771770125,0.02372228635,0.013355,0.028771,-0.029501,-1.4438330794999998,-9.5252972115,1.831686087,-2.474,1.3307,2.744,-4.500000000007276e-05,0.00019999999999997797,3.999999999992898e-05,0.00012220544925267696,-0.00046898530240535585,0.000552715859623909
150000000000.0,1,0.012650578499999999,-0.057663101999999994,0.0136508568,0.017614,0.02767,-0.029493,-1.4412833504999998,-9.525395278,1.832862885,-2.4752,1.3307,2.7455,-4.499999999996174e-05,0.00010000000000021103,-8.999999999992347e-05,9.336183542796306e-05,-0.0007892937830142888,0.0006325274483307552
150000000000.0,1,0.02099603765,-0.02942975665,-0.0059624432,0.023965,0.023352,-0.026274,-1.4386355549999998,-9.5254933445,1.8344319489999998,-2.4765,1.3308,2.747,-4.0000000000040004e-05,9.999999999976694e-05,4.999999999999449e-05,0.00039918704305508257,-0.00011352722314694752,0.00014141473120110604
150000000000.0,1,0.031969678999999994,-0.0152591474,-0.0024124359,0.030369,0.024363,-0.025199,-1.4359877595,-9.5254933445,1.8366874785,-2.478,1.3308,2.7488,-9.999999999998899e-05,4.999999999988347e-05,-0.0001300000000000745,0.00021775080376840172,-0.0007080983301310795,0.001151092092707362
150000000000.0,1,0.0309301741,0.005021004799999999,-0.00887501825,0.038881,0.02216,-0.024115,-1.4336341634999998,-9.5252972115,1.8397275399999997,-2.4796,1.3307,2.7507,-9.99999999995449e-06,5.000000000032756e-05,-1.999999999990898e-05,-7.429870126118843e-05,-0.0004961298632966127,0.00014146157553263095
150000000000.0,1,0.026115108949999997,0.0183580488,-0.0136900834,0.046341,0.023161,-0.020903,-1.4316728335,-9.524806879,1.843454067,-2.4813,1.3305,2.7526,1.4999999999987246e-05,9.999999999976694e-05,-2.4999999999941735e-05,-0.0005990404975577679,-0.0003220207642711248,-9.500395781669724e-05
150000000000.0,1,0.03296015065,-0.0122583125,-0.0235751866,0.051631,0.02098,-0.015555,-1.42980957,-9.5243165465,1.8476709264999998,-2.483,1.3302,2.7546,1.4999999999987246e-05,0.00010000000000021103,-2.5000000000052758e-05,-0.0009630101594200191,-0.00018957646370165726,-4.745816247497814e-05
150000000000.0,1,0.02295736765,-0.0256149698,-0.0344213415,0.057994,0.017728,-0.013405,-1.4283385725,-9.523630081,1.8520839189999998,-2.4846,1.33,2.7565,-9.999999999998899e-05,9.999999999976694e-05,-6.0000000000060005e-05,-0.00034039085822668014,-0.0006088164730337908,0.0005624360973697229
150000000000.0,1,0.01887780125,-0.0320873588,-0.03872646085,0.057952,0.016656,-0.007,-1.427455974,-9.522845549,1.856791111,-2.4862,1.3296,2.7583,-0.000140000000000029,0.00010000000000021103,-9.00000000000345e-05,-0.0031650395720046465,-0.004328468750214087,0.005117712053846812
150000000000.0,1,0.01583773975,-0.0274193934,-0.03937369975,0.060073,0.016637,-0.004862,-1.4269656414999998,-9.521962950499999,1.861694436,-2.4876,1.3293,2.76,0.0005500000000000504,-0.001200000000000312,0.0006200000000000649,0.020422228298090372,-0.009295641808743094,0.011977414933505237
150000000000.0,1,0.02023111895,-0.0161221326,-0.02886097095,0.061112,0.016622,0.000475,-1.4268675749999997,-9.520982285499999,1.8666958274999998,-2.489,1.3289,2.7615,4.999999999999449e-05,0.00020000000000042206,-9.99999999995449e-06,-0.0005635747781578271,0.0006319561154137787,0.00039109406737258823
150000000000.0,1,0.0264583417,-0.026870220999999996,-0.0240655191,0.062167,0.016611,0.00261,-1.4267695085,-9.5200016205,1.8719914185,-2.4903,1.3284,2.7631,-0.000140000000000029,9.999999999976694e-05,-1.0000000000065512e-05,-0.002354710666896187,-9.17127091613068e-05,0.0006472225221321182
150000000000.0,1,0.01826978895,-0.044973296899999994,-0.034127142,0.05895,0.018762,0.009004,-1.4273579075,-9.518922888999999,1.8767966769999997,-2.4914,1.328,2.7643,4.999999999999449e-05,0.0005999999999999339,2.0000000000020002e-05,-0.000706645028413444,0.0010156501579927646,0.0005263554696077755
150000000000.0,1,0.015229727449999998,-0.05759445544999999,-0.04311984005,0.062115,0.016602,0.012214,-1.428436639,-9.517844157499999,1.8816019355,-2.4923,1.3275,2.7654,-0.0006500000000000394,0.0005999999999999339,-0.0006599999999999939,-0.019246590061414715,0.013255595756597849,-0.017897141917935677
150000000000.0,1,0.02336924695,-0.0375986961,-0.0502688879,0.058879,0.014494,0.015413,-1.4297115034999999,-9.516765426,1.886211061,-2.493,1.327,2.7663,-5.000000000032756e-06,0.00010000000000021103,-5.000000000032756e-06,-0.000509325795812865,0.00026087126506202374,-0.00017338062241645247
150000000000.0,1,0.0295180165,-0.0200644059,-0.06385109815,0.053513,0.013468,0.019674,-1.4311825009999999,-9.515784760999999,1.8902317874999999,-2.4935,1.3266,2.767,-4.999999999921734e-06,4.999999999988347e-05,-5.000000000032756e-06,7.969153548370578e-05,0.0008915594078298117,0.000602654476493214
150000000000.0,1,0.0337544893,-0.009718390149999999,-0.061173882699999994,0.044964,0.013536,0.021792,-1.4328496314999999,-9.514902162499999,1.8933699155,-2.4938,1.3262,2.7674,-4.999999999999449e-05,4.999999999988347e-05,-1.999999999990898e-05,-0.0002307912944177204,0.000270335792313281,-0.00011356167827170083
150000000000.0,1,0.024820631149999998,-0.0050013915,-0.0264583417,0.032169,0.014707,0.021766,-1.434712895,-9.514019564,1.896017711,-2.4938,1.3259,2.7676,-4.0000000000040004e-05,0.00010000000000021103,9.99999999995449e-06,-0.0002781202188046894,-0.00021234280961390795,8.333098248058946e-05
150000000000.0,1,0.0126309652,-0.022555295,-0.0226337482,0.02258,0.015852,0.020679,-1.4367722914999999,-9.513431164999998,1.897782908,-2.4936,1.3256,2.7675,-1.0000000000065512e-05,9.999999999976694e-05,2.0000000000020002e-05,-0.00042515198417514277,0.0003683049200537969,-0.0005363414195542759
150000000000.0,1,0.014866881399999999,-0.02662505475,-0.014896301349999998,0.014045,0.015923,0.020663,-1.4386355549999998,-9.5129408325,1.8986655065,-2.4932,1.3254,2.7673,-9.99999999995449e-06,0.00010000000000021103,-4.0000000000040004e-05,0.0008094474741660029,0.000492279863370193,0.0006286766303849056
150000000000.0,1,0.02291814105,-0.03411733535,-0.029017877349999995,0.009798,0.01809,0.019583,-1.440400752,-9.512646633,1.8988616394999998,-2.4926,1.3253,2.7669,4.0000000000040004e-05,5.000000000032756e-05,-2.0000000000020002e-05,0.00019673794487595764,0.00013567729405883355,5.2746228357936076e-05
150000000000.0,1,0.033764295949999995,-0.0485233042,-0.05257345065,0.00977,0.014893,0.019587,-1.4419698159999998,-9.5124505,1.8986655065,-2.492,1.3252,2.7664,1.0000000000065512e-05,4.999999999988347e-05,1.0000000000065512e-05,-0.0002526219103589078,0.0009276587070132791,0.0001879911236404297
150000000000.0,1,0.0355981395,-0.034391921549999996,-0.09427132645,0.012921,0.008474,0.018534,-1.443342747,-9.5123524335,1.8979790409999997,-2.4914,1.3252,2.7659,4.999999999999449e-05,9.999999999976694e-05,7.00000000000145e-05,-0.0002644993906906201,0.0007427363613101701,-0.0011082174999401673
150000000000.0,1,0.0408741172,-0.02791953255,-0.09954730415,0.016093,0.004188,0.01641,-1.4445195449999997,-9.512254366999999,1.897782908,-2.491,1.3251,2.7655,1.999999999990898e-05,0.00010000000000021103,-2.0000000000020002e-05,2.3569419161484362e-05,0.0004764340808225409,0.00045001656347665175
150000000000.0,1,0.03192064575,-0.021682503149999997,-0.0984979926,0.012908,0.005282,0.014266,-1.4454021435,-9.5121563005,1.8972925754999999,-2.4906,1.3251,2.7652,-5.000000000032756e-06,9.999999999976694e-05,3.999999999992898e-05,4.341179318201327e-05,-9.968513857794292e-05,-4.4410341023759514e-05
150000000000.0,1,0.016612465099999998,-0.031038047249999996,-0.09285916884999999,0.003306,0.003235,0.009982,-1.446284742,-9.512254366999999,1.8963119104999997,-2.49,1.3251,2.7647,-4.999999999921734e-06,5.000000000032756e-05,2.0000000000020002e-05,0.0009926232875578922,0.0006524338188085288,-0.0005264281564474338
150000000000.0,1,0.025144250599999998,-0.06832293055,-0.0583299542,-0.007363,0.002259,0.007828,-1.4465789414999999,-9.5125485665,1.89464478,-2.4895,1.3253,2.7642,9.00000000000345e-05,4.999999999988347e-05,9.999999999998899e-05,0.0007946025958414094,-0.0006309162871827034,0.0005888300485463738
150000000000.0,1,0.02686041435,-0.07863952635,-0.0324600115,-0.020174,0.000236,0.005673,-1.4465789414999999,-9.5129408325,1.8922911839999998,-2.4889,1.3255,2.7636,-7.00000000000145e-05,9.999999999976694e-05,3.0000000000085514e-05,-0.0005880026443980668,-0.0005094426105609617,-0.00043815015937020974
150000000000.0,1,0.0241047457,-0.0796103847,-0.01581812645,-0.030796,0.005652,0.004576,-1.4465789414999999,-9.513627298,1.888956923,-2.4881,1.3257,2.7627,-6.0000000000060005e-05,0.00010000000000021103,2.999999999997449e-05,-6.392440263258692e-05,6.87629487561292e-05,0.00011978655611155631
150000000000.0,1,0.01660265845,-0.06577320155,-0.012425025549999998,-0.038275,0.00252,0.001364,-1.4463828085000001,-9.5145098965,1.8850342629999999,-2.4871,1.3261,2.7618,-7.00000000000145e-05,3.333333333310762e-05,-2.0000000000020002e-05,0.000579830228232936,-0.0006377204133820591,-0.00038373206820718764
150000000000.0,1,0.023712479699999997,-0.043884758749999996,-0.015367020549999999,-0.041427,0.006811,-0.001852,-1.4458924759999998,-9.515392495,1.8806212704999998,-2.4861,1.3265,2.7609,-8.999999999992347e-05,3.333333333355171e-05,-9.99999999995449e-06,-0.0005330172505710884,-0.000626709159378791,0.0004441814307161174
150000000000.0,1,0.02442836515,-0.03870684755,-0.019789819699999996,-0.039321,0.001469,-0.005043,-1.4451079439999999,-9.51637316,1.8762082779999998,-2.4853,1.3269,2.76,-2.999999999997449e-05,3.333333333310762e-05,1.999999999990898e-05,0.00031090157203905733,8.093255749219708e-05,0.00016806673025637764
150000000000.0,1,0.020848937899999996,-0.03284247085,-0.023545766649999997,-0.034003,-0.001769,-0.007164,-1.4440292124999998,-9.517353824999999,1.872285618,-2.4846,1.3273,2.7593,9.99999999995449e-06,0.00010000000000021103,1.0000000000065512e-05,0.00011097806179005687,0.00010852883388601242,-0.00015607998909583642
150000000000.0,1,0.023732092999999996,-0.06443949715,-0.0293611101,-0.028691,-0.005009,-0.008219,-1.442754348,-9.5182364235,1.8688532904999997,-2.4842,1.3277,2.7588,-0.0001100000000000545,4.999999999988347e-05,-2.999999999997449e-05,0.0003525067178344887,-0.0013604261269446472,0.0010216168756795874
150000000000.0,1,0.024389138549999998,-0.08036549674999999,-0.04221762824999999,-0.021262,-0.010397,-0.009266,-1.441185284,-9.5190209555,1.865813229,-2.4839,1.328,2.7584,0.00029000000000001247,4.999999999988347e-05,0.00018999999999991246,-0.00039372033565387987,0.0006650372414804817,1.459096455302955e-05
150000000000.0,1,0.0121014061,-0.0718435179,-0.033126863699999995,-0.019146,-0.013609,-0.011392,-1.4395181535,-9.5198054875,1.8633615665,-2.4838,1.3283,2.7582,-9.999999999998899e-05,4.999999999988347e-05,-5.999999999994898e-05,0.00025178313816587305,-0.0017791690064825616,0.000675669004065238
150000000000.0,1,0.004501252349999999,-0.05781020175,-0.0212412039,-0.019112,-0.012538,-0.016732,-1.4375568234999998,-9.520491952999999,1.8612041034999998,-2.4839,1.3286,2.7582,4.0000000000040004e-05,5.000000000032756e-05,7.00000000000145e-05,0.0002727279684007211,0.0001963067995061074,-0.00029827881586053095
150000000000.0,1,0.006148769549999999,-0.037686955949999996,-0.0058055367999999994,-0.018049,-0.013612,-0.017796,-1.435497427,-9.5211784185,1.8593408399999998,-2.4841,1.3289,2.7583,9.99999999995449e-06,4.999999999988347e-05,2.0000000000020002e-05,0.0004264261077426834,-0.0004439142153689346,0.00021144781188020545
150000000000.0,1,0.0049229383,-0.0298710559,0.007178467799999999,-0.019116,-0.013603,-0.017799,-1.433339964,-9.5217668175,1.8577717759999999,-2.4844,1.3292,2.7584,-5.000000000032756e-06,4.999999999988347e-05,3.999999999992898e-05,-0.00021857847024620014,0.0003460633538026059,-0.0006682532456681045
150000000000.0,1,0.0012650578499999998,-0.03635325154999999,0.00787473995,-0.02338,-0.012503,-0.016741,-1.4313786339999999,-9.522551349499999,1.8557123795,-2.4846,1.3295,2.7584,-4.999999999921734e-06,0.00010000000000021103,1.0000000000065512e-05,0.00033621584196241727,-0.0006945951338219736,6.931957813050005e-05
150000000000.0,1,-0.0006276255999999999,-0.022202255599999998,0.0008237585999999999,-0.022305,-0.011447,-0.016741,-1.4295153705,-9.523237815,1.853652983,-2.4847,1.3298,2.7584,9.99999999995449e-06,4.999999999988347e-05,1.999999999990898e-05,0.0005526963464252965,-0.00018885411472702174,-0.00014161150819491652
150000000000.0,1,0.0090613446,-0.00583495675,0.004834678449999999,-0.022321,-0.01145,-0.013539,-1.427652107,-9.523826214,1.8516916529999998,-2.4848,1.3301,2.7584,0.000160000000000049,4.999999999988347e-05,0.0001500000000000945,-0.00023237090621908152,-0.0006782979446546822,0.00046340103228814655
150000000000.0,1,0.02358499325,0.0178284897,0.006462582349999999,-0.023381,-0.009312,-0.011411,-1.4259849765000001,-9.524414613,1.8498283894999998,-2.4849,1.3303,2.7584,-2.999999999997449e-05,4.999999999988347e-05,-4.999999999999449e-05,0.00029804899027796594,-0.00021333074544438446,-0.0002730905214582968
150000000000.0,1,0.03805960865,0.0463658412,-0.00041187929999999997,-0.021265,-0.00827,-0.006074,-1.4246120455,-9.525003011999999,1.8479651259999998,-2.4849,1.3306,2.7583,0.00020999999999993246,5.000000000032756e-05,0.00012999999999996348,0.0010422577320885473,0.00036636370290654696,-0.0007535865223551319
150000000000.0,1,0.050062948249999996,0.0491117032,-0.0036873003999999994,-0.020259,-0.012547,-0.00073,-1.4234352474999998,-9.5254933445,1.8462979954999998,-2.4848,1.3308,2.7581,-7.999999999996898e-05,4.999999999988347e-05,-4.999999999999449e-05,-2.2927855191756663e-05,0.00030369422404685764,-0.00017555660507584392
150000000000.0,1,0.0542307745,0.029920089149999995,0.009992976349999998,-0.021346,-0.012543,0.003536,-1.4226507154999999,-9.5258856105,1.8447289315,-2.4847,1.3309,2.7578,-9.99999999995449e-06,4.999999999988347e-05,2.0000000000020002e-05,-0.00022281971766080488,-0.00015999786687403983,-0.00010929339779686131
150000000000.0,1,0.0437180457,-0.00893385815,0.01269961175,-0.02028,-0.009361,0.008867,-1.4224545825000001,-9.5262778765,1.8431598675,-2.4843,1.3311,2.7573,2.999999999997449e-05,5.000000000032756e-05,7.00000000000145e-05,-0.00013970536837293324,-0.00014874036914558353,-0.00010060293835278955
150000000000.0,1,0.03772618255,-0.0420313019,0.028292185249999997,-0.022463,-0.013609,0.01207,-1.4226507154999999,-9.526572075999999,1.8415908035,-2.4838,1.3312,2.7567,-0.00019999999999997797,4.999999999988347e-05,-0.0001100000000000545,0.00043304397306398457,-0.0005095029680945995,-0.0003560821371935141
150000000000.0,1,0.028351025149999997,-0.06977431475,0.0310870805,-0.022467,-0.011483,0.016334,-1.4232391145,-9.526768209,1.8398256064999998,-2.4832,1.3313,2.7558,0.00012999999999996348,4.999999999988347e-05,0.00014999999999998348,0.00035842559584953193,0.0006514407293853886,-0.00032373493364978856
150000000000.0,1,0.02285930115,-0.06722458575,0.048356591149999996,-0.022496,-0.014681,0.017406,-1.4240236465,-9.526964342,1.8384526755,-2.4825,1.3314,2.755,2.0000000000020002e-05,4.999999999988347e-05,4.999999999999449e-05,1.553691482403252e-05,7.000264218026686e-05,-0.00018910740420974292
150000000000.0,1,0.025507096649999998,-0.052083118149999996,0.038226321699999996,-0.024648,-0.015731,0.019537,-1.425102378,-9.527160475,1.8366874785,-2.4817,1.3315,2.754,-7.00000000000145e-05,2.4999999999941735e-05,1.0000000000065512e-05,0.00019214761633512545,1.2305100382858924e-05,-0.0003387747303298383
150000000000.0,1,0.03413694865,-0.0015592573499999998,0.030175062049999996,-0.021457,-0.01576,0.021676,-1.4261811094999999,-9.527160475,1.8353145475,-2.481,1.3315,2.7531,-0.0001100000000000545,2.4999999999941735e-05,-7.00000000000145e-05,-1.0512652816707657e-05,4.258831804238028e-05,-0.0002827503187825542
150000000000.0,1,0.055427185799999994,0.041335029749999995,0.023026014199999997,-0.021453,-0.014696,0.022739,-1.4273579075,-9.527356608,1.8339416165,-2.4802,1.3315,2.7522,-9.99999999995449e-06,2.5000000000385825e-05,2.999999999997449e-05,0.0003957222773267599,0.0003429298032560091,-0.0003186251926501349
150000000000.0,1,0.06518480255,0.05569196535,0.005275977699999999,-0.021471,-0.015765,0.024873,-1.428436639,-9.5274546745,1.8323725524999999,-2.4795,1.3316,2.7512,7.00000000000145e-05,2.4999999999941735e-05,0.0001100000000000545,2.7333705861831703e-05,-0.0003524702761437126,0.0003494159457448909
150000000000.0,1,0.0601343778,0.07939463840000001,0.00132389775,-0.020404,-0.015774,0.024873,-1.4296134369999998,-9.527552741,1.8310976879999998,-2.4787,1.3316,2.7502,-0.000140000000000029,4.999999999988347e-05,-0.00010000000000010001,3.4233752810308715e-07,9.283622160838334e-05,-0.00036147914367212763
150000000000.0,1,0.04686598035,0.06016379775,0.004128599649999999,-0.020398,-0.015774,0.023804,-1.430986368,-9.527552741,1.829724757,-2.4779,1.3317,2.7492,-2.999999999997449e-05,4.999999999988347e-05,3.0000000000085514e-05,0.0004982183916122374,0.00030806919473969074,-0.00038300802770896425
150000000000.0,1,0.04160961595,0.028635417999999996,0.025889555999999998,-0.022513,-0.013625,0.023794,-1.4323592989999998,-9.527650807499999,1.8284498925,-2.4771,1.3317,2.7482,-7.00000000000145e-05,3.333333333355171e-05,-3.0000000000085514e-05,0.00057182457675653,-0.00016028319222516352,-9.806568477044308e-05
150000000000.0,1,0.04489484369999999,-0.006629295399999999,0.046091255,-0.022525,-0.014693,0.024862,-1.433536097,-9.527650807499999,1.827175028,-2.4763,1.3317,2.7473,-9.999999999998899e-05,3.333333333310762e-05,-4.999999999999449e-05,0.00020253340856934976,0.00039575827031557154,-0.0006845679574047914
150000000000.0,1,0.0571727695,-0.0361669252,0.04446335109999999,-0.020385,-0.01471,0.023795,-1.4344186955,-9.527748873999998,1.82599823,-2.4757,1.3317,2.7464,-6.0000000000060005e-05,3.333333333355171e-05,-1.999999999990898e-05,-0.0003148206398109199,0.000489680861329056,-0.00018494740348096173
150000000000.0,1,0.04378669225,-0.0482683313,0.048454657649999996,-0.019291,-0.011523,0.023789,-1.4355954935,-9.5278469405,1.8250175649999998,-2.4751,1.3318,2.7456,-6.999999999990347e-05,2.4999999999941735e-05,-2.0000000000020002e-05,0.0004897849549285738,0.00013568571625244275,8.101468928423117e-05
150000000000.0,1,0.040893730499999996,-0.051023999949999996,0.05531931265,-0.013956,-0.013695,0.020597,-1.4365761585,-9.527748873999998,1.824625299,-2.4746,1.3317,2.745,-0.00012000000000000899,2.4999999999941735e-05,9.99999999995449e-06,-0.000547965473203238,8.357705254780079e-05,-0.0007092325543252009
150000000000.0,1,0.04706211335,-0.044659484099999994,0.0354020065,-0.006493,-0.015887,0.018477,-1.4371645575,-9.527650807499999,1.824429166,-2.4744,1.3317,2.7445,-1.0000000000065512e-05,2.5000000000385825e-05,-2.0000000000020002e-05,0.000589119842392849,0.00011489842700318498,0.00015590735593074
150000000000.0,1,0.04521846314999999,-0.03635325154999999,0.00640374245,-0.001153,-0.01593,0.017416,-1.4377529564999998,-9.527552741,1.824429166,-2.4742,1.3317,2.7442,-7.999999999996898e-05,2.4999999999941735e-05,-3.999999999992898e-05,-0.00028534321761752857,0.00015910512640626706,-0.00048445599045709997
150000000000.0,1,0.04231569475,-0.02038802535,0.00781590005,0.005233,-0.019178,0.015296,-1.4381452225,-9.527356608,1.8251156315,-2.4742,1.3316,2.744,-6.0000000000060005e-05,2.0000000000131024e-05,1.999999999990898e-05,-0.0002445938773505407,0.00025220741431519755,-0.0004510800587333996
150000000000.0,1,0.041531162749999996,-0.0127094184,0.005099457999999999,0.009522,-0.019209,0.011032,-1.438243289,-9.527160475,1.8262924295,-2.4745,1.3315,2.7441,-3.999999999992898e-05,1.9999999999686935e-05,-2.999999999997449e-05,-0.0002525670720083806,-0.0005893435657415846,0.0001366737870847068
150000000000.0,1,0.045493049349999995,-0.00559959715,0.009414384,0.008486,-0.016003,0.009954,-1.4381452225,-9.5268662755,1.8275672939999998,-2.4749,1.3314,2.7443,-0.00026999999999999247,2.0000000000131024e-05,-0.00014999999999998348,-0.00020968144214217332,0.0008002620350500145,-0.0009034272538301913
150000000000.0,1,0.035137226949999996,-0.0012160246,0.029792602699999997,0.006361,-0.017049,0.006749,-1.4379490895,-9.5266701425,1.8290382915,-2.4753,1.3313,2.7445,-2.999999999997449e-05,1.9999999999686935e-05,-9.99999999995449e-06,0.0001868324868823379,-0.0003962850692218467,-9.86200024675199e-05
150000000000.0,1,0.036833777399999997,-0.02797837245,0.0431884866,0.00212,-0.015945,0.003535,-1.4374587569999997,-9.526572075999999,1.830117023,-2.4758,1.3312,2.7448,6.999999999990347e-05,2.0000000000131024e-05,9.999999999998899e-05,0.0005163603361597602,-0.0004077652790919206,0.000903303274724987
150000000000.0,1,0.0372260434,-0.038638201,0.04534594959999999,-0.002124,-0.013779,0.002455,-1.4367722914999999,-9.5264740095,1.8308034884999997,-2.4762,1.3312,2.7451,-0.00023999999999990695,3.333333333355171e-05,-0.000140000000000029,-0.00014283616746091354,0.00016474466759430761,-0.0007922108677984596
150000000000.0,1,0.02868445125,-0.042276468149999996,0.0367357109,-0.00634,-0.009479,-0.000764,-1.4359877595,-9.526572075999999,1.8309015549999998,-2.4765,1.3312,2.7453,-6.0000000000060005e-05,3.333333333310762e-05,2.999999999997449e-05,0.0003797810486112496,0.00031710254488226397,0.00039484642750320376
150000000000.0,1,0.01952504015,-0.047071919999999996,0.04350229939999999,-0.006309,-0.008409,-0.005037,-1.4349090279999999,-9.526768209,1.8309996214999997,-2.4769,1.3313,2.7455,-0.00015999999999993797,3.333333333355171e-05,3.500000000000725e-05,0.0009379956300090697,-0.0003765753820765827,-0.0004458430370757327
150000000000.0,1,0.015425860449999999,-0.10835367585,0.05616268455,-0.00842,-0.008388,-0.009312,-1.4334380304999998,-9.526964342,1.8310976879999998,-2.4774,1.3314,2.746,-9.00000000000345e-05,4.999999999988347e-05,3.500000000000725e-05,-0.000500330577277941,-0.00034297443383790593,0.00015696196784897865
150000000000.0,1,-0.009169217749999998,-0.17433281705,0.0591733261,-0.008392,-0.008383,-0.014649,-1.4316728335,-9.5272585415,1.830705422,-2.4779,1.3315,2.7464,-9.00000000000345e-05,4.999999999988347e-05,6.0000000000060005e-05,0.0005693309705567806,-0.00011805893491700914,-0.0005337460797321114
150000000000.0,1,-0.0179265562,-0.20220331634999997,0.0583495675,-0.010509,-0.008362,-0.017856,-1.4297115034999999,-9.527650807499999,1.8302150894999998,-2.4785,1.3317,2.7469,-7.00000000000145e-05,0.00010000000000021103,7.999999999996898e-05,0.00043797507471676766,-0.0002758920993968239,4.582157155486044e-05
150000000000.0,1,-0.02185902285,-0.16855670019999996,0.05743754905,-0.010481,-0.008357,-0.023193,-1.4273579075,-9.528141139999999,1.8298228235,-2.4791,1.3319,2.7475,-7.999999999996898e-05,3.333333333310762e-05,4.0000000000040004e-05,0.0005301098943202298,-0.00045938032752013136,-2.0856621664400166e-05
150000000000.0,1,-0.0053740442,-0.07548178505,0.03480380085,-0.007227,-0.003054,-0.025332,-1.424906245,-9.528533406,1.829332491,-2.4799,1.3321,2.7482,-9.00000000000345e-05,3.333333333355171e-05,4.999999999999449e-05,0.0005604765449434002,-0.00023737689851421884,0.0002171947348599268
150000000000.0,1,0.027772432799999996,0.03227368515,0.0046875787,-0.002945,-0.002023,-0.026395,-1.4219642499999998,-9.5290237385,1.8292344244999998,-2.4808,1.3323,2.7491,-0.00021999999999999797,3.333333333310762e-05,-8.000000000008001e-05,-0.0005505463519741571,0.0001422415215346362,-0.0009532015356992218
150000000000.0,1,0.044090698399999996,0.09586000375,-0.0231829206,-0.000819,-0.000978,-0.023192,-1.4191203215,-9.529514071,1.8291363579999997,-2.4818,1.3325,2.7501,-7.00000000000145e-05,0.00010000000000021103,1.0000000000065512e-05,-2.1593019840837613e-05,-0.00040503445750750267,-0.0001654675795603744
150000000000.0,1,0.058182854449999995,0.1115408371,-0.047081726649999996,0.005573,-0.002097,-0.023182,-1.4161783265,-9.529906337,1.8292344244999998,-2.4828,1.3327,2.7511,-5.999999999994898e-05,3.333333333310762e-05,2.0000000000020002e-05,5.930547815724552e-06,-0.000248341696885479,0.00019289827843094187
150000000000.0,1,0.04684636705,0.0637236117,-0.048886150249999996,0.008775,-0.001059,-0.022113,-1.413530531,-9.530200536499999,1.8294305574999998,-2.4838,1.3328,2.7521,-5.999999999994898e-05,3.333333333355171e-05,1.999999999990898e-05,-5.266284604177329e-06,-8.127436973470736e-05,0.00029801291601794233
150000000000.0,1,0.024193005549999997,0.0156710267,-0.03629441165,0.01091,-1.2e-05,-0.021045,-1.4110788684999997,-9.530494736,1.8298228235,-2.4847,1.3329,2.753,9.99999999995449e-06,3.333333333310762e-05,3.0000000000085514e-05,-0.0012192077581383298,-0.0006906134044728507,6.573312202062809e-05
150000000000.0,1,0.0063743225,-0.029047297299999997,-0.01803442935,0.011996,0.003174,-0.019982,-1.4089214055,-9.530690868999999,1.8306073555,-2.4856,1.333,2.754,-6.0000000000060005e-05,1.6666666666775853e-05,6.499999999998174e-05,0.00038104872006439194,-0.00022764108238626513,0.00014854167486832992
150000000000.0,1,-0.0015298374,-0.048444851,-0.01109132115,0.010951,0.005315,-0.021055,-1.406862009,-9.530887001999998,1.8310976879999998,-2.4865,1.3331,2.7549,8.000000000008001e-05,1.6666666666775853e-05,6.499999999998174e-05,0.00019723629377166318,6.0863215090245504e-05,-0.0002974860688573777
150000000000.0,1,0.0056486304,-0.03388197575,-0.015553346899999999,0.009883,0.005324,-0.021058,-1.4048026124999997,-9.531083135,1.831686087,-2.4874,1.3332,2.7559,-0.00021999999999999797,1.6666666666331764e-05,-0.00012999999999996348,-0.0002045091921505371,-0.001857156813029004,0.0003326608145637344
150000000000.0,1,0.0071490478500000005,-0.012729031699999999,-0.02215322235,0.008833,0.009592,-0.017866,-1.402939349,-9.531279267999999,1.8319802864999999,-2.4881,1.3333,2.7567,-3.500000000000725e-05,1.6666666666775853e-05,1.999999999990898e-05,-0.0001782098312230751,-2.4447765187174397e-05,-0.00028922362433858595
150000000000.0,1,0.018867994599999997,0.00456009225,-0.03166567285,0.00993,0.012781,-0.018938,-1.4010760855,-9.5315734675,1.832274486,-2.4888,1.3334,2.7576,-3.500000000000725e-05,1.6666666666775853e-05,1.0000000000065512e-05,7.52599948521393e-05,0.00010525074202027973,0.00017301698079918992
150000000000.0,1,0.016288845649999998,0.00675678185,-0.03509800035,0.007815,0.015994,-0.017881,-1.399408955,-9.531769600499999,1.832274486,-2.4893,1.3335,2.7583,-2.999999999997449e-05,1.6666666666775853e-05,9.99999999995449e-06,-7.166446458883868e-05,-0.00034602746591883005,0.00010501652371308623
150000000000.0,1,-0.0116699135,-0.00442279915,-0.038118448549999996,0.00888,0.015985,-0.017878,-1.398232157,-9.5319657335,1.832078353,-2.4897,1.3336,2.7589,1.999999999990898e-05,3.333333333310762e-05,7.00000000000145e-05,4.8842302482476896e-05,-6.158682270540616e-05,0.0004450361838070904
150000000000.0,1,-0.01371950335,-0.0172793173,-0.02740958675,0.006777,0.021329,-0.015756,-1.3972514919999999,-9.5321618665,1.832078353,-2.49,1.3336,2.7594,-0.00012999999999996348,3.333333333355171e-05,-4.0000000000040004e-05,-0.0011799115023565232,0.0004839989680838208,-0.00043679365930637815
150000000000.0,1,-0.00787473995,-0.022221868899999997,-0.03019467535,0.00889,0.020244,-0.013616,-1.3963688934999998,-9.532259932999999,1.8319802864999999,-2.4903,1.3337,2.7599,2.0000000000020002e-05,3.333333333310762e-05,8.000000000008001e-05,0.00047791775055516794,-0.0003926651161116901,0.00033375517182321346
150000000000.0,1,-0.01065982855,-0.026291628649999996,-0.027576299799999995,0.006765,0.023455,-0.010423,-1.3957804945,-9.532357999499999,1.8317841535,-2.4905,1.3337,2.7603,-9.999999999998899e-05,-1.1111111111183902e-05,-4.0000000000040004e-05,0.0001274329314777667,-0.0005769286195438372,0.0017167253513479253
150000000000.0,1,-0.00952225715,-0.02262394155,-0.035686399349999995,0.007825,0.023445,-0.009353,-1.3953882284999999,-9.532456066,1.831686087,-2.4906,1.3338,2.7607,-0.000140000000000029,-1.1111111111183902e-05,-4.999999999999449e-05,-4.156446844505446e-05,0.0002532959097993892,-0.0005145188240827103
150000000000.0,1,-0.00420705285,-0.03499993385,-0.0322050386,0.011016,0.024482,-0.006147,-1.3951920955,-9.5325541325,1.8315880205,-2.4906,1.3338,2.761,9.999999999998899e-05,-1.1111111110739813e-05,-2.0000000000020002e-05,0.0009115206257825914,-0.00032581818576460364,-0.00015484750298311312
150000000000.0,1,-0.01638691215,-0.0331660903,-0.026428921749999997,0.01528,0.02551,-0.004007,-1.395486295,-9.532456066,1.8319802864999999,-2.4906,1.3338,2.7613,-4.499999999996174e-05,-1.1111111111183902e-05,8.000000000008001e-05,-0.00041791491645981615,0.0003282879392088045,0.0003206786051865862
150000000000.0,1,-0.01420983585,-0.03529413335,-0.017524483549999997,0.015277,0.026574,-0.001873,-1.3957804945,-9.532259932999999,1.8326667519999997,-2.4907,1.3337,2.7616,-4.499999999996174e-05,-1.1111111111183902e-05,-8.000000000008001e-05,0.00017846873088456228,0.0002726657405580646,-6.56463356989434e-05
150000000000.0,1,-0.0096497436,-0.0180246227,-0.03227368515,0.018457,0.02548,0.000269,-1.3963688934999998,-9.5319657335,1.8334512839999997,-2.4907,1.3336,2.7619,7.999999999996898e-05,-1.1111111111183902e-05,4.999999999999449e-05,0.00021119733007801678,-0.00022614414268007366,0.00022591456623510808
150000000000.0,1,-0.0037853669,0.0081983594,-0.042904093750000004,0.021633,0.023322,0.001346,-1.3969572924999998,-9.531769600499999,1.8343338824999997,-2.4907,1.3335,2.7622,-5.000000000032756e-06,-1.1111111110739813e-05,-2.999999999997449e-05,4.276223405286217e-05,0.00014373546333690257,0.00028868038042206834
150000000000.0,1,-0.0035500073,0.047601479099999996,-0.037265269999999996,0.024824,0.02223,0.001354,-1.397643758,-9.531377334499998,1.8359029464999999,-2.4909,1.3333,2.7626,-5.000000000032756e-06,-1.1111111111183902e-05,-2.999999999997449e-05,-0.0007463117491850468,-0.00029855156555691487,0.00016608368157733366
150000000000.0,1,0.00218688295,0.06035012409999999,-0.0526028706,0.027998,0.019008,0.001365,-1.3983302235,-9.530887001999998,1.8376681435,-2.4911,1.3331,2.7631,2.0000000000020002e-05,-1.1111111111183902e-05,-2.999999999997449e-05,-0.00019006043785418925,-0.00011260745869923205,0.0004543584327332262
150000000000.0,1,-0.00440318585,0.051239746249999996,-0.06368438509999999,0.029088,0.022196,0.001362,-1.399016689,-9.530494736,1.839335274,-2.4913,1.3329,2.7635,2.0000000000020002e-05,9.999999999976694e-05,-2.0000000000020002e-05,0.00014877683786806983,-8.440376499296853e-05,0.00012493853089967644
150000000000.0,1,-0.0044129925,0.02899826405,-0.0606835502,0.027996,0.020073,0.002432,-1.399801221,-9.53010247,1.8408062714999998,-2.4914,1.3327,2.7639,2.0000000000020002e-05,-8.333333333165882e-06,-2.0000000000020002e-05,-0.0008491281342093426,0.0001717802408511826,-0.00046769776109822914
150000000000.0,1,-0.0146707484,-0.0119248864,-0.0445614176,0.023729,0.019045,0.000292,-1.4004876864999998,-9.529710203999999,1.8421792025,-2.4916,1.3326,2.7642,7.00000000000145e-05,-8.333333333609971e-06,-1.4999999999987246e-05,-0.0004352285568143266,0.00033388626124342125,0.0006678686116612376
150000000000.0,1,-0.013386077249999998,-0.05735909585,-0.03135186005,0.018379,0.018022,0.001352,-1.4009780189999999,-9.529514071,1.8429637345,-2.4916,1.3325,2.7645,-1.0000000000065512e-05,-8.333333333165882e-06,-1.4999999999987246e-05,-0.00023868839508134343,-1.558224663056329e-05,6.449094113136766e-05
150000000000.0,1,-0.0264975683,-0.08339575159999998,-0.02505599075,0.010932,0.020217,0.000268,-1.4016644845,-9.529317938,1.8432579339999997,-2.4915,1.3324,2.7645,7.00000000000145e-05,-8.333333333165882e-06,2.0000000000020002e-05,0.00017799769147841538,-0.00034235904627855085,0.00013880567006330224
150000000000.0,1,-0.027909725899999998,-0.0898877539,-0.020466478549999997,0.006642,0.017057,-0.0008,-1.4021548169999998,-9.529317938,1.8432579339999997,-2.4913,1.3324,2.7645,2.0000000000020002e-05,-8.333333333609971e-06,-2.0000000000020002e-05,0.0001365165535407442,0.00025483473415355284,0.00025102454135605967
150000000000.0,1,-0.0163967188,-0.07328509544999999,-0.01854437515,0.004514,0.019203,0.001327,-1.402743216,-9.529219871499999,1.8427676014999999,-2.4909,1.3324,2.7644,9.99999999995449e-06,-8.333333333165882e-06,-1.0000000000065512e-05,-7.931723378895583e-05,9.898077415471107e-05,-0.00014869146133111855
150000000000.0,1,0.0009414384,-0.054789753549999994,-0.0274390067,0.002406,0.021354,-0.000816,-1.4030374155,-9.529317938,1.842081136,-2.4907,1.3324,2.7643,3.0000000000085514e-05,-8.333333333165882e-06,4.0000000000040004e-05,0.0010085742038006273,0.00045851223860116086,-0.0005698400167117867
150000000000.0,1,0.00732556755,-0.0212215906,-0.0408348906,0.005583,0.021324,0.003459,-1.4036258145,-9.5294160045,1.8413946704999997,-2.4903,1.3324,2.7642,0.00025999999999992696,-8.333333333609971e-06,0.00010999999999994348,-0.0006751431514180339,0.0010945883367470266,-0.0009202169043263098
150000000000.0,1,0.027262487,-0.01844630865,-0.06143866224999999,0.006632,0.021312,0.006661,-1.4041161469999999,-9.529514071,1.8406101384999998,-2.4899,1.3325,2.7641,9.00000000000345e-05,-8.333333333165882e-06,4.0000000000040004e-05,0.00012106105004283663,0.00039442332577932504,-6.946098709992299e-06
150000000000.0,1,0.0448163905,-0.03092036745,-0.0715493184,0.005518,0.019184,0.011998,-1.404704546,-9.5296121375,1.8396294735,-2.4895,1.3325,2.7638,2.0000000000020002e-05,-8.333333333165882e-06,-2.0000000000020002e-05,-0.0001648238633209509,-1.5866356989135966e-05,0.0006322034094412565
150000000000.0,1,0.04415934495,-0.04500271685,-0.062350680699999994,0.006586,0.022368,0.016261,-1.4056852109999998,-9.529514071,1.8390410744999999,-2.4889,1.3325,2.7635,7.00000000000145e-05,-8.333333333609971e-06,6.0000000000060005e-05,-0.000731629497173536,2.1653025034096274e-05,-0.00017572378529973065
150000000000.0,1,0.039059886950000004,-0.04076624405,-0.05515259959999999,0.007651,0.024487,0.019459,-1.4071562085,-9.5294160045,1.8383546089999998,-2.4883,1.3325,2.763,2.999999999997449e-05,-8.333333333165882e-06,-1.0000000000065512e-05,-0.00011585061903862659,-0.0008677954686748812,0.0013900162230617852
150000000000.0,1,0.03256788465,-0.04427702475,-0.0406387576,0.008691,0.023409,0.022663,-1.4091175385,-9.529219871499999,1.8380604095,-2.4875,1.3324,2.7625,7.999999999996898e-05,-0.00010000000000021103,1.0000000000065512e-05,0.0002760989026471261,0.0002848654834277653,-0.00015377533104876662
150000000000.0,1,0.031116500449999997,-0.050945546749999994,-0.02974356945,0.002298,0.026655,0.025846,-1.4113730679999998,-9.5290237385,1.8374720105,-2.4866,1.3323,2.7618,1.0000000000065512e-05,-4.999999999988347e-05,9.99999999995449e-06,-0.0010139070796688632,0.0002020228735415408,0.0007134032812565749
150000000000.0,1,0.04396321195,-0.0329699573,-0.038638201,-0.00092,0.026678,0.029041,-1.413726664,-9.5288276055,1.836393279,-2.4855,1.3322,2.761,0.00015999999999993797,-4.999999999988347e-05,1.0000000000065512e-05,-0.0008373318291095,0.0008031865666442428,0.0006901538952419628
150000000000.0,1,0.050406180999999994,-0.019446586949999997,-0.03927563325,-0.006286,0.025652,0.0333,-1.416472526,-9.5288276055,1.8348242149999998,-2.4842,1.3322,2.7598,4.999999999999449e-05,-0.00010000000000021103,-2.0000000000020002e-05,3.6492901209328465e-05,0.0001098257657854429,0.0003856071531060934
150000000000.0,1,0.0555644789,-0.006952914849999999,-0.032165811999999995,-0.00948,0.026743,0.03329,-1.4192183879999998,-9.528729538999999,1.833059018,-2.4828,1.3321,2.7587,9.00000000000345e-05,-4.999999999988347e-05,3.999999999992898e-05,0.00028728879075834435,0.00021744071408402732,0.0002109727593149202
150000000000.0,1,0.04861156404999999,0.0030302548499999997,-0.018583601749999998,-0.013748,0.026778,0.03328,-1.422160383,-9.528631472499999,1.8309996214999997,-2.4812,1.3321,2.7574,7.00000000000145e-05,-4.999999999988347e-05,-2.999999999997449e-05,0.00029116689277208785,-0.00038224572002087953,0.0009887313923342411
150000000000.0,1,0.035892338999999995,0.0052171378,-0.011209000949999999,-0.018008,0.027879,0.033269,-1.4252985109999998,-9.528631472499999,1.8288421584999999,-2.4796,1.3321,2.756,5.999999999994898e-05,-0.00010000000000021103,-2.0000000000020002e-05,-3.0980881330355814e-05,0.00043817958704717164,0.00028382412985328287
150000000000.0,1,0.037902702249999996,0.0061193496,-0.014945334599999999,-0.019061,0.028954,0.032196,-1.4283385725,-9.528631472499999,1.8264885624999998,-2.4779,1.3321,2.7545,9.00000000000345e-05,-9.999999999976694e-05,2.0000000000020002e-05,0.00018986722334490835,0.0003169271509950722,0.0003467405434274262
150000000000.0,1,0.03276401765,-0.0220257359,-0.007168661149999999,-0.019079,0.026822,0.032198,-1.4312805675,-9.528631472499999,1.8242330329999998,-2.4763,1.3321,2.7531,7.999999999996898e-05,-4.999999999988347e-05,-1.4999999999987246e-05,-0.00017721076612575715,0.00014678820507207924,-8.798403200360738e-05
150000000000.0,1,0.0375790828,-0.04573821559999999,0.004726805299999999,-0.022289,0.023655,0.028994,-1.4338302965,-9.528729538999999,1.8217813704999999,-2.4748,1.3321,2.7518,-9.99999999995449e-06,-5.000000000032756e-05,-1.4999999999987246e-05,0.0005325285282227199,-0.000361347393747824,0.0010135938239974607
150000000000.0,1,0.044208378199999995,-0.05992843815,0.00505042475,-0.024427,0.022608,0.027922,-1.4360858259999998,-9.5288276055,1.8190355084999998,-2.4733,1.3322,2.7505,5.999999999994898e-05,-4.999999999988347e-05,-2.0000000000020002e-05,0.00012550530152677375,0.0005127319478710479,0.0003214588348576797
150000000000.0,1,0.0429923536,-0.05803575469999999,0.020721451449999997,-0.029734,0.022656,0.022573,-1.4380471559999999,-9.529121804999999,1.81619158,-2.4719,1.3323,2.7493,6.0000000000060005e-05,-4.999999999988347e-05,2.999999999997449e-05,0.00027019146792239823,0.000163757329614711,0.00021825838723499302
150000000000.0,1,0.04786625864999999,-0.03782424905,0.044541804299999994,-0.035067,0.0227,0.022562,-1.439812353,-9.5294160045,1.8132495849999999,-2.4705,1.3324,2.7481,8.999999999992347e-05,-5.000000000032756e-05,1.0000000000065512e-05,0.000664950901568595,0.00029463978963151227,0.0003211310007351642
150000000000.0,1,0.043659205799999996,-0.04253144104999999,0.0518575652,-0.039336,0.02167,0.021486,-1.4413814169999999,-9.5298082705,1.8099153239999999,-2.4691,1.3326,2.7468,0.000160000000000049,-4.999999999988347e-05,0.00017000000000000348,0.0004570479897689772,0.0013410762182177738,-0.0007967423244159555
150000000000.0,1,0.04490465034999999,-0.0387951074,0.059330232499999996,-0.043587,0.022771,0.020407,-1.4429504809999998,-9.530200536499999,1.8063849299999999,-2.4676,1.3328,2.7455,-0.0001100000000000545,-4.999999999988347e-05,-0.000140000000000029,0.0004385213097621854,-0.0005989472850038702,0.0008288111737124737
150000000000.0,1,0.0599382448,-0.04141348295,0.06098755634999999,-0.045745,0.019591,0.020406,-1.4442253455,-9.5307889355,1.8025603364999998,-2.4661,1.333,2.7441,0.000180000000000069,-5.000000000032756e-05,7.999999999996898e-05,0.001584727853463308,-0.00011818996603318865,-0.00022690121493429416
150000000000.0,1,0.050808253649999996,-0.058290727599999995,0.07182390459999999,-0.046806,0.020663,0.021467,-1.4455982765,-9.531279267999999,1.7989318759999997,-2.4647,1.3332,2.7428,9.99999999995449e-06,-4.999999999988347e-05,2.999999999997449e-05,0.0003359112581633461,0.0003556140976566091,0.0002756857293992887
150000000000.0,1,0.047934905199999996,-0.06404723115,0.06817583079999999,-0.046807,0.019598,0.020399,-1.446873141,-9.531769600499999,1.7951072824999998,-2.4632,1.3335,2.7415,4.999999999999449e-05,-4.999999999988347e-05,2.0000000000020002e-05,0.0008774684339840633,2.5684901013178774e-05,5.024143463217001e-05
150000000000.0,1,0.05502511314999999,-0.04588531535,0.0701371608,-0.044675,0.016387,0.016136,-1.447853806,-9.532259932999999,1.791674955,-2.4619,1.3337,2.7403,-2.999999999997449e-05,-5.000000000032756e-05,1.0000000000065512e-05,-0.0002714526205274126,-0.00019566038566565247,0.0003234962596376789
150000000000.0,1,0.05545660575,-0.0126701918,0.07771770125,-0.04148,0.015294,0.016141,-1.4487364045,-9.532750265499999,1.7885368269999997,-2.4608,1.3339,2.7392,2.0000000000020002e-05,-4.999999999988347e-05,-3.0000000000085514e-05,0.00096082166600997,0.0005091947418336407,-0.0001993922995486841
150000000000.0,1,0.0644885304,0.023006400899999998,0.0748051262,-0.034018,0.012038,0.012954,-1.4492267369999998,-9.533044465,1.7862812975,-2.46,1.334,2.7385,5.000000000032756e-06,-4.999999999988347e-05,4.0000000000040004e-05,-0.0005085443718215732,-0.00021347794883119775,-1.8499358532153565e-05
150000000000.0,1,0.06877403644999999,0.0395992527,0.0631940526,-0.029765,0.009871,0.012963,-1.449619003,-9.5333386645,1.784418034,-2.4593,1.3342,2.7379,4.999999999921734e-06,-4.999999999988347e-05,4.0000000000040004e-05,-0.00020850165941754817,0.00027428436268794876,0.0005525954998191196
150000000000.0,1,0.06580262149999999,0.0296553096,0.0545642006,-0.021254,0.004476,0.009782,-1.449619003,-9.533632864,1.7831431694999997,-2.459,1.3343,2.7376,7.00000000000145e-05,-4.999999999988347e-05,4.999999999999449e-05,0.0002941122168438337,-0.00035144173486134633,0.00047176036985252523
150000000000.0,1,0.053465855799999996,0.008433719,0.05715315619999999,-0.015947,-0.001958,0.00553,-1.4493248035,-9.533730930499999,1.782456704,-2.4589,1.3343,2.7375,-2.0000000000020002e-05,-5.000000000032756e-05,-4.999999999999449e-05,0.00036510634103747996,0.0004475431820449849,-0.0005230358109895583
150000000000.0,1,0.035813885799999993,-0.034068302099999996,0.06849945025,-0.012709,-0.000914,0.000195,-1.4487364045,-9.5339270635,1.7822605710000001,-2.4591,1.3344,2.7376,7.00000000000145e-05,-4.999999999988347e-05,7.00000000000145e-05,-0.00014010165266276076,-0.0001439165605927606,0.00033049359744241613
150000000000.0,1,0.025369803549999997,-0.0854159215,0.08419989689999999,-0.012721,-0.004109,-0.001936,-1.447853806,-9.53402513,1.7822605710000001,-2.4594,1.3345,2.7378,0.00026999999999999247,-4.999999999988347e-05,0.00018999999999991246,6.319167380297586e-05,0.00021421233782925597,-0.00044543544192165996
150000000000.0,1,0.01830901555,-0.09848818594999999,0.09396732029999999,-0.012726,-0.005176,-0.001935,-1.447069274,-9.5341231965,1.7823586374999998,-2.4596,1.3345,2.738,-0.00021999999999999797,-3.333333333355171e-05,-0.00014999999999998348,0.0005157094015220132,0.0010773118207831889,-0.0016560719673583968
150000000000.0,1,0.037059330349999996,-0.0751385523,0.09013292014999999,-0.012735,-0.007307,-0.003001,-1.4458924759999998,-9.5343193295,1.782456704,-2.4601,1.3346,2.7383,0.0001300000000000745,-3.333333333310762e-05,0.00014999999999998348,-0.00033445400719367413,-0.0004867934410570651,0.0005839668129978826
150000000000.0,1,0.04043281795,-0.027693979599999998,0.07969864455,-0.014867,-0.006226,-0.000874,-1.4449118109999999,-9.534417395999998,1.7823586374999998,-2.4604,1.3346,2.7386,9.99999999995449e-06,-3.333333333355171e-05,1.0000000000065512e-05,-0.00012734469541353377,-0.00029435801551547236,6.764988668717109e-05
150000000000.0,1,0.04637564784999999,0.0006668522,0.08044394995,-0.01166,-0.005189,0.000195,-1.4440292124999998,-9.534515462499998,1.7826528369999999,-2.4608,1.3347,2.7389,-7.999999999996898e-05,-4.999999999988347e-05,-2.0000000000020002e-05,-0.0003097561145197769,0.0005678392684766997,-0.0005451812201004991
150000000000.0,1,0.0536031489,0.013876409749999999,0.07216713735,-0.008476,-0.006284,0.002335,-1.443146614,-9.534515462499998,1.7832412359999998,-2.4612,1.3347,2.7392,-7.00000000000145e-05,-4.999999999988347e-05,-4.0000000000040004e-05,0.00019857287760016717,0.00020907117627566585,-0.00016777198220507827
150000000000.0,1,0.0491705431,-0.0035107806999999996,0.057859234999999995,-0.004237,-0.009518,0.003413,-1.4424601485,-9.534515462499998,1.7839277014999997,-2.4616,1.3347,2.7395,0.00017999999999995797,-3.333333333355171e-05,0.00021999999999999797,-0.0002523578179445263,-0.0006152962830605624,0.0007666631808183055
150000000000.0,1,0.03572562595,-0.0294787899,0.05588809835,5.2e-05,-0.008486,0.001282,-1.4418717495,-9.534417395999998,1.7848102999999997,-2.4621,1.3346,2.7399,-4.999999999999449e-05,-3.333333333310762e-05,1.0000000000065512e-05,-0.0008554464448728982,-0.00023014539259147426,-0.0001679268449565896
150000000000.0,1,0.027674366299999996,-0.0449536836,0.06492982964999999,0.004311,-0.008524,0.003423,-1.4414794835,-9.534221263,1.7862812975,-2.4626,1.3345,2.7403,2.999999999997449e-05,-3.333333333355171e-05,3.999999999992898e-05,3.4443148935192625e-06,0.00033133418082531563,-8.10890399205455e-05
150000000000.0,1,0.022545488349999997,-0.033568162949999994,0.06187996149999999,0.008567,-0.009626,0.004498,-1.4410872174999998,-9.5339270635,1.7880464944999999,-2.4632,1.3344,2.7408,-9.99999999995449e-06,-3.333333333310762e-05,4.999999999999449e-05,-0.0004026980565985383,-0.00017994898302031714,0.00019783596398514902
150000000000.0,1,0.0300671889,-0.0091594111,0.060301090849999996,0.014966,-0.00968,0.005575,-1.4408910845,-9.5335347975,1.7905962235,-2.464,1.3342,2.7415,-7.999999999996898e-05,-3.333333333355171e-05,-2.999999999997449e-05,-0.0003035697538888993,0.0005841624778681886,-0.000496368766057298
150000000000.0,1,0.03390158905,0.0018044235999999999,0.039412926349999995,0.019223,-0.011846,0.004517,-1.4404988184999998,-9.5331425315,1.7930478859999999,-2.4648,1.3341,2.7421,-3.0000000000085514e-05,-3.333333333310762e-05,2.999999999997449e-05,-0.0005863892394692982,-0.00017742771511652933,1.4064834354510225e-05
150000000000.0,1,0.031194953649999996,0.0074922806,0.0317343194,0.020291,-0.011855,0.004518,-1.4402046189999997,-9.532652199,1.795597615,-2.4656,1.3339,2.7428,8.000000000008001e-05,-5.000000000032756e-05,0.00010000000000010001,-5.032120218917413e-05,-0.0006158046439812548,0.0005008243171529259
150000000000.0,1,0.02256510165,-0.0006080123,0.0389127872,0.020307,-0.010789,0.003447,-1.4399104194999999,-9.5321618665,1.7983434769999997,-2.4664,1.3337,2.7436,-9.999999999998899e-05,-4.999999999988347e-05,-6.0000000000060005e-05,-0.0004561625807175673,0.0002655858155229396,-0.00029341838390362085
150000000000.0,1,0.014700168349999997,-0.011983726299999999,0.03913834014999999,0.018206,-0.007574,0.00237,-1.4397142864999999,-9.531769600499999,1.8009912725,-2.4672,1.3335,2.7442,0.00012000000000000899,-4.999999999988347e-05,0.00017000000000000348,-0.0010024664304901787,-0.0009141770773268831,0.0012375344131068111
150000000000.0,1,0.0112188076,-0.011032481249999998,0.03319551025,0.018195,-0.009705,0.001306,-1.4393220205000001,-9.531377334499998,1.8033448685,-2.468,1.3333,2.7449,-0.000260000000000038,-4.999999999988347e-05,-0.00014999999999998348,0.000992322017617342,0.0002776045821766271,-0.001337418201743823
150000000000.0,1,0.019701559849999998,-0.0019221033999999998,0.01493552795,0.016091,-0.005426,0.002361,-1.439027821,-9.5309850685,1.8053061984999998,-2.4686,1.3332,2.7455,2.999999999997449e-05,9.999999999976694e-05,7.00000000000145e-05,0.0006277150560458633,-0.00012548943913026633,-0.0002896839893189451
150000000000.0,1,0.023271180449999998,0.0137685366,0.0275370732,0.015022,-0.006482,0.001293,-1.4385374884999997,-9.530690868999999,1.8072675285,-2.4693,1.333,2.7461,6.0000000000060005e-05,-9.999999999976694e-05,7.999999999996898e-05,-0.0008897774588276786,-0.00011742886700027988,0.0008330671937581968
150000000000.0,1,0.02170211645,0.02109410415,0.02038802535,0.016112,-0.004359,0.000222,-1.4381452225,-9.5303966695,1.8092288584999998,-2.47,1.3329,2.7467,-5.500000000002725e-05,-3.333333333355171e-05,1.0000000000065512e-05,0.0002776445882386458,-0.000438281268306806,-0.0003023394727166284
150000000000.0,1,0.0204566719,0.0324011716,0.006472388999999999,0.012949,-0.001134,-0.001924,-1.43765489,-9.530200536499999,1.8106998559999998,-2.4705,1.3328,2.7473,-5.500000000002725e-05,-3.333333333310762e-05,-1.0000000000065512e-05,-0.0005386842411088111,-0.00020842570299994811,0.0002602191557716793
150000000000.0,1,0.022712201399999996,0.02968472955,0.00967916355,0.009735,-0.002175,-0.000862,-1.437262624,-9.5300044035,1.8119747204999999,-2.471,1.3327,2.7478,-4.999999999999449e-05,-3.333333333355171e-05,-2.999999999997449e-05,0.00012406924960606247,-0.0005258029940595765,0.0008231417387318807
150000000000.0,1,0.011856239849999999,0.00630567595,0.018583601749999998,0.010833,0.001014,-0.001933,-1.436870358,-9.5298082705,1.8132495849999999,-2.4715,1.3326,2.7482,-7.00000000000145e-05,0.00010000000000021103,-4.0000000000040004e-05,0.0007393155487287473,9.002542813729697e-05,-0.0008298106059321242
150000000000.0,1,0.013052651149999999,-0.011336487399999998,0.0215550167,0.007625,-2.6e-05,-0.001938,-1.4363800254999999,-9.529710203999999,1.8143283165,-2.4719,1.3326,2.7487,-0.00017999999999995797,-0.00010000000000021103,-5.999999999994898e-05,-0.00018758977867272542,-0.0009632394088332497,0.000999134521288525
150000000000.0,1,0.01207198615,-0.0009610516999999999,0.01642613875,0.004442,0.002132,-0.001948,-1.4359877595,-9.5296121375,1.8151128484999999,-2.4723,1.3325,2.749,9.999999999998899e-05,1.2499999999970868e-05,7.999999999996898e-05,-0.000653616830766035,-0.00035280745781141043,0.0006213477518355326
150000000000.0,1,0.01344491715,-0.0058839899999999995,0.027331133549999997,0.004447,0.003196,-0.000883,-1.4357916265000001,-9.529514071,1.8160935134999998,-2.4726,1.3325,2.7494,-0.000260000000000038,1.2499999999970868e-05,-0.00014999999999998348,0.00029290637003365205,0.0006600244714340953,-0.0010358152814711197
150000000000.0,1,0.01442558215,-0.011532620399999999,0.027125193899999997,0.004434,0.002129,0.000186,-1.435497427,-9.529317938,1.8168780454999998,-2.4729,1.3324,2.7497,-7.999999999996898e-05,1.2499999999970868e-05,-2.999999999997449e-05,0.000394603183475839,0.00020130791531935976,2.142117160497392e-05
150000000000.0,1,0.013180137599999999,-0.0025105023999999997,0.0126701918,0.00659,0.004243,-0.000882,-1.4353012939999998,-9.529219871499999,1.817564511,-2.4732,1.3324,2.75,9.00000000000345e-05,1.2500000000414957e-05,9.999999999998899e-05,-0.0002465153361448369,-0.0006050123544225627,0.0005400347306645514
150000000000.0,1,0.0068450417,-0.00683523505,0.010091042849999999,0.006558,0.002109,0.002323,-1.4353993605,-9.529121804999999,1.81815291,-2.4733,1.3323,2.7502,-0.000180000000000069,1.2499999999970868e-05,-0.0001100000000000545,-8.124218038307873e-06,0.00044313650427052487,-0.0004714433102122051
150000000000.0,1,0.00805125965,-0.01205237285,0.014778621550000001,0.004442,0.004257,0.002315,-1.4355954935,-9.5290237385,1.818741309,-2.4734,1.3323,2.7503,-7.999999999996898e-05,1.2499999999970868e-05,-2.0000000000020002e-05,0.00041294746813247407,0.0002393357175187738,-0.00017082027876025307
150000000000.0,1,0.02068222485,-0.0194563936,0.017730423199999998,0.002298,0.004273,0.004445,-1.43569356,-9.528925672,1.8190355084999998,-2.4735,1.3322,2.7504,-4.999999999999449e-05,1.2499999999970868e-05,4.0000000000040004e-05,-0.0005576337488231164,-0.00036144457438891386,0.00017599254616662563
150000000000.0,1,0.016867438,-0.028351025149999997,0.024016485849999998,0.001254,0.006413,0.003371,-1.43569356,-9.5288276055,1.8193297079999997,-2.4735,1.3322,2.7505,-5.999999999994898e-05,1.2499999999970868e-05,-9.99999999995449e-06,0.0006162545678274345,0.0006444691915161727,8.226008681777586e-06
150000000000.0,1,0.0087671451,-0.035147033599999995,0.023928225999999997,-0.000857,0.008563,0.002296,-1.4359877595,-9.5288276055,1.8194277744999998,-2.4734,1.3322,2.7505,-0.00010000000000010001,-0.00010000000000021103,-4.999999999999449e-05,0.00023423090682217484,7.642537436036712e-05,9.716390105340977e-05
150000000000.0,1,0.00967916355,-0.041217349949999996,0.0253992235,0.000183,0.00642,0.004435,-1.436281959,-9.528729538999999,1.8196239074999998,-2.4734,1.3321,2.7505,-5.999999999994898e-05,0.00010000000000021103,-2.0000000000020002e-05,-0.0002570222233648778,0.0002597689714203266,-0.0004458436841154878
150000000000.0,1,0.017151830849999997,-0.03035158175,0.014700168349999997,0.002326,0.007468,0.004436,-1.436478092,-9.528631472499999,1.8198200405,-2.4734,1.3321,2.7506,-6.0000000000060005e-05,1.4285714285744433e-05,4.999999999999449e-05,-0.0008923998827037316,-0.0001360480475789405,-0.00015597661172916943
150000000000.0,1,0.0102969825,0.0052563644,-0.00587418335,0.007648,0.005294,0.003381,-1.4367722914999999,-9.528533406,1.8204084394999998,-2.4734,1.3321,2.7507,-1.999999999990898e-05,1.4285714285744433e-05,-1.0000000000065512e-05,0.0005597091467013371,-9.535216204659136e-05,0.00028344001563240795
150000000000.0,1,0.01318994425,0.00885540495,-0.0085906254,0.010814,0.001005,0.003393,-1.4369684244999998,-9.528337273,1.8209968385,-2.4735,1.332,2.7508,-0.0001100000000000545,1.4285714285744433e-05,-8.999999999992347e-05,0.00035413465672640143,0.00028484493629066243,7.226543194427393e-05
150000000000.0,1,0.024771597899999998,0.034382114899999996,-0.014258869099999998,0.015109,0.003103,0.001261,-1.436870358,-9.528141139999999,1.8221736364999999,-2.4739,1.3319,2.7512,9.99999999995449e-06,1.4285714285300344e-05,9.99999999995449e-06,-0.0005369770067722435,0.0002191415159802368,-0.0005338720685705844
150000000000.0,1,0.01177778665,0.014788428199999998,-0.009561483749999999,0.01724,0.002021,0.000199,-1.4367722914999999,-9.5278469405,1.8237427004999998,-2.4743,1.3318,2.7517,1.0000000000065512e-05,1.4285714285744433e-05,4.999999999999449e-05,-8.22198009360342e-05,0.0007355231945045393,-0.000678784425905743
150000000000.0,1,0.0029910282499999996,-0.01124822755,0.0018044235999999999,0.017219,-0.001174,-0.000863,-1.4366742249999997,-9.527552741,1.825409831,-2.4748,1.3316,2.7522,9.99999999995449e-06,1.4285714285744433e-05,4.0000000000040004e-05,-0.00028190114338522143,-0.0003672844371542805,5.646913004930809e-05
150000000000.0,1,0.0092574776,-0.03350932305,0.006197802799999999,0.017199,-0.00437,-0.001926,-1.4361838925,-9.5272585415,1.827175028,-2.4754,1.3315,2.7528,-6.999999999990347e-05,1.4285714285744433e-05,-2.0000000000020002e-05,-0.0006111547004878926,1.4669581398507603e-05,-3.152071374223908e-05
150000000000.0,1,0.00326561445,-0.04706211335,0.0059036033,0.018307,-0.001179,-0.005132,-1.435497427,-9.527062408499999,1.828940225,-2.4762,1.3314,2.7536,-4.0000000000040004e-05,1.1111111111183902e-05,-4.0000000000040004e-05,-0.00019921022220992235,0.0005070397278332806,-0.0003173434708574341
150000000000.0,1,-0.0029027683999999997,-0.047503412599999996,0.0135724036,0.019385,-0.001186,-0.007265,-1.4348109615,-9.526768209,1.8309996214999997,-2.4769,1.3313,2.7543,-2.0000000000020002e-05,1.1111111111183902e-05,4.999999999999449e-05,3.0639733123782875e-05,-0.00039743788394486224,0.00020268899946174201
150000000000.0,1,-0.006148769549999999,-0.037294689949999994,-0.008835791649999999,0.023632,-0.004416,-0.00832,-1.4339283629999997,-9.5264740095,1.833059018,-2.4778,1.3312,2.7551,-2.0000000000020002e-05,1.1111111111183902e-05,-8.999999999992347e-05,-0.001128960922729183,-3.994865145084958e-05,-0.00022141143998455348
150000000000.0,1,-0.00722750105,-0.0182011424,-0.030400614999999995,0.024708,-0.004423,-0.010452,-1.4330457645,-9.5262778765,1.8349222815,-2.4785,1.3311,2.7559,-9.99999999995449e-06,1.1111111111183902e-05,2.0000000000020002e-05,0.0008524640623177593,-0.00024650608530984996,-2.0010603062559085e-05
150000000000.0,1,-0.0003726527,0.0141019627,-0.046022608449999995,0.023619,-0.007609,-0.011516,-1.431967033,-9.526081743499999,1.836589412,-2.4794,1.331,2.7567,-2.0000000000020002e-05,1.1111111110739813e-05,-6.0000000000060005e-05,-0.0011219884346573838,-0.00012865834727437964,4.614737828934068e-05
150000000000.0,1,0.0106107953,0.028713871199999998,-0.03447037475,0.023621,-0.006545,-0.010451,-1.430790235,-9.5258856105,1.838550742,-2.4803,1.3309,2.7576,-1.0000000000065512e-05,1.1111111111183902e-05,-2.0000000000020002e-05,-0.00013055570430986485,-0.00015731514381189804,0.00021121372308696706
150000000000.0,1,0.0082179727,0.0167105316,-0.030204481999999998,0.022544,-0.007601,-0.010451,-1.4296134369999998,-9.5256894775,1.8404140055,-2.4812,1.3309,2.7585,-9.99999999995449e-06,1.1111111111183902e-05,-5.999999999994898e-05,0.0003060257646290143,-0.0005118729653723619,7.296533787659598e-05
150000000000.0,1,-0.008737725149999999,-0.015102240999999999,-0.030939980749999995,0.017231,-0.005425,-0.011532,-1.4285347055,-9.5256894775,1.8416888699999998,-2.4819,1.3308,2.7591,-9.999999999998899e-05,1.1111111111183902e-05,-9.999999999998899e-05,0.00032810738767463654,0.0007181652059364829,-0.0007872139445930237
150000000000.0,1,-0.01171894675,-0.0291649771,-0.0335191297,0.012953,-0.006455,-0.011537,-1.427455974,-9.5256894775,1.8424734019999998,-2.4824,1.3308,2.7597,-4.999999999999449e-05,1.1111111111183902e-05,-4.0000000000040004e-05,8.692095846640768e-06,4.971766912831299e-05,-0.0004671601915804402
150000000000.0,1,-0.022319935399999997,-0.018210949049999998,-0.024291072049999998,0.007626,-0.005345,-0.011547,-1.4265733754999999,-9.5256894775,1.8429637345,-2.4829,1.3308,2.7601,2.0000000000020002e-05,3.333333333310762e-05,-4.999999999921734e-06,0.0002703157909129672,-0.00030404551906171307,0.0001574695035770901
150000000000.0,1,-0.0129643913,-0.0264975683,-0.0160436794,0.005517,-0.002131,-0.011556,-1.425690777,-9.525787544,1.8432579339999997,-2.4833,1.3309,2.7604,-1.0000000000065512e-05,3.333333333355171e-05,-5.000000000032756e-06,-0.00024163930180720605,-9.835813899572443e-05,-0.00020939659380392328
150000000000.0,1,-0.008384685749999999,-0.00361865385,-0.018917027849999997,0.003386,-0.001049,-0.010494,-1.4247101119999999,-9.5258856105,1.8432579339999997,-2.4836,1.3309,2.7608,-1.999999999990898e-05,3.333333333310762e-05,-3.0000000000085514e-05,0.0004271970995273211,1.9898550517538638e-05,-0.00032591558278483035
150000000000.0,1,-0.00220649625,-0.007021561399999999,-0.03060655465,0.002312,-0.001041,-0.009429,-1.4238275135,-9.526081743499999,1.8429637345,-2.4838,1.331,2.761,-8.000000000008001e-05,2.4999999999941735e-05,-7.999999999996898e-05,-6.487174799807427e-05,-0.0005428593826737327,0.0005536382975250831
150000000000.0,1,0.01077750835,-0.0017455836999999998,-0.032156005349999996,0.00229,-0.001045,-0.00516,-1.4230429814999999,-9.5262778765,1.842669535,-2.484,1.3311,2.7612,-3.999999999992898e-05,2.5000000000385825e-05,-2.0000000000020002e-05,-0.000888760849316439,-0.00026197959910922997,0.00039935191789775004
150000000000.0,1,0.00093163175,-0.007286340949999999,-0.040570111049999996,0.002277,-0.001047,-0.003025,-1.4226507154999999,-9.526375943,1.8421792025,-2.484,1.3312,2.7612,-1.0000000000065512e-05,2.4999999999941735e-05,-1.999999999990898e-05,-0.0003567146982823566,-9.532022055447342e-06,-0.00029499151924339273
150000000000.0,1,-0.0045895122,-0.0312636002,-0.0411683167,0.001195,2.4e-05,0.001241,-1.4226507154999999,-9.526572075999999,1.8415908035,-2.4838,1.3312,2.761,-9.99999999995449e-06,2.4999999999941735e-05,-4.0000000000040004e-05,0.0002162261784486308,0.00021957585820397973,5.2667053915378403e-05
150000000000.0,1,0.0015298374,-0.0526813238,-0.0317931593,-0.000957,-0.00209,0.00124,-1.4226507154999999,-9.5266701425,1.8409043379999999,-2.4837,1.3313,2.7608,-1.0000000000065512e-05,3.333333333310762e-05,-2.0000000000020002e-05,0.0004087558408738534,-0.00020169428663652234,6.580253644594691e-05
150000000000.0,1,-0.0087279185,-0.07252017675,-0.014837461449999999,-0.010531,0.002251,0.002283,-1.4228468484999999,-9.5268662755,1.8396294735,-2.4833,1.3314,2.7604,2.0000000000020002e-05,3.333333333355171e-05,-9.99999999995449e-06,6.533121836893585e-05,4.502296230302072e-05,-4.633888760574578e-05
150000000000.0,1,-0.0154356671,-0.0872595717,0.008708305199999999,-0.014796,0.00335,0.003341,-1.4233371809999997,-9.527160475,1.8381584759999998,-2.4827,1.3315,2.7599,-1.0000000000065512e-05,3.333333333310762e-05,-5.000000000032756e-06,0.0003615278068656025,-5.844116162601054e-05,5.9747226947237664e-05
150000000000.0,1,-0.0142784824,-0.08880902239999999,0.029537629799999996,-0.021193,0.006595,0.007594,-1.4240236465,-9.527356608,1.8362952124999998,-2.482,1.3316,2.7592,-9.99999999995449e-06,4.999999999988347e-05,-5.000000000032756e-06,0.0004928846072598247,0.00010028021002717047,-0.00031725096525470065
150000000000.0,1,0.006325289249999999,-0.04947454925,0.02042725195,-0.023294,0.011938,0.009715,-1.424906245,-9.527650807499999,1.834235816,-2.4811,1.3317,2.7584,2.0000000000020002e-05,5.000000000032756e-05,-9.99999999995449e-06,1.8716834702114937e-06,-0.0002451805778074245,0.00021521976326477343
150000000000.0,1,0.027703786249999997,0.02138830365,-0.01248386545,-0.016937,0.009749,0.015066,-1.4260830429999998,-9.5278469405,1.832078353,-2.4802,1.3318,2.7575,-2.999999999997449e-05,1.0000000000065512e-05,-4.0000000000040004e-05,0.000273407918693902,0.0002137959785390997,-0.000466986757222454
150000000000.0,1,0.04810161824999999,0.07102956595,-0.03696126385,-0.009494,0.008618,0.018281,-1.4273579075,-9.527945007,1.8305092889999999,-2.4793,1.3318,2.7568,4.999999999999449e-05,1.0000000000065512e-05,-2.0000000000020002e-05,-0.0003011784103068571,-2.893026585359948e-05,0.0004992206006830813
150000000000.0,1,0.03696126385,0.10238142599999998,-0.05661379045,0.001156,0.0064,0.018302,-1.4289269715,-9.527945007,1.8296266905,-2.4786,1.3318,2.7561,1.0000000000065512e-05,9.999999999621423e-06,-5.999999999994898e-05,7.02978548901001e-05,0.0004172575287109126,-0.00017722388844898518
150000000000.0,1,0.0196917532,0.06712651925,-0.062223194249999995,0.008602,0.005271,0.020451,-1.430790235,-9.527650807499999,1.8294305574999998,-2.4779,1.3317,2.7554,0.00010999999999994348,1.0000000000065512e-05,-9.99999999995449e-06,-0.0003302676085514822,0.00013029992159419024,3.81427259630307e-05
150000000000.0,1,0.01166010685,-0.00487390505,-0.05255383735,0.013937,0.004163,0.018327,-1.4324573655,-9.527356608,1.8298228235,-2.4774,1.3316,2.755,2.0000000000020002e-05,1.0000000000065512e-05,-6.0000000000060005e-05,-0.00028756267322993523,-0.0005220289779146459,0.0002077252483108083
150000000000.0,1,-0.0012552511999999998,-0.07264766319999999,-0.0187307015,0.013913,0.002031,0.019397,-1.4342225624999998,-9.5268662755,1.830705422,-2.477,1.3314,2.7546,2.0000000000020002e-05,1.0000000000065512e-05,-5.999999999994898e-05,-0.00015168603319648533,0.0003723603825596111,0.0003490725207737633
150000000000.0,1,-0.012856518150000001,-0.0905349928,-0.0029616083000000002,0.007519,0.00315,0.019384,-1.4360858259999998,-9.526572075999999,1.8311957545,-2.4766,1.3312,2.7542,5.999999999994898e-05,1.0000000000065512e-05,1.999999999990898e-05,-0.0008951833689843092,6.668305530199703e-06,0.0002528203876348556
150000000000.0,1,0.0036284604999999998,-0.06224280755,0.016612465099999998,-0.000998,0.005351,0.019365,-1.4377529564999998,-9.5262778765,1.8313918875,-2.476,1.3311,2.7537,2.0000000000020002e-05,9.999999999621423e-06,-2.999999999997449e-05,0.0007161788305445338,-0.0001343651150966796,-0.00012134096709237596
150000000000.0,1,0.0292826569,-0.0149649479,0.03421540185,-0.010575,0.009689,0.021474,-1.4393220205000001,-9.526081743499999,1.8309996214999997,-2.4754,1.331,2.7531,-9.99999999995449e-06,1.0000000000065512e-05,-7.00000000000145e-05,0.0001144190096322717,0.000272074488979257,0.0003387711240137037
150000000000.0,1,0.04221762824999999,0.0163967188,0.03405849545,-0.016969,0.01187,0.023592,-1.4409891509999997,-9.525983677,1.8300189564999998,-2.4745,1.331,2.7523,0.00013999999999991797,1.0000000000065512e-05,7.00000000000145e-05,-0.00017516996583721856,-0.0004084411236691121,0.00011476446505342963
150000000000.0,1,0.056986443149999996,0.012062179499999999,0.02181979625,-0.018037,0.012942,0.02572,-1.442754348,-9.525983677,1.8285479589999998,-2.4736,1.331,2.7514,2.0000000000020002e-05,-5.882352941188884e-06,-2.0000000000020002e-05,0.0006881757342489525,0.00027445539295944954,0.000196447839452496
150000000000.0,1,0.046973853499999996,-0.019662333249999997,0.011405133949999998,-0.015917,0.011857,0.026791,-1.444715678,-9.525983677,1.8270769615,-2.4725,1.331,2.7504,0.0001100000000000545,-5.882352941188884e-06,6.0000000000060005e-05,-0.0006040097759885121,0.0006043167018749962,-0.0005079274116499555
150000000000.0,1,0.0373633365,-0.0779040276,0.00195152335,-0.010605,0.009681,0.027869,-1.4467750744999999,-9.525983677,1.8256059639999997,-2.4714,1.331,2.7494,-9.999999999998899e-05,-5.882352941188884e-06,-0.0001300000000000745,0.00028034032196555536,0.0005751176026396188,-0.0005301657834806406
150000000000.0,1,0.026713314599999996,-0.1306638046,0.004344345949999999,-0.006356,0.007514,0.027878,-1.448834471,-9.5258856105,1.824429166,-2.4704,1.3309,2.7484,0.00011999999999989797,-5.882352941188884e-06,4.0000000000040004e-05,0.0003831592210654655,-0.00032108448086742847,0.0010908991320213168
150000000000.0,1,0.02662505475,-0.13336063334999998,0.016180972499999998,-0.004209,0.008563,0.02681,-1.4508938674999998,-9.5256894775,1.8236446339999997,-2.4695,1.3309,2.7476,0.00012000000000000899,-5.882352941188884e-06,0.00012000000000000899,0.00012502189638019523,0.00018857914663628073,0.00013484606929559106
150000000000.0,1,0.0348920607,-0.10225393954999999,0.01942697365,-0.007426,0.006457,0.026805,-1.4528551975,-9.525591410999999,1.8228601019999997,-2.4687,1.3308,2.7467,-1.999999999990898e-05,-5.882352941188884e-06,-5.999999999994898e-05,0.0002342644628390289,7.661875793463224e-05,9.722232295228395e-05
150000000000.0,1,0.0532697228,-0.052867650149999994,0.0162201991,-0.007423,0.007521,0.027868,-1.4546203944999998,-9.525395278,1.822271703,-2.4679,1.3307,2.746,-5.0000000000105516e-05,-5.882352941188884e-06,-4.999999999999449e-05,5.8338238260180475e-05,0.0006722069933577934,-0.00033394036603207056
150000000000.0,1,0.0728830228,0.00045110589999999997,0.0243597186,-0.012753,0.008628,0.02892,-1.4562875249999998,-9.5252972115,1.8213891045,-2.4671,1.3307,2.7453,6.0000000000060005e-05,-5.882352941188884e-06,1.999999999990898e-05,0.00044314430941660987,0.00021327016051997383,0.00023086726736742946
150000000000.0,1,0.07723717539999998,0.028713871199999998,0.01154242705,-0.013803,0.00864,0.025713,-1.4577585225,-9.5252972115,1.8203103729999999,-2.4663,1.3307,2.7445,-9.99999999995449e-06,-5.882352940744795e-06,-9.99999999995449e-06,-0.0005607867468251371,0.00016115425834195563,-0.00023679320244962554
150000000000.0,1,0.08403318385,0.0274193934,0.013827376499999999,-0.018058,0.010804,0.026765,-1.4592295199999998,-9.525395278,1.818937442,-2.4655,1.3307,2.7437,6.999999999990347e-05,-5.882352941188884e-06,2.0000000000020002e-05,0.0006816942008256444,0.0003984847958771187,-1.471383247286795e-05
150000000000.0,1,0.08306232549999999,0.0017553903499999998,0.02750765325,-0.018069,0.008673,0.025697,-1.4605043845,-9.525395278,1.817564511,-2.4647,1.3307,2.7429,2.0000000000020002e-05,-5.882352941188884e-06,2.999999999997449e-05,-9.886181354468171e-05,0.0002373396412160833,-0.00025619257166642484
150000000000.0,1,0.0756484981,-0.020142859099999997,0.0344409548,-0.01804,0.010805,0.023554,-1.461583116,-9.5254933445,1.8160935134999998,-2.4639,1.3308,2.7422,-2.0000000000020002e-05,-5.882352941188884e-06,-2.999999999997449e-05,3.065038698757405e-05,-0.0005367451700157844,0.0005683868947636839
150000000000.0,1,0.06951934185,-0.03019467535,0.03317589695,-0.018034,0.008677,0.019285,-1.4624657145,-9.5256894775,1.8147205825,-2.4633,1.3308,2.7416,4.0000000000040004e-05,-5.882352941188884e-06,9.99999999995449e-06,0.000313253483706033,0.0007991753436380478,-0.0002653457173065199
150000000000.0,1,0.06605759439999999,-0.0322246519,0.03243059155,-0.012724,0.005435,0.019296,-1.4632502465,-9.5256894775,1.813837984,-2.4628,1.3309,2.7411,1.333333333330966e-05,-5.882352941188884e-06,-2.999999999997449e-05,0.00015324481460421424,-0.0002857348733242837,0.0003300626580560184
150000000000.0,1,0.07193177775,-0.0389127872,0.0234967334,-0.006301,0.005386,0.015034,-1.463544446,-9.525787544,1.8133476514999998,-2.4625,1.3309,2.7409,1.3333333333420683e-05,-5.882352941188884e-06,2.0000000000020002e-05,0.0002953683797786155,1.8705079565251026e-06,-0.00011156984342353127
150000000000.0,1,0.06396877795,-0.035352973249999996,0.0228298812,-0.000984,0.001082,0.011845,-1.4636425124999999,-9.5256894775,1.8133476514999998,-2.4625,1.3309,2.7409,1.333333333330966e-05,-5.882352941188884e-06,2.0000000000020002e-05,-0.0004508415896076201,-0.00032938299076556987,0.00018871957438637565
150000000000.0,1,0.06400800455,-0.04147232285,0.02778223945,0.006483,-0.001108,0.008656,-1.4634463795,-9.525591410999999,1.8142302499999998,-2.4628,1.3308,2.7412,-2.4999999999941735e-05,-5.882352941188884e-06,-2.0000000000020002e-05,0.0002594543502620894,0.00027695198248456343,-0.0001453607439914073
150000000000.0,1,0.06102678295,-0.0349901272,0.029027683999999998,0.005425,-0.002162,0.00545,-1.4628579805,-9.5254933445,1.8152109149999998,-2.4633,1.3308,2.7416,-2.5000000000052758e-05,4.761904762062841e-06,-7.00000000000145e-05,-0.00019175509756519382,2.113743659926115e-05,-9.810423913236832e-07
150000000000.0,1,0.06016379775,-0.0244185585,0.021329463749999996,0.007564,-0.004308,0.001185,-1.461779249,-9.5254933445,1.816387713,-2.4639,1.3307,2.7422,4.999999999999449e-05,4.7619047616187515e-06,5.999999999994898e-05,-3.1771200245334086e-05,-0.0003472283587897529,-0.00025803018208359063
150000000000.0,1,0.05408367475,-0.04317867994999999,0.03843226135,0.007586,-0.004304,-0.003088,-1.4605043845,-9.525395278,1.8176625774999997,-2.4647,1.3307,2.7429,7.00000000000145e-05,4.761904762062841e-06,4.999999999999449e-05,-0.0001811828913864666,-3.78974489159134e-05,0.00027275842995733157
150000000000.0,1,0.04317867994999999,-0.0565255306,0.044531997649999995,0.004392,-0.004278,-0.004163,-1.4592295199999998,-9.525395278,1.818937442,-2.4655,1.3307,2.7436,-4.0000000000040004e-05,4.7619047616187515e-06,-3.999999999992898e-05,-0.00010022517543673004,2.6184684263519387e-05,-0.00021360974525697074
150000000000.0,1,0.04078585735,-0.07157873834999999,0.049209769699999996,0.003321,-0.006399,-0.006299,-1.4575623895,-9.525395278,1.819918107,-2.4663,1.3307,2.7444,-2.0000000000020002e-05,4.761904762062841e-06,2.999999999997449e-05,-0.00035629671758119486,0.00020079118905491633,-0.0001723288081407759
150000000000.0,1,0.0343428883,-0.06742071875,0.058643767,-0.003068,-0.006344,-0.008447,-1.455895259,-9.5254933445,1.8206045725,-2.4671,1.3308,2.7451,2.999999999997449e-05,4.761904762062841e-06,4.0000000000040004e-05,0.0003349797228868745,-0.00011830546328583935,-5.1552292723133775e-05
150000000000.0,1,0.03425462845,-0.0637824516,0.0599382448,-0.006227,-0.002056,-0.009529,-1.454130062,-9.5256894775,1.8209968385,-2.4677,1.3309,2.7457,-2.999999999997449e-05,4.7619047616187515e-06,1.999999999990898e-05,-8.414496581887754e-05,-0.0006611907073692525,0.00033226743050374097
150000000000.0,1,0.03086152755,-0.035039160449999995,0.061674021849999996,-0.004097,-0.004203,-0.011658,-1.452364865,-9.5258856105,1.8214871709999998,-2.4685,1.3309,2.7463,-2.0000000000020002e-05,4.761904762062841e-06,1.0000000000065512e-05,-0.00024016277923588625,0.00015673417031858428,-0.00010697635502099345
150000000000.0,1,0.0394619596,-0.017191057449999998,0.049651068949999995,-0.001975,-0.005288,-0.010588,-1.4505016015,-9.526081743499999,1.8219775035,-2.4692,1.331,2.7471,-4.999999999999449e-05,4.761904762062841e-06,2.0000000000020002e-05,-0.00012115761783859647,-0.00017668511413360122,-0.0003404762325995847
150000000000.0,1,0.03086152755,-0.0241635856,0.026791767799999998,0.000122,-0.010632,-0.011644,-1.4486383379999999,-9.5262778765,1.822467836,-2.47,1.3311,2.7477,-2.0000000000020002e-05,4.7619047616187515e-06,2.0000000000020002e-05,0.00017802502926378416,9.106332887709456e-05,-2.058554297690307e-05
150000000000.0,1,0.020270345549999996,-0.02745862,0.0179265562,0.004398,-0.009602,-0.011639,-1.446873141,-9.5264740095,1.823056235,-2.4707,1.3312,2.7484,3.0000000000085514e-05,4.761904762062841e-06,4.999999999999449e-05,-0.0007375693282611895,-0.0008198904834588738,-0.00014583985040417247
150000000000.0,1,0.01124822755,-0.0302240953,0.018966061099999997,0.008671,-0.011764,-0.015899,-1.4451079439999999,-9.526572075999999,1.8241349665,-2.4716,1.3312,2.7492,-2.0000000000020002e-05,4.7619047616187515e-06,1.999999999990898e-05,0.00023527403920065026,0.0002607368015086209,8.952980529608467e-05
150000000000.0,1,0.02007421255,-0.0170047311,0.01173856005,0.00975,-0.009643,-0.014834,-1.443146614,-9.526572075999999,1.8253117644999999,-2.4726,1.3312,2.7501,-2.999999999997449e-05,4.761904762062841e-06,-9.99999999995449e-06,-0.0006306226924943648,-0.00021584614892478093,-0.0003962552434608746
150000000000.0,1,0.0120229529,0.000196133,0.01972117315,0.009725,-0.01284,-0.014829,-1.4413814169999999,-9.526572075999999,1.826782762,-2.4736,1.3312,2.751,-1.0000000000065512e-05,4.761904762062841e-06,9.99999999995449e-06,3.3284768838015566e-05,-0.00010177864311899931,-2.990508512468182e-05
150000000000.0,1,0.0136312435,0.02234935535,0.014994367849999999,0.007599,-0.010694,-0.012702,-1.4397142864999999,-9.526572075999999,1.8280576265,-2.4745,1.3312,2.7518,-2.999999999997449e-05,4.7619047616187515e-06,-4.999999999921734e-06,-0.00015689708440991268,-0.00022019877176560065,6.234053972864473e-05
150000000000.0,1,0.0167301449,0.0232613738,0.0162594257,0.006536,-0.009621,-0.011639,-1.4381452225,-9.526572075999999,1.8292344244999998,-2.4753,1.3312,2.7525,-2.999999999997449e-05,4.761904762062841e-06,-5.000000000032756e-06,-4.526554487238599e-05,-0.00010410681788108889,-0.00018533119260766284
150000000000.0,1,0.02019189235,0.012817291549999998,0.02662505475,0.00547,-0.009612,-0.011642,-1.436478092,-9.5266701425,1.8304112225,-2.4762,1.3312,2.7533,-2.0000000000020002e-05,4.761904762062841e-06,9.99999999995449e-06,0.0005745885576153853,-0.00010585480389324609,3.891059421690102e-05
150000000000.0,1,0.008227779349999999,-0.01032640245,0.021329463749999996,0.002254,-0.009589,-0.008446,-1.4353012939999998,-9.5266701425,1.8309996214999997,-2.4768,1.3313,2.7538,-2.999999999997449e-05,4.7619047616187515e-06,3.0000000000085514e-05,-0.00017936483977409878,-0.00020162402353318676,-1.594375900859646e-05
150000000000.0,1,-0.00014709975,-0.031194953649999996,0.024389138549999998,-0.000928,-0.007432,-0.008456,-1.434320629,-9.526768209,1.8313918875,-2.4772,1.3313,2.7541,-3.0000000000085514e-05,4.761904762062841e-06,5.000000000032756e-06,7.977670291547945e-05,-6.587620929976445e-05,-0.0001905776953048388
150000000000.0,1,-0.0029812216,-0.03339164325,0.0231829206,-0.00091,-0.003173,-0.005261,-1.433536097,-9.526768209,1.831686087,-2.4775,1.3313,2.7544,-9.99999999995449e-06,4.7619047616187515e-06,4.999999999921734e-06,-0.00026445428984067654,-0.0001128927126532453,5.1829846510642597e-05
150000000000.0,1,0.004059953099999999,-0.0291649771,0.022319935399999997,0.001216,-0.004256,-0.005256,-1.4328496314999999,-9.5268662755,1.8321764194999999,-2.4779,1.3313,2.7547,-7.00000000000145e-05,4.761904762062841e-06,-2.999999999997449e-05,0.00013647025015783854,-5.00891852757146e-05,-0.000449262454900623
150000000000.0,1,0.004314926,-0.0165732385,0.0146315218,0.002272,-0.006395,-0.006318,-1.431967033,-9.5268662755,1.8326667519999997,-2.4783,1.3314,2.7551,-9.99999999995449e-06,1.6666666666775853e-05,2.999999999997449e-05,0.0002562402183221568,-0.00022734266571933226,8.070214972955014e-05
150000000000.0,1,0.00028439285,-0.0087671451,-0.0003530394,0.003325,-0.007471,-0.005247,-1.4313786339999999,-9.5268662755,1.8329609514999998,-2.4786,1.3314,2.7553,-1.0000000000065512e-05,1.6666666666775853e-05,9.99999999995449e-06,5.3145212627780936e-05,0.00015572459419765927,-7.893036851802648e-05
150000000000.0,1,0.0008139519499999999,-0.00022555294999999998,-0.0028047019,0.002273,-0.004267,-0.00312,-1.4308883015,-9.5268662755,1.8333532175,-2.4789,1.3314,2.7555,-7.00000000000145e-05,1.6666666666775853e-05,-5.999999999994898e-05,0.0002502734857463551,0.0002571079222160044,-0.0002470032754882112
150000000000.0,1,-0.00652142225,0.0166516917,0.00426589275,0.001203,-0.005323,-0.004186,-1.430594102,-9.5268662755,1.8337454834999998,-2.4791,1.3314,2.7557,-1.4999999999987246e-05,1.6666666666331764e-05,2.0000000000020002e-05,4.0134752276266283e-05,-0.0005942806918077803,-7.518089471769684e-05
150000000000.0,1,-0.0031087080499999998,0.0063154826,-0.00185345685,0.003323,-0.006407,-0.003113,-1.4302999025,-9.5268662755,1.8340396829999999,-2.4793,1.3314,2.7558,-1.4999999999987246e-05,1.6666666666775853e-05,4.999999999921734e-06,-0.0001241518422741006,-7.850652042806772e-05,-0.0002898085779143855
150000000000.0,1,-0.011983726299999999,0.00012748645,0.01801481605,-0.000946,-0.005308,-0.000987,-1.430201836,-9.526768209,1.8343338824999997,-2.4794,1.3313,2.7559,-9.99999999995449e-06,1.6666666666775853e-05,5.000000000032756e-06,0.00022123172925647694,0.00016132455930217837,0.00012051941883362005
150000000000.0,1,-0.0130624578,-0.0200644059,0.01997614605,-0.004137,-0.004216,-0.000994,-1.430201836,-9.5268662755,1.8343338824999997,-2.4794,1.3313,2.7558,-2.999999999997449e-05,4.999999999988347e-05,2.0000000000020002e-05,-1.6739899780793266e-05,-0.0006196625286982727,-0.00011948857727661633
150000000000.0,1,-0.0116699135,-0.0209077778,0.019113160849999998,-0.008418,-0.005248,6.8e-05,-1.430201836,-9.5268662755,1.8340396829999999,-2.4793,1.3314,2.7557,-1.0000000000065512e-05,4.999999999988347e-05,-3.999999999992898e-05,0.0004543412898441179,0.0001900536125383212,-0.0003694051467491022
150000000000.0,1,-0.009237864299999999,-0.008276812599999999,0.0277920461,-0.008397,-0.002052,0.001131,-1.4303979689999997,-9.526964342,1.8335493504999998,-2.4791,1.3314,2.7555,-0.00010999999999994348,4.999999999988347e-05,-4.0000000000040004e-05,4.29873786167434e-05,0.0002309601102306047,-0.00034347616907703937
150000000000.0,1,-0.010091042849999999,0.006286062649999999,0.0263798885,-0.011593,-0.000961,0.002191,-1.430790235,-9.526964342,1.833059018,-2.4788,1.3314,2.7552,4.999999999999449e-05,5.000000000032756e-05,4.999999999999449e-05,0.0001013105487988053,-0.00039414670691106934,0.00024342011360500848
150000000000.0,1,-0.00781590005,0.011483587149999998,0.030714427799999996,-0.007335,-0.000999,0.004334,-1.4312805675,-9.526964342,1.832862885,-2.4786,1.3314,2.7549,-0.0001100000000000545,2.4999999999941735e-05,-0.0001100000000000545,0.0003144373140886447,0.0002149981790373623,-0.0006149010083191797
150000000000.0,1,-0.0060408964,0.043561139299999996,0.010022396299999998,-0.003091,-0.002102,0.007546,-1.431967033,-9.5268662755,1.8327648184999998,-2.4783,1.3313,2.7546,4.0000000000040004e-05,2.4999999999941735e-05,4.0000000000040004e-05,-6.682669329238777e-06,0.0008033632315092021,-0.0007637916917246912
150000000000.0,1,-0.004314926,0.037804635749999996,-0.0026379888499999996,0.00435,-0.004297,0.009698,-1.432947698,-9.5266701425,1.8331570845,-2.4781,1.3312,2.7544,7.999999999996898e-05,2.4999999999941735e-05,-2.999999999997449e-05,0.00031395680227364053,-0.00045788072778307765,1.098192378945484e-05
150000000000.0,1,0.0027556686499999998,0.024085132399999997,-0.0075707338,0.016054,-0.007591,0.010792,-1.4339283629999997,-9.52617981,1.8345300154999997,-2.4782,1.3311,2.7543,1.0000000000065512e-05,2.4999999999941735e-05,-2.0000000000020002e-05,-0.00024362458460625014,-0.00032249458454503,-0.0003199843481271891
150000000000.0,1,0.00344213415,0.005462304049999999,-0.02150598345,0.022456,-0.005516,0.014001,-1.4350070944999997,-9.5256894775,1.8362952124999998,-2.4783,1.3309,2.7544,3.999999999992898e-05,3.333333333355171e-05,-2.999999999997449e-05,-0.00043200684150668245,0.0006172218076068159,-1.2185558837529697e-06
150000000000.0,1,-0.0007453054,-0.030949787399999998,-0.009914523149999998,0.025614,-0.008742,0.017215,-1.4363800254999999,-9.525003011999999,1.8386488085,-2.4784,1.3306,2.7545,-2.999999999997449e-05,3.333333333310762e-05,-3.0000000000085514e-05,-0.0005169893503831346,-0.00027328092874068233,-0.0002111151949950596
150000000000.0,1,0.00705098135,-0.06869558325,-0.012434832199999999,0.025602,-0.008744,0.019349,-1.4377529564999998,-9.524414613,1.8408062714999998,-2.4785,1.3303,2.7545,-2.0000000000020002e-05,3.333333333355171e-05,-3.999999999992898e-05,0.00021334747571533086,0.0005325322245730568,-0.0002808481987273126
150000000000.0,1,0.01034601575,-0.05611365129999999,-0.0048248718,0.020284,-0.006569,0.019334,-1.4391258875,-9.523826214,1.842865668,-2.4786,1.3301,2.7545,2.0000000000020002e-05,2.4999999999941735e-05,-5.000000000032756e-06,-0.00024843414099295913,-0.00011372258518616007,-5.579077373107921e-05
150000000000.0,1,0.00399130655,-0.0367945508,0.00326561445,0.016022,-0.006533,0.018259,-1.4406949515,-9.523237815,1.8446308649999998,-2.4785,1.3298,2.7543,2.999999999997449e-05,2.4999999999941735e-05,-5.000000000032756e-06,-5.670952558123332e-05,4.837459942419464e-05,0.00010307714449275807
150000000000.0,1,0.004726805299999999,-0.022800461249999997,0.00907115125,0.0107,-0.004359,0.019313,-1.4422640155,-9.5227474825,1.8460037959999998,-2.4784,1.3296,2.7541,-0.000140000000000029,2.5000000000385825e-05,-0.00015999999999993797,-0.00030122433927570746,0.00041051247764944954,-0.0006948183574739808
150000000000.0,1,0.011640493549999999,-0.00234378935,-0.00456009225,0.006463,-0.001127,0.018232,-1.4438330794999998,-9.5223552165,1.846592195,-2.478,1.3294,2.7537,3.0000000000085514e-05,2.4999999999941735e-05,9.99999999995449e-06,-9.779245199292852e-05,-0.00015807191944094967,0.0001877638099538892
150000000000.0,1,0.01974078645,-0.00784532,-0.014386355549999999,0.005397,-0.002181,0.016096,-1.4450098775,-9.5221590835,1.846984461,-2.4777,1.3293,2.7534,-9.00000000000345e-05,3.333333333310762e-05,-5.999999999994898e-05,0.0010155673481937466,0.00013213088035635145,-0.0003990441384482679
150000000000.0,1,0.017455837,-0.0186718616,-0.0137685366,0.004321,-0.003238,0.016095,-1.4461866755,-9.521962950499999,1.8470825274999998,-2.4773,1.3292,2.753,-2.999999999997449e-05,3.333333333355171e-05,-1.0000000000065512e-05,-0.00037449384804988384,-0.00018082862204704675,0.0005287468042616261
150000000000.0,1,0.013307624049999998,-0.011964112999999998,-0.0264387284,0.003267,-0.002163,0.015023,-1.44746154,-9.5217668175,1.8470825274999998,-2.4769,1.3292,2.7525,-2.0000000000020002e-05,3.333333333310762e-05,-9.99999999995449e-06,-0.0002157858756115516,0.0009328628492470958,-0.0006466713638877408
150000000000.0,1,0.015582766849999999,0.00761976705,-0.03480380085,0.004321,-0.004302,0.013961,-1.4485402715,-9.521570684499999,1.8470825274999998,-2.4765,1.3291,2.7521,2.999999999997449e-05,0.00010000000000021103,-4.0000000000040004e-05,-6.183951767546603e-05,-7.613244584980805e-05,-0.00012273645712701509
150000000000.0,1,0.028282378599999998,0.02397725925,-0.0405210778,0.004322,-0.003237,0.015025,-1.4494228699999998,-9.521472617999999,1.846984461,-2.4762,1.329,2.7517,-6.499999999998174e-05,3.333333333310762e-05,-2.999999999997449e-05,-0.0004309208657320429,-0.0003151122234985593,0.0004736701766452356
150000000000.0,1,0.04427702475,0.02852754485,-0.042923707049999996,0.003254,-0.003229,0.015021,-1.4501093354999999,-9.5213745515,1.8467883279999997,-2.4759,1.329,2.7514,-6.499999999998174e-05,3.333333333355171e-05,-0.00015999999999993797,0.0004883793040608708,-9.22850020421695e-05,0.00038696322930054095
150000000000.0,1,0.05823188769999999,0.0263995018,-0.039206986699999995,2.2e-05,-0.004273,0.019284,-1.4508938674999998,-9.5213745515,1.846396062,-2.4756,1.329,2.751,9.00000000000345e-05,3.333333333310762e-05,1.999999999990898e-05,0.0003827654861581209,-0.00039263895805774496,0.00013227988510866595
150000000000.0,1,0.05847705395,0.00730595425,-0.022672974799999995,-0.008523,-0.005268,0.019268,-1.4517764659999999,-9.5213745515,1.8454153969999998,-2.475,1.329,2.7503,4.999999999999449e-05,4.999999999988347e-05,2.0000000000020002e-05,-2.2614193156744733e-05,0.0004995736178070587,-0.0009735124375134241
150000000000.0,1,0.05512317965,-0.033891782399999994,0.0072176943999999995,-0.018149,-0.006259,0.022452,-1.4527571309999998,-9.521472617999999,1.8441405324999998,-2.4744,1.3291,2.7496,-2.0000000000020002e-05,5.000000000032756e-05,-4.999999999999449e-05,0.00030307272821805675,0.0002538298736360911,-0.00019855190661210997
150000000000.0,1,0.035696206,-0.0772567887,0.03962867265,-0.029902,-0.00723,0.024565,-1.454130062,-9.521668751,1.842081136,-2.4734,1.3291,2.7484,9.99999999995449e-06,9.999999999976694e-05,1.0000000000065512e-05,-9.673908692353628e-05,-0.00026777776046693624,-0.0003835889363195122
150000000000.0,1,0.024565658249999997,-0.1141101794,0.07734504854999999,-0.040583,-0.00821,0.025614,-1.4556991259999998,-9.521962950499999,1.839531407,-2.4721,1.3292,2.7471,-9.99999999995449e-06,5.000000000032756e-05,9.99999999995449e-06,0.001249518538181782,3.243918711914873e-05,-2.796183704401045e-05
150000000000.0,1,0.0284000584,-0.15113028315,0.09115281174999999,-0.047012,-0.011356,0.026673,-1.4571701234999999,-9.5223552165,1.8362952124999998,-2.4708,1.3294,2.7456,5.999999999994898e-05,4.999999999988347e-05,4.0000000000040004e-05,-0.00046146708177596807,-6.531161231237981e-05,0.00035970105484794956
150000000000.0,1,0.027007514099999998,-0.15920115609999996,0.09571290399999999,-0.052363,-0.01238,0.028798,-1.4587391874999998,-9.522845549,1.8326667519999997,-2.4693,1.3296,2.7439,-0.00012999999999996348,9.999999999976694e-05,2.5000000000052758e-05,0.0004355341488386788,-0.0004973083847368276,-2.7732251860701496e-05
150000000000.0,1,0.037716375899999995,-0.15648471404999997,0.08916206179999998,-0.048153,-0.019875,0.028816,-1.460014052,-9.523237815,1.8292344244999998,-2.468,1.3298,2.7422,-4.0000000000040004e-05,4.999999999988347e-05,2.4999999999941735e-05,0.00020058962339564168,6.520880137905749e-05,-0.00041113135779058396
150000000000.0,1,0.037382949799999995,-0.12452484169999999,0.0657241683,-0.039687,-0.029535,0.027777,-1.4612889165,-9.523630081,1.8260962964999998,-2.4667,1.33,2.7407,1.0000000000065512e-05,5.000000000032756e-05,6.999999999990347e-05,0.00035134847946816095,0.00013420065067415443,-0.00028554235675182227
150000000000.0,1,0.03429385505,-0.11682662144999999,0.04746418599999999,-0.030135,-0.03388,0.031001,-1.4627599139999998,-9.523826214,1.8239388334999997,-2.4656,1.3301,2.7392,9.99999999995449e-06,4.999999999988347e-05,9.00000000000345e-05,0.0001748004007309234,0.00022513217162045684,-0.0004752614447829373
150000000000.0,1,0.047091533299999995,-0.08116964204999999,0.0223983886,-0.018495,-0.044635,0.033172,-1.4640347785,-9.5239242805,1.822663969,-2.4649,1.3301,2.738,-9.999999999998899e-05,4.999999999988347e-05,1.0000000000065512e-05,-0.0006688981703955044,-0.00013295886742148433,-0.0009760523268105281
150000000000.0,1,0.07434421364999999,-0.0234771201,0.0132389775,-0.005756,-0.050073,0.037469,-1.4654077095,-9.523728147499998,1.822663969,-2.4644,1.33,2.737,-0.00036000000000002697,-2.4999999999941735e-05,-0.00021000000000004349,0.0008706050148425959,0.0008320880222949523,-0.0018450936635208137
150000000000.0,1,0.10325421785,0.05557428555,-0.00102969825,0.008006,-0.057657,0.047108,-1.46707484,-9.5231397485,1.8242330329999998,-2.4643,1.3298,2.7362,0.00034000000000000696,-2.4999999999941735e-05,0.000260000000000038,-0.0010932711557045671,-0.00016597806381368763,0.0011100522016209702
150000000000.0,1,0.13465511115,0.14122556665,-0.023212340550000002,0.021782,-0.064175,0.055677,-1.4691342365,-9.5223552165,1.8269788949999999,-2.4643,1.3294,2.7356,2.0000000000020002e-05,-2.4999999999941735e-05,-1.0000000000065512e-05,-0.0005804288266466617,0.000581479146556152,-0.0011780634932017087
150000000000.0,1,0.16274135674999998,0.19536808129999997,-0.0467384939,0.039807,-0.072859,0.064255,-1.471585899,-9.521080351999998,1.8312938209999998,-2.4647,1.3289,2.7352,-2.999999999997449e-05,-2.4999999999941735e-05,-8.999999999992347e-05,-0.0012686896438383055,0.0014286750475804855,-0.0022678399736189014
150000000000.0,1,0.155337336,0.20331146779999998,-0.06583204145,0.055668,-0.084722,0.073904,-1.4750182264999998,-9.519413221499999,1.8370797444999998,-2.4651,1.3282,2.7347,7.999999999996898e-05,-5.000000000032756e-05,1.999999999990898e-05,-0.0005815413783407664,0.0005900485314083159,-0.0003158128706521879
150000000000.0,1,0.13773439925,0.16369260179999998,-0.07877681945,0.067317,-0.093348,0.077135,-1.4787447535,-9.517549958,1.8439443995,-2.4656,1.3274,2.7343,-4.999999999999449e-05,-4.999999999988347e-05,-9.999999999998899e-05,-0.0007166181758540002,0.0012918594936288663,-0.001060581444088271
150000000000.0,1,0.1037151304,0.10662770545,-0.0693330155,0.073654,-0.099797,0.079288,-1.4830596795,-9.515392495,1.8514955199999998,-2.4662,1.3265,2.7339,-7.00000000000145e-05,-9.999999999976694e-05,-0.00015999999999993797,-0.0017990499603779408,0.000659754975216087,-0.0012079013855461618
150000000000.0,1,0.0815128748,0.033891782399999994,-0.0335583563,0.070405,-0.1051,0.080355,-1.487472672,-9.5131369655,1.859536973,-2.4669,1.3255,2.7335,-7.00000000000145e-05,-0.00010000000000021103,-0.00012000000000000899,-0.0021074226617545655,0.0005849468643424061,-0.0014174795042438681
150000000000.0,1,0.07854145985,-0.0139450563,-0.0011081514499999999,0.060783,-0.10822,0.079272,-1.4916895314999998,-9.5109795025,1.867382293,-2.4676,1.3246,2.7331,-0.00014999999999998348,-9.999999999976694e-05,-0.000180000000000069,-0.00018988513212137015,0.0010451326912515047,-0.0016324865844690173
150000000000.0,1,0.0782374537,-0.03837342144999999,0.032263878499999996,0.046886,-0.11237,0.078184,-1.495710258,-9.508920106,1.874246948,-2.468,1.3238,2.7324,-4.999999999999449e-05,-5.000000000032756e-05,-7.999999999996898e-05,-0.0006476059700368797,0.00039505101781545093,-0.0012413349549760255
150000000000.0,1,0.07891411255,-0.05269113045,0.05150452579999999,0.033026,-0.11331,0.074955,-1.499240652,-9.5072529755,1.8803270709999997,-2.4685,1.323,2.7316,-0.00029000000000001247,-4.999999999988347e-05,-0.00024000000000001798,-0.0002199234069879541,0.0011244241659646992,-0.0015506541362646509
150000000000.0,1,0.0619191881,-0.04102121695,0.04106044354999999,0.022372,-0.11429,0.070665,-1.5027710459999999,-9.5056839115,1.8850342629999999,-2.4686,1.3224,2.7305,-4.999999999999449e-05,-9.999999999976694e-05,-0.00012000000000000899,0.00040829503737649375,-2.6434447254253257e-05,-0.0018468383929306498
150000000000.0,1,0.06990180119999999,-0.023388860249999997,0.0356569794,0.012793,-0.11421,0.066376,-1.5058111074999998,-9.504507113499999,1.8888588565,-2.4685,1.3219,2.7292,0.00012999999999996348,-4.999999999988347e-05,0.0001100000000000545,-0.00037144135801558953,0.0016208846832945767,-0.0020218065347719083
150000000000.0,1,0.0701175475,-0.0463658412,0.01307226445,0.008542,-0.11417,0.063162,-1.508458903,-9.503526448499999,1.8917027849999997,-2.4684,1.3215,2.7279,-6.999999999990347e-05,-5.000000000032756e-05,-6.0000000000060005e-05,-0.0002796004219427495,-0.0003837958849242096,-0.00114951185509371
150000000000.0,1,0.0612327226,-0.11109953785,-0.0039128533499999995,0.001046,-0.11943,0.059952,-1.510616366,-9.502839983,1.8933699155,-2.4682,1.3212,2.7264,-0.000260000000000038,-9.999999999976694e-05,-0.00017000000000000348,-0.00033683801904693667,0.0011188125587466846,-0.0009138547283473741
150000000000.0,1,0.06753839854999999,-0.16387892815,-0.01730873725,-0.004274,-0.11939,0.056735,-1.5122834965,-9.502447716999999,1.894056381,-2.4678,1.3211,2.7248,5.999999999994898e-05,-0.00010000000000021103,6.0000000000060005e-05,0.0006280387706725232,0.00096244580283944,-0.0021196161719307938
150000000000.0,1,0.06738149215,-0.1974274778,-0.00977723005,-0.011707,-0.11932,0.049245,-1.513362228,-9.502251584,1.8941544474999998,-2.4675,1.321,2.7232,-0.00030999999999992145,-0.00010000000000021103,-0.0001100000000000545,-0.0005224781738264461,-0.000970082386316129,-0.00041427738101340594
150000000000.0,1,0.048140844849999996,-0.2219441028,0.010895188149999999,-0.012749,-0.11931,0.043902,-1.51414676,-9.502055451,1.8941544474999998,-2.4672,1.3209,2.7217,-0.0003700000000000925,-9.999999999976694e-05,-0.00017000000000000348,-0.0005290967863156304,0.0006164556991612447,-0.0008875252189710636
150000000000.0,1,0.03329357675,-0.24446997785,-0.0016867438,-0.016941,-0.115,0.035343,-1.5144409595000001,-9.5021535175,1.8935660485,-2.467,1.321,2.7202,0.0001100000000000545,-5.000000000032756e-05,0.000180000000000069,0.0007187104149448675,-0.00015752057941154085,-0.0013549874408651519
150000000000.0,1,0.0194760069,-0.32379596969999996,0.0021770762999999997,-0.016891,-0.11499,0.024666,-1.5137544939999998,-9.502447716999999,1.89268345,-2.467,1.3211,2.719,-0.00026999999999999247,-4.999999999988347e-05,9.99999999995449e-06,-0.0006231969695564832,-0.0001723583402732931,-0.0017397359950668267
150000000000.0,1,-0.0269879008,-0.49792284709999995,0.0076688003,-0.014698,-0.11712,0.008659,-1.511989297,-9.502938049499999,1.891506652,-2.4672,1.3213,2.7181,0.00024000000000001798,-4.999999999988347e-05,0.000520000000000076,0.00048703562202034867,-0.0009876011635303605,0.00012090752286209039
150000000000.0,1,-0.08470003605,-0.7122079562499999,0.0165340119,-0.011409,-0.11607,-0.008418,-1.5090473019999997,-9.5037225815,1.8901337209999998,-2.4678,1.3216,2.7175,-0.00026999999999999247,-4.999999999988347e-05,0.00014999999999998348,-0.0001734044352244002,0.0002500938653786644,-0.0017948063577710727
150000000000.0,1,-0.14620734485,-0.9264244188499999,0.018867994599999997,-0.002808,-0.11719,-0.023345,-1.5050265754999999,-9.504114847499999,1.8916047185,-2.4695,1.3217,2.718,0.00029999999999996696,-4.999999999988347e-05,0.0006999999999999229,-0.0009035957360457036,-0.0020200207232630163,0.0011887161392469814
150000000000.0,1,-0.17405823085,-1.0839290245,0.03702010375,0.001503,-0.12041,-0.037208,-1.4995348514999998,-9.504507113499999,1.8935660485,-2.4718,1.3219,2.7192,7.999999999996898e-05,-5.000000000032756e-05,0.0006000000000000449,-0.0005046156807047009,0.0011257412731573435,-0.00226397908151732
150000000000.0,1,-0.17035131715,-1.0503902815,-0.018112882549999997,0.004825,-0.1119,-0.047891,-1.4928663295,-9.505193579,1.8956254449999999,-2.4745,1.3222,2.7208,4.0000000000040004e-05,-0.0001500000000000945,0.0007099999999999884,-0.003331904874580127,-0.002625492016652853,0.001893405601606446
150000000000.0,1,-0.11637551555,-0.89425860685,-0.0712747322,0.010315,-0.093823,-0.052186,-1.4858055415,-9.506566509999999,1.894056381,-2.4764,1.3228,2.7218,-0.00017000000000000348,-0.0001499999999996504,0.00038000000000004697,0.0016896063684166407,-0.003046173161819876,-0.0007369004872348484
150000000000.0,1,-0.0241439723,-0.61649505225,-0.16483017319999999,0.027471,-0.081181,-0.048976,-1.4794312189999999,-9.506958776,1.8972925754999999,-2.4793,1.3229,2.7239,-4.999999999999449e-05,-0.00019999999999997797,0.00044999999999995044,3.1093880179522415e-05,0.0009467010240031826,-0.003345110009492114
150000000000.0,1,0.11056017209999999,-0.21157847375,-0.31878477155,0.05411,-0.078216,-0.037194,-1.4740375614999999,-9.506664576499999,1.9029804325,-2.4825,1.3228,2.7264,-2.999999999997449e-05,-0.000500000000000167,0.00024999999999997247,-0.0018632134534208866,-0.00048679665731832245,-0.00131459341248652
150000000000.0,1,0.19485813549999997,0.17468585644999998,-0.4650705696,0.080774,-0.072054,-0.025417,-1.4699187685,-9.505585845,1.9112180185,-2.486,1.3224,2.7292,0.0004999999999999449,-0.00039999999999995595,0.0006000000000000449,0.00012497802458666385,-0.0016843744285048867,0.000743843344348516
150000000000.0,1,0.25380590865,0.5170654279,-0.5972347916499999,0.11385,-0.062747,-0.015783,-1.463740579,-9.506272310499998,1.912885149,-2.4884,1.3226,2.7311,0.00019999999999997797,-0.00039999999999995595,0.00027999999999994696,-0.0015889493231815432,0.0007002291425310947,0.00037486976623002377
150000000000.0,1,0.29986774369999997,0.7655659388999999,-0.6888190959999999,0.15128,-0.046015,-0.007209,-1.4619753819999999,-9.503624514999998,1.9271047914999997,-2.4926,1.3216,2.7349,0.00017000000000000348,-0.00039999999999995595,0.00021000000000004349,-0.002701708391527502,0.0005654634585114948,0.00026515010341743306
150000000000.0,1,0.3268556445,0.9134992541499999,-0.7435402029999999,0.18978,-0.028228,0.0035,-1.4613869830000001,-9.5001921875,1.944658695,-2.4971,1.3201,2.7392,0.0006900000000000794,-0.0005999999999999339,0.00024999999999997247,-0.0023239098058418506,-0.000650079462470643,0.000549611679441675
150000000000.0,1,0.3741825374,0.9759676146499999,-0.7890430589999999,0.21757,-0.017808,0.011002,-1.4618773155,-9.495877261499999,1.965056527,-2.502,1.3184,2.744,0.0008799999999999919,-0.000700000000000145,0.00034000000000000696,-0.0032177783064466503,-0.0016720991601719692,0.002389903230103574
150000000000.0,1,0.3916579877,1.0289137179999999,-0.8478731523499999,0.23788,-0.009457,0.017427,-1.4632502465,-9.491072003,1.9874156889999999,-2.5069,1.3164,2.749,0.0005600000000000049,-0.0019000000000000128,4.0000000000040004e-05,0.014267467995629168,-0.01300521681916722,0.014691701661538659
150000000000.0,1,0.41578234669999997,1.053430343,-0.8748512464999999,0.25822,0.001028,0.020646,-1.4650154434999998,-9.485678345499998,2.011343915,-2.5121,1.3143,2.7543,7.00000000000145e-05,-0.001100000000000101,-0.0006700000000000594,-0.0002683726133509978,-0.00036178961329369486,0.0007523743156454543
150000000000.0,1,0.4020922632999999,0.9995918345,-0.8681827244999999,0.28289,0.016811,0.018526,-1.46707484,-9.4797943555,2.0374296039999997,-2.5175,1.3119,2.7601,0.00010999999999994348,0.00010000000000021103,-0.0010799999999999699,-0.019094960890117196,0.014546870143673507,-0.017024842150879405
150000000000.0,1,0.40864310549999994,0.84914801685,-0.8413713434,0.30544,0.028358,0.007871,-1.468643904,-9.4735180995,2.0653785565,-2.5235,1.3094,2.7665,0.0008700000000000374,-0.0009000000000001229,-0.00032999999999994145,-0.0017827991920382757,-0.0005329390562329728,0.0016372380232363426
150000000000.0,1,0.4029160219,0.6972430083499999,-0.8758319115,0.32259,0.03036,-0.003845,-1.469232303,-9.466947644,2.095092706,-2.53,1.3068,2.7736,0.00018999999999991246,-0.0011999999999998678,-0.0008900000000000574,-0.006457160863051703,0.002576518347822576,-0.0023494581167984308
150000000000.0,1,0.3695734118999999,0.5373259668,-0.9109299118499999,0.34082,0.029165,-0.024091,-1.468055505,-9.460082988999998,2.1265720525,-2.5374,1.3041,2.7815,0.0009400000000000519,-0.001100000000000101,-0.0006599999999999939,-0.0012191458375301334,-0.000251101499030737,0.0013454401542625227
150000000000.0,1,0.34320333005,0.45879431359999995,-0.9023981263499999,0.34201,0.0345,-0.04011,-1.4655057759999999,-9.453218334,2.158639798,-2.5452,1.3015,2.79,0.0010799999999999699,-0.0011999999999998678,-0.00046000000000001595,-0.004443355892207235,-0.0031376348648295416,0.0037305182995663877
150000000000.0,1,0.35832518435,0.6296163499499999,-0.9165098957,0.32202,0.05388,-0.074356,-1.4553068599999999,-9.451158937499999,2.1742323714999996,-2.5517,1.3007,2.7974,0.00040000000000006697,-0.001200000000000312,-0.0008799999999999919,-0.0019141450253210568,-0.0003561046477789098,-0.002468833170170992
150000000000.0,1,0.3447233608,0.310870805,-0.8110884081999999,0.29559,0.075424,-0.088316,-1.4489325375,-9.445765279999998,2.2017890579999997,-2.5596,1.2987,2.8063,0.0009699999999999154,-0.0013999999999998458,-0.0006800000000000139,-0.005078203414890181,-0.0010719372881158318,0.002976789453279949
150000000000.0,1,0.21968857329999997,-0.11119760434999999,-0.7055884674999999,0.24143,0.089752,-0.11619,-1.440596885,-9.441646487,2.2248346855,-2.567,1.2971,2.8148,0.0009200000000000319,-0.0013000000000000789,-0.0005899999999999794,0.0014947226164214733,0.00046762495773999824,0.0025703392208344944
150000000000.0,1,0.2577972152,-0.11615976924999999,-0.7279476295,0.16803,0.1021,-0.13982,-1.4301037694999998,-9.439390957499999,2.241211791,-2.5737,1.2963,2.8228,0.0005300000000000304,-0.0009999999999998899,-0.0008500000000000174,-0.001875680971496152,-0.0011907132872444048,0.00010813323010783193
150000000000.0,1,0.17737287854999997,-0.3789583759499999,-0.56965849185,0.082867,0.11987,-0.15816,-1.4134324645,-9.443117484499998,2.2362103995,-2.5779,1.2977,2.8285,0.0011200000000000099,-0.0011999999999998678,-0.00027999999999994696,-0.001577380588479782,-0.0008109807265261892,0.002654427050032826
150000000000.0,1,0.0997532438,-0.5591555696999999,-0.37844843014999996,-0.019149,0.15378,-0.18615,-1.399605088,-9.445471080499999,2.2348374685,-2.5821,1.2985,2.8343,0.0008000000000000229,-0.001100000000000101,-0.0005500000000000504,0.0030565507483173437,-0.0015132835828319813,0.0009443444141856716
150000000000.0,1,0.08289561245,-0.5313733302499999,-0.23796816889999997,-0.12432,0.19622,-0.20883,-1.3846009135,-9.450472472,2.2228733555,-2.5845,1.3005,2.8388,0.00029999999999996696,-0.0011999999999998678,-0.0004999999999999449,0.0011181619671563059,-0.001039931036578734,0.00230656586478295
150000000000.0,1,0.07193177775,-0.53625704195,-0.1260546791,-0.21999,0.23219,-0.224,-1.3687141404999998,-9.457925525999999,2.201200659,-2.5853,1.3033,2.8419,0.0007500000000000284,-0.001000000000000334,-0.000160000000000049,0.004245122381032473,-0.0010616817510418208,0.004587813560942067
150000000000.0,1,0.07601134415,-0.44234856154999996,-0.10749069065,-0.29114,0.26582,-0.23807,-1.3492969734999998,-9.4684186415,2.1675638495,-2.5848,1.3074,2.8441,0.0007300000000000084,-0.0009999999999998899,-0.00036000000000002697,0.0017928188073512707,-0.0022592483193106805,0.0023270227711651437
150000000000.0,1,0.14675651725,-0.29424853325,-0.1804227467,-0.33247,0.29495,-0.24886,-1.332135336,-9.478715624,2.1328483085,-2.5833,1.3115,2.8455,0.00047999999999992493,-0.0011999999999998678,-0.0005399999999999849,0.00794733016028415,-0.0019081427346565594,0.0016299590671935427
150000000000.0,1,0.23026994864999997,-0.16419274095,-0.28952172795,-0.33773,0.30352,-0.24889,-1.314875632,-9.489208739499999,2.09666177,-2.5815,1.3157,2.8468,0.00043000000000004146,-0.0013000000000000789,-0.0005100000000000104,0.004287886617844405,-0.003434629737721462,0.005552460518017721
150000000000.0,1,0.17470546975,-0.18481612590000002,-0.35191163524999997,-0.3206,0.3119,-0.24887,-1.2977139945,-9.499309589,2.0615539629999997,-2.5798,1.3198,2.8482,0.0007599999999999829,-0.001100000000000101,-0.0004899999999999904,0.0016498857048272697,-0.0014948524699522903,0.0026047955093342345
150000000000.0,1,0.18157012474999998,-0.0378928956,-0.4130953246,-0.30118,0.34158,-0.24784,-1.2769238964999998,-9.511273701999999,2.018993102,-2.5777,1.3247,2.8495,0.0009400000000000519,-0.0013000000000000789,-0.00017999999999995797,0.004387851971910051,-0.0013141884987659669,0.0040213718914690055
150000000000.0,1,0.1583381709,-0.014396162199999998,-0.50962218055,-0.27643,0.37014,-0.24464,-1.260742924,-9.520099687,1.9873176224999998,-2.5763,1.3284,2.8518,0.0005699999999999594,-0.0015999999999998238,-0.0005199999999999649,0.0031392450580798315,-0.0014076639680264957,0.0033653460544584846
150000000000.0,1,0.1697334982,-0.0971839015,-0.5325599349,-0.253,0.37526,-0.22753,-1.2459348824999998,-9.528141139999999,1.9578976725,-2.5749,1.3319,2.8542,0.0009599999999999609,-0.0013999999999998458,-0.0001500000000000945,-0.0005024803702398106,-0.000419813409624048,0.003317840358332269
150000000000.0,1,0.2444993978,-0.19649584604999998,-0.4710722394,-0.24562,0.3805,-0.20298,-1.233284304,-9.5354961275,1.929752587,-2.5729,1.3351,2.8561,0.0008000000000000229,-0.0017000000000000348,-0.0006099999999999994,0.001307261128636883,-0.0006262834741841417,0.00472189260298661
150000000000.0,1,0.3097920735,-0.17468585644999998,-0.3744375103,-0.26361,0.41472,-0.18175,-1.215828467,-9.5454989105,1.8910163194999998,-2.5702,1.3395,2.8574,0.0005300000000000304,-0.0016000000000002679,-0.0005699999999999594,0.008052150266357971,-0.0013493656421852407,0.0035602731906454466
150000000000.0,1,0.32421765565,-0.12486807444999999,-0.23350614314999998,-0.27082,0.46377,-0.15516,-1.208767679,-9.552461631999998,1.8599292389999997,-2.5653,1.3426,2.8571,0.0008399999999999519,-0.0017000000000000348,-0.00024000000000001798,0.001596294161414047,-0.0012570703661836102,0.00468863537825337
150000000000.0,1,0.30991955995,-0.00477583855,-0.15117931639999999,-0.25253,0.49344,-0.13917,-1.204060487,-9.5590320875,1.8292344244999998,-2.5595,1.3456,2.8561,0.0007300000000000084,-0.0017999999999998018,-0.0007599999999999829,0.004975342027427443,-0.00010767302487590946,0.005395990926499561
150000000000.0,1,0.37534952875,0.32388422955,-0.26812361765,-0.20554,0.51328,-0.11564,-1.201510758,-9.564425745,1.8021680704999998,-2.5536,1.3481,2.8553,0.0011200000000000099,-0.0019000000000000128,-0.0004899999999999904,0.0016700795354132048,0.00024982498219783267,0.005858603698507103
150000000000.0,1,0.418743955,0.58423117375,-0.41390927655,-0.15001,0.53304,-0.094241,-1.19837263,-9.569525203,1.7772591795,-2.5483,1.3504,2.8553,0.0005399999999999849,-0.0020999999999999908,-0.0008299999999999974,-0.002218331368036841,0.001209293907147524,0.005715402939787673
150000000000.0,1,0.5273427971,0.8265633018999999,-0.56253886395,-0.081819,0.53991,-0.065315,-1.2010204254999999,-9.5721729985,1.76127434,-2.5431,1.3517,2.8555,0.0009200000000000319,-0.0022999999999999687,-0.0009799999999999809,0.006912490773920865,-0.0005912341544600519,0.006414614412357356
150000000000.0,1,0.5818481578,0.8479123789499999,-0.61863290195,-0.022238,0.53832,-0.034254,-1.2066102159999998,-9.573251729999999,1.7512715569999997,-2.5383,1.3522,2.8561,0.0007699999999999374,-0.0022999999999999687,-0.0009299999999999864,-0.002994711855984322,-2.405366626567762e-05,0.004884611515187931
150000000000.0,1,0.53317775385,0.64028598515,-0.57611126755,0.026753,0.54322,-0.00856,-1.214651669,-9.573251729999999,1.7460740325,-2.5338,1.3522,2.857,0.0013100000000000334,-0.0022999999999999687,-0.0009299999999999864,0.0008808141701150962,0.0016699277353491304,0.004158794307808744
150000000000.0,1,0.4537929221,0.28922752845,-0.42293139454999995,0.056627,0.55255,0.006418,-1.224458319,-9.572271064999999,1.7442107689999997,-2.5295,1.3517,2.8583,0.0008900000000000574,-0.0026000000000001577,-0.0010900000000000354,0.0004662636496866046,0.002341938656855058,0.0050935704611831945
150000000000.0,1,0.40076836555,-0.1890329854,-0.24419539164999998,0.064062,0.56099,0.026697,-1.236226299,-9.570898134,1.7434262369999998,-2.5248,1.3511,2.8592,0.0006800000000000139,-0.0024999999999999467,-0.0008099999999999774,-0.0031322403417672895,5.129890996768971e-05,0.008328715251790797
150000000000.0,1,0.3508427104,-0.6928692424499999,-0.061144462749999996,0.05115,0.56001,0.045878,-1.2459348824999998,-9.570309734999999,1.7397977765000001,-2.5201,1.3508,2.8601,0.0009599999999999609,-0.0026999999999999247,-0.0007000000000000339,0.0039056886028110416,0.0015185379022868428,0.0031956325947910535
150000000000.0,1,0.3180884994,-0.8650347898499999,0.05269113045,0.070644,0.59821,0.049046,-1.2609390569999999,-9.568642604499999,1.7384248455,-2.5141,1.35,2.8599,0.0009599999999999609,-0.0026999999999999247,-0.0006300000000000194,0.0010092120500451163,0.0016758547178929994,0.006396207686958366
150000000000.0,1,0.19602512684999998,-1.3379212594999998,0.2676430918,0.094148,0.60015,0.045881,-1.2759432314999999,-9.566387075,1.7394055105,-2.5087,1.349,2.8606,0.0009400000000000519,-0.0024999999999999467,-0.00027999999999994696,-0.0035746918107295578,0.0029677939535759368,0.006860083782489479
150000000000.0,1,0.0734125819,-1.6711512265,0.25137385944999996,0.10474,0.58621,0.038452,-1.290162874,-9.564131545499999,1.7417591064999998,-2.5041,1.3479,2.8619,0.0007899999999999574,-0.0028000000000001357,-0.00040000000000006697,0.00108007026783552,0.0005969504141307702,0.0040399625662730365
150000000000.0,1,-0.0020299765499999997,-1.795009216,0.16136842575,0.098464,0.59161,0.022421,-1.3030095855,-9.562072149,1.74362237,-2.4999,1.347,2.8636,0.0011400000000000299,-0.0026000000000001577,2.0000000000020002e-05,-0.0018852753778972886,0.0007461016842540413,0.007338373896051298
150000000000.0,1,0.02564438975,-1.6196663139999998,0.20014391985,0.091204,0.61299,0.014899,-1.315071765,-9.5602088855,1.7445049684999998,-2.4957,1.3461,2.8655,0.0006499999999999284,-0.0028999999999999027,-5.999999999994898e-05,0.0023427439571386266,0.0006575762554064113,0.00676541347191062
150000000000.0,1,0.1707533898,-1.2396586264999998,0.31717648094999995,0.080698,0.63545,0.018043,-1.327624277,-9.558541755,1.7442107689999997,-2.491,1.3454,2.8672,0.0011800000000000699,-0.0026000000000001577,8.999999999992347e-05,0.002410894799644181,0.0025186781892732046,0.005754797383529464
150000000000.0,1,0.37583005459999996,-0.7797659681,0.3347401911,0.066954,0.66112,0.033985,-1.341941986,-9.556874624499999,1.742249439,-2.4853,1.3446,2.8681,0.00039000000000000146,-0.0027999999999996916,-3.999999999992898e-05,-0.0021468360745815485,0.0010841173572275764,0.005802922219633633
150000000000.0,1,0.57109026275,-0.36225765099999996,0.2360068389,0.056283,0.67823,0.061689,-1.3589074904999998,-9.5551094275,1.738719045,-2.4782,1.3438,2.8678,0.0009500000000000064,-0.0029000000000003467,-4.999999999999449e-05,-0.0005578989265038192,0.0018877279472002684,0.007329524081222338
150000000000.0,1,0.7268002514499999,0.03603943875,0.10829483595,0.058404,0.69842,0.096853,-1.3693025395,-9.554030696,1.7365615819999998,-2.4739,1.3433,2.8703,0.0005499999999999394,-0.0031999999999996476,-0.0001500000000000945,0.003067937012833477,0.00281680025576847,0.007468627997055055
150000000000.0,1,0.8572188897999999,0.4131835844499999,-0.008433719,0.065843,0.71537,0.12993,-1.3932307655,-9.551284834,1.7328350549999998,-2.4644,1.3421,2.8678,0.0007099999999999884,-0.0031000000000003247,-0.00033999999999989594,-0.000596311671177352,0.003138511282050338,0.007661194037240193
150000000000.0,1,0.9239629496999999,0.7101779797,-0.0916725642,0.081813,0.72906,0.15875,-1.4202971194999998,-9.54775444,1.7300891929999997,-2.4542,1.3405,2.8648,0.00041000000000002146,-0.0031999999999996476,-0.00045000000000006146,-0.003282562564503433,0.004191637015960703,0.005797499611130519
150000000000.0,1,0.9364958483999999,0.9093118146,-0.14490306039999998,0.10097,0.73954,0.18438,-1.4500112689999998,-9.543537580499999,1.7286181955,-2.4436,1.3386,2.8615,0.0006300000000000194,-0.0034000000000000696,-0.0005199999999999649,0.003111916176431695,0.0018635400114670464,0.00811621607528945
150000000000.0,1,0.9143132060999999,1.0149882749999999,-0.15799493814999999,0.12335,0.74679,0.20149,-1.481784815,-9.5386342555,1.7290104615,-2.4331,1.3365,2.8583,0.0006899999999999684,-0.0034000000000000696,-0.0005899999999999794,-0.002092465666327037,0.0026919236835465377,0.008041052139352356
150000000000.0,1,0.88347129185,1.0378377694999998,-0.14994367849999998,0.14787,0.74871,0.21006,-1.5146370925,-9.533044465,1.7313640575,-2.4228,1.334,2.8555,0.000520000000000076,-0.0034999999999998366,-0.0007700000000000484,0.004353636191735788,0.0050654116252151216,0.006401687195305872
150000000000.0,1,0.8554733061,0.9818417979999999,-0.11229594914999999,0.17133,0.75277,0.21757,-1.5482739019999998,-9.5268662755,1.7355809169999998,-2.4132,1.3313,2.8533,0.00046000000000001595,-0.0036000000000002697,-0.0009200000000000319,-0.004313038649898848,0.0031315578317749893,0.007547225891540776
150000000000.0,1,0.8478241191,0.88392239775,-0.06991160785,0.19586,0.75151,0.21868,-1.582204911,-9.520099687,1.7419552395,-2.4042,1.3285,2.8518,0.00046999999999997044,-0.0034999999999998366,-0.0009000000000000119,-0.0031534020351893233,0.0014907931117473794,0.006883101373387657
150000000000.0,1,0.8723701640499999,0.8018309306,-0.0548191735,0.21933,0.75238,0.22086,-1.6163320529999998,-9.512842766,1.7503889585,-2.396,1.3254,2.8511,0.0006199999999999539,-0.0038000000000000256,-0.0010599999999999499,0.002430286525025638,0.0028320368360288395,0.007966291833961137
150000000000.0,1,0.90514398835,0.69920433835,-0.059987278049999995,0.24277,0.74899,0.2209,-1.650459195,-9.505095512499999,1.7605878744999999,-2.3885,1.3222,2.851,0.0003300000000000525,-0.0038000000000000256,-0.0010200000000000209,-0.0006030272884116616,0.004875299993013282,0.007197094616375299
150000000000.0,1,0.9356917030999999,0.571923828,-0.06132098245,0.26297,0.74242,0.22415,-1.683997938,-9.496955992999998,1.7728461869999999,-2.3819,1.3188,2.8519,0.0005800000000000249,-0.0038000000000000256,-0.0011499999999999844,-0.0029936875757383685,0.003169946337643559,0.006901744067128401
150000000000.0,1,0.9702503376999999,0.42051895865,-0.051377039349999994,0.27465,0.73487,0.22418,-1.7184192795,-9.4882280745,1.7860851644999998,-2.3755,1.3153,2.8529,0.00030999999999992145,-0.0037000000000000366,-0.0012100000000000444,-0.0026722745222367283,0.004028057521573647,0.006565828774503846
150000000000.0,1,0.97887038305,0.2937680074,-0.02656621485,0.27354,0.72848,0.22312,-1.752840621,-9.479402089499999,1.7996183415,-2.3694,1.3117,2.8542,0.00034000000000000696,-0.0041999999999999815,-0.0011299999999999644,0.0017071657894900394,0.001979144413761569,0.006536764259571282
150000000000.0,1,0.9609634401499999,0.20034005284999998,0.01660265845,0.26715,0.72535,0.21565,-1.7864774305,-9.470674171,1.812465053,-2.3634,1.3083,2.8555,0.00024000000000001798,-0.0040000000000000036,-0.0012900000000000134,-0.004218608463262941,0.00458617648390125,0.00869386405257666
150000000000.0,1,0.94633191835,0.10093004180000001,0.07271630975,0.24696,0.72872,0.20492,-1.8162896465,-9.462828851,1.8236446339999997,-2.3582,1.3052,2.8576,0.00021000000000004349,-0.0040999999999999925,-0.0013699999999999823,0.0004357720071730409,0.0022761240283937223,0.006619189819079274
150000000000.0,1,0.95462834425,0.005315204299999999,0.13855815784999997,0.22563,0.72677,0.19955,-1.8487496579999998,-9.4548854645,1.8321764194999999,-2.3517,1.3022,2.8584,7.999999999996898e-05,-0.0041999999999999815,-0.0011200000000000099,-0.0010775308155102081,0.0033838947166162647,0.007375730122180624
150000000000.0,1,0.97896844955,-0.07374600799999999,0.15604341479999997,0.19259,0.73024,0.19735,-1.8808174034999998,-9.447530476999999,1.8375700769999999,-2.3446,1.2993,2.8585,5.999999999994898e-05,-0.0043999999999999595,-0.0015100000000000113,0.0016794360421881205,0.0021302558849027875,0.006650106671512557
150000000000.0,1,1.009692684,-0.16540876555,0.17682370614999998,0.16381,0.73155,0.1941,-1.9125909495,-9.4407638885,1.8398256064999998,-2.3368,1.2968,2.8581,-7.999999999996898e-05,-0.0041999999999999815,-0.0011900000000000244,-0.00551226878543809,0.0037610683211435347,0.006949474182428528
150000000000.0,1,1.0367590379999998,-0.19448548279999997,0.17476430964999998,0.13608,0.73071,0.19082,-1.9330868479999999,-9.436350895999999,1.8410024045,-2.3318,1.2951,2.8602,-0.00015999999999993797,-0.0045000000000001705,-0.0010399999999999299,0.0027124196156964597,0.003176619684307269,0.005673058992198499
150000000000.0,1,1.0739262415,-0.20589061674999998,0.18800328715,0.11155,0.73198,0.18971,-1.9644681279999998,-9.430466906,1.83776621,-2.3229,1.2929,2.8586,-0.000280000000000058,-0.0045999999999999375,-0.0015100000000000113,0.0022422641136536914,0.0035747677087876184,0.0069496927887127136
150000000000.0,1,1.1072688515,-0.16852728024999997,0.18684610245,0.090234,0.73109,0.18433,-1.9953590755,-9.425073248499999,1.8323725524999999,-2.3136,1.2909,2.8566,-0.00041000000000002146,-0.0044999999999999485,-0.0012199999999999989,0.002616439345613397,0.0036422712790600276,0.0058588517431683584
150000000000.0,1,1.1311970775,-0.1114427706,0.18043255334999997,0.073164,0.72591,0.17577,-2.025465491,-9.4199737905,1.825213698,-2.3042,1.2891,2.8543,-9.99999999995449e-06,-0.0044999999999999485,-0.0012800000000000589,-0.000721133380645389,0.0017220323498177148,0.008102670329879658
150000000000.0,1,1.117565834,-0.09354563435,0.17819663714999998,0.052905,0.72076,0.16395,-2.035076008,-9.419091192,1.8193297079999997,-2.3003,1.2887,2.8573,-0.00031000000000003247,-0.0046000000000001595,-0.0009899999999999354,-0.0009582591739054624,0.003864021516721161,0.007584276447018201
150000000000.0,1,1.1082495165,-0.1518853952,0.19931035459999996,0.038023,0.7177,0.14792,-2.0624365614999998,-9.415168532,1.808542393,-2.2907,1.2873,2.8548,-0.0005999999999999339,-0.004899999999999904,-0.0014000000000000679,0.003804080860629666,0.0015286258069833192,0.005442699246164029
150000000000.0,1,1.094029874,-0.2844124633,0.23562437954999998,0.022077,0.71359,0.12975,-2.088031918,-9.4119323375,1.795989881,-2.2812,1.2861,2.8523,-0.00042000000000008697,-0.0047999999999999154,-0.0011299999999999644,-0.001158341008451913,0.002264824191510195,0.007743870430881206
150000000000.0,1,1.055391673,-0.4497231623499999,0.26790787135,0.00185,0.70525,0.10732,-2.1113717449999996,-9.409480675,1.781868305,-2.2718,1.2852,2.8499,-0.0006999999999999229,-0.0048000000000001375,-0.0011400000000000299,0.0017362127562154939,0.0013869605597223167,0.006222057727410579
150000000000.0,1,0.999689901,-0.61137598095,0.29810254669999997,-0.026897,0.69699,0.081651,-2.1273565845,-9.4087942095,1.766177665,-2.2637,1.285,2.8487,-0.0005300000000000304,-0.004899999999999904,-0.0007699999999999374,0.0015306837960247233,0.002198079474359904,0.006977623293306312
150000000000.0,1,0.9464790181,-0.7436578827999999,0.35441233099999997,-0.055597,0.69299,0.053856,-2.1452046874999997,-9.4084019435,1.746760498,-2.2542,1.2848,2.846,-0.0007099999999999884,-0.0050000000000001155,-0.0011200000000000099,0.0027783908741083607,0.0011079111030458666,0.006564957904585
150000000000.0,1,0.9031238184499999,-0.84940298975,0.4322182921,-0.089552,0.6965,0.021769,-2.1601107954999996,-9.4091864755,1.72400907,-2.2444,1.2851,2.8431,-0.0009100000000000774,-0.005199999999999871,-0.0008000000000000229,0.00492440404299388,0.00202417361902385,0.007931409637983666
150000000000.0,1,0.8643777442999999,-0.9316513633,0.5089062951,-0.12139,0.69786,-0.010311,-2.1717807089999996,-9.411147805499999,1.6982175804999997,-2.2344,1.2858,2.84,-0.0011799999999999589,-0.0051000000000001044,-0.0006399999999999739,0.0014812453879093912,0.0016754234840259397,0.005501102667457403
150000000000.0,1,0.8328591712,-0.97390821815,0.5426803977,-0.14688,0.69384,-0.040243,-2.177664699,-9.414678199499999,1.6709550935,-2.2253,1.2871,2.8376,-0.0008000000000000229,-0.005099999999999882,-0.0006700000000000594,0.00025314414691113285,-0.0007974798804637473,0.008882715065017477
150000000000.0,1,0.8132262578999999,-0.987333522,0.5349331441999999,-0.17341,0.69515,-0.066977,-2.1834506224999997,-9.418796992499999,1.6400641459999998,-2.215,1.2886,2.8341,-0.0010700000000000154,-0.00550000000000006,-0.0006599999999999939,0.009303703525985307,-1.2934326010238806e-06,0.004804905315982877
150000000000.0,1,0.80982335035,-0.9984150365,0.5273329904499999,-0.19359,0.69214,-0.090489,-2.186686817,-9.4237003175,1.607113802,-2.2046,1.2904,2.8305,-0.0013099999999999223,-0.0050000000000001155,-0.00031999999999998696,0.0002870432906942888,-0.0001316212834450159,0.006574155560228778
150000000000.0,1,0.7868071428,-1.0367590379999998,0.5549190969,-0.21377,0.6902,-0.11187,-2.1875694154999996,-9.4293881745,1.5723001945,-2.194,1.2925,2.8267,-0.0011900000000000244,-0.00529999999999986,-0.00022999999999995246,0.005367543592675883,0.0010775910550921974,0.008632471721172319
150000000000.0,1,0.7487769541,-1.166010685,0.6264978352499999,-0.23288,0.69038,-0.13112,-2.1863926175,-9.4356644305,1.5356233235,-2.1831,1.2949,2.8225,-0.0013100000000000334,-0.00550000000000006,-9.00000000000345e-05,0.00408782362952631,-0.0002932359758309744,0.007050134355886195
150000000000.0,1,0.6688135299999999,-1.453149397,0.7395488964499999,-0.24772,0.69159,-0.14822,-2.183156423,-9.442627151999998,1.497279322,-2.1719,1.2975,2.8181,-0.0014299999999999313,-0.00550000000000006,-4.999999999999449e-05,0.0007903231146739742,-0.00010507285787753062,0.005631068639166514
150000000000.0,1,0.55057475095,-1.8067771959999999,0.85289415715,-0.25941,0.68744,-0.16425,-2.1781550315,-9.449884073,1.4579546554999998,-2.1607,1.3002,2.8135,-0.0014100000000000223,-0.005399999999999849,0.00034999999999996145,0.006563809526937803,-0.0011470493859973008,0.007355629566301758
