Time,placement_label,user_acc_x(m/s^2),user_acc_y(m/s^2),user_acc_z(m/s^2),rotation_rate_x(rad/s),rotation_rate_y(rad/s),rotation_rate_z(rad/s),gravity_x(m/s^2),gravity_y(m/s^2),gravity_z(m/s^2),attitude_roll(rad),attitude_pitch(rad),attitude_yaw(rad),target_delta_x,target_delta_y,target_delta_z,target_delta_roll,target_delta_pitch,target_delta_yaw
150000000000.0,3,0.0569962498,-0.07130415215,0.0381086419,-0.022477,-0.052255,0.011472,-1.8211929714999997,-9.568348405,1.140317262,-2.1302,1.3499,-0.85812,0.0,0.0,0.0,0.0,0.0,0.0
150000000000.0,3,0.031518573099999996,-0.0191621941,0.04498310354999999,-0.019264,-0.052279,0.009342,-1.8209968385,-9.5684464715,1.1400230625,-2.1301,1.3499,-0.85874,-5.999999999994898e-05,9.999999999998899e-05,-1.4285714285744433e-05,-5.007126520473193e-05,-9.949149191168516e-06,-0.0005183878884333915
150000000000.0,3,0.00610954295,0.0092574776,0.04867040395,-0.017087,-0.049097,0.006138,-1.821094905,-9.5684464715,1.1400230625,-2.1301,1.3499,-0.85926,-8.000000000008001e-05,-1.2499999999970868e-05,-1.4285714285744433e-05,-1.3083107482270151e-05,-0.00010064367255502304,-0.0004978001305731006
150000000000.0,3,-0.0197309798,0.022555295,0.053573728949999996,-0.014912,-0.048043,-0.000264,-1.8209968385,-9.568348405,1.1404153285,-2.1303,1.3499,-0.85961,-5.500000000002725e-05,-1.2499999999970868e-05,-1.4285714285744433e-05,-0.00014239745736066567,-1.6388316311788387e-05,-0.0005595360279686545
150000000000.0,3,-0.0197113665,0.0470326934,0.0498373953,-0.009576,-0.048087,-0.000253,-1.8208007055,-9.568348405,1.141101794,-2.1306,1.3499,-0.85979,-5.499999999991623e-05,-1.2499999999970868e-05,-1.4285714285522388e-05,0.00046447821407591405,-0.00044829560003556423,-0.000853163172958471
150000000000.0,3,-0.014837461449999999,0.06441988385,0.05843782734999999,-0.00317,-0.049203,-0.002373,-1.8205065059999999,-9.568250338499999,1.142670858,-2.1313,1.3498,-0.85957,-6.0000000000060005e-05,-1.2499999999970868e-05,-1.4285714285744433e-05,-0.00035096532353096066,-0.0001338711965752637,-0.0003076273940592067
150000000000.0,3,-0.013778343249999998,0.06797969779999999,0.07075497975,3.8e-05,-0.049229,-0.003434,-1.8200161735,-9.5680542055,1.1449263875,-2.1323,1.3497,-0.8591,-9.99999999995449e-06,-1.2500000000192912e-05,-1.4285714285744433e-05,-0.0003263082630087233,0.00017380685780943317,-0.00040411322570443886
150000000000.0,3,-0.02191786275,0.0384224547,0.057967108149999995,0.006419,-0.051414,-0.00235,-1.819721974,-9.567760005999999,1.14737805,-2.1334,1.3496,-0.85855,4.999999999999449e-05,-1.2499999999970868e-05,-1.4285714285744433e-05,-0.00039084353793961135,0.0001889066605142986,-0.0003234108616418929
150000000000.0,3,-0.03496070725,0.007658993649999999,0.0452086565,0.004264,-0.053529,-0.001281,-1.819525841,-9.567563873,1.1496335795,-2.1343,1.3495,-0.85815,-0.00012000000000000899,-1.2499999999970868e-05,9.999999999998899e-05,-0.0013422305691126457,5.466718527169512e-05,5.404206333459172e-05
150000000000.0,3,-0.041844975549999996,-0.0048052584999999995,0.025409030149999998,0.003189,-0.054585,-0.001279,-1.8193297079999997,-9.56736774,1.1514968429999999,-2.1351,1.3494,-0.85794,2.0000000000020002e-05,-1.2499999999970868e-05,-9.999999999998899e-05,-0.00027433362393347593,0.00022665465172333477,-0.000420435541904407
150000000000.0,3,-0.07266727649999999,-0.0147295883,-0.00104931155,0.002142,-0.053508,-0.003415,-1.8196239074999998,-9.567171606999999,1.152673641,-2.1354,1.3493,-0.85807,-4.0000000000040004e-05,-9.999999999998899e-05,9.999999999998899e-05,-0.00015871422018332026,-5.215324244867148e-05,-0.00014981082129850165
150000000000.0,3,-0.08846578964999999,-0.0010395049,-0.03703971705,0.00533,-0.053536,-0.00127,-1.8203103729999999,-9.566975474,1.153458173,-2.1356,1.3492,-0.85844,0.00012000000000000899,-9.999999999998899e-05,-9.999999999998899e-05,0.00022786955273601528,-0.00013685622343939663,7.536071211111661e-05
150000000000.0,3,-0.1166795217,0.01364105015,-0.0752366188,0.008585,-0.047167,-0.002338,-1.8215852375,-9.566681274499999,1.153850439,-2.1354,1.3491,-0.85907,0.000160000000000049,-9.999999999998899e-05,-9.999999999998899e-05,0.0003799897495115889,-0.0005869895711809736,-7.658892617934399e-05
150000000000.0,3,-0.14186299889999998,0.015180694199999997,-0.08950529454999999,0.011863,-0.036537,-0.001277,-1.8234485009999999,-9.566289008499998,1.1541446385,-2.1351,1.3489,-0.85975,-0.0001300000000000745,-0.00019999999999997797,0.000300000000000189,0.0007002373651079363,-0.0006861942809723853,0.00041434130241535527
150000000000.0,3,-0.165536252,-0.014866881399999999,-0.08389589075,0.013053,-0.022701,-0.004498,-1.8255078975,-9.565798676,1.154438838,-2.1347,1.3487,-0.8604,-2.999999999997449e-05,-0.00019999999999997797,5.0000000000105516e-05,-0.00115811417411682,-0.0005831629263961524,0.0005668502840610046
150000000000.0,3,-0.18789541399999998,-0.0424824078,-0.07369697474999999,0.0057,-0.009848,-0.007728,-1.8277634269999998,-9.56540641,1.154046572,-2.134,1.3485,-0.86116,7.00000000000145e-05,-0.00020000000000020002,4.999999999988347e-05,0.0014582747353251158,-0.0004815229533210452,-0.00037161740129976195
150000000000.0,3,-0.1975647709,-0.06143866224999999,-0.0655476486,-0.001671,0.001937,-0.008821,-1.8299208899999997,-9.565210277,1.1527717075,-2.133,1.3484,-0.86216,7.999999999996898e-05,-0.00019999999999997797,-9.999999999998899e-05,0.001105255102516356,-0.0005288047302269838,0.00036628093780111115
150000000000.0,3,-0.2146283419,-0.06428259075,-0.06102678295,-0.00371,0.014741,-0.007771,-1.8325686855,-9.5649160775,1.1510065105,-2.1316,1.3483,-0.86338,4.999999999999449e-05,-0.00019999999999997797,9.999999999998899e-05,0.00010502806119405683,0.0003741543996151897,0.0003332430880993442
150000000000.0,3,-0.23736015659999998,-0.04863117735,-0.04878808375,-0.008969,0.024377,-0.007787,-1.8359029464999999,-9.564523811499999,1.1487509809999998,-2.1299,1.3481,-0.86481,0.000160000000000049,-0.00019999999999997797,-9.999999999998899e-05,4.3226291908782244e-05,0.0006794756164656413,0.0005255461612914125
150000000000.0,3,-0.24212618849999998,-0.0224376152,-0.03796154215,-0.008916,0.031836,-0.006723,-1.8394333404999998,-9.564131545499999,1.146593518,-2.1282,1.3479,-0.86621,9.999999999998899e-05,-0.00029999999999996696,-3.333333333332966e-05,-0.0005172933409394176,0.00047359024212245693,0.00048568814941507554
150000000000.0,3,-0.23833101495,-0.0078060934,-0.02874329115,-0.009889,0.045695,-0.003536,-1.843454067,-9.563641212999999,1.1443379885,-2.1263,1.3477,-0.86764,0.00014999999999998348,-0.00019999999999997797,-3.333333333355171e-05,0.00021673894169960128,0.0002411940957811609,0.0005049252725872755
150000000000.0,3,-0.2162758591,-0.0108265416,-0.0002941995,-0.009818,0.055285,-0.002477,-1.8472786605,-9.563150880499999,1.1421805255,-2.1246,1.3475,-0.86885,0.00026999999999999247,-0.00029999999999996696,-3.333333333332966e-05,-2.2943114692752786e-05,-1.3086365581616022e-05,0.0010507018244965138
150000000000.0,3,-0.170243444,-0.007198081099999999,0.017622550049999998,-0.010796,0.067014,-0.001424,-1.8506129214999998,-9.5627586145,1.140121129,-2.123,1.3473,-0.86982,9.999999999998899e-05,-0.00039999999999995595,-5.0000000000105516e-05,-0.0007125649437023096,-0.000593761348574029,0.0020015884678281637
150000000000.0,3,-0.14785486204999998,0.025310963649999997,0.01275845165,-0.007537,0.075511,0.000708,-1.854045249,-9.562268282,1.1381597989999999,-2.1214,1.3471,-0.87069,0.00034000000000000696,-0.000300000000000189,-4.999999999988347e-05,-0.0005551974197208764,0.0013383845523238236,0.0014617748987086898
150000000000.0,3,-0.14971812555,0.06581242814999999,0.00128467115,-0.002112,0.086124,-0.000362,-1.8576737094999998,-9.5617779495,1.1362965354999999,-2.1197,1.3469,-0.87145,0.0017900000000000693,-0.0004999999999999449,-0.0017999999999998018,-0.0005791981051819217,0.00267718256312377,0.0016267588930962695
150000000000.0,3,-0.14548165275,0.06871519655,0.0010198916,0.004388,0.097794,-0.001432,-1.8613021699999999,-9.561287617,1.1348255379999999,-2.1183,1.3466,-0.87189,0.00021999999999999797,-0.00029999999999996696,-0.00010000000000021103,-0.00018069956312349866,0.0002789412624251142,0.0018497004919715287
150000000000.0,3,-0.12545647345,0.0517398854,0.01240541225,0.008755,0.10948,-0.002506,-1.8645383644999998,-9.5607972845,1.133844873,-2.1171,1.3464,-0.872,0.00019000000000002348,-0.00029999999999996696,0.00010000000000021103,0.00028352704790113314,-0.00036477208111018733,0.0018443661694864666
150000000000.0,3,-0.12275964469999999,0.041335029749999995,0.0586045404,0.008858,0.12014,-0.005722,-1.867578426,-9.5602088855,1.133452607,-2.1163,1.3461,-0.87169,0.00027999999999994696,-0.00029999999999996696,0.0005333333333332746,0.0002462110233421022,-0.0006790809973915568,0.0019560512747562875
150000000000.0,3,-0.12000397604999999,0.0163574922,0.12274983804999999,0.007891,0.13081,-0.007872,-1.870324288,-9.559620486499998,1.1337468065,-2.1157,1.3459,-0.8709,0.00017000000000000348,-0.00019999999999997797,0.0005333333333332746,-0.0006345538761973746,-0.00019376658159453441,0.0012486629154784268
150000000000.0,3,-0.0834545915,0.012248505849999999,0.16998847109999998,0.010077,0.13612,-0.008943,-1.872285618,-9.559130153999998,1.1348255379999999,-2.1157,1.3456,-0.8696,-0.0013400000000000079,9.999999999998899e-05,0.0005333333333332746,0.0014218583406848673,-0.0020465165555330067,0.000664424716015688
150000000000.0,3,-0.038755880799999996,0.0115914603,0.19961436075,0.015418,0.13607,-0.008933,-1.873658549,-9.5586398215,1.136983001,-2.1162,1.3454,-0.86773,2.0000000000020002e-05,-9.999999999998899e-05,9.999999999998899e-05,0.0007130146350911026,0.0003579184698039306,0.00022296898384954744
150000000000.0,3,0.028566771449999997,0.00348136075,0.18806212704999997,0.02072,0.1307,-0.009984,-1.8737566154999998,-9.5582475555,1.13953273,-2.1172,1.3453,-0.86545,0.00037999999999993594,-0.00020000000000020002,-0.00019999999999997797,-0.00011446990233743293,0.00016935973641007962,0.0007692073872318517
150000000000.0,3,0.10741223744999999,-0.02801759905,0.17241071365,0.021691,0.12003,-0.006767,-1.8725798175,-9.5582475555,1.1421805255,-2.1185,1.3452,-0.86291,7.00000000000145e-05,-9.999999999998899e-05,0.00019999999999997797,4.505210293048734e-06,-0.0006154924756409663,0.0005321412833954042
150000000000.0,3,0.1579262916,-0.0564078508,0.16648749705,0.015276,0.11582,-0.009981,-1.8702262214999998,-9.558443688499999,1.1443379885,-2.1199,1.3453,-0.86038,0.00045000000000006146,-9.999999999998899e-05,-9.999999999998899e-05,0.0010488884807233756,-0.0005006196034176291,0.0006803520751379466
150000000000.0,3,0.18194277744999998,-0.07334393535,0.14096078709999998,0.010942,0.10626,-0.011049,-1.86718616,-9.5588359545,1.145808986,-2.1212,1.3455,-0.85804,0.00019000000000002348,-0.00029999999999996696,2.4999999999941735e-05,-0.0015603909914010394,-0.00032432090746126185,0.001426908636935842
150000000000.0,3,0.17939304844999998,-0.06778356479999999,0.12746683669999997,0.01086,0.095606,-0.011039,-1.864048032,-9.559326287,1.146985784,-2.1224,1.3457,-0.85586,0.00012999999999996348,-9.999999999998899e-05,2.4999999999941735e-05,0.0009728659138461548,-0.00042447674657131174,0.0002713352876924091
150000000000.0,3,0.16128997255,-0.03237175165,0.11977842309999999,0.012943,0.088129,-0.012098,-1.8610079704999998,-9.559718553,1.1485548479999999,-2.1237,1.3459,-0.85364,0.00019000000000002348,-9.999999999998899e-05,2.500000000016378e-05,-5.512394149764788e-05,0.00015679258656442485,0.000275028487530804
150000000000.0,3,0.14032335485,-0.0036480737999999998,0.0946341725,0.020334,0.077411,-0.013141,-1.8583601749999998,-9.560012752499999,1.150516178,-2.1251,1.346,-0.85143,0.00017000000000000348,-9.999999999998899e-05,2.4999999999941735e-05,-0.000279286893714481,0.00046976939537146656,0.00031934436650571385
150000000000.0,3,0.1302519253,0.031626446249999995,0.0789827591,0.019257,0.075289,-0.014212,-1.8557123795,-9.5602088855,1.1525755745,-2.1266,1.3462,-0.84925,0.00030999999999992145,-9.999999999998899e-05,-0.00019999999999997797,-0.0005958297416530645,0.0008119159824291344,0.0004831117429389131
150000000000.0,3,0.129251647,0.046875787,0.06535151559999999,0.022408,0.06674,-0.0174,-1.8529665174999999,-9.560503084999999,1.154634971,-2.1281,1.3463,-0.84705,4.0000000000040004e-05,-9.999999999998899e-05,0.00019999999999997797,-0.0002682115114884809,0.0001329077612564067,0.0005475842847699752
150000000000.0,3,0.11893505119999999,0.042276468149999996,0.04170768245,0.022377,0.061413,-0.019531,-1.849926456,-9.560895351,1.156596301,-2.1295,1.3464,-0.84493,0.00034999999999996145,-0.00019999999999997797,-0.00019999999999997797,-0.0008089323093678491,0.0003937554495176965,0.0007525940895849459
150000000000.0,3,0.11060920535,0.023379053599999998,0.0242224255,0.021283,0.05716,-0.020597,-1.8468863944999998,-9.561287617,1.1582634315,-2.1309,1.3466,-0.84294,0.0017099999999999893,-0.00039999999999995595,-0.0018000000000000238,-0.0014631064546684058,0.0021713296332463994,0.0005105574016406322
150000000000.0,3,0.09631110964999999,0.00132389775,0.019603493349999997,0.023405,0.055011,-0.021662,-1.8437482665,-9.561679883,1.1598324955,-2.1323,1.3468,-0.841,8.000000000008001e-05,-9.999999999998899e-05,3.333333333332966e-05,-0.000970178263655308,-0.0002618163271570495,0.000685467260750805
150000000000.0,3,0.11296280134999999,-0.026693701299999997,0.024183198899999998,0.021211,0.050761,-0.016327,-1.8407082049999999,-9.562072149,1.1614015594999998,-2.1337,1.347,-0.8391,0.00014999999999998348,-2.4999999999941735e-05,3.333333333332966e-05,0.0011970182663376683,-0.00024104921642642552,-0.0002372750349852737
150000000000.0,3,0.12126903389999999,-0.04674830055,0.012621158549999999,0.021146,0.0433,-0.015252,-1.8374720105,-9.5625624815,1.1627744905,-2.135,1.3472,-0.83731,3.999999999992898e-05,-2.500000000016378e-05,3.333333333332966e-05,-8.948011643705733e-05,-0.0005475161450310129,0.0004474995984380392
150000000000.0,3,0.1300165657,-0.06341960555,-0.0147295883,0.016803,0.035872,-0.012051,-1.834235816,-9.563052813999999,1.163460956,-2.1361,1.3474,-0.83585,0.000140000000000029,-2.4999999999941735e-05,3.333333333332966e-05,0.0005667268820472859,-0.00023123514531842027,-0.00010213942114800645
150000000000.0,3,0.1522580479,-0.07836494014999999,-0.019377940399999998,0.010342,0.030593,-0.008859,-1.8309015549999998,-9.5637392795,1.163657089,-2.137,1.3477,-0.83464,1.0000000000065512e-05,-2.4999999999941735e-05,3.333333333332966e-05,-0.00035201771639803425,-0.00046628368522649843,5.219231684172598e-06
150000000000.0,3,0.1650655328,-0.07687432935,-0.049778555399999994,0.007032,0.017831,-0.007783,-1.8273711609999999,-9.564425745,1.1630686899999998,-2.1376,1.3481,-0.83379,1.999999999990898e-05,-4.999999999988347e-05,3.333333333332966e-05,6.324434662485778e-05,-0.00018787275162202022,-0.00032553066978957546
150000000000.0,3,0.1778730177,-0.08647503969999999,-0.06459640355,0.001613,0.008283,-0.006717,-1.8235465675,-9.5653083435,1.1618918919999999,-2.1381,1.3485,-0.83319,3.0000000000085514e-05,-5.0000000000105516e-05,-9.999999999998899e-05,9.246638932913775e-05,-0.00022917534384614413,-0.00014216893932106345
150000000000.0,3,0.18192316415,-0.08739686479999999,-0.06408645774999999,0.000464,-0.002363,-0.007776,-1.819721974,-9.566190942,1.1608131605,-2.1386,1.3489,-0.83264,9.99999999995449e-06,9.999999999998899e-05,9.999999999998899e-05,0.00014027768666236007,-0.00013130899918700756,-0.0004197008077571063
150000000000.0,3,0.17559787489999998,-0.0966543424,-0.07601134415,-0.002821,-0.011928,-0.006707,-1.8157993139999997,-9.5670735405,1.159342163,-2.139,1.3493,-0.83231,6.0000000000060005e-05,-4.999999999988347e-05,-9.999999999998899e-05,1.0168499243956575e-05,-0.00018822203765989087,-0.00022535401783452258
150000000000.0,3,0.16605600445,-0.10829483595,-0.08536688824999998,-0.00719,-0.021488,-0.002436,-1.812072787,-9.5680542055,1.1574788994999998,-2.1392,1.3497,-0.83231,5.999999999994898e-05,-5.0000000000105516e-05,5.0000000000105516e-05,7.388102912342376e-05,-3.4032400597405754e-05,-0.00040257015909661575
150000000000.0,3,0.16127035925,-0.1157969232,-0.05859473375,-0.008299,-0.027871,-0.00457,-1.80834626,-9.568936804,1.1560079019999998,-2.1396,1.3502,-0.83222,-9.00000000000345e-05,3.333333333332966e-05,4.999999999988347e-05,-0.00036180990459366846,-0.0002728222188699281,4.288600570090395e-05
150000000000.0,3,0.15748499235,-0.11168793684999999,-0.03323473685,-0.011534,-0.029979,-0.001378,-1.804815866,-9.569721336,1.1547330374999998,-2.14,1.3505,-0.83215,1.0000000000065512e-05,3.333333333332966e-05,-9.999999999998899e-05,0.0004116748372009482,-6.693439812854862e-06,-0.0006192231135413451
150000000000.0,3,0.14412833505,-0.10058680905,-0.027831272699999996,-0.016904,-0.034198,-0.001387,-1.8016777379999998,-9.570505868,1.15326204,-2.1402,1.3509,-0.83229,-2.999999999997449e-05,3.333333333332966e-05,9.999999999998899e-05,-3.189731313235633e-05,-3.660309415076668e-05,-0.0006104974151805997
150000000000.0,3,0.12588796605,-0.09022118,-0.0354020065,-0.017981,-0.035256,-0.001394,-1.7986376764999998,-9.571290399999999,1.1513987765,-2.1402,1.3513,-0.83263,-0.0013100000000000334,0.00019999999999997797,0.0014000000000000679,0.0006891748525152952,-0.002132416625798994,-0.00015625202802871385
150000000000.0,3,0.099439431,-0.08391550404999999,-0.045895122,-0.02014,-0.039499,-0.00353,-1.795989881,-9.572074932,1.149143247,-2.14,1.3516,-0.83323,0.0012499999999999734,-0.00019999999999997797,-0.0014000000000000679,-0.0004455776625884589,0.0018276102832035512,-0.001001371049440536
150000000000.0,3,0.08326826514999999,-0.0669598062,-0.03474496095,-0.019114,-0.043771,-0.002458,-1.7937343514999997,-9.572663331,1.1472799834999998,-2.1398,1.3519,-0.83385,-0.0007199999999999429,9.999999999998899e-05,-9.999999999998899e-05,0.00045121411988113813,1.7339098162372224e-05,-0.0007847109032304012
150000000000.0,3,0.07478551289999999,-0.056780503499999996,-0.044022051849999994,-0.018094,-0.050172,-0.003516,-1.7915768884999999,-9.573251729999999,1.1456128529999998,-2.1397,1.3522,-0.83445,-0.0007200000000000539,9.999999999998899e-05,0.0015000000000000568,0.00015223972892530746,-0.0024879508342283696,-0.0004861596317415895
150000000000.0,3,0.06281159324999999,-0.0391677601,-0.049445129299999994,-0.012813,-0.056609,-0.003499,-1.7895174919999999,-9.573840128999999,1.1443379885,-2.1397,1.3525,-0.83498,-5.999999999994898e-05,-1.999999999990898e-05,7.500000000004725e-05,0.00018836920404652346,-0.0003151262501657204,-0.0005408246449700727
150000000000.0,3,0.058447634,-0.017298930599999998,-0.023124080699999997,-0.014961,-0.057659,-0.002436,-1.7875561619999998,-9.574330461499999,1.14345539,-2.1399,1.3527,-0.83541,-4.999999999999449e-05,-2.0000000000131024e-05,7.49999999998252e-05,-2.543013208233802e-05,-0.00011767938713758141,-0.0007661395569904528
150000000000.0,3,0.0366964843,-0.0044326057999999995,-0.0159259996,-0.010734,-0.061957,-0.001355,-1.7860851644999998,-9.574624661,1.1431611904999999,-2.1401,1.3528,-0.8358,-4.0000000000040004e-05,-1.999999999990898e-05,7.500000000004725e-05,-3.3813551681083354e-05,0.00025184482095363947,-0.0005832141247905653
150000000000.0,3,0.01011065615,0.018632634999999998,-0.02358499325,-0.004311,-0.059878,-0.002416,-1.7851044994999998,-9.574820793999999,1.1433573234999999,-2.1404,1.3529,-0.83609,-0.00021000000000004349,-2.0000000000131024e-05,7.500000000004725e-05,3.1587624455875485e-05,-0.0003085285428003903,-0.0007832682737438645
150000000000.0,3,-0.0013337044,0.03851071455,-0.028655031299999998,-0.00107,-0.056704,-0.005618,-1.7841238345,-9.574918860499999,1.1437495894999998,-2.1409,1.353,-0.83624,9.999999999998899e-05,-1.999999999990898e-05,-0.00019999999999997797,-0.0003196608735132056,-0.00019337791022744355,-0.00021500246987260496
150000000000.0,3,-0.026468148349999998,0.054672073749999994,-0.013297817399999998,1.1e-05,-0.055646,-0.006684,-1.7835354355,-9.574918860499999,1.1447302545,-2.1414,1.353,-0.83627,-0.00012999999999996348,-5.0000000000105516e-05,9.999999999998899e-05,4.665902651668219e-05,-0.0005093557732449572,-0.00061242553377161
150000000000.0,3,-0.05138684599999999,0.0312832135,-0.00210842975,0.0011,-0.053522,-0.00775,-1.7831431694999997,-9.574918860499999,1.1456128529999998,-2.1419,1.353,-0.83633,9.99999999995449e-06,-4.999999999988347e-05,5.999999999994898e-05,-0.00011574362217925405,-0.0003376333943936327,-0.00046995842223829243
150000000000.0,3,-0.0686661633,0.01026756255,0.0016180972499999998,-0.001033,-0.053504,-0.007751,-1.7829470365,-9.574820793999999,1.146593518,-2.1423,1.3529,-0.83645,1.0000000000065512e-05,-4.999999999988347e-05,5.999999999994898e-05,-0.000165453079874478,0.00010574843800958966,-0.0006704860484187947
150000000000.0,3,-0.06871519655,-0.01328801075,0.0157887065,-0.001028,-0.053503,-0.008816,-1.7825547704999998,-9.5747227275,1.1476722494999998,-2.1428,1.3529,-0.83646,-2.999999999997449e-05,-5.0000000000105516e-05,6.000000000017103e-05,-0.00025489664909517096,-0.00021721761331683354,-0.0002865254295181252
150000000000.0,3,-0.0598597916,-0.0153376006,0.0327934376,0.001119,-0.05139,-0.007746,-1.7821625045,-9.574624661,1.1492413135,-2.1435,1.3528,-0.83625,-3.0000000000085514e-05,-0.00010000000000021103,5.999999999994898e-05,-0.0013562589533333558,-0.00013809112107665555,4.564231820536335e-05
150000000000.0,3,-0.07028426054999999,-0.03060655465,0.02640930845,0.004329,-0.050351,-0.007739,-1.7819663715,-9.5745265945,1.1508103774999998,-2.1442,1.3528,-0.83605,-0.00025999999999992696,-9.999999999998899e-05,5.999999999994898e-05,0.00046755687748789576,-0.0003046257573637856,-0.0006386181017790094
150000000000.0,3,-0.07667819634999999,-0.012493672099999999,0.007374600799999999,0.005452,-0.043965,-0.008813,-1.781868305,-9.574330461499999,1.1521833085,-2.1448,1.3527,-0.83591,-2.999999999997449e-05,-4.999999999988347e-05,-4.999999999988347e-05,0.00014341780346427413,-8.952468269662894e-05,-0.00017995603105003255
150000000000.0,3,-0.0713139588,-0.013082071099999999,0.018956254449999998,0.005521,-0.03544,-0.008825,-1.781672172,-9.574232395,1.153654306,-2.1454,1.3526,-0.83567,0.00012999999999996348,-5.0000000000105516e-05,-5.0000000000105516e-05,-8.713261891823976e-05,0.00026219792422477184,-0.00020982863705665267
150000000000.0,3,-0.06877403644999999,-0.010502922149999998,0.007766866799999999,0.004519,-0.027971,-0.009904,-1.7814760389999997,-9.574036262,1.1547330374999998,-2.1459,1.3526,-0.83544,-6.0000000000060005e-05,-2.4999999999941735e-05,9.999999999998899e-05,6.0600543481337255e-05,-0.00011225741225517893,-0.00019144122241021577
150000000000.0,3,-0.05718257615,-0.017298930599999998,0.0159259996,0.003487,-0.0237,-0.009911,-1.781083773,-9.574036262,1.1559098355,-2.1464,1.3526,-0.83515,3.0000000000085514e-05,-2.500000000016378e-05,2.4999999999941735e-05,0.00010198187807275438,-0.00023924386418539,-0.00031095990696394793
150000000000.0,3,-0.048258524649999995,-0.026311241949999998,0.03927563325,0.004608,-0.018379,-0.012051,-1.7804953739999998,-9.574036262,1.1571847,-2.1471,1.3525,-0.83464,-3.0000000000085514e-05,-2.4999999999941735e-05,2.4999999999941735e-05,-0.00011425825337485485,-0.0001306864530465912,-0.00016933557227760687
150000000000.0,3,-0.04051127115,-0.019485813549999998,0.052759777,0.005702,-0.015191,-0.012053,-1.7797108419999998,-9.573938195499998,1.1588518305,-2.148,1.3525,-0.83395,3.0000000000085514e-05,-2.4999999999941735e-05,2.500000000016378e-05,9.873746356126034e-05,1.2027518536017467e-05,-0.00025154168595742377
150000000000.0,3,-0.0183972754,-0.0240066792,0.07450112005,0.005707,-0.014127,-0.010987,-1.7786321105,-9.573938195499998,1.160715094,-2.149,1.3525,-0.83306,2.5000000000052758e-05,4.999999999988347e-05,2.4999999999941735e-05,-0.0002098810528261552,-8.959928405571915e-05,-0.00022576046272693162
150000000000.0,3,-0.00652142225,-0.042698154099999996,0.07966922459999999,0.001432,-0.014095,-0.00886,-1.7774553124999999,-9.573938195499998,1.162480291,-2.15,1.3525,-0.83225,2.4999999999941735e-05,5.0000000000105516e-05,-9.999999999998899e-05,-8.331199329281169e-05,3.373780405979687e-05,-0.0003137422105972121
150000000000.0,3,0.006805815099999999,-0.06449833705,0.07546217174999999,-0.000745,-0.018342,-0.006722,-1.7762785145,-9.573938195499998,1.163853222,-2.1508,1.3525,-0.83158,2.999999999997449e-05,2.4999999999941735e-05,4.999999999988347e-05,0.00012850058392577246,-0.00027502251772792974,-0.0003729474737745875
150000000000.0,3,0.029096330549999997,-0.08007129724999999,0.0672147791,-0.005035,-0.019376,-0.003527,-1.7749055835,-9.5741343285,1.1647358205,-2.1515,1.3526,-0.83107,-9.999999999998899e-05,2.500000000016378e-05,5.0000000000105516e-05,-3.867307620919469e-05,-0.00030970544563202473,-0.00011215560544908243
150000000000.0,3,0.03680435745,-0.07927695859999999,0.052220411249999994,-0.008262,-0.021483,-0.001397,-1.7736307189999998,-9.574330461499999,1.1650300199999999,-2.152,1.3527,-0.83086,0.00019000000000002348,2.4999999999941735e-05,-9.999999999998899e-05,-0.0007186691918243948,0.0007892417050721079,6.80905954641986e-06
150000000000.0,3,0.0384028414,-0.05324030285,0.041648842549999995,-0.008285,-0.022552,0.001805,-1.7727481204999997,-9.574428527999999,1.1653242195,-2.1523,1.3527,-0.83076,-7.00000000000145e-05,2.4999999999941735e-05,9.999999999998899e-05,5.298156499478068e-05,-0.0001606893707732926,-0.0003378189123868225
150000000000.0,3,0.050818060299999995,-0.051445685899999996,0.0468365604,-0.007197,-0.019366,0.002866,-1.7716693889999997,-9.574624661,1.1657164855,-2.1527,1.3528,-0.83059,7.999999999996898e-05,9.999999999998899e-05,-5.0000000000105516e-05,0.0015704612993105993,-0.0003568851518502836,-0.0008168660658744997
150000000000.0,3,0.05898699975,-0.05290687674999999,0.0580749813,-0.007176,-0.018299,0.000727,-1.7703945245,-9.5747227275,1.1661087515,-2.1532,1.3529,-0.83031,9.00000000000345e-05,0.00010000000000021103,-4.999999999988347e-05,0.0006547999416313122,9.182979163080418e-06,-0.0003616995165316439
150000000000.0,3,0.06357651195,-0.0458755087,0.0755308183,-0.007171,-0.017236,0.001789,-1.7691196599999999,-9.574918860499999,1.166795217,-2.1538,1.353,-0.82993,-1.0000000000065512e-05,9.999999999998899e-05,4.999999999988347e-05,-0.00017009414651814048,6.744257700574963e-05,-9.38856629133511e-05
150000000000.0,3,0.06304695284999999,-0.026389695149999996,0.0740402075,-0.012506,-0.018257,0.000711,-1.7678447955,-9.5751149935,1.167187483,-2.1543,1.3531,-0.82962,-4.999999999999449e-05,9.999999999998899e-05,5.0000000000105516e-05,-0.0003731061334355523,-0.000186922239150622,-0.00028585342617493126
150000000000.0,3,0.0528382302,-0.011885659799999998,0.08026743025,-0.012507,-0.019322,-0.000356,-1.7667660639999998,-9.57521306,1.1676778154999998,-2.1548,1.3531,-0.82935,0.0001300000000000745,9.999999999998899e-05,-0.00019999999999997797,-0.0004446757403633317,-0.0002087799852461547,-0.0001351589667457631
150000000000.0,3,0.06110523615,-0.0091986377,0.07158854499999999,-0.010416,-0.023605,0.001787,-1.7655892659999999,-9.575409192999999,1.1682662145,-2.1553,1.3532,-0.82907,2.999999999997449e-05,9.999999999998899e-05,-3.333333333332966e-05,-5.839507007543432e-05,0.000225420992859382,-0.0006328384784497487
150000000000.0,3,0.060850263249999995,-0.0100812362,0.06481214985,-0.00722,-0.025761,-0.000341,-1.764216335,-9.575605326,1.169148813,-2.156,1.3533,-0.82866,2.5000000000052758e-05,0.00019999999999997797,-3.333333333332966e-05,0.0010221098581948418,-0.00022073166517322385,-0.0005303999189467667
150000000000.0,3,0.06804834435,-0.0115522337,0.06975470145,-0.007252,-0.030024,-0.000337,-1.7625492045,-9.5757033925,1.1701294779999998,-2.1569,1.3534,-0.82814,2.4999999999941735e-05,9.999999999998899e-05,-3.333333333332966e-05,0.0006759073300368623,7.050878194392318e-05,-0.0005803369406103265
150000000000.0,3,0.069823348,-0.0041972462,0.05899680639999999,-0.007255,-0.030026,0.000727,-1.7609801405,-9.575899525499999,1.1710120765,-2.1576,1.3534,-0.82771,-9.00000000000345e-05,0.00019999999999997797,9.999999999998899e-05,0.0003778945612809004,0.00026356721563858265,-0.0004954690659966232
150000000000.0,3,0.05823188769999999,-0.0121014061,0.05407386809999999,-0.011518,-0.028927,0.001783,-1.7598033425,-9.5760956585,1.171502409,-2.1581,1.3535,-0.82754,-2.0000000000020002e-05,9.999999999998899e-05,9.999999999998899e-05,5.403189771602257e-05,5.551913548806908e-05,-0.0006381999204654321
150000000000.0,3,0.0359511789,-0.028674644599999997,0.0423843413,-0.01152,-0.029992,0.000716,-1.7587246109999999,-9.5762917915,1.171502409,-2.1584,1.3536,-0.82758,4.0000000000040004e-05,9.999999999998899e-05,-9.999999999998899e-05,-0.0002087939605399658,0.0002829069750860391,-7.42259282673352e-05
150000000000.0,3,0.0177696498,-0.033636809499999996,0.030018155649999996,-0.012588,-0.02892,0.002846,-1.7582342785,-9.576389858,1.171306276,-2.1585,1.3537,-0.82784,0.00010999999999994348,9.999999999998899e-05,-0.00019999999999997797,-0.0017566695171415958,0.0005242487986774069,0.0004417517493324752
150000000000.0,3,0.0029910282499999996,-0.027429200049999998,0.026154335549999998,-0.011515,-0.028928,0.00178,-1.757940079,-9.5764879245,1.171110143,-2.1585,1.3537,-0.82814,-0.00013999999999991797,9.999999999998899e-05,0.00019999999999997797,7.638822774347354e-05,7.685243121668961e-06,-0.00016271189147909482
150000000000.0,3,-0.0128074849,-0.026517181599999995,0.026330855249999997,-0.009359,-0.026813,0.000713,-1.7578420124999998,-9.5764879245,1.171110143,-2.1585,1.3537,-0.82842,9.999999999998899e-05,4.999999999988347e-05,-9.999999999998899e-05,0.0002338409199538205,6.774553920285697e-05,-0.00018508238008241307
150000000000.0,3,-0.0177108099,-0.017092990949999998,0.028125472199999998,-0.011488,-0.025731,0.001775,-1.757940079,-9.5764879245,1.171110143,-2.1585,1.3537,-0.82871,0.00010999999999994348,5.0000000000105516e-05,-9.999999999998899e-05,0.00018574430789386476,-0.0008102849490319031,4.748318497860282e-05
150000000000.0,3,-0.014719781649999998,-0.014974754549999999,0.017946169499999998,-0.011473,-0.022536,0.003905,-1.7580381455,-9.5764879245,1.1706198105,-2.1582,1.3537,-0.82917,6.0000000000060005e-05,9.999999999998899e-05,-9.999999999998899e-05,3.309098508608166e-05,-6.884635647019799e-05,-0.00012860122024882514
150000000000.0,3,-0.0129643913,-0.0101596894,0.011954306349999999,-0.010341,-0.015085,0.002827,-1.7583323449999997,-9.5764879245,1.1700314115,-2.1579,1.3537,-0.82964,3.999999999992898e-05,9.999999999998899e-05,9.999999999998899e-05,-0.00041045642833137386,3.124478010385623e-05,0.00017860362078847558
150000000000.0,3,-0.0206331916,-0.0126113519,0.02740958675,-0.008181,-0.011906,0.002826,-1.7587246109999999,-9.5764879245,1.1698352785,-2.1578,1.3537,-0.82997,3.0000000000085514e-05,9.999999999998899e-05,9.999999999998899e-05,-0.0007331354684798619,0.00011067888839333406,0.00035041089641785206
150000000000.0,3,-0.014258869099999998,-0.01728912395,0.0283412185,-0.008168,-0.009776,0.00389,-1.759116877,-9.576389858,1.1696391455,-2.1576,1.3537,-0.83025,-0.0001300000000000745,9.999999999998899e-05,9.999999999998899e-05,0.0010782882051634246,-0.0005551210006486951,-0.00031752608991197917
150000000000.0,3,-0.0228298812,-0.023604606549999997,0.027693979599999998,-0.010239,-0.003363,0.001742,-1.7595091429999998,-9.576389858,1.1692468795,-2.1573,1.3537,-0.83058,0.0002300000000000635,9.999999999998899e-05,-9.999999999998899e-05,0.00036294814109916196,0.00019302415050348465,-0.00023648165391065845
150000000000.0,3,-0.03095959405,-0.03554910625,0.022584714949999998,-0.01557,-0.002255,0.002799,-1.7600975419999998,-9.576389858,1.1682662145,-2.1568,1.3537,-0.83116,-9.00000000000345e-05,0.00010000000000021103,0.00019999999999997797,0.0006928416750844324,-6.111354831261906e-05,-0.00022922934425784192
150000000000.0,3,-0.03813806185,-0.03056732805,0.015651413399999998,-0.019822,0.000975,0.004922,-1.7609801405,-9.5764879245,1.1665010175,-2.1559,1.3537,-0.8321,0.00021000000000004349,0.00019999999999997797,-9.999999999998899e-05,0.00015810766975854484,0.00034680894623817515,-0.00012634259554422655
150000000000.0,3,-0.04876847045,-0.039834612299999995,0.017671583299999998,-0.020886,0.002048,0.005988,-1.7621569384999998,-9.5764879245,1.164637754,-2.1548,1.3537,-0.83315,-4.999999999999449e-05,9.999999999998899e-05,9.999999999998899e-05,0.0003856634690366789,-0.00012269825125055256,3.6474072635073185e-05
150000000000.0,3,-0.04447315775,-0.0303025485,0.027213453749999998,-0.01874,0.004161,0.007057,-1.763431803,-9.576389858,1.1629706235,-2.1538,1.3537,-0.83412,2.999999999997449e-05,9.999999999998899e-05,9.999999999998899e-05,0.000778940656971594,2.6530083642395397e-05,-3.268187076432838e-05
150000000000.0,3,-0.037167203499999996,-0.025889555999999998,0.0351274203,-0.015516,0.006267,0.005993,-1.7646086009999997,-9.576389858,1.1617938255,-2.1531,1.3537,-0.83486,9.999999999998899e-05,0.00019999999999997797,9.999999999998899e-05,0.000960808367559185,1.1199717411258803e-06,-0.0001750375457079123
150000000000.0,3,-0.0281646988,-0.031626446249999995,0.026389695149999996,-0.014457,0.005193,0.005998,-1.7656873324999998,-9.5762917915,1.160715094,-2.1523,1.3536,-0.83555,-0.000160000000000049,0.00019999999999997797,0.00010000000000021103,0.0005500764151393778,0.00026751050941720145,-0.00019460715819397123
150000000000.0,3,-0.026811381099999997,-0.040472044549999996,0.02791953255,-0.016568,0.007342,0.004924,-1.7665699309999998,-9.5762917915,1.1594402295,-2.1516,1.3536,-0.83623,4.0000000000040004e-05,9.999999999998899e-05,4.999999999988347e-05,-0.00015592448991896823,1.4915477815735656e-05,0.00027131705917327054
150000000000.0,3,-0.026732927899999998,-0.0325384647,0.018338435499999996,-0.01977,0.008432,0.007052,-1.767746729,-9.5762917915,1.1576750325,-2.1506,1.3536,-0.83717,-4.0000000000040004e-05,9.999999999998899e-05,5.0000000000105516e-05,-5.6616633345552e-05,-0.00012960530758410194,-0.0002697864391518756
150000000000.0,3,-0.012729031699999999,-0.017514676899999998,0.014974754549999999,-0.021909,0.008449,0.008117,-1.768727394,-9.576389858,1.1556156359999998,-2.1495,1.3537,-0.83817,6.0000000000060005e-05,9.999999999998899e-05,1.666666666655381e-05,-4.0674998107448346e-05,6.451692934117403e-06,0.00012175043513629191
150000000000.0,3,-0.014847268099999998,-0.0286942579,0.00548191735,-0.022978,0.009521,0.010248,-1.7700022585,-9.576389858,1.1533601065,-2.1483,1.3537,-0.83937,-2.0000000000020002e-05,9.999999999998899e-05,1.6666666666775853e-05,-0.0004112599938628225,0.00020025358164410534,0.0002449118893541602
150000000000.0,3,-0.0205351251,-0.02089797115,0.0026183755499999996,-0.01871,0.009486,0.010256,-1.7713751895,-9.576389858,1.151104577,-2.147,1.3537,-0.84051,0.0001100000000000545,9.999999999998899e-05,1.6666666666775853e-05,0.0006523344468163383,0.00021981588870212398,-9.196201376759916e-05
150000000000.0,3,-0.021809989599999996,-0.020182085699999998,0.00828661925,-0.018693,0.011617,0.010254,-1.7727481204999997,-9.576389858,1.149143247,-2.1459,1.3537,-0.84156,-1.0000000000065512e-05,9.999999999998899e-05,1.666666666655381e-05,4.433171554163451e-05,0.00010800640820085583,0.00019220459629520903
150000000000.0,3,-0.02464411145,-0.015347407249999999,0.010571568699999999,-0.016577,0.011585,0.013457,-1.7744152509999997,-9.5762917915,1.1474761165,-2.1448,1.3536,-0.84256,6.0000000000060005e-05,0.00019999999999997797,1.666666666655381e-05,0.00022069352798781416,0.00031023221455894756,7.008877528535962e-05
150000000000.0,3,-0.022486648449999997,-0.0224376152,0.00383440015,-0.017617,0.013727,0.011318,-1.775984315,-9.576193725,1.1455147865,-2.1437,1.3536,-0.84362,-3.0000000000085514e-05,9.999999999998899e-05,1.6666666666775853e-05,0.00035799126541458115,-7.712218201860743e-05,-9.388262176424078e-05
150000000000.0,3,-0.022221868899999997,-0.04594415524999999,0.009169217749999998,-0.021907,0.011631,0.012382,-1.7774553124999999,-9.576193725,1.1433573234999999,-2.1424,1.3536,-0.84477,6.500000000009276e-05,9.999999999998899e-05,9.999999999998899e-05,0.00023822219730273986,-1.2057776122453845e-05,6.74972332532775e-05
150000000000.0,3,-0.0173969971,-0.05278919694999999,0.02297698095,-0.027266,0.008478,0.012379,-1.7788282434999998,-9.576193725,1.140905661,-2.1411,1.3536,-0.84604,6.499999999998174e-05,9.999999999998899e-05,1.999999999990898e-05,0.000569466985341327,0.00019175040094188134,-0.00014033649527656067
150000000000.0,3,-0.012944777999999999,-0.02986124925,0.0251638639,-0.026202,0.007405,0.011316,-1.7802011745,-9.5762917915,1.1385520649999998,-2.1398,1.3536,-0.84726,-1.0000000000065512e-05,0.00010000000000021103,2.0000000000131024e-05,0.0001824910810466207,-0.0001174647143702412,4.0876027167513485e-06
150000000000.0,3,-0.0058251501,-0.007374600799999999,0.015357213899999998,-0.02409,0.005255,0.012391,-1.7814760389999997,-9.5762917915,1.1362965354999999,-2.1386,1.3536,-0.84848,0.00014999999999998348,0.00019999999999997797,1.999999999990898e-05,-0.00031283726047193205,8.899621956559578e-05,-5.73105191605805e-05
150000000000.0,3,-0.0013140911,-0.0014317708999999998,-0.006541035549999999,-0.02515,0.004201,0.009189,-1.7825547704999998,-9.576389858,1.13364874,-2.1372,1.3537,-0.84979,8.000000000008001e-05,9.999999999998899e-05,2.0000000000131024e-05,0.00012481468941127893,0.00040489442214264315,-0.00027007831809466865
150000000000.0,3,0.0059036033,0.0032361944999999997,-0.0168478247,-0.025167,0.002071,0.009192,-1.7833393025,-9.576585991,1.130902878,-2.136,1.3538,-0.85108,2.0000000000020002e-05,9.999999999998899e-05,1.999999999990898e-05,0.00015701797036671294,0.00018231794310907823,2.2910214800830886e-06
150000000000.0,3,-0.01589657965,0.0040991797,-0.02582090945,-0.021979,-8.6e-05,0.008135,-1.784418034,-9.5766840575,1.128157016,-2.1346,1.3538,-0.85245,9.999999999998899e-05,5.0000000000105516e-05,2.4999999999941735e-05,7.030096622639981e-05,0.00027752671407066387,-0.0002469310706207928
150000000000.0,3,-0.0328915041,-0.006894074949999999,-0.02101565095,-0.01983,-9.9e-05,0.004938,-1.7854967655,-9.576782124,1.12580342,-2.1334,1.3539,-0.85371,0.00012999999999996348,4.999999999988347e-05,2.4999999999941735e-05,0.00020666543092229261,0.00010650324993499716,7.385271262627668e-05
150000000000.0,3,-0.02827257195,-0.0310282406,-0.008168939449999999,-0.018728,0.003091,0.0028,-1.7862812975,-9.5768801905,1.1237440234999998,-2.1323,1.3539,-0.85472,7.00000000000145e-05,9.999999999998899e-05,2.500000000016378e-05,0.00012760581390680592,7.538164885767529e-05,7.174174010105006e-05
150000000000.0,3,-0.0244773984,-0.033764295949999995,0.0173381572,-0.018725,0.002027,0.000668,-1.7867716299999998,-9.576978256999999,1.1219788265,-2.1315,1.354,-0.85552,3.999999999992898e-05,9.999999999998899e-05,2.4999999999941735e-05,-0.00031461257943132814,2.0853416782262713e-05,-0.00023793004133088047
150000000000.0,3,-0.030371195049999997,-0.024506818349999997,0.02746842665,-0.021937,-7.6e-05,-0.0004,-1.787163896,-9.57717439,1.1202136294999998,-2.1307,1.354,-0.85633,7.00000000000145e-05,4.999999999988347e-05,-9.999999999998899e-05,-9.124956258843575e-05,5.983333405090718e-05,0.00011314395938066824
150000000000.0,3,-0.0344409548,-0.00865927195,0.02117255735,-0.019792,-9.1e-05,-0.002529,-1.787360029,-9.5772724565,1.1186445655,-2.13,1.3541,-0.85709,0.00019000000000002348,5.0000000000105516e-05,-9.999999999998899e-05,-0.0003436262530447376,-0.00014294980245854738,0.00015205462341505438
150000000000.0,3,-0.0355196863,0.00030400615,-0.0102969825,-0.015547,-0.002258,-0.001449,-1.7878503614999999,-9.577370522999999,1.1168793685,-2.1292,1.3541,-0.85794,4.999999999999449e-05,9.999999999998899e-05,-3.333333333332966e-05,0.0001590844818735171,-0.00024028967853073624,0.00013465031015291729
150000000000.0,3,-0.013052651149999999,0.00285373515,-0.027213453749999998,-0.011346,-0.009753,-0.000361,-1.787948428,-9.577566655999998,1.115212238,-2.1285,1.3542,-0.85872,0.00012000000000000899,3.333333333332966e-05,-3.333333333332966e-05,-0.00011597063371260319,-1.7188951990432244e-05,-0.00010719471095077537
150000000000.0,3,-0.010502922149999998,0.0010591181999999998,-0.043168873299999994,-0.010286,-0.009762,0.000709,-1.788144561,-9.577762789,1.113643174,-2.1278,1.3543,-0.85948,0.0001100000000000545,3.333333333332966e-05,-3.333333333332966e-05,4.7943108157699754e-05,-0.00013654855968270319,-7.924627339805923e-05
150000000000.0,3,-0.0097870367,-0.00204958985,-0.0437572723,-0.010276,-0.00976,-0.001425,-1.788144561,-9.577860855499999,1.1121721764999999,-2.1272,1.3544,-0.86018,6.499999999998174e-05,3.333333333332966e-05,9.999999999998899e-05,0.0006633054864997323,-0.00019616885002537998,-0.00031704723684677916
150000000000.0,3,-0.02397725925,0.00352058735,-0.04647371435,-0.01025,-0.007626,-0.003563,-1.788144561,-9.578056988499998,1.1105050459999999,-2.1266,1.3545,-0.86093,6.499999999998174e-05,-1.666666666655381e-05,-9.999999999998899e-05,0.0004776812978515288,-0.0001054686105743663,-6.794033541002165e-05
150000000000.0,3,-0.0288511643,0.0030596748,-0.045816668799999995,-0.010271,-0.008693,-0.001425,-1.7883406939999997,-9.5782531215,1.1090340484999999,-2.1259,1.3545,-0.8617,5.999999999994898e-05,-1.6666666666775853e-05,1.6666666666775853e-05,0.00012388027697318726,-0.0001196701568912939,4.953927271955649e-06
150000000000.0,3,-0.06653812025,0.01530818065,-0.043365006299999995,-0.007063,-0.007653,-0.001418,-1.7893213590000001,-9.578155055,1.107759184,-2.1251,1.3545,-0.86252,0.0001100000000000545,-1.6666666666775853e-05,1.666666666655381e-05,-0.00021436905990723787,-0.00010348920222558178,0.00026417558146318854
150000000000.0,3,-0.09001524035,0.0084533323,-0.038775494099999995,-0.005955,-0.002334,-0.001422,-1.7905962235,-9.578056988499998,1.106582386,-2.1243,1.3545,-0.86334,4.0000000000040004e-05,-1.666666666655381e-05,1.666666666655381e-05,0.0005373629012668246,-0.0002494509137496159,-3.3314674880990935e-05
150000000000.0,3,-0.0830819388,-0.00255953565,-0.037373143149999996,-0.006981,0.003004,-0.001429,-1.7918710879999997,-9.577958921999999,1.1053075215,-2.1235,1.3544,-0.86414,5.999999999994898e-05,-1.666666666655381e-05,1.6666666666775853e-05,0.0003610062956582727,4.8583885091657564e-05,-6.3281334621301255e-06
150000000000.0,3,-0.0699606411,-0.015180694199999997,-0.0253207703,-0.009086,0.007283,-0.00037,-1.7930478859999999,-9.577958921999999,1.1039345905,-2.1227,1.3544,-0.86494,0.000140000000000029,-1.6666666666775853e-05,1.6666666666775853e-05,0.00039529715486485983,2.0386791271587157e-05,0.00010493505269337788
150000000000.0,3,-0.054319034349999996,-0.035039160449999995,-0.028664837949999997,-0.010115,0.011555,-0.001445,-1.7938324179999998,-9.577958921999999,1.1021693934999999,-2.1217,1.3544,-0.86574,2.999999999997449e-05,-1.999999999990898e-05,1.666666666655381e-05,-7.447175521346772e-05,0.0001836711096128152,0.0003941087922063602
150000000000.0,3,-0.04186458885,-0.056780503499999996,-0.02574245625,-0.01009,0.014752,-0.001449,-1.7943227505,-9.578056988499998,1.1004041965,-2.1209,1.3545,-0.86643,0.00017000000000000348,-2.0000000000131024e-05,-9.999999999998899e-05,0.00040783227020924073,5.35723451913217e-05,4.05477805793808e-05
150000000000.0,3,-0.03525490675,-0.04946474259999999,-0.0275959131,-0.010075,0.016884,-0.001451,-1.7948130829999998,-9.5782531215,1.0985409329999998,-2.12,1.3545,-0.86715,7.00000000000145e-05,-1.999999999990898e-05,9.999999999998899e-05,0.0007318270010858718,-0.00015608620150175945,1.5561920625462022e-05
150000000000.0,3,-0.0312047603,-0.042913900399999996,-0.01819133575,-0.01005,0.020081,-0.001456,-1.7953034155,-9.578351188,1.096775736,-2.1192,1.3546,-0.8678,3.999999999992898e-05,-2.0000000000131024e-05,1.2499999999970868e-05,0.00011067570280465233,-0.0006547846145341651,0.0004977520789046785
150000000000.0,3,-0.03241097825,-0.03666706435,-0.0149649479,-0.010002,0.02541,-0.002531,-1.7956956814999998,-9.578449254499999,1.0950105389999998,-2.1184,1.3546,-0.86838,4.999999999999449e-05,-1.999999999990898e-05,1.2499999999970868e-05,-0.00025793977623367326,-0.00010541672605568486,0.0002804679818875222
150000000000.0,3,-0.0260660757,-0.03445076145,-0.012846711499999998,-0.008939,0.024337,-0.003594,-1.7960879475,-9.578547321,1.0933434085,-2.1176,1.3547,-0.8689,0.000140000000000029,-9.999999999998899e-05,1.2499999999970868e-05,-0.00023452377429333815,3.612459117730005e-05,0.0005423566471303154
150000000000.0,3,-0.021045070899999997,-0.0255365166,-0.010120462799999999,-0.005711,0.028572,-0.002528,-1.7964802134999998,-9.5786453875,1.0919704774999999,-2.117,1.3547,-0.86928,4.999999999999449e-05,-4.999999999988347e-05,1.2500000000192912e-05,3.199857825464392e-05,-6.643933357719511e-05,0.0003056759041193402
150000000000.0,3,-0.018103075899999998,-0.024340105299999998,-0.01018910935,-0.00782,0.029658,-0.005735,-1.7965782799999999,-9.5788415205,1.0905975465,-2.1164,1.3548,-0.86959,0.0001300000000000745,-5.0000000000105516e-05,1.2499999999970868e-05,-0.0006647109514734684,4.267873870933414e-05,0.0002999707870161572
150000000000.0,3,0.0014513841999999999,-0.013856796449999998,-0.00102969825,-0.004642,0.0275,-0.004659,-1.796382147,-9.578939586999999,1.089518815,-2.116,1.3549,-0.86969,3.999999999992898e-05,-2.4999999999941735e-05,1.2499999999970868e-05,0.0007201030886418991,-0.0003315985404559463,-4.663399124194001e-05
150000000000.0,3,0.0126701918,8.825985e-05,-0.009218250999999998,-0.003584,0.026426,-0.004655,-1.7960879475,-9.57913572,1.0884400834999999,-2.1156,1.355,-0.86979,0.00012000000000000899,-2.500000000016378e-05,1.2499999999970868e-05,0.00045538537863443196,3.881108611070161e-05,-1.455723719079316e-05
150000000000.0,3,0.02085874455,-0.0035107806999999996,-0.0072176943999999995,0.000638,0.022126,-0.002507,-1.7956956814999998,-9.5792337865,1.087753618,-2.1154,1.355,-0.86974,5.500000000002725e-05,-2.4999999999941735e-05,1.2499999999970868e-05,0.00013192020278895988,-3.439743561828301e-05,0.0001662241165609757
150000000000.0,3,0.033764295949999995,-0.01754409685,-0.0102381426,-0.00258,0.020022,-0.00251,-1.7951072824999998,-9.579429919499999,1.0870671525,-2.1153,1.3551,-0.86968,5.500000000002725e-05,-2.4999999999941735e-05,-4.999999999988347e-05,0.00021434319202917607,8.593537094037096e-05,6.873575212029692e-05
150000000000.0,3,0.027076160649999997,-0.024751984600000002,0.011905273099999999,-0.000432,0.02107,-0.003577,-1.7946169499999998,-9.5796260525,1.0868710195,-2.1154,1.3552,-0.86941,0.00012999999999996348,-1.4285714285744433e-05,-5.0000000000105516e-05,0.00019777829004752334,0.00019728617742709176,8.784645159742865e-06
150000000000.0,3,0.022388581949999996,-0.01877973475,0.027272293649999998,-0.001476,0.023211,-0.004651,-1.7939304845,-9.579724119,1.0867729529999999,-2.1155,1.3553,-0.86908,0.000160000000000049,-1.4285714285744433e-05,-5.0000000000105516e-05,4.4266258636183053e-05,0.0002499008442622408,8.578828819816309e-05
150000000000.0,3,0.017995202749999998,-0.00877695175,0.022751427999999997,-0.00042,0.021072,-0.005714,-1.7933420855,-9.5798221855,1.0866748865,-2.1156,1.3553,-0.86875,0.00017999999999995797,-1.4285714285744433e-05,-4.999999999988347e-05,-0.00023335462207207947,0.0004629121235826261,0.00013140096166930348
150000000000.0,3,0.01793636285,-0.0075707338,0.02019189235,0.00065,0.02,-0.007846,-1.792459487,-9.5800183185,1.0866748865,-2.1158,1.3554,-0.86834,-9.00000000000345e-05,-1.4285714285522388e-05,9.999999999998899e-05,4.7915512854102005e-05,-0.00024212744849694268,5.739657620829064e-05
150000000000.0,3,0.032999377249999996,-0.0102185293,0.021300043799999998,-0.001506,0.017885,-0.00678,-1.7913807554999999,-9.580214451499998,1.0867729529999999,-2.1161,1.3555,-0.86785,7.00000000000145e-05,-1.4285714285744433e-05,5.0000000000105516e-05,-0.00021806948832048256,7.384569187940393e-05,4.654605811538204e-05
150000000000.0,3,0.039285439899999997,-0.01744603035,0.021849216199999997,-0.001517,0.015754,-0.007846,-1.7900078245,-9.580508651,1.0866748865,-2.1164,1.3556,-0.8674,1.0000000000065512e-05,-1.4285714285744433e-05,4.999999999988347e-05,-0.0001595728435388466,5.169211928035544e-05,0.00018164198432302214
150000000000.0,3,0.051445685899999996,-0.0322050386,0.01328801075,-0.004777,0.008322,-0.007841,-1.7884387604999998,-9.5808028505,1.0862826204999998,-2.1166,1.3558,-0.86708,0.00011999999999989797,-1.4285714285744433e-05,-9.999999999998899e-05,-0.0002566264742456248,0.00017083050974742164,0.00032284173439922625
150000000000.0,3,0.05424058115,-0.04425741144999999,0.011110934449999998,-0.004768,0.009387,-0.007845,-1.7867716299999998,-9.5811951165,1.0856942215,-2.1168,1.3559,-0.86678,1.0000000000065512e-05,-3.333333333332966e-05,2.4999999999941735e-05,-6.06984776738706e-05,-5.6962310893249324e-05,-9.446821746461609e-05
150000000000.0,3,0.0412859965,-0.035588332849999994,0.00805125965,-0.002679,0.005105,-0.005701,-1.7854967655,-9.581489315999999,1.085400022,-2.117,1.3561,-0.86657,2.999999999997449e-05,-3.333333333332966e-05,2.500000000016378e-05,-0.000419765047456222,4.816025769671661e-05,0.00034819839463029467
150000000000.0,3,0.0261249156,-0.02085874455,0.016994924449999997,-0.00374,0.005114,-0.006772,-1.784418034,-9.581685449,1.085203889,-2.1172,1.3562,-0.86628,0.00012999999999996348,-3.333333333332966e-05,2.4999999999941735e-05,-0.0002061541782276688,0.0003215566011482984,-0.0002678225069354667
150000000000.0,3,0.012121019399999999,-0.01774022985,0.02644853505,-0.002666,0.007234,-0.00464,-1.7836335019999998,-9.5817835155,1.085203889,-2.1174,1.3563,-0.86606,-2.999999999997449e-05,-0.0001500000000000945,2.4999999999941735e-05,-1.689150606054568e-07,-0.0001567743487802531,0.00030373319663024034
150000000000.0,3,0.0067763951499999996,-0.018966061099999997,0.015474893699999999,-0.002674,0.006169,-0.004638,-1.7831431694999997,-9.581881582,1.0851058224999999,-2.1175,1.3563,-0.8659,0.0017000000000000348,-0.00014999999999987246,-0.0018000000000000238,-0.0006892163859399947,0.002506111121749477,-0.0004443966609875005
150000000000.0,3,0.0030204482,-0.026948674199999998,0.0011081514499999999,0.000521,0.006141,-0.003566,-1.7826528369999999,-9.582077714999999,1.085007756,-2.1175,1.3564,-0.86578,-0.0016000000000000458,0.00029999999999996696,0.0019000000000000128,0.0008308120870446078,-0.002343401596540451,0.00045278287405192685
150000000000.0,3,0.0068842683,-0.039844418949999995,0.011767979999999999,-0.000549,0.005085,-0.004634,-1.782064438,-9.5821757815,1.0849096894999999,-2.1177,1.3564,-0.86557,0.0016900000000000803,-0.00019999999999997797,-0.0018000000000000238,-0.0008078445574717374,0.002311651998457398,-0.00031027974454156393
150000000000.0,3,0.0159652262,-0.049425515999999996,0.0160436794,-0.004827,0.005118,-0.002507,-1.7813779724999999,-9.582273848,1.0847135565,-2.1177,1.3565,-0.86546,8.999999999992347e-05,-9.999999999998899e-05,1.999999999990898e-05,-0.0001084747622435156,7.952940659783359e-05,-1.5168819016420088e-05
150000000000.0,3,0.025634583099999997,-0.0469542402,0.017906942899999997,-0.008027,0.005144,-0.002515,-1.7805934405,-9.582568047499999,1.0840270909999998,-2.1177,1.3566,-0.86548,7.00000000000145e-05,9.999999999998899e-05,2.0000000000131024e-05,-3.121704739750264e-05,3.31641599906618e-05,0.00013004217639789317
150000000000.0,3,0.023702673049999998,-0.04786625864999999,0.0186718616,-0.012283,0.005181,-0.004658,-1.7797108419999998,-9.582862247,1.0829483595,-2.1174,1.3567,-0.86566,2.0000000000020002e-05,-9.999999999998899e-05,1.999999999990898e-05,-0.000155852626331221,-4.9063149474948275e-05,0.00014344289539058863
150000000000.0,3,0.010493115499999999,-0.050945546749999994,0.01766177665,-0.011201,0.008367,-0.002528,-1.7792205095,-9.583058379999999,1.081869628,-2.1171,1.3568,-0.86591,4.0000000000040004e-05,-1.6666666666775853e-05,2.0000000000131024e-05,-0.000354349614532401,5.943526857787873e-06,0.00017416461728059218
150000000000.0,3,0.0014709974999999999,-0.05554486559999999,0.01605348605,-0.011192,0.009432,-0.00253,-1.7788282434999998,-9.5831564465,1.0807908965,-2.1168,1.3569,-0.86619,2.999999999997449e-05,-1.666666666655381e-05,1.999999999990898e-05,-9.946402713301161e-05,-4.1539093225129164e-06,7.969832044674163e-05
150000000000.0,3,-0.00053936575,-0.053465855799999996,0.023330020349999998,-0.01013,0.009422,-0.001462,-1.7786321105,-9.5833525795,1.0799082979999999,-2.1165,1.357,-0.86642,9.00000000000345e-05,-1.6666666666775853e-05,1.1111111111183902e-05,-0.00019281781703073264,-3.989450987251786e-05,7.193090398738278e-05
150000000000.0,3,-0.0008825985,-0.02968472955,0.032754211,-0.013347,0.007317,-0.001464,-1.7784359775,-9.583450646,1.0790256995,-2.1162,1.3571,-0.86667,4.999999999999449e-05,-1.6666666666775853e-05,1.1111111110961858e-05,-0.0001766465613701751,-9.602735216085456e-05,0.0001647165367639758
150000000000.0,3,0.01124822755,-0.029312076849999997,0.018632634999999998,-0.014408,0.007327,-0.002534,-1.7780437114999998,-9.583744845499998,1.077750835,-2.1157,1.3572,-0.86703,4.999999999999449e-05,-1.666666666655381e-05,1.1111111111183902e-05,0.00018758809006191868,-4.861390179700109e-05,1.7402891102413776e-05
150000000000.0,3,0.00944380395,-0.02593858925,-0.0081002929,-0.013356,0.006252,-0.001463,-1.7777495119999998,-9.5839409785,1.076181771,-2.1152,1.3573,-0.86753,6.999999999990347e-05,-1.6666666666775853e-05,1.1111111111183902e-05,0.0003803901463270698,-0.0001370687733066589,0.00010860029346826394
150000000000.0,3,0.0024124359,-0.01707337765,-0.0048640984,-0.012272,0.008374,-0.001465,-1.777553379,-9.584137111499999,1.07480884,-2.1146,1.3574,-0.86803,3.0000000000085514e-05,-2.4999999999941735e-05,1.1111111110961858e-05,-0.00011826972085948739,-2.7293851936338598e-05,0.00010355536376405183
150000000000.0,3,-0.00722750105,-0.017249897349999998,0.015023787799999999,-0.011167,0.013692,-0.000405,-1.7776514454999999,-9.584235177999998,1.0736320419999998,-2.1141,1.3574,-0.86844,7.00000000000145e-05,-2.500000000016378e-05,1.1111111111183902e-05,0.0007839417728654485,-7.235957216567002e-05,-0.00027294226793239673
150000000000.0,3,-0.01324878415,-0.0183972754,0.02554632325,-0.010105,0.013682,0.000665,-1.7779456449999997,-9.5843332445,1.072651377,-2.1137,1.3574,-0.86877,6.999999999990347e-05,-2.4999999999941735e-05,1.1111111111183902e-05,0.0001349726441013388,-0.0001913684017833539,-8.70413477560561e-06
150000000000.0,3,-0.02005459925,-0.023634026499999995,0.0245754649,-0.009038,0.013673,0.000667,-1.7784359775,-9.5843332445,1.071866845,-2.1132,1.3574,-0.86911,4.999999999999449e-05,-2.4999999999941735e-05,1.1111111110961858e-05,3.028643532498876e-05,-0.00019448951187617247,0.00020207882574752034
150000000000.0,3,-0.020044792599999996,-0.008688691899999998,0.00495235825,-0.002648,0.011491,-0.000384,-1.77892631,-9.584235177999998,1.071278446,-2.1128,1.3574,-0.86934,-9.99999999995449e-06,-3.333333333332966e-05,1.1111111111183902e-05,0.00036731443262549845,-0.000219627617021656,0.0001043263786177917
150000000000.0,3,0.0006080123,0.00791396655,-0.0028341218499999994,-0.002667,0.010423,0.001752,-1.7792205095,-9.584235177999998,1.0707881135,-2.1126,1.3574,-0.86949,2.0000000000020002e-05,-3.333333333332966e-05,8.333333333387927e-06,0.00036307655897016566,-0.00022493823395408619,1.4734152200102102e-05
150000000000.0,3,0.0194956202,0.0083748791,-0.00440318585,-0.000534,0.010405,0.001755,-1.7792205095,-9.5843332445,1.0705919805,-2.1125,1.3574,-0.8695,2.999999999997449e-05,-3.333333333332966e-05,8.333333333387927e-06,5.385525233325694e-06,-0.00032298888867532405,0.00022939828293466746
150000000000.0,3,0.0171027976,0.013954862949999999,-0.0160436794,0.001605,0.010389,0.000691,-1.7792205095,-9.5843332445,1.0702977809999998,-2.1123,1.3575,-0.86952,4.0000000000040004e-05,-5.0000000000105516e-05,8.333333333165882e-06,-0.0002974393376733442,-0.0002551511132611317,-3.9960305640018845e-05
150000000000.0,3,0.027654752999999997,0.0140235095,-0.006413549099999999,0.001584,0.007193,-0.000372,-1.7788282434999998,-9.584431311,1.0701997145,-2.1124,1.3575,-0.86938,2.0000000000020002e-05,-4.999999999988347e-05,8.333333333387927e-06,0.00011159917728398305,-0.0002262014497795839,0.00011313191892226016
150000000000.0,3,0.020603771649999998,-0.0012944778,0.0015886773,0.000576,0.012533,-0.003586,-1.7784359775,-9.5845293775,1.0701016479999998,-2.1125,1.3575,-0.86918,5.999999999994898e-05,-1.999999999990898e-05,8.333333333387927e-06,-8.919887444025498e-05,-0.00019139182414718015,0.0002620506173722781
150000000000.0,3,0.015935806249999997,-0.028252958649999996,0.0083748791,-0.000499,0.011476,-0.003587,-1.7777495119999998,-9.584627443999999,1.0701016479999998,-2.1126,1.3576,-0.86893,2.999999999997449e-05,-2.0000000000131024e-05,8.333333333165882e-06,-0.00011554865357465971,-8.611640049283054e-06,-0.00019254346039820902
150000000000.0,3,0.021084297499999998,-0.03266595115,0.01069905515,-0.004742,0.01258,-0.0068,-1.776768847,-9.584823577,1.0697093819999999,-2.1127,1.3577,-0.86873,3.0000000000085514e-05,-1.999999999990898e-05,8.333333333387927e-06,4.554244923182793e-06,-0.0001640087703391746,2.2811141850098693e-05
150000000000.0,3,0.0274193934,-0.030881140849999995,0.01022833595,-0.004788,0.006187,-0.007858,-1.7754939824999998,-9.585117776499999,1.0692190495,-2.1129,1.3578,-0.86852,2.999999999997449e-05,-2.0000000000131024e-05,8.333333333387927e-06,0.0001550701436758839,-1.0023650859114497e-05,-0.00022899332390791116
150000000000.0,3,0.0387166542,-0.035794272499999995,0.0026870221,-0.004827,0.001924,-0.006785,-1.774022985,-9.585411976,1.068728717,-2.113,1.358,-0.86835,2.0000000000020002e-05,-1.999999999990898e-05,8.333333333387927e-06,0.00011081059218409628,-0.00018518875090145492,5.335815616458461e-06
150000000000.0,3,0.05155355905,-0.025781682849999998,0.017848103,-0.003825,-0.005545,-0.005705,-1.7725519874999998,-9.585706175499999,1.0686306504999998,-2.1133,1.3581,-0.86803,2.999999999997449e-05,3.333333333332966e-05,8.333333333387927e-06,0.00011898506401486486,-0.00011000401514982272,-0.0001064912732875456
150000000000.0,3,0.06795027785,-0.031322440099999994,0.024467591749999996,-0.003826,-0.004482,-0.003575,-1.7709829234999999,-9.586000375,1.0686306504999998,-2.1137,1.3583,-0.86771,1.333333333330966e-05,3.333333333332966e-05,8.333333333165882e-06,-3.175768518537403e-05,-0.00012029640766120231,-3.952014922514735e-05
150000000000.0,3,0.06232126075,-0.04855272415,0.01677917815,-0.00492,-0.006607,-0.001442,-1.7695119259999998,-9.5862945745,1.068532584,-2.114,1.3584,-0.86746,1.333333333330966e-05,3.333333333332966e-05,8.333333333387927e-06,0.0004449970875832765,0.000150654462464761,-0.00017907196898292455
150000000000.0,3,0.04970010219999999,-0.051769305349999996,0.0144746154,-0.006006,-0.007666,0.00069,-1.7684331944999998,-9.5864907075,1.068336451,-2.1142,1.3585,-0.86737,1.333333333330966e-05,1.2499999999970868e-05,1.4285714285744433e-05,6.055855740894067e-05,-0.00015036848623006804,-0.00018603354565405184
150000000000.0,3,0.0404426246,-0.05184775855,0.011993532949999998,-0.00814,-0.007649,0.000684,-1.767550596,-9.586784907,1.0678461184999999,-2.1142,1.3586,-0.86744,1.5000000000098268e-05,1.2499999999970868e-05,1.4285714285744433e-05,6.198830275816469e-05,-5.675027674656441e-05,-9.144828460749821e-05
150000000000.0,3,0.0293807234,-0.0421097551,0.0086690786,-0.009226,-0.008708,0.002818,-1.7671583299999998,-9.5868829735,1.0670615865,-2.114,1.3587,-0.86773,1.4999999999987246e-05,1.2499999999970868e-05,1.4285714285744433e-05,2.2663502492692444e-05,5.4213647021406075e-05,-2.0294526720032735e-05
150000000000.0,3,0.008090486249999999,-0.03949137955,0.015582766849999999,-0.010306,-0.009766,0.003884,-1.7670602635,-9.58698104,1.0664731875,-2.1138,1.3587,-0.86809,-4.999999999999449e-05,1.2499999999970868e-05,1.4285714285522388e-05,-5.4624612519926785e-06,-0.00020627716654231243,-0.00014944163723873416
150000000000.0,3,0.0096301303,-0.0377752158,0.01928968055,-0.009225,-0.008708,0.002816,-1.766962197,-9.5870791065,1.0660809215,-2.1136,1.3588,-0.86835,9.99999999995449e-06,1.2500000000192912e-05,1.4285714285744433e-05,-5.568607637940204e-05,9.841260481135983e-05,-0.0001157983610848845
150000000000.0,3,0.00408937305,-0.0325188514,0.021407916949999998,-0.007091,-0.008726,0.00282,-1.766962197,-9.5870791065,1.0658847884999998,-2.1136,1.3588,-0.86852,2.0000000000020002e-05,1.2499999999970868e-05,1.4285714285744433e-05,0.00023839538762726598,-0.00013290230027585004,0.00014505183800750387
150000000000.0,3,0.0177892631,-0.03109688715,0.01587696635,-0.007076,-0.007659,0.001749,-1.7667660639999998,-9.587177173,1.065590589,-2.1135,1.3588,-0.8687,2.0000000000020002e-05,1.2499999999970868e-05,1.4285714285744433e-05,7.642157250553616e-05,8.35092811435345e-06,-0.0001626785675457043
150000000000.0,3,0.02205515585,-0.022643554849999997,0.027321326899999998,-0.007045,-0.004462,0.000675,-1.7663737979999998,-9.5872752395,1.0654925224999998,-2.1136,1.3589,-0.8687,2.0000000000020002e-05,1.2499999999970868e-05,0.0002500000000000835,-0.0003146862298033515,-9.207929309162921e-05,-1.5338809556286748e-05
150000000000.0,3,0.0131605243,-0.0204566719,0.031293020149999996,-0.009155,-0.002313,-0.0004,-1.7659815319999999,-9.587373305999998,1.0652963895,-2.1136,1.3589,-0.86875,1.999999999990898e-05,5.999999999994898e-05,0.00024999999999986144,0.00025159221490089756,-0.00019566337867571448,-0.00010589202235200545
150000000000.0,3,0.009169217749999998,-0.0148276548,0.03980519235,-0.009166,-0.004443,-0.001464,-1.7655892659999999,-9.587373305999998,1.0651002564999998,-2.1136,1.3589,-0.86876,2.999999999997449e-05,6.000000000017103e-05,0.0002500000000000835,0.0002102917672666127,8.059462371079462e-05,-2.0711158206232483e-05
150000000000.0,3,-0.00075511205,-0.0186522483,0.029665116249999998,-0.00917,-0.004444,-0.000397,-1.7653931330000001,-9.5874713725,1.064806057,-2.1135,1.359,-0.86891,3.0000000000085514e-05,5.999999999994898e-05,0.0002500000000000835,-0.00034214039920899,2.883171492507053e-05,-0.00016299496026439542
150000000000.0,3,0.0008041452999999999,-0.0206331916,0.023408473549999996,-0.007042,-0.006591,-0.002525,-1.765000867,-9.587569439,1.064413791,-2.1135,1.359,-0.86902,-1.0000000000065512e-05,6.000000000017103e-05,0.00024999999999986144,-1.72535238227578e-05,-7.657026422935864e-05,-0.0002388336905911892
150000000000.0,3,-0.0060997363,-0.02054493175,0.0160436794,-0.009164,-0.004443,-0.001465,-1.7649028004999998,-9.5876675055,1.0639234585,-2.1133,1.3591,-0.86928,-0.0013299999999999423,5.999999999994898e-05,0.0002500000000000835,0.0012300794032356066,-0.0019789080234764445,-4.96966655312292e-05
150000000000.0,3,-3.9226599999999995e-05,-0.026291628649999996,0.02240819525,-0.007026,-0.003396,-0.000396,-1.7646086009999997,-9.587765571999999,1.0635311925,-2.1132,1.3591,-0.86944,-4.0000000000040004e-05,9.999999999998899e-05,9.999999999998899e-05,0.00028170242294867087,-0.0003040770217070943,-6.722201908182512e-05
150000000000.0,3,0.016024066099999998,-0.02185902285,0.03966789925,-0.005992,-0.007668,-0.000387,-1.7641182684999999,-9.587863638499998,1.063629259,-2.1134,1.3592,-0.86933,0.000160000000000049,3.333333333332966e-05,-9.999999999998899e-05,0.00023463470857776336,0.00027877577207013893,-0.0002965159183840882
150000000000.0,3,0.010679441849999999,-0.02003498595,0.041962655349999996,-0.003838,-0.006618,-0.002521,-1.7637260025,-9.587863638499998,1.064021525,-2.1136,1.3592,-0.86913,-6.0000000000060005e-05,3.333333333332966e-05,9.999999999998899e-05,0.00016871615538294193,-0.000156623771395914,-0.0002152575209342089
150000000000.0,3,0.00914960445,-0.01897586775,0.033352416649999994,-0.003831,-0.004489,-0.00039,-1.7633337365,-9.587863638499998,1.064413791,-2.1139,1.3592,-0.86896,7.00000000000145e-05,3.333333333332966e-05,3.333333333332966e-05,0.0003978700142279745,-5.2662430561012386e-05,-0.00026000737562714704
150000000000.0,3,0.0112776475,-0.0211627507,0.041639035899999996,-0.007056,-0.00766,-0.000391,-1.7629414705,-9.587961705,1.064609924,-2.1141,1.3592,-0.86883,-2.0000000000020002e-05,5.0000000000105516e-05,3.333333333332966e-05,0.00033097144322846717,1.301001884868036e-05,-0.0006434918585518368
150000000000.0,3,-0.0001176798,-0.014405968849999999,0.03294053735,-0.005979,-0.006603,-0.000391,-1.7627453374999997,-9.587961705,1.064609924,-2.1141,1.3592,-0.86886,2.0000000000020002e-05,4.999999999988347e-05,3.333333333332966e-05,0.0002614533661844387,-0.00012731610181382358,-2.0144599616411796e-05
150000000000.0,3,0.00467777205,-0.011336487399999998,0.018475728599999998,-0.007057,-0.008724,-0.001457,-1.7624511379999999,-9.5880597715,1.064413791,-2.1141,1.3593,-0.86896,0.0002300000000000635,4.999999999988347e-05,-0.00029999999999996696,-0.000221647557808069,-2.5517660162677203e-05,0.00039390918686699194
150000000000.0,3,0.017034151049999998,-0.028674644599999997,0.00381478685,-0.007069,-0.010855,-0.002521,-1.7617646725,-9.588255904499999,1.064021525,-2.1141,1.3593,-0.86908,-7.00000000000145e-05,5.0000000000105516e-05,0.00019999999999997797,9.072413024235892e-05,-6.153226486205199e-05,-0.00013985767733926124
150000000000.0,3,0.01562199345,-0.033636809499999996,0.0298710559,-0.00706,-0.009789,-0.002524,-1.7611762734999998,-9.588353971,1.0639234585,-2.1143,1.3594,-0.86903,7.999999999996898e-05,9.999999999998899e-05,-9.999999999998899e-05,-0.00012458817128346844,0.00015511147618907373,-0.0002619197600242096
150000000000.0,3,0.02213360905,-0.030047575599999998,0.04766031899999999,-0.010256,-0.008699,-0.001465,-1.7602936749999998,-9.588550104,1.064021525,-2.1145,1.3595,-0.86892,4.0000000000040004e-05,4.999999999988347e-05,4.999999999988347e-05,-0.0005067237922478096,8.76381392693748e-05,-3.715762459322036e-05
150000000000.0,3,0.013454723799999999,-0.032587497949999995,0.061674021849999996,-0.013458,-0.009737,-0.002537,-1.7596072095,-9.588648170499999,1.0639234585,-2.1146,1.3596,-0.8689,-2.0000000000020002e-05,5.0000000000105516e-05,5.0000000000105516e-05,-0.0001556526109349754,-5.88226915865242e-06,-0.000275061995151038
150000000000.0,3,-0.00195152335,-0.03605905205,0.06249778045,-0.015601,-0.010798,-0.002542,-1.759116877,-9.588746236999999,1.0635311925,-2.1146,1.3596,-0.86906,0.0014499999999999513,-0.00019999999999997797,-0.0015000000000000568,-0.0009717707307137502,0.0026429435648449573,-0.0007510507375076969
150000000000.0,3,-0.000392266,-0.024732371299999997,0.048356591149999996,-0.014543,-0.010809,-0.000406,-1.7589207439999999,-9.5888443035,1.0630408599999999,-2.1144,1.3597,-0.86934,2.0000000000020002e-05,9.999999999998899e-05,1.999999999990898e-05,7.697343379353683e-05,-7.106626598618604e-05,-0.00018755894178257293
150000000000.0,3,-0.0017553903499999998,-0.0167301449,0.04585589539999999,-0.01243,-0.012959,0.000669,-1.7587246109999999,-9.58894237,1.062648594,-2.1143,1.3597,-0.86959,6.0000000000060005e-05,9.999999999998899e-05,2.0000000000131024e-05,0.00020360797980800704,0.00017386771142313684,-0.0004285277250346553
150000000000.0,3,-0.0040991797,-0.0080806796,0.051690852149999994,-0.009233,-0.012987,0.001742,-1.7588226775,-9.58894237,1.0628447269999999,-2.1144,1.3597,-0.8697,8.999999999992347e-05,9.999999999998899e-05,1.999999999990898e-05,0.0001817312775271862,0.00031405075212931344,-0.00041683748127185893
150000000000.0,3,0.0052857843499999994,-0.00797280645,0.04955300245,-0.008176,-0.012998,0.003879,-1.7589207439999999,-9.5888443035,1.0630408599999999,-2.1144,1.3597,-0.86979,6.0000000000060005e-05,9.999999999998899e-05,2.0000000000131024e-05,-5.419335401657399e-05,0.00032086216636573184,-0.00025997333201166484
150000000000.0,3,0.010600988649999999,-0.027174227149999997,0.052426350899999995,-0.008188,-0.014065,0.004947,-1.7589207439999999,-9.5888443035,1.0632369929999999,-2.1145,1.3596,-0.86984,2.0000000000020002e-05,9.999999999998899e-05,1.999999999990898e-05,0.00031827575275400477,0.00018078765740869862,-0.0005185656416042406
150000000000.0,3,0.015935806249999997,-0.05516240625,0.06661657345,-0.011372,-0.010844,0.00707,-1.7589207439999999,-9.5888443035,1.0634331259999998,-2.1146,1.3596,-0.8699,-1.0000000000065512e-05,9.999999999998899e-05,3.333333333332966e-05,6.68920896080838e-05,6.47137733107428e-05,-0.00019780074143316284
150000000000.0,3,0.015053207749999999,-0.0657437816,0.070215614,-0.016713,-0.013994,0.003863,-1.7588226775,-9.5888443035,1.0632369929999999,-2.1146,1.3597,-0.87011,2.999999999997449e-05,9.999999999998899e-05,3.333333333332966e-05,-0.0001533568869847013,7.673381212525143e-05,-0.0004436544553758637
150000000000.0,3,0.00967916355,-0.0456597624,0.07100995265,-0.014623,-0.020405,0.002809,-1.7586265444999998,-9.58894237,1.0632369929999999,-2.1146,1.3597,-0.8703,3.0000000000085514e-05,9.999999999998899e-05,3.333333333332966e-05,0.00016497642048673988,0.00010789623507312385,-7.4172200978051e-05
150000000000.0,3,0.0037853669,-0.009610516999999999,0.07040194035,-0.013549,-0.020413,0.001744,-1.7586265444999998,-9.5888443035,1.0634331259999998,-2.1147,1.3597,-0.87045,2.999999999997449e-05,9.999999999998899e-05,-5.0000000000105516e-05,-0.0001045513971318357,0.00010230020069679213,-0.0002583598092353867
150000000000.0,3,0.0215942433,-0.0018632635,0.0316362529,-0.012501,-0.023617,0.000683,-1.758136212,-9.5890404365,1.0631389265,-2.1147,1.3597,-0.8707,3.999999999992898e-05,0.0001500000000000945,-4.999999999988347e-05,-0.00011291039230210131,-0.00014621221758948089,-0.00026620033747315475
150000000000.0,3,0.05841821404999999,-0.032675757799999997,-0.009483030549999999,-0.00933,-0.027905,-0.000375,-1.7567632809999998,-9.589334636,1.062452461,-2.1147,1.3599,-0.8709,-0.0013699999999999823,0.00014999999999987246,0.0016000000000000458,0.0009574487522527875,-0.002224842761004542,-0.00019932094558861024
150000000000.0,3,0.059791145049999994,-0.03627479835,-0.041766522349999995,-0.014652,-0.026795,-0.001456,-1.7552922835,-9.589726901999999,1.0609814634999999,-2.1145,1.3601,-0.87145,-2.999999999997449e-05,9.999999999998899e-05,9.999999999998899e-05,0.00045173971897183307,-0.0002210347824553871,-0.0004533446876995306
150000000000.0,3,0.0417371024,-0.0192406473,-0.042933513699999995,-0.018955,-0.031022,-0.001458,-1.754213552,-9.590217234499999,1.0590201335,-2.1139,1.3603,-0.87229,1.0000000000065512e-05,9.999999999998899e-05,4.999999999988347e-05,0.00018932030303120406,0.00017301238889633197,-0.0002294029701208622
150000000000.0,3,-0.00361865385,0.009188831049999999,-0.03666706435,-0.017876,-0.029964,-0.002526,-1.7537232194999999,-9.590511434,1.0570588035,-2.1132,1.3604,-0.87329,9.99999999995449e-06,-0.00012499999999993072,5.0000000000105516e-05,-6.216586918661449e-05,-8.878574918913529e-05,-8.770409472536045e-05
150000000000.0,3,-0.037461403,0.0269879008,-0.036549384549999994,-0.012503,-0.025744,-0.003589,-1.753821286,-9.5906095005,1.055587806,-2.1126,1.3605,-0.87421,5.999999999994898e-05,-0.00012500000000015277,-9.999999999998899e-05,-0.0002595117877119968,0.00023534770118471826,2.2101921644868128e-05
150000000000.0,3,-0.061262142549999996,0.0407172108,-0.03807922195,-0.005004,-0.020479,-0.001448,-1.754605818,-9.5906095005,1.0547052075,-2.112,1.3605,-0.87496,2.0000000000020002e-05,-0.00012499999999993072,9.999999999998899e-05,0.00028233481271078276,-0.00014333781798470113,0.00017144940381186302
150000000000.0,3,-0.08113041545,0.04072701744999999,-0.04563034245,0.000394,-0.013062,-0.002515,-1.7556845494999997,-9.5904133675,1.054214875,-2.1115,1.3604,-0.87558,0.0010799999999999699,-0.00012499999999993072,-0.0025999999999999357,-0.020373550876319424,0.012016824920572322,0.001930375056746314
150000000000.0,3,-0.08340555825,0.030253515249999998,-0.04684636705,0.001502,-0.007743,-0.002518,-1.7568613475,-9.590315301,1.0536264759999998,-2.111,1.3604,-0.87618,0.00047000000000008146,0.00029999999999996696,0.0008999999999999009,0.01935471738675032,-0.009696097693639771,-0.0022520788826705385
150000000000.0,3,-0.0636647718,-0.00661948875,-0.04350229939999999,0.000515,0.001858,-0.003602,-1.7575478129999997,-9.590217234499999,1.0529400105,-2.1106,1.3603,-0.87663,9.99999999995449e-06,-1.999999999990898e-05,9.999999999998899e-05,4.0437769370793575e-05,-8.756323887681994e-05,8.323228090389989e-05
150000000000.0,3,-0.05567235204999999,-0.03862839435,-0.04596376855,-0.001595,0.005073,-0.003609,-1.7580381455,-9.590217234499999,1.0519593455,-2.11,1.3603,-0.87711,4.999999999999449e-05,-2.0000000000131024e-05,-9.999999999998899e-05,0.00014016780826198172,0.00012605115414476842,0.00031060744136990337
150000000000.0,3,-0.043541526000000004,-0.058908546549999996,-0.04957261574999999,-0.002669,0.005081,-0.002542,-1.7584304114999998,-9.590315301,1.0507825474999999,-2.1094,1.3604,-0.87763,2.0000000000020002e-05,-1.999999999990898e-05,5.0000000000105516e-05,0.00017416311524742767,-1.5063428400852175e-05,0.00022538371919189615
150000000000.0,3,-0.02872367785,-0.0595263655,-0.05745716234999999,-0.003723,0.008285,-0.000414,-1.7587246109999999,-9.5904133675,1.0491154169999999,-2.1087,1.3604,-0.87833,4.0000000000040004e-05,-2.0000000000131024e-05,4.999999999988347e-05,4.038914678816674e-05,0.00011140988853619582,0.00011700221043353665
150000000000.0,3,-0.0331660903,-0.05392676835,-0.053828701849999994,-0.004754,0.013621,0.000643,-1.7593130099999998,-9.590511434,1.0474482864999999,-2.1078,1.3605,-0.87907,6.999999999990347e-05,-1.999999999990898e-05,-9.999999999998899e-05,-0.00015741154514259392,-3.4760224738583645e-06,0.0003374397346229685
150000000000.0,3,-0.03205793885,-0.0402661049,-0.059349845799999995,-0.001527,0.017856,0.00171,-1.7599994755,-9.590511434,1.0458792225,-2.107,1.3605,-0.8797,3.0000000000085514e-05,-9.999999999998899e-05,-1.666666666655381e-05,9.587823267742657e-05,-8.354821350153863e-05,0.0004543723612662198
150000000000.0,3,-0.039295246549999996,-0.0280077924,-0.05610384465,0.001742,0.025291,-0.000431,-1.760882074,-9.590511434,1.044604358,-2.1062,1.3605,-0.88021,7.00000000000145e-05,-9.999999999998899e-05,-1.6666666666775853e-05,9.442783951696399e-05,-6.631597746031836e-05,0.0005296996968136014
150000000000.0,3,-0.0493666761,-0.0096497436,-0.0495628091,0.003924,0.02954,-0.003634,-1.761666606,-9.590511434,1.043623693,-2.1056,1.3605,-0.88054,-6.0000000000060005e-05,-9.999999999998899e-05,-1.6666666666775853e-05,-0.0009132846536386019,-0.0005010428585778826,0.0010677307946238557
150000000000.0,3,-0.053044169849999996,0.00440318585,-0.05704528305,0.005065,0.036993,-0.006845,-1.7623530715,-9.590511434,1.0425449615,-2.105,1.3604,-0.88077,1.0000000000065512e-05,-9.999999999998899e-05,-1.666666666655381e-05,0.00039499030725131945,-0.00012166189639728486,0.0003868273342417794
150000000000.0,3,-0.05600577815,0.021888442799999998,-0.060114764499999994,0.009383,0.042289,-0.008979,-1.7629414705,-9.590511434,1.0417604295,-2.1045,1.3604,-0.88083,2.999999999997449e-05,-9.999999999998899e-05,-1.666666666655381e-05,-0.00025996056282595603,0.00017685363960207034,0.0005331513269561938
150000000000.0,3,-0.05266171049999999,0.018436501999999997,-0.06730303894999999,0.011563,0.047601,-0.01005,-1.7635298695,-9.5904133675,1.0409758974999999,-2.1041,1.3604,-0.88079,2.0000000000020002e-05,-0.00019999999999997797,-1.6666666666775853e-05,0.00012615433817786403,-0.00014300079523854592,0.0005619576775099944
150000000000.0,3,-0.041433096249999996,0.011875853149999999,-0.0740009809,0.017958,0.046484,-0.011102,-1.7636279359999998,-9.590511434,1.040485565,-2.1038,1.3604,-0.88053,-4.999999999999449e-05,-9.999999999998899e-05,4.999999999988347e-05,3.2971197676312514e-05,-0.000211428149017312,0.0005714027610217443
150000000000.0,3,-0.03647093135,-0.0036971070499999996,-0.08160113465,0.020108,0.050727,-0.007902,-1.764020202,-9.590511434,1.0399952325,-2.1035,1.3604,-0.88028,-4.0000000000040004e-05,-9.999999999998899e-05,5.0000000000105516e-05,-0.0005960199835435276,6.630496752091375e-06,0.0006502068496443414
150000000000.0,3,-0.036421898099999996,-0.012385798949999999,-0.06847983695,0.019075,0.053935,-0.010043,-1.764216335,-9.590511434,1.0397990995,-2.1034,1.3604,-0.87988,7.999999999996898e-05,-9.999999999998899e-05,-9.999999999998899e-05,-0.00026307056403696016,8.794199807216074e-05,0.0006326795409909991
150000000000.0,3,-0.02601704245,-0.0179657828,-0.04350229939999999,0.019091,0.058194,-0.006847,-1.764412468,-9.5904133675,1.0397990995,-2.1033,1.3604,-0.87933,-2.0000000000020002e-05,-9.999999999998899e-05,4.999999999988347e-05,0.00038292450589882954,-0.00031476986954914743,0.0006576183309201511
150000000000.0,3,-0.021849216199999997,-0.02234935535,-0.019819239649999997,0.015878,0.056091,-0.007916,-1.7645105345,-9.590315301,1.040093299,-2.1034,1.3604,-0.87866,-9.99999999995449e-06,-9.999999999998899e-05,5.0000000000105516e-05,0.0001751557928530989,0.0002571717839310317,0.0006602099801189532
150000000000.0,3,-0.0182207557,-0.04842523769999999,-0.009129991149999999,0.015886,0.057157,-0.007917,-1.7646086009999997,-9.590315301,1.0402894319999998,-2.1035,1.3604,-0.87798,2.0000000000020002e-05,-9.999999999998899e-05,9.090909090847532e-06,0.0002767213702130622,6.355349106401675e-05,0.0008398746122781908
150000000000.0,3,-0.0195740734,-0.06804834435,0.01407254275,0.007384,0.062552,-0.005806,-1.7647066674999998,-9.590315301,1.0402894319999998,-2.1035,1.3604,-0.8774,2.0000000000020002e-05,-9.999999999998899e-05,9.090909091069577e-06,-7.028336708891914e-05,0.00017850586025391912,0.0010637842659360075
150000000000.0,3,-0.00050013915,-0.07776673449999999,0.045169429899999995,0.005277,0.065766,-0.005816,-1.7646086009999997,-9.590315301,1.0402894319999998,-2.1035,1.3604,-0.87672,-1.5000000000098268e-05,-9.999999999998899e-05,9.090909090847532e-06,0.00031538180801815585,0.0003019376283055486,0.0007573666759563835
150000000000.0,3,0.014592295199999999,-0.0596048187,0.06001669799999999,0.001045,0.070063,-0.005832,-1.7645105345,-9.5904133675,1.040093299,-2.1034,1.3604,-0.87607,-1.4999999999987246e-05,-0.00010000000000021103,9.090909090847532e-06,0.00013939687606456808,0.00019298034471448844,0.0008891357642668574
150000000000.0,3,0.018867994599999997,-0.034607667849999996,0.058947773149999994,0.001063,0.075385,-0.000506,-1.7645105345,-9.5904133675,1.0398971659999998,-2.1033,1.3604,-0.87548,6.0000000000060005e-05,-9.999999999998899e-05,9.090909090847532e-06,-2.369333644591798e-05,0.00033257840034028874,0.0006309933964305792
150000000000.0,3,0.01726951065,-0.01972117315,0.05098477334999999,0.005338,0.077478,0.001632,-1.765000867,-9.590315301,1.039701033,-2.1031,1.3604,-0.8749,-1.0000000000065512e-05,1.999999999990898e-05,9.090909091069577e-06,0.00022549875721145085,0.00022002621763728136,0.0007443647626308447
150000000000.0,3,0.010071429549999998,-0.01303303785,0.0587222202,0.005392,0.085999,0.004818,-1.7660795985,-9.590119168,1.0397990995,-2.1029,1.3603,-0.87431,-9.99999999995449e-06,2.0000000000131024e-05,9.090909090847532e-06,0.00014698921726608027,0.0002562102629879437,0.00047784273648820985
150000000000.0,3,0.020397831999999998,-0.030714427799999996,0.0646650501,0.003267,0.088145,0.006945,-1.7671583299999998,-9.589923035,1.039701033,-2.1026,1.3602,-0.87375,-5.999999999994898e-05,1.999999999990898e-05,9.090909090847532e-06,0.00017576676825092896,0.00015686496998856825,0.0003453270045663537
150000000000.0,3,0.05675108354999999,-0.05512317965,0.09587961704999999,0.003237,0.08601,0.010148,-1.7678447955,-9.5898249685,1.0398971659999998,-2.1025,1.3601,-0.87299,-3.0000000000085514e-05,2.0000000000131024e-05,9.090909090847532e-06,0.00015024676243013957,0.00028865476868356055,6.293697805581644e-05
150000000000.0,3,0.10852038889999999,-0.06438065724999999,0.0941046134,-2.6e-05,0.078575,0.011217,-1.767746729,-9.5898249685,1.0399952325,-2.1026,1.3601,-0.87211,-9.99999999995449e-06,1.999999999990898e-05,9.090909091069577e-06,0.00032300575172117263,-0.00014796609462464083,0.00030686173290650487
150000000000.0,3,0.14913953319999998,-0.07022542065,0.07781576774999999,-0.001187,0.067925,0.013362,-1.7670602635,-9.589923035,1.0397990995,-2.1027,1.3602,-0.87133,-7.999999999996898e-05,0.00010000000000021103,9.090909090847532e-06,0.0002421269000019155,-1.663529884665671e-05,0.00011437716437567857
150000000000.0,3,0.18540452489999998,-0.0779236409,0.07871797954999998,-0.003402,0.059414,0.016566,-1.7658834655,-9.590119168,1.039701033,-2.1029,1.3603,-0.87052,-6.0000000000060005e-05,9.999999999998899e-05,-1.2499999999970868e-05,0.00029240252177276105,-5.734148470870615e-05,-4.838647960658804e-05
150000000000.0,3,0.20479227194999997,-0.06119349599999999,0.09249632279999999,-0.005639,0.045579,0.01551,-1.7643144014999999,-9.5904133675,1.0397990995,-2.1034,1.3604,-0.86964,-4.999999999999449e-05,9.999999999998899e-05,-1.2499999999970868e-05,0.00015152848257149465,5.516327585386449e-05,-0.00012162819205929765
150000000000.0,3,0.20094806514999997,-0.0684111904,0.11814071255,-0.007852,0.033876,0.013383,-1.7625492045,-9.590707566999999,1.0403874985,-2.104,1.3605,-0.86865,-4.0000000000040004e-05,9.999999999998899e-05,-1.2499999999970868e-05,0.00015949273235227324,-8.314175062884566e-05,0.00019428125990206269
150000000000.0,3,0.19370095079999997,-0.07485415945,0.1330762405,-0.012192,0.024319,0.013383,-1.760685941,-9.5910017665,1.0407797644999999,-2.1047,1.3607,-0.86777,-3.999999999992898e-05,0.00019999999999997797,-1.2499999999970868e-05,-0.00011228611582425607,0.0004261205894109388,-1.3092021430960443e-05
150000000000.0,3,0.18727759505,-0.06838177044999999,0.13627320839999998,-0.016542,0.011569,0.010187,-1.7586265444999998,-9.591295965999999,1.041270097,-2.1054,1.3609,-0.867,-4.0000000000040004e-05,9.999999999998899e-05,-1.2500000000192912e-05,-0.0008785151640182676,0.00046293845642408904,-0.00020809939929922194
150000000000.0,3,0.17664718645,-0.060095151199999995,0.12273022474999999,-0.017676,0.001987,0.009126,-1.7565671479999998,-9.591688232,1.04146623,-2.106,1.361,-0.8664,-0.00012000000000000899,0.00019999999999997797,-1.2499999999970868e-05,0.0005053565566091045,-8.785442705239177e-05,-0.0006365358443241043
150000000000.0,3,0.15979936175,-0.043894565399999995,0.1010281083,-0.019902,-0.008654,0.011269,-1.7548019509999997,-9.5919824315,1.041270097,-2.1064,1.3612,-0.86616,-0.00012000000000000899,0.00019999999999997797,-1.2499999999970868e-05,0.000557377912723922,-7.577777716827327e-05,-0.00047370258559720213
150000000000.0,3,0.15964245534999996,-0.02368305975,0.07909063224999999,-0.016795,-0.019339,0.01342,-1.7531348205,-9.592374697499999,1.041270097,-2.1067,1.3613,-0.86598,-9.999999999998899e-05,0.00019999999999997797,-1.2499999999970868e-05,0.0001150510490905976,0.00015602824512073177,-0.0011562099632111966
150000000000.0,3,0.16597755125,-0.020397831999999998,0.06004611795,-0.01151,-0.025778,0.013433,-1.7513696234999998,-9.592668897,1.04146623,-2.1073,1.3615,-0.86576,-2.0000000000020002e-05,0.00019999999999997797,-9.999999999998899e-05,-0.000987481153689851,5.659559520432289e-05,-0.0001182811914501869
150000000000.0,3,0.1501398115,-0.00027458619999999996,0.046571780849999994,-0.009418,-0.031124,0.01344,-1.7498986259999998,-9.592865029999999,1.041858496,-2.1078,1.3616,-0.86554,-0.00015999999999993797,9.999999999998899e-05,-1.6666666666775853e-05,0.0005071058095200698,-0.0002777270597942305,-0.0006041190407524155
150000000000.0,3,0.11551253034999999,0.03044964825,0.03796154215,-0.006286,-0.038612,0.015588,-1.7492121605,-9.592865029999999,1.0425449615,-2.1083,1.3616,-0.86549,-4.999999999999449e-05,0.00019999999999997797,-1.666666666655381e-05,-0.0004400674196303189,-0.0002623098950051972,-0.0003402933834255606
150000000000.0,3,0.0739813676,0.026811381099999997,0.029733762799999997,-0.008444,-0.041792,0.015587,-1.7492121605,-9.592865029999999,1.0431333605,-2.1085,1.3616,-0.86567,-0.0001300000000000745,9.999999999998899e-05,-1.666666666655381e-05,-0.0009693697045252136,-0.0006048240725240461,-7.040270120661773e-05
150000000000.0,3,0.0473072796,0.0197702064,0.029155170449999997,-0.006346,-0.045009,0.017729,-1.7496044265,-9.592668897,1.0439178924999999,-2.1088,1.3615,-0.86594,-0.00010999999999994348,0.00020000000000020002,-1.6666666666775853e-05,-0.0004965716658236197,-0.00037862331862115184,-9.344266984179228e-05
150000000000.0,3,0.01766177665,0.0083160392,0.0176127434,-0.005298,-0.048213,0.016669,-1.7504870249999998,-9.592472764,1.0445062914999999,-2.1088,1.3614,-0.86641,-2.0000000000020002e-05,9.999999999998899e-05,-1.6666666666775853e-05,0.00024589234818006567,1.661182864975963e-05,-0.000504848355467491
150000000000.0,3,0.01179739995,0.01228773245,0.02358499325,-0.008522,-0.052447,0.014535,-1.7513696234999998,-9.592276630999999,1.0450946904999998,-2.1088,1.3613,-0.8669,-9.99999999995449e-06,0.00029999999999996696,-1.666666666655381e-05,0.0009319092756023828,3.3643308066100275e-05,-0.0006038303568876024
150000000000.0,3,-0.013180137599999999,-0.00038245935,0.0194956202,-0.007454,-0.052456,0.014538,-1.7523502884999997,-9.5919824315,1.045585023,-2.1088,1.3612,-0.86751,-2.999999999997449e-05,9.999999999998899e-05,-9.999999999998899e-05,6.011326964228125e-05,0.00021964115152073305,-0.0005039027409532437
150000000000.0,3,-0.06155634204999999,-0.01658304515,0.007247114349999999,-0.009548,-0.048174,0.013462,-1.7541154854999998,-9.591688232,1.0457811559999999,-2.1084,1.361,-0.8684,-5.0000000000105516e-05,0.00019999999999997797,9.999999999998899e-05,0.0012429479599138649,0.0007575245959099419,-0.0012250609018704672
150000000000.0,3,-0.0853766949,-0.026644668049999997,0.00469738535,-0.010539,-0.040703,0.010249,-1.7560768155,-9.591295965999999,1.045585023,-2.1078,1.3608,-0.86939,-3.999999999992898e-05,9.999999999998899e-05,0.0009500000000000064,0.00013581625138647802,0.000568891134955285,-0.0005056417676780889
150000000000.0,3,-0.09300626859999998,-0.03115572705,0.006246836049999999,-0.009408,-0.033251,0.009174,-1.7580381455,-9.5910017665,1.0452908235,-2.1072,1.3607,-0.87039,-0.0019000000000000128,0.00039999999999995595,0.0009500000000000064,0.0004142214955549228,-0.0026816320059910304,0.0006539202872319905
150000000000.0,3,-0.11727772734999999,-0.027488039949999998,-0.0007649187,-0.012549,-0.025766,0.009161,-1.760489808,-9.5906095005,1.0445062914999999,-2.1063,1.3605,-0.87163,-6.0000000000060005e-05,9.999999999998899e-05,-5.0000000000105516e-05,-0.000821610966812214,8.544976097568657e-05,0.00024486450590543996
150000000000.0,3,-0.13841105809999998,-0.013837183149999998,-0.01213082605,-0.01035,-0.018322,0.00809,-1.7633337365,-9.590217234499999,1.043623693,-2.1052,1.3603,-0.87292,-3.4999999999896225e-05,5.0000000000105516e-05,-4.999999999988347e-05,-0.00059997807056833,0.0003425055046508696,-0.00013198828179605826
150000000000.0,3,-0.15642587414999998,0.014386355549999999,-0.030331968449999996,-0.004969,-0.013036,0.00703,-1.7665699309999998,-9.589726901999999,1.0427410945,-2.104,1.3601,-0.87419,-3.500000000000725e-05,4.999999999988347e-05,1.999999999990898e-05,0.00013947001530612013,2.9964085368483495e-06,-0.00015919151863341696
150000000000.0,3,-0.14677613055,0.01177778665,-0.04265892749999999,0.001473,-0.00776,0.007039,-1.7696099925,-9.589236569499999,1.0422507619999999,-2.1031,1.3598,-0.87525,5.999999999994898e-05,-1.999999999990898e-05,2.0000000000131024e-05,-0.00015530247986084156,0.00023605759251354996,-0.00024159732293682623
150000000000.0,3,-0.13946036964999997,0.0027752819499999998,-0.04763089905,0.004734,-0.00139,0.004905,-1.772453921,-9.588746236999999,1.041858496,-2.1022,1.3596,-0.87614,-4.999999999999449e-05,-2.0000000000131024e-05,1.999999999990898e-05,-0.0002155101443144236,-5.869113251733005e-05,0.00027960561280071516
150000000000.0,3,-0.13206615554999998,0.00983606995,-0.049866815249999995,0.004765,0.000746,0.001705,-1.7749055835,-9.588255904499999,1.04146623,-2.1014,1.3594,-0.87684,-2.0000000000020002e-05,-1.999999999990898e-05,2.0000000000131024e-05,0.00044277158526573324,-6.994989799080642e-05,6.761510461839038e-05
150000000000.0,3,-0.12286751785,0.0166516917,-0.06120330265,0.008,0.003919,-0.000424,-1.7770630465,-9.587961705,1.0411720304999998,-2.1008,1.3592,-0.87745,-9.999999999998899e-05,-2.0000000000131024e-05,1.999999999990898e-05,-3.577849463853866e-05,-0.0002087626201237036,0.000494242513132015
150000000000.0,3,-0.12300481095,0.0420705285,-0.0701175475,0.00701,0.012456,-0.00257,-1.7792205095,-9.587569439,1.040485565,-2.1,1.359,-0.8781,7.999999999996898e-05,-1.999999999990898e-05,-9.999999999998899e-05,6.63258926187904e-05,-6.0027826234376747e-05,0.000604203931385161
150000000000.0,3,-0.1364693414,0.044090698399999996,-0.0631352127,0.011332,0.018816,-0.003634,-1.7814760389999997,-9.5872752395,1.040093299,-2.0993,1.3589,-0.87861,7.00000000000145e-05,-5.0000000000105516e-05,-9.999999999998899e-05,-0.00014987323865622848,-8.122149759959285e-05,0.0006526786062894807
150000000000.0,3,-0.16380047494999997,0.028959037449999996,-0.05225963785,0.013556,0.028393,-0.006842,-1.7840257679999998,-9.586784907,1.0399952325,-2.0986,1.3586,-0.87898,-2.999999999997449e-05,-4.999999999988347e-05,-2.4999999999941735e-05,0.00011103031736436897,-0.0002840367063727811,0.0006502038604518923
150000000000.0,3,-0.1779906975,0.01315071765,-0.029596469699999996,0.015774,0.039032,-0.006849,-1.7867716299999998,-9.586196507999999,1.0403874985,-2.0981,1.3584,-0.87907,2.0000000000020002e-05,-9.999999999998899e-05,-2.500000000016378e-05,0.00021294842250685342,-0.00021048634950271428,0.0007774061305378943
150000000000.0,3,-0.1642810008,-0.007207887749999999,-0.01326839745,0.015858,0.04756,-0.010059,-1.788929093,-9.585706175499999,1.0407797644999999,-2.0977,1.3581,-0.87893,9.00000000000345e-05,-9.999999999998899e-05,-2.4999999999941735e-05,-1.764679549975945e-05,-0.00010285605291171507,0.0007000823921963217
150000000000.0,3,-0.15622974115,-0.02737036015,-0.0056290171,0.011639,0.055053,-0.007938,-1.7911846224999999,-9.5853139095,1.0407797644999999,-2.0972,1.3579,-0.87892,0.00010999999999994348,-4.999999999988347e-05,-2.4999999999941735e-05,0.0002654764612226579,-0.00019021277197683872,0.0007787975633752886
150000000000.0,3,-0.13761671945,-0.03029274185,-0.00795319315,0.01057,0.056126,-0.005801,-1.7933420855,-9.58501971,1.0405836314999999,-2.0966,1.3578,-0.87895,2.999999999997449e-05,-5.0000000000105516e-05,4.999999999988347e-05,-7.086688239121841e-05,-0.00020983420251763363,0.0008610730767952823
150000000000.0,3,-0.1213671004,-0.0171616375,-0.015710253299999997,0.009545,0.061464,-0.005806,-1.7953034155,-9.584627443999999,1.040093299,-2.0959,1.3576,-0.879,-2.999999999997449e-05,-0.00019999999999997797,5.0000000000105516e-05,-0.0004359082946094883,-0.0001768534110784259,0.0010338721534450812
150000000000.0,3,-0.09954730415,-0.013552790299999999,-0.019789819699999996,0.011698,0.064642,-0.004737,-1.7970686125,-9.5843332445,1.039701033,-2.0953,1.3575,-0.87894,0.00019999999999997797,-9.999999999998899e-05,-9.999999999998899e-05,0.000301163068150867,0.0005493843837807155,0.0006302483542937054
150000000000.0,3,-0.09142739794999999,-0.0035107806999999996,-0.029527823149999997,0.012759,0.064633,-0.003663,-1.7989318759999997,-9.584039044999999,1.0391126339999999,-2.0946,1.3573,-0.87894,0.0001100000000000545,-9.999999999998899e-05,-9.999999999998899e-05,-3.041083300914238e-05,-0.0001265493367481607,0.0010377264336582925
150000000000.0,3,-0.07776673449999999,-0.0190445143,-0.014768814899999998,0.011698,0.066772,-0.001531,-1.8005990065,-9.583842912,1.038720368,-2.094,1.3572,-0.87882,-4.999999999999449e-05,-5.0000000000105516e-05,9.999999999998899e-05,6.226616770543814e-05,-0.0004976366477995597,0.0007407067377975807
150000000000.0,3,-0.07379504124999998,-0.038334194849999996,0.0169655045,0.008551,0.072128,-0.003677,-1.8021680704999998,-9.583548712499999,1.0386223015,-2.0936,1.3571,-0.87855,7.999999999996898e-05,-4.999999999988347e-05,-9.999999999998899e-05,-0.00011708851443348323,0.00033420702897291044,0.0003924920132245546
150000000000.0,3,-0.05788865495,-0.05353450235,0.04198226865,0.005349,0.073218,-0.001548,-1.8036390679999998,-9.583254513,1.0384261685,-2.0932,1.357,-0.87822,0.00024000000000001798,-9.999999999998899e-05,-9.999999999998899e-05,3.0398179210910925e-05,0.00010082809473943577,0.0007809522543484881
150000000000.0,3,-0.0360492454,-0.06657734685,0.049131316499999994,0.004261,0.071094,-0.000478,-1.8046197329999998,-9.583058379999999,1.038131969,-2.0928,1.3569,-0.87786,-9.00000000000345e-05,1.0000000000065512e-05,0.00019999999999997797,-5.225765138838767e-05,7.887711849008383e-05,0.00031366999618942515
150000000000.0,3,-0.0042462794499999994,-0.06330192574999999,0.0450125235,0.001047,0.067926,-0.002613,-1.805011999,-9.583058379999999,1.0376416364999999,-2.0925,1.3569,-0.87749,0.0001100000000000545,9.999999999843467e-06,-1.2499999999970868e-05,-0.00011374911603434512,0.0006070431532338993,0.00023134311733619128
150000000000.0,3,0.023545766649999997,-0.0499158485,0.04474774395,-7.5e-05,0.06154,-0.001538,-1.805011999,-9.5831564465,1.037151304,-2.0923,1.3569,-0.87706,4.499999999996174e-05,1.0000000000065512e-05,-1.2499999999970868e-05,0.00013506548949981934,-0.00014479498877784103,0.00047772698924886114
150000000000.0,3,0.06218396765,-0.0403249448,0.028831550999999997,0.000905,0.051939,0.000613,-1.8044235999999998,-9.5833525795,1.036562905,-2.0922,1.357,-0.8766,4.499999999996174e-05,1.0000000000065512e-05,-1.2499999999970868e-05,0.0007090746699658368,0.0001619896924680564,-3.5031681523634006e-05
150000000000.0,3,0.0859847072,-0.04557150255,0.02650737495,-0.002352,0.043442,-0.001517,-1.8032468019999999,-9.583646779,1.0359745059999999,-2.0922,1.3571,-0.87616,4.0000000000040004e-05,1.0000000000065512e-05,-1.2499999999970868e-05,0.00023252761677272638,-0.00013156999031105343,-0.00021865425967204644
150000000000.0,3,0.11381597989999999,-0.06194860804999999,0.05302455655,-0.005642,0.032811,-0.000442,-1.801481605,-9.584039044999999,1.0355822399999999,-2.0925,1.3573,-0.87553,4.999999999999449e-05,9.999999999843467e-06,-1.2500000000192912e-05,1.097748051348546e-05,1.961705983655193e-05,-0.00013363193920490346
150000000000.0,3,0.1289378342,-0.0610365896,0.055387959199999996,-0.012101,0.025404,-0.000447,-1.799324142,-9.584431311,1.0348957745,-2.0927,1.3575,-0.87508,4.999999999999449e-05,1.0000000000065512e-05,-1.2499999999970868e-05,0.00037379433788053973,-0.00023940130600830223,8.494778254952706e-05
150000000000.0,3,0.1364693414,-0.059330232499999996,0.046983660149999995,-0.013271,0.013689,0.0017,-1.797166679,-9.5849216435,1.034013176,-2.0929,1.3578,-0.87478,-9.99999999995449e-06,1.0000000000065512e-05,-1.2499999999970868e-05,-0.00039923382549011954,-0.00020079042687703996,-9.018431598395438e-05
150000000000.0,3,0.14308883014999998,-0.06569474835,0.03562755945,-0.012289,0.003023,0.001713,-1.7948130829999998,-9.5855100425,1.0332286439999998,-2.0931,1.358,-0.87451,7.00000000000145e-05,9.999999999843467e-06,-1.2499999999970868e-05,0.00010380424421430057,-0.00013224226383945492,-0.00011711018469640067
150000000000.0,3,0.13498853724999998,-0.069823348,0.03309744375,-0.013428,-0.005494,0.002787,-1.7925575535,-9.586000375,1.0324441119999999,-2.0934,1.3583,-0.87435,-0.000180000000000069,1.0000000000065512e-05,0.00029999999999996696,-6.871979767586467e-05,-4.992357056621266e-05,-0.00018807857032143716
150000000000.0,3,0.13965650265,-0.05715315619999999,0.029272850249999996,-0.017729,-0.009722,0.00278,-1.7902039574999997,-9.5864907075,1.031463447,-2.0935,1.3585,-0.87431,4.0000000000040004e-05,9.999999999998899e-05,-4.999999999988347e-05,0.0003647139884763728,-2.2018989295213842e-05,-0.0003178662463936277
150000000000.0,3,0.11704236774999999,-0.054985886549999995,0.03498032055,-0.020927,-0.01076,0.000636,-1.7880464944999999,-9.5870791065,1.030286649,-2.0935,1.3588,-0.87445,4.999999999999449e-05,9.999999999998899e-05,-5.0000000000105516e-05,0.0009341279625805221,0.00022978352019586978,-0.0005703091404103411
150000000000.0,3,0.1005377758,-0.048690017249999995,0.0532697228,-0.022023,-0.01395,0.001702,-1.7861832309999999,-9.587569439,1.0292079175,-2.0935,1.359,-0.87462,2.999999999997449e-05,9.999999999998899e-05,9.999999999998899e-05,0.0002638012620304053,8.319791477262584e-05,-0.0005391459616568284
150000000000.0,3,0.08843636969999999,-0.0505238608,0.0423451147,-0.019905,-0.016099,0.001705,-1.784614167,-9.587961705,1.028129186,-2.0935,1.3592,-0.87487,-9.00000000000345e-05,9.999999999998899e-05,9.999999999998899e-05,0.000585739303537558,-0.00014167852343649479,-0.0004463303119273121
150000000000.0,3,0.08854424285,-0.04872924385,0.0293807234,-0.017811,-0.022509,-0.000419,-1.7827509035,-9.588353971,1.0272465874999999,-2.0935,1.3594,-0.87507,1.0000000000065512e-05,9.999999999998899e-05,2.4999999999941735e-05,-5.108700324019111e-05,0.00016188314423914996,-0.0004874739651041793
150000000000.0,3,0.09031924649999999,-0.07252017675,0.027713592899999997,-0.018908,-0.024646,0.00171,-1.78088764,-9.5888443035,1.0261678559999998,-2.0935,1.3596,-0.87535,8.999999999992347e-05,9.999999999998899e-05,2.500000000016378e-05,7.892785605401187e-05,6.83744639693451e-05,-0.0002287799564313353
150000000000.0,3,0.08737725149999999,-0.07671742295,0.022790654599999998,-0.022096,-0.022491,0.002764,-1.7793185759999999,-9.589236569499999,1.024794925,-2.0934,1.3599,-0.87579,-7.500000000004725e-05,9.999999999998899e-05,2.4999999999941735e-05,-0.00023427146779608776,9.180678852960256e-05,-2.1470938164735998e-05
150000000000.0,3,0.0770018158,-0.07290263609999999,0.0323423317,-0.023156,-0.020354,0.004889,-1.7780437114999998,-9.5896288355,1.0235200604999999,-2.0931,1.36,-0.8763,-7.499999999993623e-05,9.999999999998899e-05,2.4999999999941735e-05,6.294438026088756e-05,8.814632711517945e-05,8.801464885088706e-05
150000000000.0,3,0.0574081291,-0.08556302125,0.043345393,-0.026328,-0.018195,0.002741,-1.7770630465,-9.5900211015,1.0219509965,-2.0927,1.3602,-0.87695,-9.99999999995449e-06,9.999999999998899e-05,9.999999999998899e-05,0.0010017440899798835,0.0008827029109399476,-0.0005396153184755725
150000000000.0,3,0.03468612105,-0.0925355494,0.0433257797,-0.031588,-0.009626,0.001647,-1.7762785145,-9.590315301,1.0198915999999998,-2.092,1.3604,-0.87781,-0.00012000000000000899,0.00019999999999997797,0.00019999999999997797,0.0010631065252661998,0.000478696356440933,-0.0001593702631872418
150000000000.0,3,0.039216793349999994,-0.08610238699999999,0.011336487399999998,-0.032631,-0.005357,0.00377,-1.775592049,-9.5908056335,1.0168515384999999,-2.0909,1.3606,-0.87902,4.999999999999449e-05,0.00029999999999996696,9.999999999998899e-05,0.0022882254283596026,0.00028443023381430343,1.0116016984085263e-06
150000000000.0,3,0.07629573699999999,-0.09183927724999999,-0.029537629799999996,-0.042192,4.9e-05,0.00374,-1.7744152509999997,-9.591492099,1.0123404795,-2.0893,1.3609,-0.88067,-0.00010999999999994348,0.00020000000000020002,9.999999999998899e-05,0.002256849387753501,-0.00027432843894104053,0.0005774499813679945
150000000000.0,3,0.0886128894,-0.13047747825,-0.06032070415,-0.064477,0.014088,0.001537,-1.7729442535,-9.592472764,1.0052796915,-2.0866,1.3614,-0.88327,-4.0000000000040004e-05,0.00019999999999997797,0.00020000000000020002,0.0025408860594304805,0.00026020405352444875,1.548132842499328e-05
150000000000.0,3,0.09215309005,-0.20147762425,-0.092378643,-0.10273,0.029329,-0.006034,-1.7707867904999999,-9.5941398945,0.9939039774999999,-2.0823,1.3622,-0.88743,-0.00038000000000004697,0.00039999999999995595,0.0006999999999999229,0.0041084758925915565,-0.00039561995673054184,0.000807990735007813
150000000000.0,3,0.12959487974999997,-0.2740370276,-0.11187426319999999,-0.13987,0.052018,-0.011484,-1.7673544629999998,-9.596395423999999,0.9781250776499999,-2.0763,1.3633,-0.89307,0.00026999999999999247,0.00039999999999995595,-0.0006999999999999229,0.003822206709841458,-0.0002625237505065048,0.00027325020293123004
150000000000.0,3,0.1330174006,-0.30815436295,-0.08183649424999999,-0.19417,0.067383,-0.011613,-1.7639221354999999,-9.599043219499999,0.95766840575,-2.0682,1.3647,-0.90066,0.0015800000000000258,0.00019999999999997797,-0.000700000000000145,0.0025619200249198393,0.0038818506960525134,-0.001394552456909004
150000000000.0,3,0.16348666214999996,-0.38827469345,-0.08698498549999999,-0.27413,0.073371,-0.013908,-1.7597052759999998,-9.602573613499999,0.9297488732,-2.0569,1.3664,-0.91146,-2.999999999997449e-05,0.0005999999999999339,0.0005999999999999339,0.00661507453978194,0.0007420547293817137,-4.917813245786107e-05
150000000000.0,3,0.21397129635,-0.5035518642,-0.23754648295,-0.35961,0.064476,-0.005514,-1.7548019509999997,-9.607182738999999,0.8908556993,-2.0406,1.3687,-0.92738,-0.00021000000000004349,0.0008000000000001339,0.000700000000000145,0.006962846010338586,0.0010317578969689656,-0.0008860599413691439
150000000000.0,3,0.2099015366,-0.58991903075,-0.3029666451,-0.42702,0.055419,0.01572,-1.751663823,-9.611889931,0.8444996647499999,-2.02,1.3712,-0.94767,-0.00012999999999996348,0.0008999999999999009,0.0007999999999999119,0.007461968535340535,0.0017511872837765452,-0.0006172907553279039
150000000000.0,3,0.16756622855,-0.63638293845,-0.10982467335,-0.49773,0.041047,0.050847,-1.7559787489999998,-9.6151261255,0.7975552311999999,-1.9971,1.3728,-0.97057,-7.00000000000145e-05,0.0008000000000001339,0.000700000000000145,0.004177852449833042,0.002346618386735111,-0.0006511572367617902
150000000000.0,3,0.13800898544999998,-0.72601571945,0.05684915005,-0.57484,0.022471,0.079566,-1.7632356699999998,-9.618166187,0.7435598163,-1.9699,1.3744,-0.99809,-0.00017000000000000348,0.0009999999999998899,0.0007999999999999119,0.006763546234361151,0.001354192558145062,-0.0036765049412368356
150000000000.0,3,0.14416756165,-0.94454710805,0.030361388399999995,-0.62529,0.000481,0.1062,-1.7728461869999999,-9.620715916,0.6843080369999999,-1.9392,1.3758,-1.0293,-0.00041999999999997595,0.001100000000000101,0.0007999999999999119,0.005676118000781383,0.0010830977241065298,-0.002705109786675486
150000000000.0,3,0.24354815274999997,-1.1290396145,0.1905628228,-0.64704,-0.03134,0.13717,-1.7839277014999997,-9.622873379,0.62286937475,-1.9067,1.3769,-1.0627,-0.001040000000000041,0.0005999999999999339,0.000700000000000145,-0.01287662476385476,0.00818185054419951,-0.0008812184712914117
150000000000.0,3,0.34767516244999996,-1.2400508925,0.40136657119999997,-0.64974,-0.080372,0.17248,-1.799324142,-9.623755977499998,0.56155819895,-1.8733,1.3774,-1.0974,0.00012000000000000899,0.0016000000000000458,0.0009999999999998899,0.021959312052448166,-0.004440362357402083,-0.006847319113112871
150000000000.0,3,0.44850713774999995,-1.3051670485,0.51323102775,-0.62803,-0.14984,0.20039,-1.817368378,-9.623657910999999,0.5028065587999999,-1.8407,1.3773,-1.132,-0.00026999999999999247,0.0011999999999998678,0.00039999999999995595,0.0049766809668823075,0.003366572874558882,-0.0031463546586238955
150000000000.0,3,0.54361202945,-1.1618918919999999,0.56534356585,-0.58612,-0.23652,0.21556,-1.8368836115,-9.6225791795,0.44919360324999996,-1.8106,1.3767,-1.1648,-0.0005600000000000049,0.001000000000000112,0.000400000000000178,0.0036821035450493866,0.0032764743335478297,-0.0038389447888542705
150000000000.0,3,0.6178385633,-0.7293499804499999,0.48123192879999993,-0.53977,-0.30404,0.22643,-1.8572814435,-9.6208139825,0.40163135074999995,-1.7838,1.3758,-1.1951,-0.0006899999999999684,0.0010999999999998789,0.00019999999999997797,0.005900635816358468,0.003245222388187363,-0.004530130724002213
150000000000.0,3,0.6380598755999999,-0.05067096054999999,0.45432248119999996,-0.54192,-0.30722,0.22537,-1.877777342,-9.6186565195,0.3556675822,-1.758,1.3747,-1.2246,-0.0007800000000000029,0.0008000000000001339,-9.999999999998899e-05,0.0029657909687352824,0.0031490469263792953,-0.004407052130968481
150000000000.0,3,0.8165016789999999,0.7404413016,0.37836997694999996,-0.58554,-0.28875,0.22953,-1.8988616394999998,-9.616204857,0.30591844674999996,-1.7305,1.3734,-1.2556,-0.0024500000000000632,0.0007999999999999119,0.0014999999999998348,0.0020218546249162195,0.0010359203335092992,-0.0022807911768496503
150000000000.0,3,0.9769776996,1.3398825895,-0.08900515540000001,-0.59225,-0.30578,0.26371,-1.9223975995,-9.612968662499998,0.2545021808,-1.7024,1.3717,-1.2873,-0.0008399999999999519,0.00029999999999996696,-0.00019999999999997797,-0.0005961022142890737,0.004879320957142275,-0.0024537495555625455
150000000000.0,3,0.6757860581499999,1.6758584184999998,-0.44920340989999996,-0.5171,-0.34589,0.32155,-1.9510330174999997,-9.608359537,0.2090385514,-1.6775,1.3694,-1.3161,-0.0008099999999999774,-5.0000000000105516e-05,-0.00029999999999996696,-0.001085787215776568,0.0029620168477124675,-0.0010723543480875009
150000000000.0,3,0.0599382448,1.8157012475,-0.5353646368,-0.36809,-0.34931,0.38692,-1.986042758,-9.6017890815,0.17668641304999996,-1.6595,1.366,-1.3381,-0.0010900000000000354,-4.999999999988347e-05,-9.999999999998899e-05,-4.5628086255966593e-05,0.0005027868594080775,-0.0009538415128238498
150000000000.0,3,-0.5073176178,1.7751997829999997,-0.5269113045,-0.20461,-0.29635,0.42554,-2.0257596904999997,-9.593845694999999,0.1595541955,-1.6494,1.3621,-1.3516,-0.0005399999999999849,-0.00029999999999996696,-0.00039999999999995595,-0.0007871043773255426,0.0018383850826082515,-0.0008918461057181304
150000000000.0,3,-0.7763140272999999,1.5611206135,-0.557409986,-0.079048,-0.21532,0.40853,-2.06528049,-9.5855100425,0.15413111805,-1.6453,1.358,-1.3583,-0.0008000000000000229,-0.0004999999999999449,-0.00019999999999997797,-0.0016928366132118455,-0.000960021269450273,0.0005702761234567255
150000000000.0,3,-0.8256022501999999,1.176209601,-0.72968340655,0.000925,-0.13704,0.32955,-2.0987211665,-9.578155055,0.15581786185,-1.6449,1.3545,-1.3603,-0.0007800000000000029,-0.00039999999999995595,-0.00019999999999997797,-0.000700683979799166,0.0002682490365617518,-0.00012584999882969683
150000000000.0,3,-0.7622120646,0.7295951467,-0.8437837792999999,0.057426,-0.075577,0.21643,-2.1403013625,-9.569132937,0.14542281285,-1.6386,1.3503,-1.3672,-0.0011399999999999189,-0.001000000000000112,-9.999999999998899e-05,-0.013202306231216543,-0.002732703086763655,0.003923406207913871
150000000000.0,3,-0.66450841065,0.42053857194999994,-0.74815913515,0.091308,-0.035262,0.11929,-2.1539326059999997,-9.5658967425,0.15454299735,-1.6424,1.3488,-1.3638,-0.000520000000000076,-0.00034999999999985043,-0.00019999999999997797,0.01340321995502114,0.0008858689633048922,-0.0068843854655384895
150000000000.0,3,-0.50870035545,0.31439139234999997,-0.53890483745,0.089676,-0.017059,0.047738,-2.1601107954999996,-9.564425745,0.16376124834999997,-1.6465,1.3481,-1.3598,0.0009799999999999809,-0.0003500000000000725,-0.002100000000000213,-0.0038096123170956453,0.002599881849314034,-0.0004026763895565999
150000000000.0,3,-0.338721691,0.24564677584999997,-0.4809377293,0.078142,-0.02756,-0.009904,-2.160404995,-9.564229612,0.1720870942,-1.6503,1.348,-1.3562,-0.0009899999999999354,-0.0005999999999999339,-0.00019999999999997797,-0.0029911783607172726,-0.0002476206013750648,-0.0019957678535305057
150000000000.0,3,-0.05580964515,0.13388038579999997,-0.44350574625,0.069423,-0.064753,-0.036535,-2.1591301305,-9.564523811499999,0.1702630573,-1.6495,1.3481,-1.3573,-0.0026000000000000467,-0.000400000000000178,0.0016000000000000458,0.0013506699603029748,-0.003211659412703627,-0.002940541104080374
150000000000.0,3,0.1787163896,0.01583773975,-0.43034522194999997,0.066937,-0.118,-0.051389,-2.1543248719999997,-9.56540641,0.17895174919999998,-1.6537,1.3485,-1.3541,-0.0009700000000000264,-0.0004999999999999449,-9.999999999998899e-05,-0.0017052460334909814,-0.00042523288269080695,-0.0013809614235431589
150000000000.0,3,0.24976556884999998,-0.12358340329999999,-0.43319895709999995,0.070879,-0.16278,-0.057708,-2.148637015,-9.5664851415,0.1889937588,-1.6585,1.349,-1.3507,-0.0012999999999999678,-0.0005999999999999339,-9.999999999998899e-05,-0.0020663776354075125,-0.0009600580454411922,-0.002827480413419181
150000000000.0,3,0.28532448174999997,-0.22832823195000002,-0.4224116421,0.077995,-0.20546,-0.055485,-2.142949158,-9.567563873,0.20049695925,-1.6641,1.3495,-1.347,-0.0011999999999999789,-0.000700000000000145,-0.00029999999999996696,-0.0014856530069313756,-0.0005119029555049615,-0.0026210572630605
150000000000.0,3,0.27687114945,-0.26594654135,-0.44102466379999994,0.090502,-0.23754,-0.051157,-2.1301024464999996,-9.570309734999999,0.20414503304999998,-1.6663,1.3508,-1.3468,-0.0012199999999999989,-0.0006999999999999229,-9.999999999998899e-05,-0.0027537219150881587,0.0012865440773666137,-0.0020939866506344273
150000000000.0,3,0.2834906382,-0.23708557039999997,-0.48002571084999995,0.10211,-0.24723,-0.041513,-2.1253952545,-9.571094267,0.2189040413,-1.6734,1.3512,-1.3421,-0.0013199999999999878,-0.0007999999999999119,-0.00039999999999995595,-0.0024370972194243112,-0.0006861366744923547,-0.0029159425027698305
150000000000.0,3,0.2988282388,-0.12573105965,-0.51774208675,0.11272,-0.2484,-0.030819,-2.121570661,-9.5715845995,0.23462410124999997,-1.6809,1.3514,-1.3369,-0.0014300000000000423,-0.0008000000000001339,-0.00019999999999997797,-0.0027537289904806528,0.0010132020375674955,-0.0016793581081953057
150000000000.0,3,0.2438325456,-0.03070462115,-0.5224786987,0.12659,-0.24106,-0.017999,-2.1189228655,-9.571682666,0.25149153925,-1.6889,1.3515,-1.3312,-0.0017399999999999638,-0.0009999999999998899,-9.999999999998899e-05,-0.003186836700630691,-0.0005416933270505631,-0.0020190590597017888
150000000000.0,3,0.16998847109999998,0.05675108354999999,-0.54877032735,0.14676,-0.23805,0.0023,-2.114509873,-9.572467198,0.25757166225,-1.692,1.3518,-1.3303,-0.0015600000000000058,-0.001100000000000101,-0.000500000000000167,-0.004785227368609757,0.0005021247474836787,-0.0020118468092586994
150000000000.0,3,0.06396877795,0.13063438465,-0.5761995274,0.18408,-0.22985,0.019429,-2.1153924715,-9.571682666,0.27916590555,-1.702,1.3515,-1.3224,-0.0016699999999999493,-0.0010999999999998789,-0.00029999999999996696,-0.0037275132592589078,-0.0004467483905765679,-0.0005032726062554893
150000000000.0,3,-0.02491869765,0.20818537285,-0.5624113774999999,0.24065,-0.21861,0.033383,-2.1175499345,-9.5704078015,0.3054771475,-1.7141,1.3509,-1.3123,-0.0016300000000000203,-0.001000000000000112,-0.0005999999999999339,-0.0016614657254749865,0.0007947813621960176,-0.002499444700980291
150000000000.0,3,-0.06353728535,0.24211638184999998,-0.57822950395,0.30355,-0.21594,0.046296,-2.120982262,-9.568544538,0.33761353954999995,-1.7286,1.35,-1.2996,-0.0018799999999999928,-0.0011999999999998678,-9.999999999998899e-05,-0.005728803188553178,-0.0005444500285314291,0.00015582129908553455
150000000000.0,3,-0.068254284,0.22286592789999998,-0.6557706855,0.35267,-0.20569,0.048501,-2.127846917,-9.566190942,0.36038458084999997,-1.7386,1.3489,-1.2912,-0.0018500000000000183,-0.0009000000000001229,-0.00029999999999996696,-0.0005396334806366809,-0.00040714908120143,-0.003297496752010076
150000000000.0,3,-0.01632807225,0.2015854974,-0.5965973594,0.36581,-0.17062,0.037788,-2.1310831114999997,-9.5639354125,0.3990718151,-1.7559,1.3479,-1.2753,-0.0017900000000000693,-0.0010999999999998789,-0.000500000000000167,-0.004834192715208907,0.00046934219214267436,-0.0014433558588038409
150000000000.0,3,0.1178367064,0.12361282324999999,-0.48084946944999996,0.35011,-0.13958,0.025965,-2.133338641,-9.561876016,0.4362488252499999,-1.7725,1.3469,-1.2598,-0.0016899999999999693,-0.001000000000000112,-0.00039999999999995595,-0.0017857785656387737,0.0012161610811836088,-0.00276712373021315
150000000000.0,3,0.22115957079999998,-0.00779628675,-0.53166752975,0.31376,-0.151,0.02272,-2.134907705,-9.559914685999999,0.4704642271,-1.7877,1.346,-1.2457,-0.0019099999999999673,-0.0009999999999998899,-0.00029999999999996696,-0.0026442279382157263,-0.00017377316457678482,-0.002635309629778426
150000000000.0,3,0.23011304224999998,-0.0635274787,-0.54304324375,0.25782,-0.19956,0.033366,-2.1312792445,-9.5598166195,0.48782199759999995,-1.7958,1.346,-1.239,-0.0019500000000000073,-0.001000000000000112,-0.0004999999999999449,-0.0020312405380342735,0.0010934190139950672,-0.003990819432403203
150000000000.0,3,0.22068885159999999,-0.04994526845,-0.4312768537,0.20097,-0.22788,0.047194,-2.1342212395,-9.557855289499999,0.51297605485,-1.8067,1.3451,-1.2302,-0.0020400000000000418,-0.0010999999999998789,-0.00039999999999995595,-0.005190599717875388,0.0006622190874923106,-0.002576052059640954
150000000000.0,3,0.2775478083,-0.0520340849,-0.36645489719999996,0.17835,-0.24476,0.063196,-2.1387322985,-9.55559976,0.53539405675,-1.8161,1.344,-1.223,-0.0020599999999999508,-0.001100000000000101,-0.000600000000000156,-0.001537206480714648,0.0004466184010034624,-0.004942733573958691
150000000000.0,3,0.3440761219,-0.022261095499999998,-0.39902278185,0.19818,-0.29395,0.072923,-2.143929823,-9.553050031,0.55973416205,-1.8262,1.3429,-1.2155,-0.0018400000000000638,-0.0009999999999998899,-0.0004999999999999449,-0.002499331629484569,-4.0995880992378275e-05,-0.004716850216461843
150000000000.0,3,0.2816862146,0.04978836204999999,-0.43056096824999995,0.22115,-0.34742,0.083715,-2.1434394904999996,-9.552069366,0.5776509115999999,-1.834,1.3424,-1.2107,-0.0017199999999999438,-0.001100000000000101,-0.0005999999999999339,-0.001859207950410946,0.0009348806379851915,-0.0044188172854409125
150000000000.0,3,0.1040877831,0.12730993029999998,-0.4263735287,0.22833,-0.37308,0.10085,-2.1505002785,-9.5486370385,0.60743370765,-1.8461,1.3409,-1.2021,-0.0017200000000000548,-0.0009999999999998899,-0.000600000000000156,0.0011240804042589314,-0.0008726427412741877,-0.004323357763599933
150000000000.0,3,0.061703441799999995,0.14536397294999998,-0.48947932144999995,0.19915,-0.4144,0.11048,-2.1584436649999996,-9.545008578,0.63612796555,-1.8574,1.3393,-1.1946,-0.0014499999999999513,-0.0014000000000000679,-0.0006999999999999229,0.0005712270770510397,-0.0007066449337276293,-0.0038217242550642183
150000000000.0,3,0.12421102889999999,0.1801481605,-0.39467843589999996,0.12092,-0.46277,0.10189,-2.1656025194999997,-9.5417723835,0.6596835388499999,-1.8665,1.3379,-1.1899,-0.0013899999999998913,-0.0015000000000000568,-0.0007999999999999119,-0.0008450680674190192,-0.0001892023724638925,-0.0026349993694099183
150000000000.0,3,-0.04970990884999999,0.3702206508,-0.2128435316,0.029422,-0.45238,0.064359,-2.172369108,-9.539418787499999,0.6711867393,-1.8705,1.3368,-1.1905,-0.0014000000000000679,-0.0016000000000000458,-0.00029999999999996696,0.001591991022539263,-0.0008227884330842539,-0.0024008173594674
150000000000.0,3,-0.32399210269999995,0.6378049026999999,-0.16793888125,-0.048911,-0.41012,0.007577,-2.1716826425,-9.539124588,0.67745318865,-1.8732,1.3367,-1.192,-0.0013000000000000789,-0.0019000000000000128,-0.0009000000000001229,-0.0009690469443497385,-0.00022812404824512633,-0.001065535221567604
150000000000.0,3,-0.68100319595,0.79795730385,-0.29470944579999997,-0.095077,-0.34256,-0.040656,-2.166288985,-9.540399452499999,0.6771884091,-1.8738,1.3372,-1.1951,-0.0016000000000000458,-0.0018000000000000238,-0.00019999999999997797,0.00015094641094970385,0.00037927622071620704,-0.001459164651674616
150000000000.0,3,-1.126980218,0.7241622626,-0.53455068485,-0.11891,-0.26881,-0.06431,-2.158639798,-9.542458848999999,0.6725106370499999,-1.8728,1.3381,-1.199,-0.0013999999999998458,-0.0020999999999999908,-0.0004999999999999449,-0.002200575178920694,0.0025124912271394795,-0.001906423073751995
150000000000.0,3,-1.4402046189999997,0.4870570789,-0.5814166652,-0.11971,-0.22193,-0.050433,-2.191197876,-9.536574859,0.6508477471999999,-1.8595,1.3355,-1.2145,-0.0013000000000000789,-0.0021999999999999797,-0.000700000000000145,-0.000975837587353201,0.0014431575933884222,-0.0016190044636892331
150000000000.0,3,-1.5958361545,0.14255927105,-0.5045913691,-0.096249,-0.18702,0.008253,-2.189040413,-9.537359390999999,0.6452579567,-1.8574,1.3359,-1.2186,-0.0014000000000000679,-0.0023999999999999577,-0.00039999999999995595,-0.0010536792481139479,0.00262547908784172,-0.0019530207329423455
150000000000.0,3,-1.6473210669999998,-0.2492458164,-0.34958745919999995,-0.033343,-0.14393,0.086206,-2.1943360039999997,-9.5362806595,0.6436300528,-1.8561,1.3354,-1.2216,-0.0012999999999998568,-0.0025999999999999357,-0.0005999999999999339,-0.003980880951203414,0.0031408264019512355,-0.0005057674198760687
150000000000.0,3,-1.71224109,-0.5187129451,-0.1274079968,0.063573,-0.11923,0.16105,-2.2071827154999997,-9.532848332,0.65009263515,-1.8572,1.334,-1.2217,-0.0016000000000000458,-0.0029000000000001247,-0.0005999999999999339,-0.003426573324333715,0.0008380268689911485,-0.001015222660650572
150000000000.0,3,-1.761470473,-0.5124759157,0.0665675402,0.14866,-0.1168,0.2199,-2.22610955,-9.5274546745,0.66515564955,-1.8612,1.3316,-1.2189,-0.0015000000000000568,-0.0026999999999999247,-0.000300000000000189,-0.003981123438157486,0.0012557029546711451,-0.0021451444116280527
150000000000.0,3,-1.783829635,-0.1759705276,-0.07305954249999999,0.20293,-0.11621,0.24881,-2.2485667785,-9.520688086,0.6859751675,-1.8669,1.3287,-1.2142,-0.0012999999999998568,-0.0029999999999998916,-0.0008999999999999009,-0.0037538999496715686,0.0024767524673634522,-0.003211238628834323
150000000000.0,3,-1.681840475,0.16457520029999997,-0.4626385204,0.23385,-0.12072,0.24567,-2.271416273,-9.5135292315,0.7102956595,-1.8739,1.3257,-1.2082,-0.0015000000000000568,-0.0030000000000001137,-0.0005999999999999339,-0.003132592349396335,0.0002266983984839932,-0.004508249456208091
150000000000.0,3,-1.3504737715,0.38278296944999995,-0.7662131777999999,0.25828,-0.15073,0.21908,-2.292010238,-9.5064684435,0.7374796933,-1.8821,1.3227,-1.2012,-0.0017000000000000348,-0.0033000000000000806,-0.000500000000000167,-0.007230763449427302,-0.0001515264953455553,-0.0034220776041609113
150000000000.0,3,-0.9522747482499999,0.5131231546,-0.8188258550499999,0.28047,-0.19777,0.18718,-2.309269942,-9.499897987999999,0.7678018551,-1.8918,1.32,-1.1931,-0.0029000000000001247,-0.0036999999999998145,-0.0014999999999998348,-0.03188802441181848,0.007257400915652745,0.002047737802077343
150000000000.0,3,-0.5775136184999999,0.5759053278999999,-0.7476099627499999,0.31203,-0.27259,0.15748,-2.3229011854999997,-9.493719798499999,0.80252720275,-1.9034,1.3175,-1.1836,-0.0016999999999998128,-0.0034000000000000696,-0.0009000000000001229,-0.010178839603908196,-0.0017972489933624214,-0.0022827575706125813
150000000000.0,3,-0.2482455381,0.5246557749999999,-0.7335962598999999,0.35313,-0.35282,0.13101,-2.3332962344999997,-9.4876396755,0.8429796339999999,-1.9175,1.315,-1.1726,-0.0017000000000000348,-0.0032000000000000917,-0.0006999999999999229,-0.004182891311675929,0.001198097125423736,-0.00609306095264639
150000000000.0,3,-0.008737725149999999,0.2746646532,-0.68992724745,0.39755,-0.41922,0.10345,-2.3402589559999996,-9.4817556855,0.8890905023,-1.9339,1.3127,-1.1598,-0.0016000000000000458,-0.0033999999999998476,-0.0008999999999999009,-0.005325901000023947,-0.003051130343688646,-0.004330645796509991
150000000000.0,3,0.23481042759999998,0.06389032474999999,-0.53666892125,0.43046,-0.46421,0.065159,-2.343200951,-9.4760678285,0.9399379825499999,-1.9523,1.3104,-1.1455,-0.0016000000000000458,-0.0036000000000000476,-0.0009000000000001229,-0.007974753486854835,-0.00020187763656487334,-0.002300861332716231
150000000000.0,3,0.39066751604999994,0.05216157135,-0.37605560754999995,0.45397,-0.48354,0.02574,-2.34182802,-9.4709683705,0.9937078444999999,-1.9721,1.3084,-1.1299,-0.0011999999999998678,-0.0037000000000000366,-0.0008999999999999009,-0.005153360094391157,-0.0020816748272252106,-0.00538788742929075
150000000000.0,3,0.35437310439999997,0.2044294259,-0.27010456095,0.46693,-0.48681,-0.010523,-2.3366304955,-9.4662611785,1.0491154169999999,-1.9928,1.3065,-1.1136,-0.0017000000000000348,-0.0040000000000000036,-0.001000000000000112,-0.008071069734174818,-0.001102810199208104,-0.00014650559086515358
150000000000.0,3,0.060614903649999996,0.4302373488,-0.2541295281,0.48319,-0.47519,-0.043605,-2.32809871,-9.461946252499999,1.1056997874999999,-2.0142,1.3049,-1.0964,-0.0015000000000000568,-0.0043999999999999595,-0.0010999999999998789,-0.002509029726714518,-0.002620282064900392,0.00028728680051148814
150000000000.0,3,-0.33793715899999993,0.6456698359999999,-0.30516333469999996,0.50286,-0.43695,-0.074593,-2.3166249294999997,-9.457827459499999,1.1631667565,-2.0361,1.3033,-1.0783,-0.0019000000000000128,-0.0045999999999999375,-0.000300000000000189,0.002327804184669713,0.00047737108995327127,0.008148692883578335
150000000000.0,3,-0.6698922614999999,0.8470592003999999,-0.2721541508,0.51735,-0.37737,-0.10349,-2.302797553,-9.4539047995,1.2210259915,-2.0583,1.3018,-1.0594,-0.0021999999999999797,-0.0050000000000001155,-0.0009999999999998899,-0.0005166344439100357,-0.0016863298573623897,0.007848121635230854
150000000000.0,3,-0.97153500885,0.9229430581,-0.3239528761,0.51462,-0.33044,-0.12279,-2.287303046,-9.450178272499999,1.2777084284999998,-2.0802,1.3003,-1.0402,-0.0015000000000000568,-0.004999999999999893,-0.001100000000000101,-0.004433769816506006,-0.0019071867532995945,0.002468571116331475
