Time,placement_label,user_acc_x(m/s^2),user_acc_y(m/s^2),user_acc_z(m/s^2),rotation_rate_x(rad/s),rotation_rate_y(rad/s),rotation_rate_z(rad/s),gravity_x(m/s^2),gravity_y(m/s^2),gravity_z(m/s^2),attitude_roll(rad),attitude_pitch(rad),attitude_yaw(rad),target_delta_x,target_delta_y,target_delta_z,target_delta_roll,target_delta_pitch,target_delta_yaw
150000000000.0,3,0.1233284304,-0.12612332564999998,0.06599875449999999,-0.11241,0.055457,0.041554,-2.0273287545,-9.516961558999999,1.2196530604999998,-2.1124,1.3271,2.1356,0.0,0.0,0.0,0.0,0.0,0.0
150000000000.0,3,0.062429133899999996,-0.13545925645,-0.01399408955,-0.13606,0.037529,0.047949,-2.028799752,-9.518530623,1.204648886,-2.1066,1.3278,2.1301,9.999999999998899e-05,0.000700000000000145,9.999999999998899e-05,0.003047444468720739,0.0020244107654352472,-0.0002474766896738423
150000000000.0,3,-0.04423779815,-0.16352588875,-0.155925735,-0.1565,0.021703,0.055423,-2.0348798749999997,-9.520099687,1.1819955245,-2.097,1.3285,2.1207,0.00019999999999997797,0.0007999999999999119,9.999999999998899e-05,0.0036208191915199084,0.002147947658313054,-0.00016247036493188816
150000000000.0,3,-0.16742893545,-0.24170450254999998,-0.27471368645,-0.16839,0.011129,0.068248,-2.045863323,-9.521276485,1.1535562394999999,-2.0842,1.3289,2.1079,-9.999999999998899e-05,0.0004999999999999449,0.00019999999999997797,-0.002115201826983659,-0.0017599813144597576,0.001370807609518021
150000000000.0,3,-0.29307173524999997,-0.2917086109,-0.3496659124,-0.17703,0.004795,0.078918,-2.0532183104999997,-9.521668751,1.136786868,-2.0764,1.3291,2.1,-9.999999999998899e-05,0.0008000000000001339,0.000700000000000145,0.0015439139433297555,0.0016714719128638755,-0.000577919957923001
150000000000.0,3,-0.3745159635,-0.24981460209999998,-0.3260122726,-0.18449,0.011242,0.087433,-2.0615539629999997,-9.521962950499999,1.1190368314999999,-2.0681,1.3293,2.0915,9.999999999998899e-05,0.0004999999999999449,-5.0000000000105516e-05,0.0006597680133058059,0.0009227965266633831,0.0010965666251467887
150000000000.0,3,-0.3916972143,-0.13811685859999998,-0.2766259832,-0.18654,0.024044,0.089542,-2.0702818814999997,-9.5221590835,1.1009925955,-2.0596,1.3294,2.0829,9.999999999998899e-05,0.0004999999999999449,-4.999999999988347e-05,0.002759424811355382,0.002143785538521792,0.00041344560658762575
150000000000.0,3,-0.35119574979999996,0.0016671305000000001,-0.2031741747,-0.17576,0.037805,0.091694,-2.0930333095,-9.52029582,1.074416574,-2.045,1.3285,2.0687,-6.666666666665932e-05,0.000500000000000167,0.00029999999999996696,-0.00012729315346660108,0.00022904753013008872,0.0003089645299749755
150000000000.0,3,-0.28789382404999997,0.11607150939999998,-0.14354974269999998,-0.15321,0.055735,0.091701,-2.1022515605,-9.5200016205,1.058137535,-2.0371,1.3284,2.061,-6.666666666665932e-05,0.0006999999999999229,0.00029999999999996696,0.0008226007388609791,4.852120565557172e-05,0.00051784706356095
150000000000.0,3,-0.2413220432,0.1642810008,-0.0893385815,-0.12326,0.066144,0.091735,-2.111764011,-9.519511288,1.0443101584999999,-2.0301,1.3282,2.0544,-6.666666666665932e-05,0.0008999999999999009,0.0004999999999999449,0.002188362355585838,0.0017562150942260768,-0.0008500270172122626
150000000000.0,3,-0.22632767534999998,0.13914655685,-0.03764772935,-0.09971,0.071285,0.085362,-2.120786129,-9.518726756,1.0327383115,-2.024,1.3279,2.0489,9.999999999998899e-05,0.000300000000000189,-9.999999999998899e-05,-0.0008905302037380824,-0.0006497071717295189,0.0005803383135596363
150000000000.0,3,-0.18982732404999997,0.07709988229999999,-0.00169655045,-0.090046,0.073345,0.077911,-2.137065168,-9.5162750935,1.0220490629999999,-2.0169,1.3268,2.0424,9.999999999998899e-05,0.0005999999999999339,-9.999999999998899e-05,0.003019212348275513,0.0019605338120420868,-0.0016217825196891411
150000000000.0,3,-0.11813090589999999,0.014886494699999999,-0.008825985,-0.09754,0.064891,0.069374,-2.144518222,-9.5156866945,1.0115559475,-2.0115,1.3266,2.0376,-9.999999999998899e-05,0.0006999999999999229,0.00019999999999997797,0.0011865253104146323,0.0010712506962542445,-0.0018468275662972822
150000000000.0,3,-0.04604222175,-0.04137425634999999,-0.05554486559999999,-0.11047,0.044758,0.062983,-2.1510886774999998,-9.515392495,1.0003763665,-2.0061,1.3265,2.0325,-0.00029999999999996696,0.000700000000000145,0.0006999999999999229,-0.0018191849834174878,-0.0014896659554570757,-0.0009455751671025858
150000000000.0,3,0.0101596894,-0.0596048187,-0.10145960089999999,-0.12349,0.017161,0.060874,-2.1571688005,-9.515294428499999,0.9884122535,-2.0004,1.3264,2.0269,5.0000000000105516e-05,0.0004999999999999449,-0.00029999999999996696,0.0017347051280678372,0.0019479012472096713,-0.0016683912832418102
150000000000.0,3,0.05665301705,-0.05728064265,-0.13252706809999998,-0.12808,-0.021166,0.06414,-2.1608953274999996,-9.5162750935,0.9707995101,-1.993,1.3268,2.0193,4.999999999988347e-05,0.00039999999999995595,-0.00039999999999995595,0.00031077607304141885,0.0001868338023389704,-0.0007902167707656282
150000000000.0,3,0.0714512519,-0.016671304999999997,-0.201428591,-0.12201,-0.060645,0.066355,-2.166681251,-9.515980894,0.96010045495,-1.9879,1.3267,2.0135,-9.999999999998899e-05,0.0004999999999999449,9.999999999998899e-05,-0.0004751741315502933,-0.0002993689876114036,-0.0014341265833253125
150000000000.0,3,0.04027591155,0.059232165999999996,-0.26140606239999997,-0.11057,-0.095907,0.069639,-2.1724671745,-9.515588628,0.9510881435999999,-1.9835,1.3265,2.0079,-0.00029999999999996696,0.000600000000000156,0.00029999999999996696,0.00017333468247482386,0.0002093224263319815,-0.0016696334551067338
150000000000.0,3,-0.005952636549999999,0.17665699309999996,-0.26155316214999996,-0.10006,-0.11943,0.064362,-2.177664699,-9.5150982955,0.94389986915,-1.9798,1.3263,2.003,-9.999999999998899e-05,0.00029999999999996696,0.00019999999999997797,-0.00019827052940057932,8.392395920142626e-05,-0.001326545674389834
150000000000.0,3,-0.041570389349999994,0.2703889538,-0.22813209894999997,-0.084077,-0.12914,0.051611,-2.1859022849999996,-9.514607963,0.9302293990499999,-1.9731,1.3261,1.995,-9.999999999998899e-05,0.00039999999999995595,-9.999999999998899e-05,0.00022904864713413353,0.00036373053895832896,-0.0012451585107573493
150000000000.0,3,-0.0965562759,0.3144992655,-0.2150598345,-0.066933,-0.13139,0.033499,-2.1883539474999996,-9.514411829999998,0.9262871257499999,-1.9712,1.326,1.9917,9.999999999998899e-05,0.00029999999999996696,-0.00019999999999997797,0.0003383639161345098,0.0001660229609676822,-0.0009023427418179963
150000000000.0,3,-0.1631434294,0.333229967,-0.18005990064999997,-0.044362,-0.12197,0.015376,-2.1891384795,-9.514411829999998,0.9242081159499999,-1.9703,1.3261,1.9894,-9.999999999998899e-05,0.00029999999999996696,4.999999999988347e-05,-0.0004761359287834832,-0.0008552183932724056,-0.0008897310748139375
150000000000.0,3,-0.23818391519999998,0.33848633139999995,-0.16695821624999999,-0.022939,-0.12,0.001533,-2.1884520139999997,-9.514607963,0.92412966275,-1.9704,1.3261,1.9883,-9.999999999998899e-05,0.00039999999999995595,5.0000000000105516e-05,-0.0010195174627729564,-0.0011533853559930751,-0.0010543050846547608
150000000000.0,3,-0.27789104105,0.3377802526,-0.15579824854999996,-0.006841,-0.11587,-0.009095,-2.2001219274999997,-9.512254366999999,0.9207463684999999,-1.9672,1.3251,1.984,-9.999999999998899e-05,0.00019999999999997797,9.999999999998899e-05,-0.0016949821941818488,-0.0012008650889112626,-0.0006679789319146145
150000000000.0,3,-0.30614399969999995,0.3059282534,-0.12886918765,0.003905,-0.11168,-0.017623,-2.1975721985,-9.5125485665,0.9234431972499999,-1.9686,1.3253,1.9843,9.999999999998899e-05,0.00020000000000020002,-0.00019999999999997797,-3.694099163187303e-05,-0.00034669798085396053,-0.00046284277831531995
150000000000.0,3,-0.31534263739999996,0.25034416119999997,-0.11727772734999999,0.009351,-0.1032,-0.025081,-2.207869181,-9.510194970499999,0.92277634505,-1.9667,1.3243,1.9815,9.999999999998899e-05,9.999999999998899e-05,-0.00039999999999995595,-0.0004178860197905365,-0.00012392184327292277,-0.00022456124027936397
150000000000.0,3,-0.3237567431,0.2051747313,-0.11508103775,0.017954,-0.096871,-0.027194,-2.2173816315,-9.5080375075,0.9228253783,-1.9652,1.3234,1.9791,-3.333333333332966e-05,0.00019999999999997797,-9.999999999998899e-05,-0.00018524035742739642,-4.702408094248156e-06,-0.00028413636568380696
150000000000.0,3,-0.33538743,0.16234909074999998,-0.100420096,0.028688,-0.089501,-0.02717,-2.2265998825,-9.5056839115,0.924178696,-1.9642,1.3224,1.9774,-3.333333333332966e-05,9.999999999998899e-05,-9.999999999998899e-05,-5.007659154232513e-06,-4.997379043336636e-05,-0.00010605505510774549
150000000000.0,3,-0.3197948565,0.14120595335,-0.10397010329999999,0.036207,-0.08317,-0.026084,-2.2348374685,-9.503624514999998,0.9262282858499999,-1.9637,1.3215,1.9762,-3.333333333332966e-05,0.00019999999999997797,0.00019999999999997797,-0.00010513722150551352,-0.00012679383722202786,-0.00020025323110761661
150000000000.0,3,-0.32121682074999997,0.14059794105,-0.08965239430000001,0.036328,-0.069316,-0.028243,-2.2315032075,-9.5039187145,0.9313571638,-1.9662,1.3217,1.978,9.999999999998899e-05,0.00019999999999997797,9.999999999998899e-05,0.0005426473913032748,0.0005097270301142043,-0.0004817814498583317
150000000000.0,3,-0.33173935619999995,0.11573808329999999,-0.06985276794999999,0.035367,-0.055457,-0.027202,-2.228267013,-9.504114847499999,0.9361035823999999,-1.9685,1.3218,1.9797,9.999999999998899e-05,9.999999999998899e-05,5.0000000000105516e-05,-0.0007753276739428383,-0.0004441939853763177,0.00031812693814092796
150000000000.0,3,-0.35278442709999996,0.05694721654999999,-0.053711022049999994,0.03445,-0.037333,-0.028303,-2.2251288849999997,-9.504409047,0.9403204419,-1.9706,1.3219,1.9815,3.333333333332966e-05,0.00019999999999997797,4.999999999988347e-05,0.00026128822025883736,0.00033338110361125217,5.726846101605787e-05
150000000000.0,3,-0.35386315859999995,0.008041452999999999,-0.04509097669999999,0.030345,-0.017055,-0.027263,-2.2338568034999997,-9.502251584,0.9421640921,-1.9699,1.321,1.9807,3.333333333332966e-05,0.00019999999999997797,0.00019999999999997797,-0.00023841137606117613,-5.486814086252956e-05,0.00014822250709478624
150000000000.0,3,-0.3823416702,-0.04055049775,-0.04904305665,0.0262,-0.001038,-0.026231,-2.231209008,-9.5025457835,0.9449295673999999,-1.9714,1.3211,1.9822,3.333333333332966e-05,9.999999999998899e-05,9.999999999998899e-05,0.00018777324195196066,0.00013536830087379492,0.00042351236435633766
150000000000.0,3,-0.3928936256,-0.07986535759999999,-0.0516025923,0.016727,0.017152,-0.023077,-2.229051545,-9.502938049499999,0.94658689125,-1.9724,1.3213,1.9833,0.00019999999999997797,9.999999999998899e-05,-9.999999999998899e-05,-0.0001098080595012263,-8.558214427778488e-05,0.0006314462821652711
150000000000.0,3,-0.37177990815,-0.1000866699,-0.037382949799999995,0.008271,0.031066,-0.015629,-2.238662062,-9.5007805865,0.9452335735499999,-1.9703,1.3204,1.9816,0.00019999999999997797,9.999999999998899e-05,-9.999999999998899e-05,0.0003175899523402137,0.0002710558929108764,0.0005994197510705845
150000000000.0,3,-0.3362700285,-0.11581653649999998,-0.03378390925,-0.002346,0.039673,-0.011379,-2.2473899805,-9.4990153895,0.94268384455,-1.968,1.3197,1.9797,9.999999999998899e-05,9.999999999998899e-05,0.00019999999999997797,0.0005655024006123721,0.0005515372671649477,0.0007408089839260334
150000000000.0,3,-0.29851442599999994,-0.12738838349999998,-0.026791767799999998,-0.011914,0.048268,-0.003927,-2.255333367,-9.4974463255,0.939280937,-1.9654,1.319,1.9777,9.999999999998899e-05,9.999999999998899e-05,0.00014999999999987246,-0.0005627931226648286,-0.0001757426705153442,0.0005143765996820093
150000000000.0,3,-0.26806477775,-0.12888880095,-0.0310282406,-0.02151,0.052603,0.002464,-2.2628844875,-9.4960733945,0.9346914247999999,-1.9625,1.3185,1.9753,9.999999999998899e-05,9.999999999998899e-05,0.0001500000000000945,0.0007737265206326782,0.00019811923420243183,0.0005299567231258351
150000000000.0,3,-0.24752965265,-0.11672855495,-0.07497183924999999,-0.026861,0.05371,0.007802,-2.270435608,-9.494994663,0.9282092291499999,-1.9589,1.318,1.9722,9.999999999998899e-05,-9.999999999998899e-05,-9.999999999998899e-05,-0.00031867514461558777,-0.00013820250444096516,0.0007535265346789721
150000000000.0,3,-0.23657562459999998,-0.1007339088,-0.09247670949999999,-0.030062,0.054802,0.009941,-2.2778886619999996,-9.4939159315,0.92071694855,-1.9549,1.3176,1.9688,0.00010000000000021103,9.999999999998899e-05,9.999999999998899e-05,7.53699211837322e-05,-5.0563246261736694e-05,0.0006270347001096077
150000000000.0,3,-0.21647199209999998,-0.07953193149999999,-0.0787081729,-0.031097,0.061203,0.014208,-2.285341716,-9.492739133499999,0.9136855804999999,-1.9511,1.3171,1.9657,9.999999999998899e-05,-9.999999999998899e-05,-9.999999999998899e-05,-0.00022679265483716016,-9.061982025104776e-05,0.0006718443561029019
150000000000.0,3,-0.1936617242,-0.04041320464999999,-0.0544072942,-0.027878,0.063308,0.014219,-2.292402504,-9.491660401999999,0.9076446840999999,-1.9478,1.3167,1.963,9.999999999998899e-05,-4.999999999988347e-05,5.0000000000105516e-05,-0.0003472670205812989,-0.000541125169237322,0.0008754664928449785
150000000000.0,3,-0.16901761275,0.00267721545,-0.027125193899999997,-0.027844,0.065442,0.01102,-2.2987768265,-9.4905816705,0.9025059995,-1.9449,1.3162,1.9607,9.999999999998899e-05,-5.0000000000105516e-05,4.999999999988347e-05,0.00037526383419717035,-0.0002039652328749142,0.0005594982944092664
150000000000.0,3,-0.14591314535,0.05025908125,-0.0432277132,-0.025707,0.064362,0.008898,-2.3045627499999997,-9.489699071999999,0.8972104085,-1.9421,1.3159,1.9585,0.00029999999999996696,-9.999999999998899e-05,-0.00029999999999996696,0.00033918162890089754,3.4892082917403755e-05,0.0007695537836673871
150000000000.0,3,-0.11031500585,0.08772048425,-0.07840416675,-0.013957,0.065334,0.007857,-2.3094660749999996,-9.4890126065,0.89198346405,-1.9394,1.3156,1.9565,9.999999999998899e-05,9.999999999998899e-05,9.999999999998899e-05,0.0018442135033265306,0.0009360296067153495,0.00010478888902598626
150000000000.0,3,-0.061791701649999996,0.0894170347,-0.10164592724999999,-0.000111,0.060964,0.00576,-2.312800336,-9.4886203405,0.8875410516,-1.9372,1.3154,1.955,0.00019999999999997797,-0.00019999999999997797,-0.00019999999999997797,-0.000493020974069891,-0.0006081159363557909,0.0005538313192898769
150000000000.0,3,-0.047101339949999994,0.09915503815,-0.10598046655,0.005202,0.055601,0.001514,-2.315350065,-9.488326140999998,0.8839420110499999,-1.9355,1.3153,1.9539,9.999999999998899e-05,-5.0000000000105516e-05,-9.999999999998899e-05,0.000457095814194064,0.0004691514462351609,0.0005457416153564765
150000000000.0,3,-0.05888893325,0.09597768355,-0.08040472335,0.003081,0.05456,-0.002752,-2.3178017275,-9.487933875,0.8811176958499999,-1.9341,1.3152,1.9531,6.666666666665932e-05,-4.999999999988347e-05,0.00029999999999996696,-0.0006676596494439302,-0.000589662120728196,0.0007280845715547102
150000000000.0,3,-0.0651946092,0.11180561665,-0.060507030499999996,0.005219,0.052417,-0.007009,-2.320057257,-9.4876396755,0.87888177965,-1.9329,1.315,1.9525,6.666666666665932e-05,-9.999999999998899e-05,9.999999999998899e-05,3.5427387160558155e-05,0.0006856206126344411,0.00023826048948594192
150000000000.0,3,-0.07950251154999999,0.12171033314999999,-0.041246769899999994,0.011625,0.050238,-0.011259,-2.32221472,-9.4872474095,0.87772459495,-1.9322,1.3149,1.9523,6.666666666665932e-05,-9.999999999998899e-05,-9.999999999998899e-05,-0.0003605681213139089,-1.9222607595681396e-05,0.0007291392017454434
150000000000.0,3,-0.10152824744999998,0.11802303274999999,-0.0473268929,0.021226,0.048031,-0.014435,-2.3245683159999997,-9.486659010499999,0.8773617489,-1.9317,1.3146,1.9524,9.999999999998899e-05,-9.999999999998899e-05,0.00019999999999997797,0.0003068194073685415,4.469325667910695e-05,0.0003091807326689455
150000000000.0,3,-0.10968738025,0.10222451959999998,-0.05755522885,0.028725,0.051167,-0.015489,-2.3267257789999998,-9.486168677999999,0.8774205888,-1.9314,1.3144,1.9526,9.999999999998899e-05,-9.999999999998899e-05,-9.999999999998899e-05,-0.0007803647134652092,-0.00047441155361127585,0.0002877481495384693
150000000000.0,3,-0.09012311349999999,0.07388330109999999,-0.053171656299999995,0.029817,0.052228,-0.018686,-2.3280006435,-9.485776412,0.8778226614499999,-1.9314,1.3143,1.9532,9.999999999998899e-05,-9.999999999998899e-05,-5.0000000000105516e-05,0.0004733701171439897,0.00042254814897679793,0.0002275066107406687
150000000000.0,3,-0.0679012446,0.042168594999999996,-0.03974635245,0.026639,0.054388,-0.019759,-2.3283929094999998,-9.485678345499998,0.8783228006,-1.9315,1.3142,1.9539,9.999999999998899e-05,-0.00029999999999996696,-4.999999999988347e-05,-0.0010152375397849411,-0.0007180843925600477,0.0007094399969398424
150000000000.0,3,-0.044002438549999995,0.02501676415,-0.03243059155,0.02236,0.052294,-0.020828,-2.3280006435,-9.485678345499998,0.8786366133999999,-1.9317,1.3143,1.9547,9.999999999998899e-05,-0.00019999999999997797,-4.999999999988347e-05,-0.0008516580706894317,-0.0003235076071819165,0.0006765260440309007
150000000000.0,3,-0.0415998093,0.011856239849999999,-0.03635325154999999,0.020243,0.054443,-0.020833,-2.3275103109999997,-9.4858744785,0.8785091269499999,-1.9317,1.3143,1.9553,9.999999999998899e-05,-0.00019999999999997797,-5.0000000000105516e-05,-0.00014574590220650663,0.0003603645191809779,0.00024458426676954304
150000000000.0,3,-0.0654888087,-0.00408937305,-0.04512039665,0.019159,0.052323,-0.020828,-2.3274122445,-9.485972545,0.8780089877999999,-1.9315,1.3143,1.9557,4.999999999988347e-05,-0.00019999999999997797,0.00019999999999997797,-0.0007808353109868271,4.3037836261472506e-05,0.0003777755617893064
150000000000.0,3,-0.08238566665,-0.0221238024,-0.039030467,0.020213,0.053376,-0.016555,-2.3278045105,-9.4858744785,0.87760691515,-1.9313,1.3143,1.9561,5.0000000000105516e-05,-0.00020000000000020002,-9.999999999998899e-05,-0.0011667458156503496,-0.0005008691151895395,0.0007616923397089082
150000000000.0,3,-0.0875929978,-0.03886375395,-0.037716375899999995,0.022358,0.05549,-0.015484,-2.328490976,-9.485776412,0.8773323289499999,-1.9311,1.3143,1.9565,0.00010000000000021103,-0.00039999999999995595,-9.999999999998899e-05,-0.00032411233547291474,0.0003900702764800812,0.0011249521921699035
150000000000.0,3,-0.10727494435,-0.0403249448,-0.045463629400000004,0.03834,0.055354,-0.011182,-2.329863907,-9.4852860795,0.8780482144,-1.9312,1.3141,1.9572,0.00029999999999996696,-0.0004999999999999449,-0.0005999999999999339,-0.0007537520429361511,-5.677969488271373e-05,0.0019143750777925739
150000000000.0,3,-0.12327939715,-0.06494944295,-0.05788865495,0.070359,0.061478,-0.00366,-2.3321194364999998,-9.484501547499999,0.8810490493,-1.932,1.3138,1.9587,9.999999999998899e-05,-0.00019999999999997797,9.999999999998899e-05,0.00016005890410553114,0.0008461187531696446,0.000998684705519004
150000000000.0,3,-0.11504181114999999,-0.09184908389999999,-0.06257623365,0.10455,0.068655,-0.001474,-2.3344730325,-9.4833247495,0.8872272387999999,-1.934,1.3133,1.9615,9.999999999998899e-05,-0.00039999999999995595,9.999999999998899e-05,-0.0006121898799331671,0.0005242284502042782,0.001540370668541513
150000000000.0,3,-0.10841251575,-0.0663714072,-0.02917478375,0.12492,0.081275,-0.001457,-2.336924695,-9.481853752,0.8963180033499999,-1.937,1.3127,1.9655,9.999999999998899e-05,-0.00029999999999996696,9.999999999998899e-05,-0.002821174158045059,-0.0011221110025982917,0.0015071795998022885
150000000000.0,3,-0.11563021014999998,-0.0315970263,-0.0173381572,0.1315,0.1004,-0.005745,-2.339670557,-9.480284688,0.9061834932499999,-1.9403,1.3121,1.9699,9.999999999998899e-05,-0.000400000000000178,-9.999999999998899e-05,-0.0011766922957086035,0.0001687690548666243,0.00159480975413695
150000000000.0,3,-0.12983023935,-0.015072821049999999,-0.0026674088,0.12529,0.12177,-0.011127,-2.3423183525,-9.478715624,0.9156076839,-1.9434,1.3114,1.9743,0.00029999999999996696,-0.0004999999999999449,-0.00029999999999996696,-0.0005062143332164037,0.0001797628148618724,0.0026698837638248207
150000000000.0,3,-0.1605937004,0.042413761249999994,0.03458805455,0.12323,0.12818,-0.014339,-2.3456526135,-9.476950427,0.9253358807,-1.9465,1.3107,1.9789,0.00039999999999995595,-0.0007999999999999119,-0.00039999999999995595,-0.0030517348705887404,-0.0025328732648799424,0.003721617478393391
150000000000.0,3,-0.20023217969999998,0.08309174544999999,-0.0079826131,0.14144,0.13549,-0.018583,-2.3497714065,-9.474989097,0.9351327240499999,-1.9496,1.31,1.9834,0.00029999999999996696,-0.00029999999999996696,4.999999999988347e-05,0.0006294387927532341,2.811586981588121e-05,0.0013495858847765163
150000000000.0,3,-0.23731112334999996,0.12845730835,0.00383440015,0.17264,0.16081,-0.028172,-2.3542824655,-9.4725374345,0.9477146559999999,-1.9535,1.309,1.9891,0.000300000000000189,-0.000400000000000178,5.0000000000105516e-05,0.00042162502154252657,0.00026462846828745334,0.0012196019344337117
150000000000.0,3,-0.24346969954999997,0.2332609769,0.13455704464999999,0.17924,0.17994,-0.036727,-2.358695458,-9.4697915725,0.9642290545999999,-1.9589,1.3079,1.9965,0.00029999999999996696,-0.00039999999999995595,-9.999999999998899e-05,-0.0016917162579819234,-0.0005967776382278522,0.0027482227248221136
150000000000.0,3,-0.27280138969999995,0.37423157064999996,0.22860281814999997,0.16125,0.1918,-0.047447,-2.3635007165,-9.4668495775,0.9816456649999998,-1.9645,1.3068,2.0042,0.00039999999999995595,-0.0004999999999999449,-0.00029999999999996696,7.149943675477388e-05,0.000323367098043148,0.0020357329053681816
150000000000.0,3,-0.3110473247,0.3266006716,0.14750182265,0.15065,0.19614,-0.054936,-2.368109842,-9.464201782,0.9955711079999999,-1.9688,1.3058,2.0106,0.0004999999999999449,-0.0006999999999999229,-0.000300000000000189,-0.0019331186064655004,-0.0007667600522829332,0.001431581665046533
150000000000.0,3,-0.2997696772,0.14266714419999998,0.09535005795,0.1464,0.19617,-0.058137,-2.3709537705,-9.462240452,1.007339088,-1.9726,1.305,2.0166,0.00039999999999995595,-0.000300000000000189,-9.999999999998899e-05,0.0005489234616185001,0.0008186112156447489,0.00016157366164915032
150000000000.0,3,-0.27318384905,0.01601425945,0.12352456339999998,0.14632,0.18657,-0.057046,-2.3725228345,-9.460573321499998,1.0195974005,-1.9767,1.3043,2.0228,0.000400000000000178,-0.00039999999999995595,4.999999999988347e-05,-0.00027302851484312107,-0.000751984831578234,0.0012301892365833567
150000000000.0,3,-0.23034840184999997,-0.023869386099999997,0.1297027529,0.14734,0.18335,-0.052765,-2.3735034995,-9.4590042575,1.0319537795,-1.9809,1.3037,2.0291,0.00039999999999995595,-0.00039999999999995595,5.0000000000105516e-05,-0.0006051752447422398,6.59126628359541e-05,0.0007368315670577275
150000000000.0,3,-0.15855391719999998,-0.0774333084,0.09970421055,0.13864,0.16743,-0.045277,-2.3733073664999997,-9.457729393,1.043231427,-1.9849,1.3033,2.035,0.00029999999999996696,-0.00029999999999996696,9.999999999998899e-05,0.0003935881931202978,0.0012799495079343082,0.0003580791804731476
150000000000.0,3,-0.08791661725,-0.11775825319999998,0.06810718425,0.12241,0.1441,-0.035657,-2.372228635,-9.456944860999998,1.0529400105,-1.9885,1.3029,2.0403,0.00039999999999995595,-0.00029999999999996696,0.00020000000000020002,-0.00032722402426887953,-0.00023236976105511786,0.0010259185517460523
150000000000.0,3,-0.0478368387,-0.1274079968,0.017779456449999998,0.10084,0.12083,-0.027114,-2.371051837,-9.4564545285,1.0603930645,-1.9913,1.3027,2.0445,0.0005999999999999339,-0.000700000000000145,-0.000500000000000167,-0.0012427945315869326,-0.001452856125613966,0.0006201207874618753
150000000000.0,3,-0.0038049802,-0.1336646395,-0.04254124769999999,0.077148,0.097576,-0.020709,-2.3695808394999998,-9.456258395499999,1.0647079904999999,-1.9931,1.3027,2.0474,0.000500000000000167,-0.00039999999999995595,6.666666666665932e-05,0.0008579765707199538,6.0901349768771595e-05,7.271682691500914e-05
150000000000.0,3,0.03869704089999999,-0.14056852109999998,-0.06964682829999999,0.054535,0.074319,-0.016439,-2.367521443,-9.456552595,1.0668654535,-1.9942,1.3028,2.0493,0.0004999999999999449,-0.00039999999999995595,6.666666666665932e-05,-0.00038358638480673335,-0.00037569229864153897,0.0010934479747550796
150000000000.0,3,0.029812216,-0.11970977655000001,-0.0626252669,0.033058,0.058514,-0.014314,-2.365756246,-9.456944860999998,1.0674538525,-1.9946,1.3029,2.0505,0.00039999999999995595,-0.0004999999999999449,6.666666666665932e-05,-0.0005697579171843881,7.518078450030607e-05,0.0006885688829707526
150000000000.0,3,0.0032263878499999995,-0.07620747715,-0.06238990729999999,0.018059,0.050118,-0.015392,-2.3644813814999996,-9.457337126999999,1.0667673869999998,-1.9946,1.3031,2.0511,0.00029999999999996696,-0.000500000000000167,0.000300000000000189,-0.0010988852873665689,-0.0014539029783411372,0.0011068656844144265
150000000000.0,3,-0.04105063689999999,-0.01781868305,-0.09323182155,0.013779,0.045901,-0.019658,-2.3638929825,-9.457729393,1.0651002564999998,-1.9941,1.3032,2.0511,0.0005999999999999339,-0.0005999999999999339,-0.000300000000000189,0.002906915873443161,0.0016008306256967142,-0.0001579561792626194
150000000000.0,3,-0.11061901199999999,0.036196345149999996,-0.12498575424999998,0.013814,0.046978,-0.02499,-2.364383315,-9.457827459499999,1.0627466604999998,-1.9932,1.3033,2.0507,0.000700000000000145,-0.0007999999999999119,-0.00039999999999995595,0.00018422858697242361,0.00018523349847154869,0.0007069819823852797
150000000000.0,3,-0.19226917989999998,0.07085304625,-0.14871784724999998,0.018197,0.055484,-0.034594,-2.365756246,-9.457729393,1.0601969315,-1.9921,1.3033,2.0502,0.00029999999999996696,-0.0004999999999999449,0.0004999999999999449,-0.001410638663471353,4.089705982157632e-05,0.0007239613954750368
150000000000.0,3,-0.2645049638,0.0836311112,-0.1790302024,0.023661,0.06824,-0.03993,-2.368109842,-9.45753326,1.0572549365,-1.9907,1.3032,2.0496,0.0004999999999999449,-0.0009000000000001229,-9.999999999998899e-05,-0.0009842429123314567,-0.0015268195632027748,0.0017513788211491743
150000000000.0,3,-0.30821320285,0.07822764704999999,-0.1675956485,0.035552,0.086267,-0.042061,-2.370855704,-9.4570429275,1.0550974735,-1.9895,1.303,2.0494,0.001000000000000112,-0.0008999999999999009,-0.0007999999999999119,0.000923283890569282,-0.0009309944119246794,0.001272883633260502
150000000000.0,3,-0.3029666451,0.055740998599999994,-0.11365907349999999,0.04523,0.095782,-0.042048,-2.373601566,-9.4564545285,1.0547052075,-1.9889,1.3027,2.0499,0.00039999999999995595,-0.000500000000000167,0.0004999999999999449,0.0007024102154038481,0.0012894507603862237,-0.00047234520816319403
150000000000.0,3,-0.2732524956,0.0299102825,-0.08048317655000001,0.047366,0.094703,-0.044166,-2.3754648295,-9.4558661295,1.055391673,-1.9889,1.3025,2.0509,0.0005999999999999339,-0.0009999999999998899,0.0002500000000000835,-0.0019187978377408488,-0.0013308365530242394,0.0025263914150803757
150000000000.0,3,-0.24813766494999998,0.022270902149999997,-0.0845137097,0.044212,0.097933,-0.048436,-2.3765435609999996,-9.45557193,1.055783939,-1.9889,1.3024,2.052,0.00039999999999995595,-0.0005999999999999339,0.0002500000000000835,0.0032889911575577635,0.0001749475270678147,-0.00010464614827387919
150000000000.0,3,-0.22435653869999997,0.01997614605,-0.061271949199999995,0.038964,0.10544,-0.053786,-2.3766416274999997,-9.45557193,1.0558820055,-1.9889,1.3024,2.0532,0.000600000000000156,-0.0008000000000001339,0.00013333333333331865,0.0028715651499326977,0.0022043738311006145,-0.0008854947651730782
150000000000.0,3,-0.19417167,0.020750871399999996,-0.038118448549999996,0.036925,0.11399,-0.059134,-2.3758570955,-9.4556699965,1.0560781385,-1.9891,1.3025,2.0546,0.0006999999999999229,-0.0009999999999998899,0.00013333333333331865,0.003717620609498651,0.0018067160791213066,-0.0005326448660518679
150000000000.0,3,-0.18615963694999998,0.032165811999999995,-0.025811102799999996,0.037012,0.12145,-0.064477,-2.3744841645,-9.4560622625,1.0561762049999999,-1.9893,1.3026,2.0561,0.0005999999999999339,-0.0009000000000001229,0.00013333333333331865,0.003748623578827992,-0.001721863351781705,0.00014113841612051203
150000000000.0,3,-0.17545077515,0.0318323859,-0.029135557149999998,0.039193,0.12677,-0.065543,-2.3727189675,-9.4564545285,1.0563723379999999,-1.9897,1.3028,2.0578,0.000500000000000167,-0.0008999999999999009,0.00019999999999997797,0.0062881943194439405,0.0016920846537391565,-0.002049444588597016
150000000000.0,3,-0.1875619879,0.031008627299999997,-0.04362978585,0.043534,0.13526,-0.06661,-2.3712479699999998,-9.456846794499999,1.0563723379999999,-1.9899,1.3029,2.0595,0.0007999999999999119,-0.001100000000000101,-9.999999999998899e-05,-0.001356350646401383,0.0005408918709677302,0.003032204659935811
150000000000.0,3,-0.24839263785,0.0480133584,-0.0714120253,0.049016,0.14908,-0.074087,-2.370463438,-9.4570429275,1.0560781385,-1.9899,1.303,2.0611,0.0007999999999999119,-0.0012999999999998568,-0.00029999999999996696,-0.0050700296951951,-0.002948154471489328,0.004861497019248873
150000000000.0,3,-0.28792324399999997,0.06967624825,-0.1280552357,0.054527,0.16716,-0.0805,-2.3699731054999997,-9.457337126999999,1.054803274,-1.9895,1.3031,2.0625,0.000700000000000145,-0.0012000000000000899,-9.999999999998899e-05,-0.0030760348724014897,-0.0006609725162916025,0.004076994177799165
150000000000.0,3,-0.27599835759999997,0.09886083864999999,-0.14351051609999999,0.062227,0.18949,-0.091187,-2.3686982409999997,-9.457827459499999,1.053430343,-1.9893,1.3033,2.0643,0.0006999999999999229,-0.0010999999999998789,9.999999999998899e-05,-0.00032934306701570826,-0.00016291836237458668,0.0021692900500287493
150000000000.0,3,-0.24882413045,0.12663327145,-0.1387640975,0.067728,0.20438,-0.1008,-2.366344645,-9.458513925,1.0524496779999999,-1.9893,1.3035,2.0665,0.001000000000000112,-0.0015000000000000568,-0.000600000000000156,6.525663822820604e-05,-0.0018207576423634464,0.0025824061224808403
150000000000.0,3,-0.23014246219999998,0.14401065524999998,-0.16046621395,0.068947,0.21611,-0.11255,-2.3628142509999996,-9.4595926565,1.0509786804999999,-1.9893,1.3039,2.0689,0.00019999999999997797,-0.0009000000000001229,0.0014000000000000679,0.0009557596673923641,-6.683877190494236e-05,0.0014111347579106592
150000000000.0,3,-0.2097838568,0.143373223,-0.16475172,0.06907,0.22359,-0.12536,-2.357714793,-9.460965587499999,1.0492134835,-1.9895,1.3045,2.0715,0.0007999999999999119,-0.0013999999999998458,-0.00039999999999995595,-0.0003180785074441417,-0.001642147204424571,0.002154084751487595
150000000000.0,3,-0.19203382029999996,0.15283664025,-0.17392093775,0.069171,0.22893,-0.13709,-2.3512424039999997,-9.462828851,1.04735022,-1.9899,1.3052,2.0744,0.0009000000000001229,-0.0016000000000000458,-0.00039999999999995595,0.0011388575280026902,-0.0015233301704860036,-0.0016748038768632512
150000000000.0,3,-0.16774274825,0.15689659334999997,-0.1693608455,0.068163,0.23109,-0.14563,-2.3434951505,-9.464986313999999,1.0454869565,-1.9904,1.306,2.0775,0.0006999999999999229,-0.0017000000000000348,-9.999999999998899e-05,9.039763131313272e-05,-0.004599810366049173,0.0009010261295636646
150000000000.0,3,-0.1413138265,0.1572790527,-0.14965928565,0.069239,0.22896,-0.15095,-2.334767232,-9.467241843499998,1.044015959,-1.9913,1.3069,2.0808,-0.0008000000000001339,-0.006299999999999972,-0.0025000000000001688,-0.14957349272354437,-0.018381800639464263,0.07149002238119495
150000000000.0,3,-0.0988118054,0.14385374885,-0.13795014555,0.070299,0.22683,-0.15307,-2.3246663825,-9.469889639,1.0429372275,-1.9925,1.308,2.0846,0.000500000000000167,-0.0023999999999999577,-0.00019999999999997797,-0.016398877740663176,-0.005852454869152757,0.004603953685968776
150000000000.0,3,-0.08754396454999999,0.11986668294999998,-0.13822473175,0.072404,0.22256,-0.15413,-2.3142713335,-9.4725374345,1.042054629,-1.9939,1.309,2.0883,0.00019999999999997797,-0.0018000000000000238,0.0004999999999999449,-0.005585002354769442,-0.00200586419809623,0.00141819459763326
150000000000.0,3,-0.0715100918,0.10674538525,-0.15790667830000002,0.081942,0.21396,-0.15515,-2.303189819,-9.475283296499999,1.041662363,-1.9955,1.3101,2.0924,0.0004999999999999449,-0.0021999999999999797,0.00010000000000021103,-0.008162943400840561,-0.00838734451202705,0.001826411933850025
150000000000.0,3,-0.08620045349999998,0.1184251054,-0.20563564385,0.10108,0.20529,-0.1551,-2.292402504,-9.4778330255,1.0422507619999999,-1.9975,1.3111,2.0967,0.006299999999999972,0.0030999999999998806,0.0028999999999999027,0.012385792547050523,-0.06902785876173767,-0.07801140485505975
150000000000.0,3,-0.1238776028,0.10964815365,-0.24586252214999998,0.12663,0.20083,-0.15184,-2.282399721,-9.4799904885,1.044604358,-2.0,1.312,2.1015,0.0023999999999999577,-0.0029999999999998916,0.00029999999999996696,0.10790794710471308,0.06060537563121393,0.0786453987979221
150000000000.0,3,-0.14183357894999998,0.0767076163,-0.241047457,0.15439,0.20274,-0.15178,-2.2726911375,-9.4817556855,1.0497038159999998,-2.0035,1.3127,2.1073,0.0008000000000001339,-0.0020000000000000018,-9.999999999998899e-05,0.007087177259513133,-0.00293866958364708,-0.00020052863922970232
150000000000.0,3,-0.12771200295,0.02395764595,-0.1697727248,0.17258,0.20687,-0.15602,-2.2622960885,-9.4833247495,1.0580394684999999,-2.0082,1.3133,2.1145,0.0007999999999999119,-0.0015000000000000568,-9.999999999998899e-05,-0.0032557225675013957,-0.0007642003238677031,0.008405453802893259
150000000000.0,3,-0.10722591109999999,-0.02797837245,-0.0714120253,0.1758,0.20259,-0.16774,-2.2503319755,-9.4848938135,1.06892485,-2.0142,1.3139,2.1228,0.001000000000000112,-0.0018000000000000238,-0.00039999999999995595,-0.002720032857446375,0.0015012973281054443,0.004436890892526524
150000000000.0,3,-0.08277793265,-0.05359334225,-0.0025889556,0.16623,0.19842,-0.18056,-2.2366026655,-9.4868551435,1.0805947635,-2.0209,1.3147,2.1318,0.0011999999999998678,-0.0019000000000000128,-0.00029999999999996696,-0.012089689145302174,0.00022002644300167518,-0.004863469826914546
150000000000.0,3,-0.031175340349999997,-0.06392955134999999,0.044443737799999994,0.15345,0.19534,-0.19018,-2.2209120255,-9.489208739499999,1.092068544,-2.0278,1.3157,2.1409,0.001100000000000101,-0.0017000000000000348,-0.000400000000000178,0.004475841708691641,-0.005258564570064017,0.0015575665554368179
150000000000.0,3,-0.00938496405,-0.04959222905,0.0925943893,0.14917,0.19111,-0.19552,-2.2042407204999996,-9.4917584685,1.1039345905,-2.0351,1.3167,2.1504,0.00039999999999995595,-0.0020000000000000018,-0.00029999999999996696,-0.004128674246142161,-8.354445701352908e-05,0.006954551886503957
150000000000.0,3,-0.013258590799999997,0.01987807955,0.08865211599999999,0.15445,0.18254,-0.19764,-2.187471349,-9.494210130999999,1.116192903,-2.0426,1.3177,2.1601,0.0005999999999999339,0.0041999999999999815,-0.0021999999999999797,0.05818547566832177,-0.003912443680113231,-0.017738034052436902
150000000000.0,3,-0.01256231865,0.09820379309999999,0.05755522885,0.1704,0.17601,-0.19653,-2.1710942435,-9.496367593999999,1.1296280134999999,-2.0506,1.3186,2.1701,0.001000000000000112,-0.0009999999999998899,0.00029999999999996696,0.017936494984782447,0.003454624155813324,-0.0080805865095952
150000000000.0,3,-0.004903325,0.1421375851,-0.00795319315,0.20231,0.1704,-0.18579,-2.1555997365,-9.4980347245,1.1447302545,-2.059,1.3193,2.1805,0.0004999999999999449,-0.0020000000000000018,-9.999999999998899e-05,-0.0022426416955010353,-0.0023792102837498774,0.00017431403047307725
150000000000.0,3,-0.01065982855,0.1328016543,-0.0471307599,0.23641,0.17224,-0.17613,-2.1409878279999996,-9.4992115225,1.1625783575,-2.0682,1.3197,2.1919,0.0004999999999999449,-0.0021999999999999797,0.000600000000000156,-0.013615065381164193,-0.010974024970018315,0.006999483984809096
150000000000.0,3,-0.0206920315,0.046758107199999996,-0.01723028405,0.25557,0.16995,-0.16968,-2.127062385,-9.4997999215,1.1830742559999998,-2.0784,1.32,2.2041,0.001000000000000112,-0.0015000000000000568,-0.0008000000000001339,0.002412239766767188,0.007029363212718964,0.00037018249081999244
150000000000.0,3,0.0145334553,-0.0520536982,-0.02544825675,0.25333,0.15824,-0.16753,-2.1123524099999997,-9.500486386999999,1.203668221,-2.0887,1.3203,2.2165,0.0010999999999998789,-0.0012000000000000899,-0.00029999999999996696,0.003809799942651182,-0.002145863844721596,0.004815282204551963
150000000000.0,3,0.04800355175,-0.14063716764999998,-0.12169071984999999,0.23825,0.14558,-0.159,-2.0972501689999996,-9.5015651185,1.221516324,-2.0982,1.3207,2.2278,0.000400000000000178,-0.0017999999999998018,0.00019999999999997797,0.00516208511916072,-2.9942750834566212e-05,-0.004610661818484019
150000000000.0,3,0.08043414329999998,-0.2542864345,-0.16744854874999998,0.21581,0.14577,-0.15157,-2.082147928,-9.502938049499999,1.2363243654999998,-2.1066,1.3213,2.238,0.0005999999999999339,-0.0019000000000000128,-9.999999999998899e-05,-0.008111645955278801,-0.0030900182588542435,0.0032754561240109226
150000000000.0,3,0.15626896775000002,-0.30692853169999995,-0.11493393799999999,0.19008,0.1385,-0.13772,-2.0704780145,-9.503428382,1.2522111384999999,-2.1147,1.3215,2.2478,0.0007999999999999119,-0.0017000000000000348,-0.00029999999999996696,0.002719353291337212,-0.003243814549181545,4.6018740241571265e-05
150000000000.0,3,0.19397553699999998,-0.2664270672,-0.03158721965,0.16864,0.13015,-0.13134,-2.0594945664999997,-9.504016780999999,1.2659404485,-2.1219,1.3217,2.2566,0.000500000000000167,-0.0019000000000000128,-9.999999999998899e-05,0.0006820911171194766,-0.0011201485809093636,-0.00048666413867604064
150000000000.0,3,0.2321822454,-0.1717144415,-0.011611073599999999,0.14941,0.12711,-0.13137,-2.048609185,-9.5047032465,1.2780026279999999,-2.1286,1.322,2.2648,0.0006999999999999229,-0.0015000000000000568,-9.999999999998899e-05,-0.002064725794893363,0.0033349600442929006,0.003234620510527364
150000000000.0,3,0.27945029839999996,-0.08658291285,-0.01903470765,0.13982,0.12294,-0.13886,-2.031545614,-9.506958776,1.2885938099999998,-2.136,1.3229,2.2737,0.0008999999999999009,-0.0013000000000000789,-0.00029999999999996696,0.0035516877704724337,0.00020013429618281897,0.00384360513485138
150000000000.0,3,0.28846260975,-0.0520536982,-0.0437180457,0.1313,0.12302,-0.14208,-2.019581501,-9.508135573999999,1.2986946594999997,-2.1423,1.3234,2.2814,0.0003500000000000725,-0.0022999999999999687,0.00012499999999993072,-0.013452707372465511,-0.0015036526523071192,0.004466987560416413
150000000000.0,3,0.25493367339999995,-0.08011052384999999,-0.0904761529,0.13127,0.12088,-0.13994,-2.007813521,-9.5092143055,1.3087955089999999,-2.1485,1.3239,2.2891,0.0003500000000000725,-0.0018000000000000238,0.00012499999999993072,0.00593791787375042,-0.0015510536977163536,-0.004323391337187399
150000000000.0,3,0.20064405899999999,-0.15728885935,-0.14744298274999998,0.12483,0.1188,-0.13568,-1.9963397404999998,-9.5103911035,1.3185040924999998,-2.1545,1.3243,2.2965,0.00029999999999996696,-0.0017999999999998018,0.00012500000000015277,-0.01011796520213637,-2.8726730323613836e-05,0.00640998265694348
150000000000.0,3,0.1749114094,-0.27270332319999996,-0.21635431229999996,0.10553,0.11364,-0.12503,-1.9812374994999997,-9.513038899,1.3222306195,-2.1593,1.3255,2.3027,0.0007999999999999119,-0.0009000000000001229,0.00012499999999993072,0.013195789301404082,2.326426735366205e-05,-0.0007618657612527002
150000000000.0,3,0.18030506689999998,-0.38985356409999994,-0.27953855824999996,0.061663,0.1044,-0.11549,-1.971332783,-9.514313763499999,1.3271339444999999,-2.1633,1.326,2.3079,0.0005999999999999339,-0.0010999999999998789,0.0005999999999999339,0.005918577651198742,-0.00038268844570699123,0.002729658852284711
150000000000.0,3,0.19461296925,-0.47975112464999997,-0.29526842485,-0.015256,0.10182,-0.099603,-1.962702931,-9.51637316,1.3256629469999999,-2.1648,1.3269,2.3105,0.000500000000000167,-0.0013000000000000789,0.00029999999999996696,0.0033673756236747288,0.0028353114353558695,-0.0008187624426780893
150000000000.0,3,0.17158695505,-0.5568608136,-0.2671919859,-0.1082,0.098299,-0.080544,-1.955838276,-9.519119022,1.3157582305,-2.163,1.328,2.3096,0.00029999999999996696,-0.0014000000000000679,0.000500000000000167,0.008270612862312898,-0.00046298577171888233,-0.0036896868448832443
150000000000.0,3,0.17172424814999998,-0.6302537822000001,-0.2347515877,-0.20336,0.093742,-0.048686,-1.9461296924999998,-9.524610745999999,1.2902609404999998,-2.1563,1.3304,2.3038,0.0005999999999999339,-0.0008999999999999009,0.00039999999999995595,0.012124872606217085,0.002332181636656605,-0.0009312266375549605
150000000000.0,3,0.19067069594999997,-0.7486985008999999,-0.19990856024999998,-0.28574,0.089054,-0.011462,-1.9453451604999998,-9.5284353395,1.26309652,-2.1467,1.332,2.2948,0.00039999999999995595,-0.000600000000000156,0.0007999999999999119,0.006626505310393105,0.0013128288970776225,0.001809791018000162
150000000000.0,3,0.238497728,-0.9141366863999999,-0.15717117954999998,-0.34992,0.092738,0.028982,-1.9482871555,-9.5321618665,1.2294597105,-2.1337,1.3337,2.2825,0.000500000000000167,-0.0007999999999999119,0.0008000000000001339,0.00443524831202291,0.0010995799151185537,0.003230395328072788
150000000000.0,3,0.29137518479999996,-1.065394456,-0.016190779149999997,-0.40646,0.11874,0.068332,-1.955249877,-9.535790326999999,1.1898408445,-2.1175,1.3352,2.2669,0.0004999999999999449,-9.999999999998899e-05,0.0005999999999999339,0.007184506784116307,0.004788615271148933,0.0036296289509358814
150000000000.0,3,0.29781815385,-1.207983147,0.28251977985,-0.48006,0.14594,0.10765,-1.9661352584999998,-9.539320721,1.143063124,-2.0974,1.3368,2.2477,0.0014000000000000679,-0.007099999999999884,0.0025999999999999357,-0.06208549703181099,0.005699858868276175,0.01093970677737044
150000000000.0,3,0.35998250819999994,-1.2843769505,0.5970190453499999,-0.57389,0.17864,0.14799,-1.9811394329999998,-9.542654981999998,1.0872632855,-2.0727,1.3383,2.2241,0.00039999999999995595,0.0006999999999999229,0.0009000000000001229,0.020041172725183687,0.005140466774486985,-0.000637640505130932
150000000000.0,3,0.52127248075,-1.265842382,0.8161780595499999,-0.70938,0.20529,0.18934,-2.0002624005,-9.5462834425,1.0191070679999998,-2.042,1.3398,2.1945,0.00039999999999995595,0.0010999999999998789,0.00039999999999995595,0.013873511441908848,0.0031745321708531726,0.0005689490779645645
150000000000.0,3,0.7692728526,-1.1347274715,0.8758221048499999,-0.89598,0.24302,0.22631,-2.0232099614999997,-9.550108036,0.93359308,-2.0031,1.3416,2.157,9.999999999998899e-05,0.0009000000000001229,0.0004999999999999449,0.018477828807751395,0.0061845823501147645,-0.002550045136035184
150000000000.0,3,1.030678915,-0.8996130377499999,0.8053809379,-1.1296,0.279,0.26854,-2.0498840494999997,-9.554324895499999,0.8261220026499999,-1.9539,1.3435,2.1092,-0.0001500000000000945,0.0007999999999999119,0.0004999999999999449,0.014589931906119125,0.007465827758242227,-0.005627175266668782
150000000000.0,3,1.2286751785,-0.5956951476,0.61002266325,-1.3761,0.30228,0.32464,-2.081755662,-9.557953355999999,0.6942127535,-1.8927,1.3451,2.0495,-0.00014999999999987246,0.000600000000000156,0.000500000000000167,0.012280213981408439,0.011518956689391846,-0.00541245020230674
150000000000.0,3,1.3566519609999999,-0.3282481888,0.27232086385,-1.5868,0.29114,0.40648,-2.1204919295,-9.559326287,0.5408171342,-1.8205,1.3457,1.9785,-0.0004999999999999449,0.00039999999999995595,0.00019999999999997797,0.01482378971238485,0.010124424591077652,-0.002682682280906956
150000000000.0,3,1.385679645,-0.12016088244999999,-0.06686173969999999,-1.6788,0.19482,0.51217,-2.167858049,-9.556580425,0.37676168635,-1.7429,1.3445,1.9011,-0.000600000000000156,-0.00019999999999997797,0.00024999999999986144,0.0007695997825023504,0.010122772181968775,-0.00555311359613464
150000000000.0,3,1.2029817555,0.08264063955,-0.21599146624999999,-1.6282,0.058943,0.63951,-2.225717284,-9.5482447725,0.21689367805,-1.6679,1.3407,1.8251,-0.0006999999999999229,-0.00019999999999997797,0.0002500000000000835,0.00730096279501069,0.009035584832631116,-0.003388155001061044
150000000000.0,3,0.8381743755,0.20310552815,-0.23809565534999996,-1.4837,-0.059611,0.78194,-2.2968154965,-9.533632864,0.07214752405,-1.6022,1.3343,1.7573,-0.0007999999999999119,-0.000600000000000156,0.0006999999999999229,0.020180797905783088,0.004715685640093836,0.005148980554320559
150000000000.0,3,0.40329848125,0.15138525604999997,-0.34107528699999995,-1.2973,-0.14121,0.9169,-2.3812507529999998,-9.513038899,-0.053367789299999996,-1.5484,1.3255,1.7006,9.999999999998899e-05,-0.0005999999999999339,0.000700000000000145,0.003933729328815971,0.004484912284963727,0.0009087835057206561
150000000000.0,3,-0.15724963275,-0.06392955134999999,-0.51385865335,-1.1036,-0.14928,1.0005,-2.4749042605,-9.4878358085,-0.15921096275,-1.5066,1.3151,1.6558,9.999999999998899e-05,-0.0012000000000000899,0.0009999999999998899,0.019875462791178133,0.004805109744329794,0.0001135918069654629
150000000000.0,3,-0.59735247145,-0.3777129314,-0.72656489185,-0.92169,-0.083656,1.0082,-2.5711074970000003,-9.4603771885,-0.24802979179999998,-1.4746,1.3043,1.6217,9.999999999998899e-05,-0.0012999999999998568,0.001100000000000101,0.015036625909687018,-0.0022057106343211785,0.0016823084185091375
150000000000.0,3,-0.9539712987,-0.61594587985,-0.9668082035499999,-0.82752,0.040319,0.93554,-2.6617209429999997,-9.432820501999998,-0.32785592280000003,-1.4482,1.2938,1.5944,0.00039999999999995595,-0.0017000000000000348,0.0007999999999999119,0.015922873611971644,0.0012978231175175825,0.001260878903655449
150000000000.0,3,-1.2190646615,-0.6786005666999999,-1.0844193569999998,-0.912,0.18078,0.7729,-2.738408946,-9.4074212785,-0.41462516199999994,-1.4205,1.2845,1.5671,0.00039999999999995595,-0.0016000000000000458,0.0006999999999999229,0.003841792676495759,-0.0005730260376004548,4.140895776716391e-05
150000000000.0,3,-1.2164168659999999,-0.74692349725,-1.3661644114999998,-1.1182,0.26052,0.5301,-2.7932281195,-9.385944714999999,-0.52178242655,-1.3861,1.2768,1.5337,9.999999999998899e-05,-0.0020000000000000018,0.000600000000000156,0.010820177189831304,-0.000628312529454389,-0.0017231463108173806
150000000000.0,3,-0.85165851925,-0.78271776975,-1.5424879785,-1.2055,0.2466,0.25672,-2.8220596705000003,-9.369861809,-0.64130587675,-1.3473,1.2712,1.4958,0.00039999999999995595,-0.0020999999999999908,0.00039999999999995595,0.006729528710760935,3.967710540186964e-05,-0.002692648644775364
150000000000.0,3,-0.23876250755,-0.46321711274999994,-0.7625454906999999,-1.1138,0.24605,0.057273,-2.830003057,-9.3589764275,-0.75537682955,-1.31,1.2675,1.4592,-0.00019999999999997797,-0.0023999999999999577,0.0005999999999999339,0.009028468445520188,0.00015436938184709703,-0.0034361613867259777
150000000000.0,3,0.2038998668,0.23511443375,0.26684875314999995,-0.96884,0.28442,-0.074901,-2.823334535,-9.352209838999999,-0.8573169562999999,-1.276,1.2652,1.4265,9.999999999998899e-05,-0.0024999999999999467,0.00029999999999996696,0.005551853777835625,-0.004904663083437288,-0.002129341977305188
150000000000.0,3,0.39184431405,1.1906253764999999,0.5744539436999999,-0.86975,0.24954,-0.10242,-2.8113704219999995,-9.347110380999998,-0.9479500155999999,-1.2456,1.2634,1.3974,-0.0020999999999999908,-0.0020000000000000018,0.000700000000000145,0.0467736077047316,-0.03364294942464796,0.015228520790435685
150000000000.0,3,0.2412828166,1.7940285509999998,0.043551332649999996,-0.85778,0.1631,-0.074494,-2.8018579715,-9.340932191499999,-1.0332286439999998,-1.2175,1.2614,1.3699,-0.00019999999999997797,-0.0030000000000001137,0.0008999999999999009,0.0027381318853754166,-0.0037682883263170375,-0.0005584696576645953
150000000000.0,3,-0.1805404265,1.7354828504999997,-0.9623657911,-0.86265,0.091733,-0.066905,-2.7944049174999996,-9.3334791375,-1.116977435,-1.1905,1.2589,1.3427,-9.999999999998899e-05,-0.0029999999999998916,0.0008000000000001339,0.005874192420505908,-0.002983671550427669,-0.0009551312985354166
150000000000.0,3,-0.37015200425,1.320367356,-1.5048304424999999,-0.81522,0.006117,-0.08802,-2.786461531,-9.326124149999998,-1.1953325684999998,-1.1656,1.2565,1.3167,-0.0005999999999999339,-0.0041999999999999815,0.0006999999999999229,0.01065830951375668,-0.0017851784718216912,-0.015577090998376342
150000000000.0,3,-0.31889264469999995,0.8464217681499999,-1.455110727,-0.72814,-0.067024,-0.12403,-2.7763606814999995,-9.3201420935,-1.2640771849999999,-1.1435,1.2545,1.293,9.999999999998899e-05,-0.0029000000000001247,0.0012000000000000899,-0.0010684851061708578,-0.006063833036412003,0.009973351600722768
150000000000.0,3,-0.3488029272,0.4603829909,-1.277021963,-0.63963,-0.08691,-0.14626,-2.764298502,-9.3154349015,-1.3232112845,-1.1243,1.253,1.2719,-0.00039999999999995595,-0.0042999999999999705,0.0005999999999999339,0.003922149607631598,-0.0018429827654009578,-0.008116035914673247
150000000000.0,3,-0.6176130103499999,0.18780715415,-0.89202269065,-0.58534,-0.10972,-0.1568,-2.7513537239999994,-9.311610308,-1.376069128,-1.107,1.2517,1.2526,-0.00019999999999997797,-0.0043999999999999595,0.0004999999999999449,0.0025550012421111656,-0.0032030281238508707,-0.003540867513518009
150000000000.0,3,-0.9058010339,-0.038893173899999994,-0.84185186925,-0.54179,-0.14629,-0.17801,-2.7371340815000003,-9.308668312999998,-1.4238275135,-1.0911,1.2507,1.2344,-0.00020000000000020002,-0.0043999999999999595,0.00019999999999997797,-0.0004536303770734662,-0.0024092273246894003,0.0018598928090587385
150000000000.0,3,-1.0203819324999999,-0.06438065724999999,-1.0419565625,-0.48308,-0.15421,-0.19604,-2.7215415079999996,-9.306706983,-1.4659961085,-1.0767,1.2501,1.2176,-0.00019999999999997797,-0.0049000000000001265,-9.999999999998899e-05,-0.0006309578118373071,-0.003643350460656558,0.0004968984698927592
150000000000.0,3,-1.1325700085,0.1958191872,-0.9505389712,-0.41679,-0.13771,-0.19809,-2.705262469,-9.3056282515,-1.5024768465,-1.0638,1.2498,1.2025,-0.00024999999999986144,-0.005099999999999882,-0.0006999999999999229,-0.003381571094434266,-0.0016086826294687828,0.0021651726607063715
150000000000.0,3,-1.182485857,0.62153567035,-0.79544680145,-0.32046,-0.094822,-0.18946,-2.6887872969999997,-9.3056282515,-1.5318967964999999,-1.0529,1.2498,1.1899,-0.0002500000000000835,-0.0050000000000001155,0.00039999999999995595,-0.005278169627871865,-0.0014972769469923097,0.0038611040397231733
150000000000.0,3,-1.1980784304999998,1.2210259915,-0.5285392084,-0.2018,-0.043622,-0.15305,-2.6745676544999997,-9.306412783499999,-1.552000429,-1.045,1.25,1.1809,-9.999999999998899e-05,-0.005700000000000038,-0.0015000000000000568,-0.002442291819763742,-0.0014292575242798033,0.0009566486356944459
150000000000.0,3,-1.2751586995,1.7450933674999998,-0.23448680815,-0.076635,0.01712,-0.12305,-2.662309342,-9.308177980499998,-1.5621012784999997,-1.0402,1.2506,1.1759,-0.00029999999999996696,-0.005399999999999849,-0.0005999999999999339,-0.005976876974672862,-0.0035033561747597197,0.007363828999995103
150000000000.0,3,-1.1834665219999998,2.2295418775,-0.21326521754999997,0.043252,0.083237,-0.095208,-2.6517181599999997,-9.3111199755,-1.5624935444999999,-1.0383,1.2516,1.1746,-0.0005999999999999339,-0.005900000000000016,-0.0013000000000000789,-0.002077454917130739,-0.0008193003452403591,-0.0007811253868594825
150000000000.0,3,-1.006750689,2.665251337,-0.25586530515,0.14067,0.1325,-0.081249,-2.6420095764999996,-9.315140701999999,-1.5547462909999998,-1.0389,1.2529,1.1765,-0.000600000000000156,-0.005700000000000038,-0.0009999999999998899,-0.0062695380252237864,-0.005370336911846962,0.004304998605777044
150000000000.0,3,-0.8036157409,2.9591566375,-0.41030042935,0.20285,0.1661,-0.087605,-2.6316145274999996,-9.320338226499999,-1.5413111805,-1.041,1.2546,1.1804,-0.00039999999999995595,-0.00649999999999995,-0.0022999999999999687,-0.0021481353378884904,0.0003505088263615619,-0.0005308237984285036
150000000000.0,3,-0.4580097816,3.1584277655,-0.6654498490499999,0.23504,0.17438,-0.10998,-2.6192581484999997,-9.326614482499998,-1.5243456759999998,-1.0437,1.2566,1.1851,-0.00039999999999995595,-0.006099999999999994,-0.0021999999999999797,-0.0049166294677647215,-0.0006154935372308934,0.00677415126633063
150000000000.0,3,-0.06478272989999999,3.2058919514999995,-0.94868551435,0.24155,0.17116,-0.13665,-2.6044501069999995,-9.333773336999998,-1.5063014399999999,-1.0465,1.259,1.1898,-0.001100000000000101,-0.006900000000000128,-0.0019000000000000128,-0.00037812589599894864,-0.0005838186616611285,-0.006202276156316966
150000000000.0,3,0.25835619425,3.097332336,-1.149731646,0.22967,0.15314,-0.1377,-2.5891517329999996,-9.340834124999999,-1.4885514035,-1.049,1.2613,1.1942,-0.00039999999999995595,-0.006599999999999939,-0.0026000000000001577,-0.0017344479061440765,0.0021048116955282303,0.004503632965020987
150000000000.0,3,0.3617673185,2.8227461359999997,-1.2823175539999998,0.21546,0.12553,-0.1142,-2.575814689,-9.3472084475,-1.471389766,-1.0518,1.2635,1.1985,-0.0008999999999999009,-0.006799999999999917,-0.0019000000000000128,-0.0011652211861867823,0.0013597402003742154,0.0012474683315453206
150000000000.0,3,0.22237559540000001,2.4162604935,-1.4275540405,0.19913,0.11496,-0.066173,-2.566596438,-9.352209838999999,-1.4554049264999998,-1.055,1.2652,1.203,-0.0008000000000001339,-0.006900000000000128,-0.0019000000000000128,-0.001204338392704285,0.0023501228344022795,0.0018221881926021588
150000000000.0,3,-0.0289100042,1.952896281,-1.5259147399999997,0.18058,0.10758,0.006391,-2.563850576,-9.355249900499999,-1.4408910845,-1.0588,1.2662,1.2082,-0.0008999999999999009,-0.007099999999999884,-0.0016999999999998128,0.0031097510876796353,0.003598242918714245,-0.00011832766435260211
150000000000.0,3,-0.3214423737,1.466486441,-1.5560211554999999,0.14585,0.094005,0.081161,-2.5893478659999998,-9.3407360585,-1.489041736,-1.0489,1.2613,1.2002,-0.0006999999999999229,-0.007200000000000095,-0.0016000000000000458,0.0016103753568272872,0.0006969632466098385,0.0028051103693806922
150000000000.0,3,-0.6915355380499999,1.062060195,-1.7576458794999998,0.078217,0.07958,0.14191,-2.6000371144999996,-9.338774728499999,-1.482177081,-1.0527,1.2607,1.205,-0.001100000000000101,-0.007500000000000062,-0.0013000000000000789,0.002214010565019464,0.0038899113928565487,3.721410242896184e-05
150000000000.0,3,-1.0568626705,0.6463366881999999,-2.0447845915,-0.015948,0.073915,0.18766,-2.6155316214999997,-9.334263669499999,-1.483353879,-1.0549,1.2592,1.2081,-0.0009999999999998899,-0.007900000000000018,-0.0019000000000000128,0.004056462031751806,0.0064230840961512214,-0.0014384508468205937
150000000000.0,3,-1.29643913,0.12952623319999998,-2.2757311989999995,-0.12177,0.07049,0.22057,-2.634262323,-9.327300948,-1.4940431275000001,-1.0549,1.2568,1.2089,-0.0015000000000000568,-0.008000000000000007,-0.0009999999999998899,0.003400923909876008,0.0052989096902571475,-0.003331854227968556
150000000000.0,3,-1.355475163,-0.41696895135,-2.3521250025,-0.23704,0.073556,0.23424,-2.654856288,-9.3179846305,-1.5154216244999998,-1.0521,1.2538,1.2068,-0.0013000000000000789,-0.007999999999999785,-0.0012000000000000899,0.0017530080043322016,0.004784996385320595,0.00311075257693183
150000000000.0,3,-1.1778767314999998,-0.8741059411,-2.334767232,-0.34461,0.085119,0.21375,-2.674273455,-9.3071973155,-1.5472932369999999,-1.0463,1.2503,1.2015,-0.0011999999999998678,-0.008700000000000152,-0.0020000000000000018,-0.000266048630525928,0.005270878622582353,0.004439710222588822
150000000000.0,3,-0.7969276056,-1.229165511,-2.3252547814999995,-0.4295,0.10932,0.16019,-2.68898343,-9.296115801,-1.5881869675,-1.0373,1.2467,1.1931,-0.0016000000000000458,-0.008499999999999952,-0.0008999999999999009,0.0021277473389769153,0.007751439178947939,0.00471649051922185
150000000000.0,3,-0.34371327584999994,-1.412942132,-2.2243443529999998,-0.48856,0.14505,0.078905,-2.6961422845,-9.285720752,-1.6359453529999999,-1.0254,1.2434,1.182,-0.0018000000000000238,-0.009600000000000053,-0.0012000000000000899,0.0017288507303843126,0.002936500575173362,-0.001026486544710714
150000000000.0,3,0.09522257149999999,-1.4527571309999998,-2.1510886774999998,-0.52098,0.17631,-0.002329,-2.6948674199999996,-9.276698633999999,-1.688312864,-1.0111,1.2405,1.1687,-0.0019000000000000128,-0.009299999999999864,-0.0006999999999999229,0.0009095706390076508,0.0044266723942807396,0.005762498923422399
150000000000.0,3,0.17221458065,-1.3155620974999997,-2.260628958,-0.5239,0.18809,-0.040781,-2.6884930975,-9.268657181,-1.7420533059999999,-0.99586,1.238,1.1545,-0.0020999999999999908,-0.010300000000000198,-0.000600000000000156,0.005057062150521485,0.003150413745045544,-0.0020700683837673317
150000000000.0,3,-0.19114141515,-0.9731236861499999,-2.5593395169999997,-0.492,0.18887,-0.017245,-2.6828052404999996,-9.260419595,-1.793636285,-0.98147,1.2355,1.1412,-0.0018000000000000238,-0.010599999999999943,-0.0008999999999999009,-0.0038809024931638625,0.0029076822318807594,0.008591342284854253
150000000000.0,3,-0.85456128765,-0.5351881170999999,-2.929442488,-0.43674,0.19795,0.041542,-2.681530376,-9.25159361,-1.8408062714999998,-0.96922,1.2327,1.1303,-0.0022999999999999687,-0.011099999999999888,-0.0004999999999999449,0.0028655205451415533,-0.00020801744565135394,-0.0008464751755221656
150000000000.0,3,-1.4940431275000001,-0.0693330155,-3.2262897835,-0.37062,0.23995,0.1163,-2.6862375679999997,-9.2416888935,-1.8827787335,-0.95947,1.2297,1.1224,-0.0020000000000000018,-0.01100000000000012,-9.999999999998899e-05,-0.003881070201018799,-0.0006464780673396398,0.007220560117280783
150000000000.0,3,-1.9148464789999997,0.3272282972,-3.2815012229999994,-0.27554,0.29451,0.17828,-2.696044218,-9.231588043999999,-1.9182788065,-0.9524,1.2266,1.1179,-0.0022999999999999687,-0.011599999999999833,-0.00029999999999996696,0.00023845172009373528,0.001147317654642599,0.0008285897107622731
150000000000.0,3,-2.0444903919999997,0.5976368643,-3.1454829874999994,-0.14647,0.31897,0.22436,-2.709773528,-9.222271726499999,-1.9433838305,-0.94863,1.2238,1.1172,-0.0022999999999999687,-0.011400000000000077,0.00039999999999995595,-0.004103156325524493,0.0029701308674221494,0.0028516040116266517
150000000000.0,3,-1.9766283739999997,0.8292797439499999,-2.904533597,-0.000437,0.32094,0.2545,-2.726444833,-9.2148186725,-1.9555440764999998,-0.94859,1.2216,1.1206,-0.0023000000000001908,-0.011300000000000088,0.0007999999999999119,-0.003104778014690446,0.0006874676712917971,0.000977437512542867
150000000000.0,3,-1.863851899,0.8664763674,-2.6443631725,0.12219,0.31566,0.26005,-2.7443910024999996,-9.209523081499999,-1.9553479435,-0.95175,1.22,1.1273,-0.0024999999999999467,-0.011499999999999844,0.001000000000000112,-0.006533184405082881,0.006918322487604156,-0.0027144432218499936
150000000000.0,3,-1.6011317454999998,0.36146331235,-2.458723288,0.1596,0.29622,0.21639,-2.75959131,-9.206286887,-1.949365887,-0.95578,1.2191,1.1349,-0.0023999999999999577,-0.010900000000000132,0.0013999999999998458,-0.0025606671851772234,0.0052929139188460095,-0.0028101580694044337
150000000000.0,3,-1.1574788994999998,-0.8008208456499999,-2.3846830805,0.14842,0.19727,0.1589,-2.7710650904999996,-9.2044236235,-1.9418147664999998,-0.95959,1.2185,1.1414,-0.0027999999999999137,-0.011299999999999866,0.0016000000000000458,-0.0073417031175389,0.0022731815216032736,-0.004572134494770452
150000000000.0,3,-0.81927696095,-2.1744285045,-2.126670119,0.16419,0.020269,0.1379,-2.782538871,-9.2036390915,-1.9292622544999998,-0.96454,1.2183,1.1474,-0.0027000000000001467,-0.011200000000000099,0.0019000000000000128,-0.0057875804370464135,0.00041131057606147436,-0.003989544994563943
150000000000.0,3,-0.75894645015,-3.2247207195,-1.4366742249999997,0.22734,-0.20299,0.16722,-2.799994708,-9.203148759,-1.9059224274999997,-0.97315,1.2181,1.155,-0.008299999999999974,-0.01429999999999998,0.0032000000000000917,0.00934619389202962,0.03771907664877361,-0.0790216688356109
150000000000.0,3,-0.8594744192999999,-4.0023880645,-0.4557346388,0.3119,-0.4296,0.1763,-2.823530668,-9.2036390915,-1.8685590909999998,-0.98618,1.2183,1.1649,-0.0040000000000000036,-0.0121,0.0030999999999998806,-0.036555538304194224,-0.011726800191421693,-0.000691426694512387
150000000000.0,3,-0.41082998844999996,-4.455945627,0.5358059360499999,0.41481,-0.52844,0.13503,-2.8466743619999995,-9.2065810865,-1.818349043,-1.0024,1.2192,1.1766,-0.0025999999999999357,-0.009600000000000053,-0.0008999999999999009,0.014645281070712501,0.005604410701310902,0.0029321089637339703
150000000000.0,3,0.5791611356999999,-4.119773664999999,1.2420122225,0.57775,-0.46792,0.078631,-2.8636398665,-9.213543807999999,-1.7552922835,-1.0209,1.2212,1.1912,-0.0032000000000000917,-0.0121,0.0030999999999998806,-0.02659692779402878,-0.000203857530421514,-0.01656650239836388
150000000000.0,3,1.607702201,-2.719187912,0.67692362955,0.72278,-0.49466,0.052245,-2.8770749769999995,-9.223742724,-1.6775255489999998,-1.0429,1.2243,1.2095,-0.0025999999999999357,-0.010699999999999932,0.001100000000000101,-0.006777835432179469,-0.00013710691428658883,-0.006280959049730583
150000000000.0,3,1.999379802,-0.9215407071499999,-0.734910351,0.74589,-0.6526,0.085653,-2.893746282,-9.23394164,-1.591030896,-1.0681,1.2273,1.2298,-0.0014000000000000679,-0.009500000000000064,-0.0009000000000001229,0.022875100855037855,0.011419773110575848,-0.0062080555394858905
150000000000.0,3,1.5145390259999998,0.29703362185,-1.1317854765,0.68682,-0.79816,0.14451,-2.9177725745,-9.241002428,-1.5034575115,-1.095,1.2295,1.2502,-0.0021999999999999797,-0.010599999999999943,0.0013000000000000789,-0.007194128377928877,-0.007169373794488898,-0.003252407919570821
150000000000.0,3,0.9567760005999999,1.0203819324999999,-0.43151221329999995,0.61082,-0.82737,0.1455,-2.9439563300000002,-9.2458076865,-1.4209835849999999,-1.1211,1.231,1.2691,-0.0018000000000000238,-0.010000000000000009,0.0008999999999999009,-0.0026709565925906453,-0.006438098857114882,-0.0016636515518864137
150000000000.0,3,0.7760002145,1.417060925,0.57701347935,0.51914,-0.75723,0.02994,-2.960823768,-9.251397477,-1.3475317765,-1.1437,1.2327,1.2848,-0.0022999999999999687,-0.009000000000000119,-0.0004999999999999449,0.07667593837835573,-0.014341600705847668,0.06492908901506267
150000000000.0,3,0.984195394,1.3756768619999997,1.4386355549999998,0.38684,-0.61847,-0.17761,-2.9582740389999995,-9.260615728,-1.2888880095,-1.1599,1.2355,1.295,-0.0018000000000000238,-0.009599999999999831,0.0004999999999999449,-0.00012260070634240172,-0.002739456027647913,0.003934564452692246
150000000000.0,3,1.1692468795,1.1965093665,1.8584582415,0.23879,-0.46037,-0.40337,-2.9320902834999996,-9.274345038,-1.2488768774999999,-1.1681,1.2398,1.2984,-0.0020999999999999908,-0.009400000000000075,0.0008000000000001339,-0.009272512028891233,0.001551656392199563,-0.003563143138138436
150000000000.0,3,1.2655481825,0.8366249248,2.240623392,0.1648,-0.33812,-0.55955,-2.8876661589999997,-9.2918989415,-1.2218105235,-1.1705,1.2454,1.2971,-0.0019000000000000128,-0.009099999999999886,0.0006999999999999229,-0.08207341414780345,-0.0038286870177663967,-0.04878989078856266
150000000000.0,3,1.17091401,0.40038590620000003,2.989459186,0.21772,-0.27353,-0.58519,-2.8361812465000003,-9.3111199755,-1.1953325684999998,-1.1719,1.2516,1.2955,-0.0022999999999999687,-0.009200000000000097,0.0004999999999999449,-0.011892843636122308,0.0053026992343141455,-0.006046733900527013
150000000000.0,3,0.7997519207999999,0.1373323266,3.8587206419999998,0.39609,-0.289,-0.43435,-2.7944049174999996,-9.3287719455,-1.1553214365,-1.1788,1.2573,1.2998,-0.0022999999999999687,-0.009200000000000097,0.000500000000000167,-0.010020255336035788,0.004461066528283375,-0.0027091037270201568
150000000000.0,3,0.19208285355,-0.08070872949999999,4.2912919735,0.64804,-0.36808,-0.16372,-2.7761645484999997,-9.342010923,-1.091284012,-1.1963,1.2617,1.3145,-0.0020000000000000018,-0.008899999999999908,0.00039999999999995595,-0.005657246176186126,0.004320350485270907,-0.002866395729245852
150000000000.0,3,-0.22587656945,-0.29446427955,4.020236167499999,0.88052,-0.4694,0.12506,-2.786069265,-9.349071710999999,-1.0015531645,-1.2257,1.2641,1.3407,-0.0019000000000000128,-0.008899999999999908,0.00029999999999996696,-0.007130535800657478,0.0029126112028914353,-0.002253257495734129
150000000000.0,3,-0.2103526425,-0.42397089945,2.8265707294999998,1.0187,-0.53683,0.3421,-2.8186273429999997,-9.350248509,-0.89410170045,-1.2636,1.2645,1.375,-0.0017000000000000348,-0.009100000000000108,0.0005999999999999339,-0.002128180678819591,0.001244085072264145,-0.0005808352344751633
150000000000.0,3,-0.0184953419,-0.40403397999999996,1.3741077979999998,1.0291,-0.51144,0.436,-2.8623650019999998,-9.346914248,-0.7823353103999999,-1.304,1.2634,1.4118,-0.0013999999999998458,-0.00869999999999993,9.999999999998899e-05,0.0004708928045811245,0.0002359081548486408,-0.0015476909729303934
150000000000.0,3,0.20436077935,-0.16733086894999996,0.49147987805,0.93192,-0.39766,0.41642,-2.905318129,-9.3417167235,-0.6798754311999999,-1.3409,1.2616,1.4461,-0.0016000000000000458,-0.00890000000000013,9.999999999998899e-05,-0.002333253836480864,-0.00027928527057752284,-0.00043902866018008524
150000000000.0,3,0.47006215445,0.26788825805,0.23098583409999998,0.7542,-0.25759,0.33474,-2.940622069,-9.336421132499998,-0.59625412665,-1.3707,1.2599,1.4743,-0.0015000000000000568,-0.008899999999999908,-5.0000000000105516e-05,-0.0038463231047607405,-0.0008376412387327559,-0.0010991273429197257
150000000000.0,3,0.6789928326999999,0.6942323667999999,0.23197630574999997,0.55068,-0.16202,0.22108,-2.9650406275,-9.332400406,-0.53484488435,-1.3923,1.2585,1.4951,-0.0017000000000000348,-0.00890000000000013,-4.999999999988347e-05,-0.004951518017595857,-0.0007429603112367733,-0.0007772295067338675
150000000000.0,3,0.74968897255,1.0003763665,0.37493764945,0.39362,-0.1297,0.10227,-2.9779854054999997,-9.330635208999999,-0.49090128569999997,-1.4074,1.258,1.5096,-0.0018000000000000238,-0.009199999999999875,-9.999999999998899e-05,-0.005177406434332399,0.0005815267604252217,-0.0029973624689159095
150000000000.0,3,0.7489436671499999,1.124234356,0.5588613701999999,0.33651,-0.12062,0.016759,-2.9818099989999998,-9.331223608,-0.45531295284999995,-1.4193,1.2581,1.5207,-0.0018000000000000238,-0.009000000000000119,-0.00039999999999995595,-0.010450393128657476,0.0005228187378951699,-0.002697211835097413
150000000000.0,3,0.7336452931499999,1.1276666835,0.6535445759499999,0.4286,-0.10854,-0.031135,-2.9803390015,-9.333577204,-0.415017428,-1.4324,1.2589,1.5334,-0.0018000000000000238,-0.008999999999999897,-0.0004999999999999449,-0.010932402438791122,0.0011664368740287312,-0.002709552917983693
150000000000.0,3,0.6921925835999999,1.003220295,0.73650883495,0.61631,-0.11542,-0.027592,-2.9777892724999995,-9.336715332,-0.3586684171,-1.4509,1.26,1.5516,-0.0016999999999998128,-0.008999999999999897,-0.0006999999999999229,-0.008688826116647341,0.0007726242053038845,-0.00239633095507763
150000000000.0,3,0.6531130833500001,0.8655839622499999,0.77042023065,0.80334,-0.18733,0.008084,-2.9779854054999997,-9.339265060999999,-0.28275513944999997,-1.4761,1.2608,1.5764,-0.0015000000000000568,-0.008800000000000141,-0.0009000000000001229,-0.011867009428751185,0.00038988775591497493,0.0008631303915977995
150000000000.0,3,0.4411227303,0.9195695705,0.78446335345,0.91225,-0.27885,0.059669,-2.9829867969999997,-9.339951526499998,-0.19189652719999997,-1.5066,1.2611,1.6056,-0.0015000000000000568,-0.009199999999999875,-0.0008999999999999009,-0.00874370214116893,-0.0007044505464537387,-0.000559618133792128
150000000000.0,3,0.20680263519999997,1.045977289,0.63295061095,0.93613,-0.33557,0.10037,-2.9922050479999998,-9.3385785955,-0.09484991879999999,-1.5391,1.2606,1.6364,-0.0012999999999998568,-0.009400000000000075,-0.001000000000000112,-0.011369005055154258,-0.0008848154942560083,0.002691505778108727
150000000000.0,3,0.11902331105,1.051861279,0.5321480556,0.90525,-0.32254,0.1099,-3.0025020304999996,-9.335734667,0.00055897905,-1.571,1.2596,1.6664,-0.0014000000000000679,-0.009600000000000053,-0.0011999999999998678,-0.013503192654841234,-0.000634018807842196,0.0015306024931920348
150000000000.0,3,0.1740484242,1.0590201335,0.4262362356,0.87713,-0.25195,0.084111,-3.0110338159999994,-9.3324984725,0.09121165165,-1.6011,1.2586,1.6952,-0.0012000000000000899,-0.009600000000000053,-0.0012000000000000899,-0.009517903745089873,-0.0031051311724390462,0.00206222658300792
150000000000.0,3,0.14236313805,1.2309307079999998,0.38276335615,0.88261,-0.13685,0.026278,-3.0148584094999995,-9.330046809999999,0.17822605709999997,-1.6298,1.2577,1.7236,-0.0008999999999999009,-0.009599999999999831,-0.0015000000000000568,-0.010875763426261953,-0.0031106948457413353,0.0035562971569658153
150000000000.0,3,0.03209716545,1.5014961814999999,0.3815179116,0.93733,-0.012546,-0.0507,-3.011818348,-9.328968078499999,0.26551504875,-1.6587,1.2574,1.7535,-0.001000000000000112,-0.009800000000000031,-0.0013999999999998458,-0.009726584600165289,-0.003395630494827273,0.0024774854894591414
150000000000.0,3,-0.11700314115,1.688901263,0.40162154409999995,1.0164,0.075345,-0.14358,-3.0008348999999996,-9.329458411,0.3567463137,-1.6891,1.2575,1.7861,-0.0005999999999999339,-0.009700000000000042,-0.0013000000000000789,-0.020950113266203774,-0.0008317422478207881,-0.005819143499619539
150000000000.0,3,-0.283804451,1.819133575,0.40460276570000003,1.0791,0.12606,-0.22575,-2.982006132,-9.3313216745,0.45282206375,-1.7215,1.2582,1.8213,-0.0007999999999999119,-0.009500000000000064,-0.0018000000000000238,-0.005541324523868685,-0.005373182699926371,0.005135664832515374
150000000000.0,3,-0.42293139454999995,1.846199929,0.33355358645,1.103,0.14618,-0.28979,-2.9570972409999996,-9.3338714035,0.5513985095499999,-1.7551,1.259,1.8582,-0.0008000000000001339,-0.009800000000000031,-0.0015000000000000568,-0.00974251483498123,-0.002890701051688982,0.000751748282112441
150000000000.0,3,-0.5260090927,1.675956485,0.17821625045,1.0734,0.15286,-0.33362,-2.9277753575,-9.336911464999998,0.6482293716499999,-1.7887,1.26,1.895,-0.0006999999999999229,-0.009599999999999831,-0.0017000000000000348,-0.006031081729568566,-0.004535786147777721,0.0005980897300514876
150000000000.0,3,-0.46957182194999997,1.2826117535,-0.07226520384999999,0.99773,0.14286,-0.36042,-2.8956095454999997,-9.340245726,0.7391958570499999,-1.8207,1.2611,1.9303,-0.000700000000000145,-0.009730000000000127,-0.0014999999999998348,-0.007834336033412104,-0.00275824745826192,-0.0022262004091975207
150000000000.0,3,-0.29150267125,0.8413811500499999,-0.38011556064999996,0.91331,0.11054,-0.38505,-2.861188204,-9.34377612,0.82304271455,-1.8509,1.2623,1.9632,-0.0006999999999999229,-0.009639999999999982,-0.0020000000000000018,-0.00490453325471929,-0.0046350925202947035,0.002925672222409581
150000000000.0,3,-0.0654495821,0.5346977846,-0.474445727,0.82229,0.056969,-0.4054,-2.8243151999999996,-9.347894913,0.9000151103999999,-1.8793,1.2637,1.9937,-0.0006999999999999229,-0.009889999999999954,-0.0017000000000000348,-0.008300958151626459,-0.002240956724170351,-0.002522444629076137
150000000000.0,3,0.09747810099999998,0.4813299953,-0.50640559935,0.72888,-0.015789,-0.40436,-2.7863634645,-9.3523079055,0.9702895643,-1.9059,1.2652,2.0217,-0.0009000000000001229,-0.009950000000000014,-0.0019000000000000128,-0.005695481288424453,-0.002757031921293507,9.09333637517662e-05
150000000000.0,3,0.036941650549999996,0.42912919735,-0.63049894845,0.6491,-0.10254,-0.37766,-2.749392394,-9.356328632,1.034209309,-1.9306,1.2666,2.0467,-0.0004999999999999449,-0.009939999999999949,-0.0020000000000000018,-0.007886725748995183,-0.0022613529697510515,-0.0016530116829276409
150000000000.0,3,-0.1834039683,0.32256033179999993,-0.6896330479499999,0.62288,-0.15351,-0.33706,-2.7153633185,-9.3591725605,1.096775736,-1.9547,1.2675,2.0705,-0.00039999999999995595,-0.010000000000000009,-0.0020000000000000018,-0.006099270621566344,-0.0041305525071959615,0.0018653861342734501
150000000000.0,3,-0.36584688489999995,0.39462940264999996,-0.5940672437,0.63641,-0.17072,-0.29538,-2.6847665705,-9.360349358499999,1.1604208945,-1.9788,1.2679,2.094,-0.0004999999999999449,-0.010170000000000012,-0.0020000000000000018,-0.0038224243495350585,-0.003804410758171395,0.00018235461501792116
150000000000.0,3,-0.52421447575,0.47476934644999996,-0.40128811799999997,0.65645,-0.17944,-0.26437,-2.657209884,-9.359760959499999,1.2262235160000001,-2.0031,1.2678,2.1176,-0.000400000000000178,-0.010220000000000007,-0.0019000000000000128,-0.004809778919608432,-0.004580354999459857,-0.00047259157371026816
150000000000.0,3,-0.69173167105,0.595852054,-0.28624630684999997,0.65223,-0.17195,-0.26118,-2.6357333205,-9.357113164,1.2912416055,-2.0263,1.2668,2.1402,-0.00019999999999997797,-0.010160000000000058,-0.0020700000000000163,-0.0011437964474731999,-0.0065072150591258815,-0.0012687573571383837
150000000000.0,3,-0.7010872151499999,0.76675254355,-0.3380646454499999,0.60143,-0.13953,-0.29334,-2.6072940355,-9.3564266985,1.3529254339999999,-2.0495,1.2666,2.1629,-0.00029999999999996696,-0.010279999999999956,-0.0020000000000000018,-0.005573234934292293,-0.00485999582736496,-0.0021718182886969473
150000000000.0,3,-0.5504864911,0.74521714015,-0.6309010211,0.51123,-0.11209,-0.34692,-2.5745398244999995,-9.3576034965,1.4061755434999998,-2.0707,1.267,2.1839,-0.0004999999999999449,-0.010319999999999996,-0.0019500000000000073,-0.0024717333858705892,-0.0055093642369639095,-0.0024912318388654597
150000000000.0,3,-0.4247848514,0.6022263765,-0.8319471527499999,0.40795,-0.12609,-0.41325,-2.535607424,-9.361526156499998,1.449815136,-2.0902,1.2684,2.2031,-0.00039999999999995595,-0.010179999999999967,-0.0020099999999999563,-0.003993923653837772,-0.00446132676696509,-0.003431860666422537
150000000000.0,3,-0.37508474919999996,0.5158101767,-0.76067242055,0.33405,-0.19468,-0.47194,-2.498538287,-9.3676062795,1.47492016,-2.1041,1.2704,2.2162,-0.000700000000000145,-0.010400000000000076,-0.0017099999999999893,-0.003970596016996009,-0.0030795599677939656,-0.005505419867290584
150000000000.0,3,-0.3568443801999999,0.43356180315,-0.6284199386499999,0.31753,-0.27869,-0.50171,-2.448132106,-9.375157399999999,1.5111066985,-2.1238,1.2731,2.2342,-0.00039999999999995595,-0.010149999999999992,-0.0019700000000000273,-0.003299380317574707,-0.002665855494844882,-0.0054430918553523
150000000000.0,3,-0.25588491845,0.22496455099999998,-0.49388250729999994,0.32862,-0.35232,-0.49089,-2.3964510605,-9.382218188,1.5498429660000002,-2.1449,1.2755,2.2527,-0.00039999999999995595,-0.010290000000000021,-0.0017200000000000548,-0.002533170306375121,-0.0016305435241787958,-0.005680879487515611
150000000000.0,3,0.006766588499999999,-0.13649876135,-0.49776594069999996,0.31179,-0.4215,-0.43635,-2.3475158769999998,-9.387906045,1.5893637655,-2.1659,1.2775,2.2705,-0.00019999999999997797,-0.010459999999999914,-0.0015399999999999858,-0.0016111297374705735,0.0005792588741775351,-0.005868510427999851
150000000000.0,3,0.11158987035,-0.48298731915,-0.5850941589499999,0.25738,-0.49999,-0.34986,-2.3021110874999997,-9.393986168,1.6196663139999998,-2.1839,1.2797,2.2844,-0.00029999999999996696,-0.010810000000000097,-0.0012499999999999734,-0.0012471374859575057,0.0008205047795752929,-0.0035062414607152093
150000000000.0,3,-0.16840960045,-0.68833857015,-0.6075317741499999,0.18589,-0.56558,-0.24099,-2.2677878125,-9.396830096499999,1.6515379264999999,-2.2002,1.2807,2.2957,9.999999999998899e-05,-0.011109999999999953,-0.0011700000000000044,-0.0017563457117042436,0.000291944184782178,-0.0028437892915262886
150000000000.0,3,-0.811009955,-0.81447170245,-0.4795059584,0.12329,-0.58437,-0.12579,-2.243565387,-9.3980068945,1.6776236155,-2.2129,1.2811,2.3028,9.999999999998899e-05,-0.011460000000000026,-0.0008700000000000374,-0.0013219511749904544,0.0007273480316123404,-0.0021037457316128716
150000000000.0,3,-1.597895551,-0.93359308,-0.2940229803,0.070695,-0.54889,-0.00639,-2.2307186755,-9.397418495499998,1.698119514,-2.2214,1.2809,2.3058,0.00029999999999996696,-0.011689999999999978,-0.0004899999999999904,-0.001103518951753646,0.000672154209901521,-0.0014197003393103813
150000000000.0,3,-2.421261885,-1.0641195915,-0.21253952545,0.041235,-0.44856,0.071303,-2.227678614,-9.395359099,1.7131236885,-2.2263,1.2802,2.306,0.00039999999999995595,-0.011839999999999962,-0.00034999999999996145,-4.6743566816997983e-05,0.0002390533429215136,-0.00213191765628995
150000000000.0,3,-3.0820339619999997,-1.164049355,-0.26477955,0.04845,-0.32292,0.10952,-2.2313070745,-9.3923190375,1.7250878015,-2.2289,1.2791,2.305,0.00029999999999996696,-0.01206000000000007,0.00029999999999996696,0.0009669627377917323,0.001086720497033733,-0.0029345688211064314
150000000000.0,3,-3.5243138769999995,-1.3322334025,-0.310282406,0.085436,-0.23478,0.10836,-2.237485264,-9.388494443999999,1.7378364465,-2.2312,1.2777,2.3046,0.000500000000000167,-0.012089999999999934,0.00042000000000008697,0.0013727388713034028,0.0015518754289760572,-0.0022017760820851606
150000000000.0,3,-3.7078943649999996,-1.5676910689999999,-0.30332949114999996,0.086995,-0.18788,0.084799,-2.2425847219999997,-9.3848659835,1.7507812244999998,-2.2337,1.2764,2.3052,0.00029999999999996696,-0.012260000000000049,0.0009899999999999354,0.002280615739826075,0.0034379012421070776,-0.0029837108060259965
150000000000.0,3,-3.5334340615,-1.9744709109999998,-0.44937992959999995,0.021032,-0.17241,0.071848,-2.246311249,-9.382512387499998,1.758528478,-2.235,1.2756,2.3048,0.0004999999999999449,-0.012259999999999938,0.0010200000000000209,0.0031064990202978038,0.004432243996060237,-0.0013034841643806416
150000000000.0,3,-3.1777468659999997,-2.563850576,-0.7556023824999999,-0.084969,-0.2014,0.10054,-2.251410707,-9.3815317225,1.7574497465,-2.2336,1.2753,2.3013,0.0005999999999999339,-0.012380000000000058,0.0012699999999999934,0.0032038393715259073,0.006213992464876084,0.001343527162882996
150000000000.0,3,-2.8097032914999995,-3.2176599315,-1.095991204,-0.18689,-0.22834,0.16979,-2.2616096229999996,-9.3809433235,1.7472508304999999,-2.2286,1.2751,2.2937,0.000700000000000145,-0.012369999999999992,0.0015399999999999858,0.00376810579614717,0.007693643045407095,0.004022533557753949
150000000000.0,3,-2.3944897304999997,-3.7125034905,-1.2136710039999998,-0.29166,-0.1988,0.26028,-2.280242258,-9.380256858,1.7270491314999998,-2.219,1.2748,2.2815,0.0022999999999999687,-0.010440000000000005,-0.0022799999999999487,0.004611953101580468,0.008960076110308135,0.006643188965182567
150000000000.0,3,-2.223559821,-3.6620973094999996,-0.7813154188,-0.36298,-0.11201,0.36461,-2.3094660749999996,-9.3783935945,1.6975311149999999,-2.2046,1.2742,2.265,0.0013999999999998458,-0.012149999999999994,0.0014199999999999768,0.006930954579796866,0.008327163462757747,0.011474257425001522
150000000000.0,3,-2.321626321,-3.0891928164999998,-0.05180853195,-0.38457,0.059617,0.47635,-2.351830803,-9.374372868,1.6614426429999998,-2.1858,1.2728,2.2455,0.0017000000000000348,-0.011909999999999976,0.0011999999999999789,0.00879076937094414,0.006039877630171109,0.01491454608668974
150000000000.0,3,-2.538941685,-2.3568321945,0.6829449126499999,-0.38067,0.33442,0.56233,-2.4070422424999998,-9.367704346,1.6195682474999997,-2.1631,1.2705,2.2243,0.0018000000000000238,-0.01167000000000007,0.0012999999999999678,0.012989394088849027,0.005537948516811442,0.014323372065180973
150000000000.0,3,-2.5176612545,-1.5622974115,1.401762551,-0.38642,0.70632,0.60116,-2.472452598,-9.359270626999999,1.5687698005,-2.1362,1.2676,2.2025,0.0018000000000000238,-0.011399999999999966,0.0015300000000000313,0.014496089209351526,0.0033988773099262737,0.01555744141298554
150000000000.0,3,-2.038410269,-0.7485415944999999,2.165112187,-0.40684,1.0816,0.58979,-2.5435508104999998,-9.350542708499999,1.5063014399999999,-2.1055,1.2646,2.1807,0.0016000000000000458,-0.011050000000000004,0.0016700000000000603,0.014093109426415396,0.002543971816656665,0.014389155748181892
150000000000.0,3,-1.348610508,-0.01921122735,2.8773691765,-0.46709,1.3688,0.50912,-2.612687693,-9.3432857875,1.430594102,-2.0718,1.2622,2.1591,0.0014000000000000679,-0.010689999999999977,0.0018499999999999073,0.016790638018914672,0.0010285657778408286,0.011605714089498953
150000000000.0,3,-0.5627840302,0.51446666565,3.054379209,-0.59948,1.5352,0.3645,-2.6713314599999998,-9.340441858999998,1.338411592,-2.0353,1.2612,2.1365,0.0012999999999998568,-0.010149999999999992,0.0018100000000000893,0.01596852950759775,0.0013125156384650172,0.006775436438184457
150000000000.0,3,0.57110987605,0.7408139543,2.4558793595,-0.77729,1.6157,0.20607,-2.7148729859999996,-9.343187721,1.2268119149999999,-1.9952,1.2621,2.1113,0.001100000000000101,-0.009830000000000005,0.0019099999999999673,0.014627133745399812,0.0017664107994550537,0.0026051408414882182
150000000000.0,3,2.0430193945,0.29060045944999996,1.6244715724999998,-0.94766,1.581,0.080954,-2.7438026035,-9.350738841499998,1.0983448,-1.9516,1.2647,2.0823,0.0007999999999999119,-0.009440000000000004,0.0023100000000000342,0.016834010690551793,0.003500483633726237,-0.0005025097986317562
150000000000.0,3,3.2856200159999998,-0.62594866285,1.2351475675,-1.1117,1.4311,-0.004458,-2.7603758419999997,-9.3613300235,0.9573447863,-1.9046,1.2683,2.0486,0.000600000000000156,-0.009079999999999977,0.0024399999999999977,0.013897669636229404,0.005765946864100258,-0.002995818105634651
150000000000.0,3,3.9908162174999995,-1.4516783994999998,1.140121129,-1.2684,1.1501,-0.043728,-2.7677308294999996,-9.3732941365,0.8078620203499999,-1.8548,1.2724,2.0093,0.0004999999999999449,-0.00875999999999999,0.0027999999999999137,0.014751666894454507,0.007820754494989313,-0.004298211615237246
150000000000.0,3,4.07760507,-1.985846625,0.80603798345,-1.3701,0.74275,0.004847,-2.7726341544999995,-9.383493052499999,0.6578693086,-1.8038,1.276,1.9648,0.00039999999999995595,-0.008480000000000043,0.0027000000000001467,0.014523127960086146,0.009795234558631183,-0.0030173484232887127
150000000000.0,3,3.3959448285,-2.4650976104999995,0.79585868075,-1.4393,0.31693,0.14531,-2.7849905335000003,-9.38888671,0.5125739822,-1.7528,1.2779,1.916,0.00039999999999995595,-0.00831000000000004,0.0026999999999999247,0.015577383989513915,0.010433678545140213,-0.002672131610865325
150000000000.0,3,2.3099564075,-2.9658251594999996,1.1974900314999999,-1.5016,-0.005647,0.35285,-2.813331752,-9.387121512999999,0.37101498944999994,-1.7019,1.2772,1.8635,0.00029999999999996696,-0.008309999999999929,0.0029999999999998916,0.014521547615022223,0.010610778405285792,-0.002302471870979428
150000000000.0,3,1.4195125874999999,-3.351520704,1.5715156625,-1.5477,-0.15789,0.59,-2.8627572679999997,-9.3766283975,0.2302993686,-1.6511,1.2736,1.809,0.00019999999999997797,-0.008360000000000034,0.0031000000000001027,0.0132915982414199,0.010002525836256826,-0.0010412264384944692
150000000000.0,3,0.7852380788,-3.4919519319999996,1.972117315,-1.5724,-0.17283,0.80346,-2.9331690149999994,-9.357309297,0.08843636969999999,-1.6009,1.2669,1.7547,0.000300000000000189,-0.00822999999999996,0.0027999999999999137,0.013636969651032782,0.008382307743334705,0.0004921955348655693
150000000000.0,3,0.40051339265,-3.171274477,2.2207158925,-1.575,-0.14951,0.94538,-3.0186830029999996,-9.3303410095,-0.0543680676,-1.5528,1.2578,1.7025,0.00029999999999996696,-0.008360000000000034,0.0031000000000001027,0.014246427041113341,0.007036226796986789,0.0012950530429369778
150000000000.0,3,0.3481753016,-2.5351170915,1.9632913299999997,-1.5505,-0.11462,1.0083,-3.1118461779999995,-9.297782931499999,-0.1958976404,-1.5079,1.2472,1.654,0.00029999999999996696,-0.008410000000000029,0.0028999999999999027,0.011515216671686535,0.005043201589112867,0.0017980201454381728
150000000000.0,3,0.5339426725499999,-1.9284777224999998,1.583185576,-1.4892,-0.056509,1.0051,-3.2058919514999995,-9.261792525999999,-0.3334261,-1.4672,1.2359,1.6101,0.0004999999999999449,-0.008359999999999923,0.0026000000000001577,0.012774886589769885,0.002992005304230494,0.0032655841068853775
150000000000.0,3,0.7365186416,-1.4257888435,1.4863939405,-1.4124,0.029242,0.93787,-3.294446001,-9.224919521999999,-0.46612968779999997,-1.4302,1.2246,1.571,0.0004999999999999449,-0.008530000000000038,0.0026999999999999247,0.014015487807206961,0.0012124131605342203,0.003604127852709471
150000000000.0,3,1.0384261685,-0.9172355878,1.5188539519999997,-1.3353,0.12996,0.81721,-3.3722127355,-9.189419448999999,-0.59423395675,-1.3964,1.2141,1.5361,0.000700000000000145,-0.008539999999999992,0.0020000000000000018,0.012128479013506777,-0.00029178993786160845,0.004698116857838386
150000000000.0,3,1.3942114304999997,-0.37636942035,1.4844326104999999,-1.2706,0.24362,0.65061,-3.4344849629999996,-9.1573517035,-0.71950410385,-1.3643,1.2049,1.5041,0.0006999999999999229,-0.008819999999999995,0.0020999999999999908,0.013217171531376248,-0.0014909620002598878,0.005517577222216907
150000000000.0,3,1.6943929869999999,0.24851031764999998,1.4950237924999998,-1.2178,0.32117,0.46057,-3.4787129544999997,-9.1300892165,-0.8427148544499999,-1.3331,1.1972,1.4739,0.0007999999999999119,-0.008900000000000019,0.0016000000000000458,0.010789069747935143,-0.0021569097958429317,0.0057845368807685205
150000000000.0,3,1.8131515184999998,0.8895416082,1.4830596795,-1.1684,0.37744,0.27483,-3.5046025105,-9.108220387,-0.96323858295,-1.3026,1.1911,1.445,0.000700000000000145,-0.009029999999999982,0.0012999999999998568,0.00916936850767791,-0.0021533661791854897,0.005214880578543912
150000000000.0,3,1.696746583,1.5825971769999998,1.3988205559999998,-1.1137,0.45068,0.11575,-3.5142130275,-9.0912548825,-1.0811831625,-1.2723,1.1865,1.417,0.0005999999999999339,-0.009099999999999997,0.001100000000000101,0.009297361371090496,-0.0027661749359346732,0.0061825348864688046
150000000000.0,3,1.3341947324999999,2.2859301149999998,1.3669489434999997,-1.0345,0.53541,-0.018756,-3.509407769,-9.078800437,-1.195234502,-1.2425,1.1831,1.3904,0.0005999999999999339,-0.00925999999999999,0.0008999999999999009,0.007671216108228407,-0.002166718785360233,0.004889255036386153
150000000000.0,3,1.0039067605,2.8620708025,1.3055593145,-0.94072,0.59867,-0.10303,-3.4945016609999997,-9.069778319,-1.3033037849999998,-1.2138,1.1807,1.3657,-0.0012999999999998568,-0.01088,0.005300000000000082,0.009414960484583013,-0.004362028338831703,0.008375743097489341
150000000000.0,3,0.7952408618,3.1274387515,1.1481625819999999,-0.82813,0.63828,-0.15201,-3.4730250975,-9.063109797,-1.403135482,-1.1868,1.1789,1.3433,0.00029999999999996696,-0.00930000000000003,0.0006999999999999229,0.006665531282848303,-0.0019853042558954925,0.004379966893857112
150000000000.0,3,0.6682349376499999,3.1220450939999997,0.96663168385,-0.71495,0.63524,-0.17315,-3.4485084725,-9.058206471999998,-1.4925721299999999,-1.1623,1.1776,1.3237,0.0005999999999999339,-0.009050000000000002,-0.0005999999999999339,0.006453065620726672,-0.0015317387602500343,0.005267404063518111
150000000000.0,3,0.7087069822,2.9051219959999997,0.89725944175,-0.62012,0.6206,-0.17189,-3.4231092489999995,-9.054283812,-1.5723001945,-1.1402,1.1765,1.3066,9.999999999998899e-05,-0.00934999999999997,9.999999999998899e-05,0.0054256241961829765,-0.0003349610198335462,0.0028977833766332672
150000000000.0,3,0.8621418281000001,2.6814323095,0.8239547329999999,-0.54687,0.59014,-0.14716,-3.399573289,-9.050459218499999,-1.6437906729999998,-1.1204,1.1755,1.2916,0.0004999999999999449,-0.009150000000000047,-0.0010999999999998789,0.004957713649680784,-0.0020184067943109785,0.004457790493328506
150000000000.0,3,0.9667983968999999,2.508933336,0.7976827176499999,-0.49936,0.55028,-0.10965,-3.3792735234999998,-9.0459481595,-1.7091029619999998,-1.1025,1.1743,1.2783,0.000300000000000189,-0.009279999999999955,-0.0013000000000000789,0.004047198361458726,-0.0013226515383191195,0.004224337270367862
150000000000.0,3,1.042839161,2.37517063,0.80109543185,-0.47421,0.51275,-0.077519,-3.3626022184999997,-9.040554501999999,-1.7700022585,-1.0863,1.1729,1.2663,-0.00019999999999997797,-0.009709999999999996,-0.0005999999999999339,0.0018293466017880178,-0.0004898639637407332,0.0027907897198429232
150000000000.0,3,1.1098185805,2.4150836955,0.71944526395,-0.4426,0.47623,-0.056052,-3.348382576,-9.0343763125,-1.8270769615,-1.0713,1.1713,1.2553,0.0007499999999998064,-0.009690000000000032,-0.0017000000000000348,5.783429581907029e-05,-0.0005635837163366908,0.0009034601443262957
150000000000.0,3,1.1835645885,2.49285043,0.6142101027999999,-0.38954,0.44595,-0.048435,-3.3355358644999997,-9.028590389,-1.8787580069999998,-1.0578,1.1698,1.2456,0.0007500000000000284,-0.008589999999999987,-0.006399999999999961,-0.002744814139829188,0.0018456863781479704,-0.0017353628662397647
150000000000.0,3,1.236618565,2.5480618694999997,0.63189149275,-0.3172,0.41446,-0.054658,-3.322689153,-9.023883197,-1.9232801979999998,-1.0461,1.1686,1.2375,-0.00039999999999995595,-0.010340000000000016,-0.0019000000000000128,-0.004452418533971603,-0.0016214055367083091,3.6592351723818695e-05
150000000000.0,3,1.279571692,2.6228866089999996,0.61786798325,-0.2194,0.36677,-0.059742,-3.3100385744999996,-9.021137335,-1.957995739,-1.0366,1.1678,1.2313,-0.00039999999999995595,-0.010450000000000015,-0.0027000000000001467,-0.005991004112635645,-0.0019438537250286991,-0.0004958758887565473
150000000000.0,3,1.255055067,2.723502838,0.48670403949999996,-0.095184,0.29009,-0.059391,-3.298564794,-9.020548935999999,-1.979766502,-1.0302,1.1677,1.2278,-0.0005999999999999339,-0.01082999999999995,-0.0025999999999999357,-0.00662456979667847,-0.00242505459458231,-0.00014109132519912748
150000000000.0,3,1.2002358935,2.8751136469999996,0.28636398665,0.056583,0.18549,-0.065348,-3.2886600774999994,-9.0230005985,-1.9851601595,-1.0277,1.1683,1.2273,-0.000700000000000145,-0.011050000000000004,-0.0027999999999999137,-0.007274506190021679,-0.0032912917461873636,0.0010661902439728088
150000000000.0,3,1.197588098,3.1143959069999996,0.042727574049999995,0.23197,0.087099,-0.091556,-3.2789514939999997,-9.029374920999999,-1.9720192484999999,-1.0293,1.17,1.2303,-0.0007999999999999119,-0.011270000000000002,-0.0027000000000001467,-0.006940284560593479,-0.003161882264967719,0.0022235803110004504
150000000000.0,3,1.2057276175,3.3274944115,-0.22418982564999998,0.41504,0.000394,-0.14019,-3.266987381,-9.0408487015,-1.9390689044999998,-1.0351,1.173,1.2368,-0.001000000000000112,-0.011429999999999996,-0.0028999999999999027,-0.007638092372846961,-0.0038234393690370627,0.0034860114847381496
150000000000.0,3,1.193861571,3.3773121934999994,-0.40572072379999996,0.57718,-0.042436,-0.20174,-3.2508064085,-9.057225806999998,-1.8892511224999997,-1.0443,1.1773,1.2464,-0.0009999999999998899,-0.01151000000000002,-0.0029000000000001247,-0.0054075700819202766,-0.0027768400825791684,0.003630363290418437
150000000000.0,3,1.08265416,3.2456088839999997,-0.44048529805,0.70247,-0.021031,-0.2592,-3.2290356454999998,-9.0777217055,-1.8272730944999998,-1.0558,1.1828,1.2585,-0.001000000000000112,-0.011519999999999975,-0.0025999999999999357,-0.0035755450156826907,-0.0020141128686506082,0.004374161166257995
150000000000.0,3,0.91245974925,2.929246355,-0.51427053265,0.78675,0.088071,-0.29661,-3.2017731585,-9.100767332999999,-1.7592149434999997,-1.0684,1.1891,1.2727,-0.0007999999999999119,-0.011230000000000018,-0.0027999999999999137,-0.0007135158360345173,-0.0003296987953895769,0.004821114870202425
150000000000.0,3,0.80968605725,2.2678858789999996,-0.8546789674499999,0.81775,0.21571,-0.31812,-3.169901546,-9.124891691999998,-1.6907645265,-1.0808,1.1957,1.288,-0.0005999999999999339,-0.010819999999999996,-0.0028000000000001357,0.002491605902881,0.0018514478566420411,0.005070475924584983
150000000000.0,3,0.6372753435999999,1.3019308539999999,-1.4015664179999998,0.76087,0.31314,-0.30985,-3.136362803,-9.1477411865,-1.6285903654999998,-1.0919,1.2021,1.303,-0.000500000000000167,-0.01039000000000001,-0.0024999999999999467,0.005411125997607957,0.0029580199244776395,0.005764951478695046
150000000000.0,3,0.20165414395,0.28234326015,-2.089600982,0.59787,0.38155,-0.24835,-3.105962188,-9.166471888,-1.58083198,-1.1,1.2075,1.3156,-0.00039999999999995595,-0.010149999999999992,-0.0021999999999999797,0.0090516638821172,0.0025211090495860233,0.005183171320455315
150000000000.0,3,-0.5768663796,-0.45435190114999996,-2.462449815,0.37975,0.40984,-0.11108,-3.0858585554999998,-9.1779456685,-1.55337336,-1.1044,1.2108,1.3247,-0.0004999999999999449,-0.010250000000000009,-0.0015000000000000568,0.012197081980843683,0.0005378768406625323,0.0042354013998529005
150000000000.0,3,-1.492179864,-0.8059889501999999,-1.6248638385,0.15482,0.4264,0.091305,-3.0827204275,-9.1801031315,-1.5469990375,-1.1057,1.2114,1.3305,-0.00029999999999996696,-0.010459999999999997,-0.0012699999999999934,0.014144643460522133,-0.0011818616067338361,0.003942148557025682
150000000000.0,3,-2.0461575224999997,-1.0367590379999998,0.42165653005,-0.096511,0.46771,0.27759,-3.0974304025,-9.1722578115,-1.5638664755,-1.1033,1.2091,1.3328,-0.0004999999999999449,-0.011050000000000004,-0.0009599999999999609,0.014553802010169647,-0.0007900186293030576,0.0017886552916555054
150000000000.0,3,-1.6572257835,-1.6848805365,1.920926602,-0.40556,0.54373,0.32709,-3.1189069659999995,-9.157057503999999,-1.6099577305,-1.0943,1.2048,1.3288,-0.000500000000000167,-0.011580000000000007,-0.0010200000000000209,0.01415181132728538,-0.0005775197844672952,0.0030064063309169775
150000000000.0,3,-0.3909126823,-2.8486356919999998,1.2527995375,-0.74101,0.56683,0.23574,-3.1339111405,-9.13783647,-1.6879205979999998,-1.0768,1.1993,1.3161,-0.0006999999999999229,-0.012309999999999988,-0.0009299999999999864,0.010558347712073424,0.0012986753787793681,0.004332523956320333
150000000000.0,3,0.2330452306,-3.6744536885,-0.8616318822999999,-1.038,0.54494,0.068749,-3.1344995395,-9.117438638,-1.7937343514999997,-1.051,1.1937,1.2944,-0.001100000000000101,-0.012990000000000002,-0.0007399999999999629,0.007681463847047265,0.0030262730018546513,0.005701882951086645
150000000000.0,3,-0.09992976349999999,-3.881275937,-3.2155024685,-1.2395,0.49665,-0.052131,-3.1225354265000003,-9.096060141,-1.9186710724999998,-1.0198,1.1878,1.2663,-0.0012999999999998568,-0.013600000000000001,-0.0006500000000000394,0.003080121123833379,0.004376613290759446,0.0072806847808402075
150000000000.0,3,-1.0628447269999999,-3.263849253,-4.922153768,-1.2963,0.4694,-0.045777,-3.1080215845,-9.072131915,-2.050962781,-0.98749,1.1813,1.2365,-0.0014000000000000679,-0.013940000000000008,-0.00046000000000001595,0.0020436446506391093,0.003875288391521625,0.008277134191069457
150000000000.0,3,-2.4800037185,-1.699884711,-5.1807551285,-1.1817,0.46407,0.076114,-3.1020395279999997,-9.0449674945,-2.176095635,-0.95905,1.1741,1.2107,-0.0014000000000000679,-0.014029999999999987,0.000260000000000038,0.0011988491296808235,0.0008737994322665088,0.00965230632969627
150000000000.0,3,-3.460570652,0.0682346707,-4.423583681999999,-0.88366,0.49551,0.27084,-3.111061646,-9.016528209499999,-2.278869327,-0.9386,1.1666,1.1938,-0.0013999999999998458,-0.013980000000000006,0.0009000000000000119,-0.0010191931185006275,-0.0005258293993779528,0.008239661409243926
150000000000.0,3,-3.6404246129999995,1.10422879,-3.4606687184999996,-0.48102,0.53036,0.46041,-3.136558936,-8.9900502545,-2.3475158769999998,-0.9283,1.1598,1.1882,-0.0017000000000000348,-0.013730000000000006,0.0018799999999999928,-0.004922030525702947,-0.001145777964129513,0.003742587827427979
150000000000.0,3,-3.233448638,1.164441621,-2.5767953539999997,-0.12547,0.62536,0.56013,-3.1711764104999998,-8.9680833585,-2.3850753465,-0.92595,1.1542,1.1922,-0.0019000000000000128,-0.013404,0.00268999999999997,-0.010000914091042645,-0.0017554079900106156,-0.0001457440715157965
150000000000.0,3,-2.5597317829999997,0.27447832685,-1.6841940709999998,0.093259,0.7174,0.4931,-3.2011847595,-8.9525888515,-2.403021516,-0.92686,1.1504,1.2009,-0.0020999999999999908,-0.012907000000000002,0.0030000000000001137,-0.01111068706342877,-0.0018906924114108214,-0.003094080969664681
150000000000.0,3,-1.584362374,-1.699884711,-1.013419211,0.20749,0.73797,0.299,-3.2149140695,-8.945626129999999,-2.4105726365,-0.92742,1.1486,1.2096,-0.0021999999999999797,-0.012509999999999993,0.0028999999999999027,-0.00880932690224201,-0.004114039296006622,-0.003035670266823942
150000000000.0,3,-0.35379451204999995,-4.362390186,-0.77298957295,0.36723,0.57383,0.096755,-3.2126585399999996,-8.9486661915,-2.4023350504999996,-0.92873,1.1494,1.2179,-0.0021999999999999797,-0.012049999999999998,0.0031000000000001027,-0.007001041353071669,-0.003246599874487055,-0.003191809865275008
150000000000.0,3,0.6779042945499999,-7.177879401,0.0329895706,0.6859,0.17389,-0.048222,-3.2045190205,-8.9632781,-2.3582051254999996,-0.93638,1.153,1.2294,-0.0021999999999999797,-0.011785000000000004,0.0026999999999999247,-0.009543390762174697,-0.00673365496738465,-0.0007588796708772882
150000000000.0,3,1.4238275135,-9.018979872,1.8376681435,1.0202,-0.24647,-0.15044,-3.1967717669999995,-8.989363789,-2.2678858789999996,-0.95378,1.1596,1.2468,-0.0020000000000000018,-0.011347999999999997,0.0024999999999999467,-0.0009974341002843001,-0.0036921567585965764,-0.0032182079411398057
150000000000.0,3,2.1865887505,-8.676139388,3.5727587279999997,0.97693,-0.37816,-0.24101,-3.185396053,-9.018783739,-2.164523788,-0.97396,1.1672,1.2647,-0.0016000000000000458,-0.011011,0.0020000000000000018,0.004320751859061778,-0.00504899070503817,-0.004431419194184105
150000000000.0,3,2.830003057,-5.8868339285,2.5439430764999997,0.65998,-0.33492,-0.37186,-3.162252359,-9.0453597605,-2.086266721,-0.98759,1.1742,1.2758,-0.0018000000000000238,-0.011197500000000003,0.0017000000000000348,-0.0025858353474244034,-0.0031052208163504513,-0.0017967218813241814
150000000000.0,3,3.6729826909999996,-2.7251699685,0.5271172441499999,0.33309,-0.30018,-0.44934,-3.1292039485,-9.067620856,-2.0389006015,-0.99331,1.1801,1.2786,-0.0016000000000000458,-0.010996599999999999,0.0014000000000000679,-0.0016625337731646095,-0.0037672558020853675,-0.0028339824817602555
150000000000.0,3,3.8439126004999995,-0.67470732665,1.1580672985,0.044327,-0.25517,-0.45312,-3.09301741,-9.084096028,-2.0206602325,-0.9921,1.1845,1.2744,-0.0014000000000000679,-0.0108169,0.0010999999999998789,-0.004225119529079668,-0.004718493331712814,-0.0015409714492617965
150000000000.0,3,2.565223507,0.75319975325,1.218182063,-0.090081,-0.2413,-0.4363,-3.0580076695,-9.096256274,-2.019189235,-0.98721,1.1878,1.2665,-0.0014999999999998348,-0.010572999999999999,0.001000000000000112,-0.00489846276849315,-0.00453571478041459,-0.0009041981085671225
150000000000.0,3,0.9285622685499999,2.10058443,1.5903444305,-0.10596,-0.22199,-0.43103,-3.0232921285,-9.107239722,-2.0220331635,-0.98131,1.1908,1.2577,-0.0015000000000000568,-0.010490000000000003,0.0006999999999999229,-0.00894054032927527,-0.004581015751030426,-0.0008711777522405484
150000000000.0,3,0.16526166579999998,3.0299606505,2.45754649,-0.057736,-0.19787,-0.43419,-2.9879881885,-9.118713502499999,-2.0226215625,-0.97574,1.194,1.2495,-0.0020000000000000018,-0.010585999999999998,0.0009000000000001229,-0.017208401302545084,-0.002424263049297881,-0.00109388939366184
150000000000.0,3,0.13767555934999998,3.109688715,2.710361927,0.040363,-0.21784,-0.45426,-2.9513113174999996,-9.132344746,-2.0152665749999996,-0.97168,1.1978,1.2429,-0.0022999999999999687,-0.010978000000000002,0.0008999999999999009,-0.03085219596368316,-0.0023587468649728383,0.0017983789008089168
150000000000.0,3,0.5791022957999999,2.8025444369999994,3.5516744305,0.2648,-0.17918,-0.46782,-2.9126731164999997,-9.149898649499999,-1.9914364155,-0.97109,1.2027,1.2401,-0.0020999999999999908,-0.010125000000000002,0.0009999999999998899,-0.017989264553494255,0.0004361827152279396,-0.003107016063248036
150000000000.0,3,1.0823599604999998,2.3687963075,4.908228325,0.6774,-0.085609,-0.47154,-2.87138712,-9.174611407499999,-1.9370095079999998,-0.97734,1.2098,1.2457,-0.0020999999999999908,-0.009639999999999996,0.0009000000000001229,-0.013839478406901362,0.004766232227816802,-0.0027763670645413185
150000000000.0,3,1.4577585225,1.5940709574999998,5.6685378995,1.2061,-0.1124,-0.41827,-2.8330431184999996,-9.207365618499999,-1.8354126139999998,-0.99592,1.2194,1.2645,-0.0019000000000000128,-0.009176000000000004,0.0007999999999999119,-0.007383510491707934,0.006319852667388881,-0.001865231358086028
150000000000.0,3,1.4234352474999998,0.5414643731,5.433080232999999,1.5986,-0.30227,-0.26782,-2.8086245599999997,-9.242865691499999,-1.6885089969999998,-1.0295,1.2301,1.2976,-0.0017000000000000348,-0.008958999999999995,0.000700000000000145,-0.006023737999024226,0.007280860437393288,-0.0013158956107224284
150000000000.0,3,0.7937894776,-0.81449131575,4.1414463615,1.7004,-0.49729,-0.023932,-2.807643895,-9.272579841,-1.5188539519999997,-1.0749,1.2392,1.3408,-0.0015000000000000568,-0.008937,0.0006999999999999229,-0.005185533247169527,0.005841819743867216,-0.0003505913607324551
150000000000.0,3,-0.10236181269999998,-1.9443644955,2.230228343,1.5219,-0.49718,0.25649,-2.832356653,-9.2901337445,-1.3573384265,-1.1239,1.2448,1.3871,-0.0012999999999998568,-0.008930000000000007,0.0004999999999999449,-0.004241816486679317,0.004669599375568101,-0.0010904961551871928
150000000000.0,3,-0.82531785735,-2.2091440455,0.8832555455499999,1.1601,-0.35912,0.49685,-2.8785459745,-9.293762205,-1.2290674444999998,-1.1673,1.2459,1.4287,-0.0012000000000000899,-0.009169999999999998,0.00029999999999996696,-0.006330716944388026,0.0019181710292499599,-0.0007797820424091384
150000000000.0,3,-1.040485565,-1.7192038115,0.11190368314999999,0.7784,-0.23785,0.64221,-2.9386607389999995,-9.2862110845,-1.140513395,-1.2006,1.2436,1.4611,-0.001100000000000101,-0.00921000000000001,0.000300000000000189,-0.006814751405485264,-2.6534375700437707e-05,-0.0010555944190535627
150000000000.0,3,-0.9322691822499999,-0.6143866225,0.061497502149999994,0.5428,-0.1997,0.66521,-3.0028942964999996,-9.272972107,-1.0798102315,-1.2256,1.2394,1.4854,-0.0010999999999998789,-0.009239999999999998,-5.0000000000105516e-05,-0.008072077183465032,-0.0015284550026102295,-0.0012583182662133652
150000000000.0,3,-0.6712848057999999,0.7400686489,0.6838569311,0.50072,-0.18327,0.57011,-3.0605573984999994,-9.260027329,-1.02773692,-1.2468,1.2353,1.5058,-0.0012000000000000899,-0.009099999999999997,-5.0000000000105516e-05,-0.008769945563319004,-0.0011183286732583397,-0.0020273378968500566
150000000000.0,3,-0.23703653715,1.648497865,1.1780728645,0.59465,-0.15615,0.39197,-3.1030201929999994,-9.251985875999999,-0.97026014435,-1.2677,1.2329,1.5263,-0.0007999999999999119,-0.008849999999999997,-0.00029999999999996696,-0.005575470733857335,-0.0027406540441712313,-0.0016233800097631423
150000000000.0,3,0.38684292255,1.9294583875,1.166010685,0.74439,-0.1124,0.17334,-3.1253793549999997,-9.251495543499999,-0.9011232618499999,-1.2901,1.2327,1.5486,-0.0013000000000000789,-0.008809999999999985,-0.00029999999999996696,-0.008278451872599346,6.627378768131464e-05,-0.005846093252827256
150000000000.0,3,1.2066102159999998,1.8422772689999998,0.9616400989999999,0.87457,-0.10793,-0.035656,-3.127536818,-9.2583601985,-0.81963000035,-1.3145,1.2348,1.5734,-0.0010999999999998789,-0.00877,-0.0005999999999999339,-0.007871915356025827,-0.0005292800760046124,-0.006114914555357842
150000000000.0,3,1.9141600134999999,1.6817424085,1.0833406255,0.93359,-0.16154,-0.19023,-3.1141017074999997,-9.270422378,-0.7292617205999999,-1.3408,1.2386,1.5997,-0.001100000000000101,-0.008190000000000003,-0.0008000000000001339,-0.004435066144231392,0.0029650028604402134,-0.008388811887133585
150000000000.0,3,2.0414503305,1.553765626,1.2618216555,0.90646,-0.25609,-0.24989,-3.0933116094999997,-9.2842497545,-0.6369223042000001,-1.3677,1.2429,1.6257,-0.0009999999999998899,-0.008739999999999998,-0.0006999999999999229,-0.007988733690445171,-0.0004647236095716156,-0.004134893085852465
150000000000.0,3,1.655950919,1.3781285245,1.1008945289999998,0.83617,-0.35784,-0.22421,-3.07340411,-9.296508067,-0.5471130034999999,-1.3946,1.2468,1.6506,-0.0009000000000001229,-0.008840000000000015,-0.0008999999999999009,-0.007077605612309856,-0.0007986382173721385,-0.003707570874966759
150000000000.0,3,1.072455244,1.147770316,0.77000835135,0.77864,-0.44055,-0.15905,-3.0591844674999997,-9.305922450999999,-0.46041241084999995,-1.4214,1.2498,1.6744,-0.0007999999999999119,-0.00902,-0.0008000000000001339,-0.0070807945622017865,-0.001481899779284479,-0.0022696915745381574
150000000000.0,3,0.60864973225,1.0633350595,0.574865823,0.74701,-0.49043,-0.10138,-3.0505546155,-9.3124929065,-0.37554566175,-1.4483,1.252,1.6976,-0.000700000000000145,-0.009149999999999991,-0.0009999999999998899,-0.007922856579149595,-0.002936529172868463,-0.0017238407944910605
150000000000.0,3,0.26416173104999996,1.115800637,0.49350985459999996,0.72552,-0.49667,-0.08006,-3.044572559,-9.317494298,-0.29239507639999995,-1.4751,1.2536,1.7206,-0.0004999999999999449,-0.009349999999999997,-0.0012000000000000899,-0.00851804482843943,-0.00387998287645952,-0.001019866974559136
150000000000.0,3,-0.0230848541,1.136394602,0.4259812627,0.6992,-0.45808,-0.08978,-3.0379040369999997,-9.321809223999999,-0.2122943592,-1.501,1.255,1.7429,-0.00039999999999995595,-0.00953000000000001,-0.0011999999999998678,-0.009219263661593757,-0.0038252729679593145,-0.0006578005146415933
150000000000.0,3,-0.3579819516,1.105993987,0.42137213719999994,0.67874,-0.37794,-0.13799,-3.0270186554999996,-9.3268106155,-0.13645953475,-1.5257,1.2567,1.7647,-0.00039999999999995595,-0.009620000000000017,-0.0013000000000000789,-0.009815252765110305,-0.0036589966455273792,-0.0008657807992586974
150000000000.0,3,-0.6601542580499999,1.1415921265,0.3023390195,0.68076,-0.29797,-0.20004,-3.0101512175,-9.332988805,-0.0636647718,-1.5496,1.2587,1.7865,-0.00019999999999997797,-0.00927,-0.0015000000000000568,-0.006650867013234363,-0.0037959025141802716,-0.004872893975841119
150000000000.0,3,-0.7730484128499999,1.201903024,0.11174677675,0.71125,-0.25554,-0.25663,-2.987497856,-9.3405399255,0.0099047165,-1.5741,1.2612,1.8095,-0.00029999999999996696,-0.009729999999999961,-0.0015000000000000568,-0.00989393756917134,-0.0030994647928193064,-0.004153645938112849
150000000000.0,3,-0.7859441576,1.3376270599999998,0.027752819499999998,0.75627,-0.25161,-0.29178,-2.960823768,-9.348581378499999,0.0870242121,-1.6002,1.264,1.8342,-0.000400000000000178,-0.00986999999999999,-0.0015999999999998238,-0.00918972943865004,-0.00288109496357003,-0.004047893148731774
150000000000.0,3,-0.7751764559,1.5011039155,-0.00406975975,0.80318,-0.26477,-0.30662,-2.9320902834999996,-9.356524765,0.16882147975,-1.6283,1.2666,1.8609,-0.00029999999999996696,-0.009970000000000034,-0.0015000000000000568,-0.008034451844852297,-0.0034988684494920985,-0.004644761529790653
150000000000.0,3,-0.6721281777,1.495906391,-0.06514557594999999,0.85084,-0.3046,-0.30007,-2.9031606660000002,-9.363585553,0.25608105145,-1.6588,1.269,1.8898,-9.999999999998899e-05,-0.010079999999999978,-0.0016000000000000458,-0.007517667704742159,-0.0034427738067284164,-0.004465561754249947
150000000000.0,3,-0.5818285445,1.294085534,-0.16831153395,0.88347,-0.35496,-0.29031,-2.8746233145,-9.3693714765,0.3481753016,-1.6913,1.2711,1.9203,5.0000000000105516e-05,-0.010140000000000038,-0.0016000000000000458,-0.006127868175443085,-0.004461624375016626,-0.0038963805815028785
150000000000.0,3,-0.5734144388,0.997924704,-0.34258551109999996,0.8895,-0.39657,-0.28383,-2.8463801625,-9.373980602,0.4426917943,-1.7251,1.2727,1.9516,4.999999999988347e-05,-0.010209999999999997,-0.0018000000000000238,-0.005264199271036052,-0.0051277528011119955,-0.003536313865719176
150000000000.0,3,-0.6772766689499999,0.7290753942499999,-0.51654567545,0.85849,-0.41123,-0.29239,-2.8172544119999996,-9.3780013285,0.53584516265,-1.7588,1.274,1.9825,0.00019999999999997797,-0.010189999999999977,-0.0016999999999998128,-0.0036488590802266074,-0.004568304446004534,-0.0026316557513856864
150000000000.0,3,-0.87799918115,0.5543699244999999,-0.6896820812,0.79995,-0.40752,-0.31598,-2.7857750654999998,-9.3819239885,0.62398733285,-1.7912,1.2754,2.0121,0.00029999999999996696,-0.010160000000000002,-0.0017000000000000348,-0.004014127410901569,-0.0037727971724235143,-0.0031387774284179493
150000000000.0,3,-1.106386253,0.5868985825499999,-0.7428145109,0.72546,-0.3973,-0.33855,-2.7518440565,-9.3862389145,0.7049608419,-1.8216,1.2769,2.0397,0.00020000000000020002,-0.010189999999999977,-0.0019000000000000128,-0.0029740795392656505,-0.0032789373516939335,-0.0032537004224626465
150000000000.0,3,-1.2480923455,0.67633523055,-0.7478355157000001,0.64272,-0.35396,-0.36545,-2.715461385,-9.391044173,0.7773143055999999,-1.8496,1.2786,2.0651,0.0004999999999999449,-0.009760000000000046,-0.0020999999999999908,-0.008471328548629531,-0.0033358824332527792,0.0005962961574348391
150000000000.0,3,-1.1520852419999998,0.7062357063999999,-0.66246862745,0.55585,-0.29035,-0.38813,-2.677019317,-9.39673203,0.8399395725,-1.8748,1.2806,2.0883,0.00019999999999997797,-0.009899999999999964,-0.0018400000000000638,-0.00451224241201631,-0.002436662856285743,-0.004284742705795264
150000000000.0,3,-0.85583615215,0.7074517309999999,-0.44575146909999996,0.46549,-0.25018,-0.38942,-2.6380869165000003,-9.402910219499999,0.8925718630499999,-1.8971,1.2828,2.1088,0.00019999999999997797,-0.009800000000000031,-0.0019599999999999618,-0.003435965224801718,-0.00200618344039305,-0.006434200655919042
150000000000.0,3,-0.4768973895,0.6107091287499999,-0.26949654864999995,0.39277,-0.26238,-0.37459,-2.599939048,-9.409088408999999,0.9377707129,-1.917,1.2851,2.1269,9.999999999998899e-05,-0.009799999999999975,-0.0020299999999999763,-0.0013376829386197997,-0.00275985952182789,-0.008198443636091568
150000000000.0,3,-0.10231277944999999,0.54906452685,-0.19864350239999998,0.33661,-0.33015,-0.34788,-2.56345831,-9.414972399,0.9787036699999999,-1.9355,1.2872,2.1429,9.999999999998899e-05,-0.009709999999999996,-0.0019900000000000473,-0.0009046208293204128,-0.0013855199840200338,-0.008550857922052568
150000000000.0,3,0.19132774149999998,0.5075333640999999,-0.1981139433,0.28357,-0.40753,-0.31795,-2.5289389019999997,-9.42026799,1.0166554054999999,-1.953,1.2891,2.1571,0.00039999999999995595,-0.009720000000000006,-0.0019700000000000273,-0.0013391499906039162,-0.0009294337424057275,-0.008296812449910984
150000000000.0,3,0.38259664309999997,0.45557773239999994,-0.0486605973,0.22511,-0.48488,-0.2731,-2.4880451714999996,-9.4272307115,1.052253545,-1.9709,1.2917,2.1707,0.00019999999999997797,-0.009809999999999985,-0.0018799999999999928,-0.002154760316009696,0.0019689044702628777,-0.007727638131955317
150000000000.0,3,0.38735286835,0.41670417179999997,0.28827628339999994,0.16878,-0.54523,-0.19838,-2.461665283,-9.4307611055,1.0827522264999998,-1.9852,1.293,2.18,0.0024000000000001798,-0.007230000000000014,-0.0021900000000000253,-0.010311364213565266,0.003361799984745728,0.03783273678118615
150000000000.0,3,0.0841018304,0.3146365586,0.65670231725,0.1201,-0.56199,-0.091691,-2.444209446,-9.432232102999999,1.1090340484999999,-1.9968,1.2936,2.1862,0.0005999999999999339,-0.010110000000000008,-0.0020799999999999708,-0.0012712267649523934,0.001457090711869835,-0.003699697584752304
150000000000.0,3,-0.39753217104999994,0.0776490547,0.73254694835,0.079308,-0.52128,0.023446,-2.4376389905,-9.4313495045,1.1304125454999998,-2.005,1.2932,2.1893,0.0005999999999999339,-0.010270000000000001,-0.0017599999999999838,-0.0023322288670033497,0.001791154154843877,-0.0027950894881070276
150000000000.0,3,-0.86254390075,-0.15082627699999998,0.5102988394,0.048356,-0.46359,0.11829,-2.441267451,-9.4284075095,1.1472799834999998,-2.0101,1.2921,2.1896,0.0009000000000001229,-0.010660000000000003,-0.0013100000000000334,-0.0009579270893846914,-0.0004998172041481563,-0.0062691913411154765
150000000000.0,3,-1.300950189,-0.2128631449,0.16401622124999998,0.034622,-0.41132,0.17475,-2.451858633,-9.423994516999999,1.1610092934999998,-2.013,1.2905,2.1882,0.0007999999999999119,-0.010819999999999996,-0.0008899999999999464,-0.0009858534808819819,-0.0001244549716208354,-0.006641693886313416
150000000000.0,3,-1.6803694775,-0.17603917415,-0.07134337874999999,0.037918,-0.39005,0.18966,-2.4650976104999995,-9.418895058999999,1.1741502045,-2.0153,1.2886,2.1865,0.001000000000000112,-0.010919999999999985,-0.0005300000000000304,-0.0013032317277499317,0.0005244847370333705,-0.0070594241845514105
150000000000.0,3,-2.060573298,-0.19908480164999998,-0.3021821131,0.034779,-0.39426,0.17045,-2.4770617235,-9.4140898005,1.1872911154999999,-2.0178,1.2869,2.185,0.0010999999999998789,-0.010919999999999985,-0.000140000000000029,0.0017046795664519276,-0.0004163051876422408,-0.005941807808858002
150000000000.0,3,-2.3809565535,-0.5331091072999999,-0.6673131125499999,0.031455,-0.4283,0.14061,-2.485985775,-9.4099710075,1.2007262259999998,-2.0208,1.2854,2.1838,0.0012000000000000899,-0.011029999999999984,0.00019000000000002348,0.003852461954938935,-0.000468251569334166,-0.006277740041392477
150000000000.0,3,-2.56541964,-1.212690339,-0.9586686840499999,0.019356,-0.48892,0.11615,-2.4917716984999996,-9.406734813,1.2147497354999999,-2.0244,1.2842,2.1826,0.0013999999999998458,-0.011220000000000008,0.0005600000000000049,0.0019223455472017204,0.00026912096643139094,-0.005728561719294589
150000000000.0,3,-2.542275946,-2.1471660175,-1.119527164,-0.015173,-0.54935,0.096983,-2.4947136935,-9.404185084,1.2276945135,-2.0281,1.2833,2.1809,0.0014000000000000679,-0.011360000000000037,0.0005399999999999849,0.00032908892399308165,0.002415295720209265,-0.0037270499055139794
150000000000.0,3,-2.3038762845,-2.9055142619999996,-0.8060477900999999,-0.10799,-0.55497,0.086158,-2.4960866244999997,-9.4031063525,1.2338727029999998,-2.0299,1.2829,2.1769,0.0015000000000000568,-0.011369999999999991,0.0010000000000000009,-0.0016089037692659236,0.006600217493715199,0.0005417635499687101
150000000000.0,3,-2.04762852,-3.38525558,-0.27339959534999997,-0.21775,-0.52425,0.10833,-2.4989305529999997,-9.402910219499999,1.229165511,-2.0279,1.2829,2.1693,0.0019000000000000128,-0.011519999999999975,0.0011100000000000554,0.00431612126789549,0.0026616747571346355,0.0007721867974890273
150000000000.0,3,-2.1699174455,-3.5779562525,0.0584672473,-0.2836,-0.45556,0.15826,-2.5066778065,-9.40261602,1.2155342675,-2.0223,1.2827,2.1585,0.0020999999999999908,-0.01149,0.0013999999999999568,0.004675929784771826,0.004283525891987994,0.003012876872530601
150000000000.0,3,-2.610726363,-3.4234034485,0.17610782069999997,-0.30002,-0.3287,0.23059,-2.5222703799999997,-9.400850822999999,1.1967054995,-2.0138,1.2821,2.1458,0.0023999999999999577,-0.011190000000000033,0.0015300000000000313,0.005312241441625565,0.006444920388000375,0.009149316286759746
150000000000.0,3,-3.0354523745,-2.9160073774999997,0.48238911349999997,-0.28715,-0.1424,0.30287,-2.5467870049999997,-9.397124296,1.174248271,-2.0028,1.2808,2.1324,0.0025999999999999357,-0.011070000000000024,0.0012999999999999678,0.006695031308920907,0.004915672144109706,0.011459068461563415
150000000000.0,3,-3.2604169254999995,-2.2264037494999998,1.0149882749999999,-0.28665,0.095157,0.36863,-2.580325748,-9.3913383725,1.146593518,-1.9889,1.2787,2.1182,0.0031000000000001027,-0.01083999999999996,0.0018799999999999928,0.011636299459023336,0.0034993599161303734,0.012769907701431826
150000000000.0,3,-3.1564664354999996,-1.6786042804999999,1.5335639269999999,-0.30815,0.3734,0.41934,-2.622102077,-9.384179518,1.1104069795,-1.9714,1.2762,2.1031,0.0030999999999998806,-0.010589999999999988,0.0017000000000000348,0.011395388537240647,0.0032206828465257686,0.015111074790747026
150000000000.0,3,-2.8727600509999998,-1.2698631084999998,2.1064684199999997,-0.36239,0.67646,0.44219,-2.6698604625,-9.376334197999999,1.061864062,-1.9493,1.2734,2.0863,0.0032000000000000917,-0.010360000000000036,0.0017399999999999638,0.01703935201567708,-0.0016692068960331152,0.013995971012410902
150000000000.0,3,-2.4445036454999998,-0.9002896965999999,2.7814601394999996,-0.44224,0.95313,0.42235,-2.719384045,-9.369077276999999,0.99831697,-1.9226,1.2709,2.0677,0.0040000000000000036,-0.00939000000000001,0.0018900000000000583,0.03581165872993686,-0.0043104899402715,0.007787427994418561
150000000000.0,3,-1.8341377495,-0.5670401163,3.1401873964999996,-0.55841,1.1833,0.33849,-2.764298502,-9.3640758855,0.9180299264499999,-1.8914,1.2692,2.0468,0.0027999999999999137,-0.009429999999999938,0.0015199999999999658,0.016362807677622992,-0.0020187243343046113,0.012459727526358932
150000000000.0,3,-0.8329964643,-0.306359746,2.929638621,-0.70737,1.3989,0.17347,-2.796464314,-9.363781686,0.8179922897999999,-1.8554,1.2691,2.0231,0.0025000000000001688,-0.009050000000000002,0.0014600000000000168,0.01652726583363462,-0.004624181051762655,0.0076908044740724435
150000000000.0,3,0.7681647011499999,-0.03292092405,2.50461841,-0.85774,1.5591,-0.0128,-2.811174289,-9.369077276999999,0.6982040600499999,-1.8142,1.271,1.9961,0.0024999999999999467,-0.009080000000000088,0.0016499999999999293,0.015432549099163584,0.0011061132899718995,-0.0013394918965579095
150000000000.0,3,2.3513404705,0.10333267104999999,2.230620609,-0.99786,1.5508,-0.16887,-2.8086245599999997,-9.378883927,0.56375488855,-1.7689,1.2744,1.965,0.0018000000000000238,-0.008489999999999998,0.0013000000000000789,0.01772078667987631,-0.0005821409982218473,-0.003114228017184306
150000000000.0,3,3.4019268849999995,-0.014317708999999998,1.842669535,-1.1312,1.3474,-0.27975,-2.7916590555,-9.391436439,0.42123484409999995,-1.7206,1.2788,1.9292,0.0019000000000000128,-0.00822999999999996,0.0016000000000000458,0.013099711791890511,0.004801657354968736,-0.0038930081140398087
150000000000.0,3,4.003859061999999,-0.047424959399999994,1.3492969734999998,-1.2745,1.0066,-0.33063,-2.7651811005,-9.404773483,0.27412528745,-1.6696,1.2835,1.8876,0.0014999999999998348,-0.008079999999999976,0.0018000000000000238,0.011024141485858063,0.006682177015899349,-0.0055091931006594486
150000000000.0,3,4.201561126,-0.24321472665,0.7586816706,-1.405,0.59629,-0.28851,-2.7378205469999997,-9.415854997499999,0.12537802025,-1.6166,1.2876,1.8396,0.0013000000000000789,-0.007920000000000038,0.0017999999999998018,0.012145008588491546,0.005382162480141339,-0.006618207637375306
150000000000.0,3,3.9282497905,-0.62067268515,0.11333545404999999,-1.4881,0.16952,-0.13846,-2.720756976,-9.421640921,-0.0207116448,-1.5632,1.2897,1.7869,0.0015000000000000568,-0.008079999999999976,0.0019000000000000128,0.009124639520025957,0.011349456421215098,-0.006606780356301911
150000000000.0,3,3.0965478039999996,-1.184447187,-0.12111212749999999,-1.507,-0.16838,0.10654,-2.7246796359999994,-9.4191892585,-0.16034853415,-1.512,1.2888,1.7327,0.0011999999999998678,-0.007410000000000028,0.0020999999999999908,0.015615785384186287,0.00883177166723903,-0.002446172043370609
150000000000.0,3,1.894252514,-1.9390689044999998,0.39427636324999993,-1.4716,-0.37356,0.38982,-2.7553744504999997,-9.407127079,-0.29087504565,-1.4656,1.2844,1.6809,0.0014000000000000679,-0.007929999999999993,0.0023000000000001908,0.007517252108568906,0.009117729969798205,-0.0013060602810912592
150000000000.0,3,0.73142899025,-2.5158960575,1.4444214785,-1.4158,-0.44354,0.64088,-2.8116646215,-9.3858466485,-0.41337971745,-1.4248,1.2768,1.6338,0.0013000000000000789,-0.008079999999999976,0.0022999999999999687,0.008271031386917649,0.00628197287989507,-0.00046983664556865534
150000000000.0,3,-0.07728620865000001,-2.6544640219999995,2.1956108684999998,-1.3588,-0.41968,0.81065,-2.886293228,-9.357309297,-0.5301278857,-1.3892,1.2669,1.592,0.0013999999999998458,-0.007909999999999973,0.0023999999999999577,0.01059510327269475,0.005214047372033681,0.0017213952312316039
150000000000.0,3,-0.37175048819999995,-2.435383461,2.1650141205,-1.2839,-0.33726,0.88536,-2.9699439525,-9.3240647535,-0.64152162305,-1.3581,1.2558,1.5555,0.0015000000000000568,-0.008029999999999982,0.0025999999999999357,0.011341159457762373,0.001745240086920452,0.0017114473498600624
150000000000.0,3,-0.2279849992,-2.0718509455,1.7363654489999998,-1.1783,-0.2241,0.87467,-3.0538888765,-9.289055012999999,-0.7462174184499999,-1.3311,1.2445,1.5245,0.0018000000000000238,-0.008130000000000082,0.0026000000000001577,0.010939873870548844,0.000748654080309219,0.004276471425336936
150000000000.0,3,0.01840708205,-1.6814482089999998,1.4000954205,-1.0755,-0.093775,0.77748,-3.1297923474999996,-9.2554182035,-0.8441760453,-1.3073,1.2339,1.498,0.0018000000000000238,-0.007909999999999973,0.0023999999999999577,0.014461834223395309,-0.002333760673624008,0.007304927645586545
