Time,placement_label,user_acc_x(m/s^2),user_acc_y(m/s^2),user_acc_z(m/s^2),rotation_rate_x(rad/s),rotation_rate_y(rad/s),rotation_rate_z(rad/s),gravity_x(m/s^2),gravity_y(m/s^2),gravity_z(m/s^2),attitude_roll(rad),attitude_pitch(rad),attitude_yaw(rad),target_delta_x,target_delta_y,target_delta_z,target_delta_roll,target_delta_pitch,target_delta_yaw
149740000000.0,-1,0.0549368533,-0.052857843499999994,-0.025507096649999998,-0.065309,0.090025,-0.010474,1.303499918,-3.3060178479999998,-9.1400919995,0.14166,0.34386,-1.4618,0.0,0.0,0.0,0.0,0.0,0.0
149740000000.0,-1,0.06207609449999999,-0.021829602899999998,-0.0420705285,-0.040082,0.043997,-0.008215,1.309776174,-3.3018009884999997,-9.140778465,0.14232,0.3434,-1.4618,-5.0000000000105516e-05,4.999999999988347e-05,4.999999999988347e-05,-0.0004327764692723113,0.00023006299780958805,-0.00011327531100213672
149740000000.0,-1,0.06752859189999999,-0.0068254284,-0.06434143064999999,-0.014762,0.007561,-0.009175,1.3124239695,-3.2994473925,-9.141170730999999,0.1426,0.34314,-1.4619,-4.999999999988347e-05,5.0000000000105516e-05,5.0000000000105516e-05,-0.00028021358631524773,0.0003893375576631275,-9.568647781998951e-05
149740000000.0,-1,0.06528286905,0.024761791249999998,-0.030145642099999998,0.014939,-0.011865,-0.005888,1.3129143019999998,-3.2994473925,-9.141170730999999,0.14265,0.34314,-1.462,-1.999999999990898e-05,9.999999999998899e-05,9.999999999998899e-05,-0.00010119082804893598,0.0002746190114186753,-0.00011760133087335145
149740000000.0,-1,0.036833777399999997,0.053691408749999996,0.00304986815,0.034012,-0.024813,-0.000496,1.311541371,-3.3013106559999996,-9.140680398499999,0.14251,0.34334,-1.4621,-2.0000000000131024e-05,9.999999999998899e-05,9.999999999998899e-05,-0.00021056653638729106,0.00025088047125088053,7.288749030409658e-05
149740000000.0,-1,0.021741343049999997,0.040893730499999996,0.0005491723999999999,0.043535,-0.029162,0.008066,1.3089916419999998,-3.3046449169999996,-9.1397978,0.14225,0.34371,-1.4621,-1.999999999990898e-05,9.999999999998899e-05,9.999999999998899e-05,-0.00036105012964515737,0.00019649606127791763,0.00019218402408704982
149740000000.0,-1,0.0014415775499999998,0.04586570204999999,0.003530394,0.046695,-0.028133,0.017676,1.3057554474999997,-3.3083714439999996,-9.1389152015,0.14192,0.34412,-1.462,-2.0000000000131024e-05,9.999999999998899e-05,-1.4285714285744433e-05,-0.0009226271540482278,-0.0005973799873875141,0.00032206947770674343
149740000000.0,-1,-0.016720338249999998,0.049425515999999996,0.024908891,0.043533,-0.021716,0.019794,1.3028134525,-3.3120979709999996,-9.1379345365,0.14162,0.34452,-1.4619,-1.999999999990898e-05,9.999999999998899e-05,-1.4285714285744433e-05,-0.00023043399106825735,8.044844310206578e-05,3.116470087849432e-05
149740000000.0,-1,-0.036206151799999996,0.040599530999999994,0.04694443354999999,0.034016,-0.010983,0.019759,1.3004598565,-3.3154322319999996,-9.137150004499999,0.14138,0.34487,-1.4617,-1.4285714285744433e-05,4.999999999988347e-05,-1.4285714285744433e-05,3.669201030054303e-05,1.6474623398599064e-05,8.501701706409293e-05
149740000000.0,-1,-0.05308339645,0.0281450855,0.0686661633,0.02021,-0.005538,0.015457,1.2984985265,-3.317785828,-9.136561605499999,0.14118,0.34513,-1.4615,-1.4285714285744433e-05,5.0000000000105516e-05,-1.4285714285522388e-05,0.00044407628086839956,-0.00021109858248147262,-4.9143241128479787e-05
149740000000.0,-1,-0.04627758135,0.0192014207,0.07559946484999999,0.007444,-0.004363,0.010096,1.2971255954999998,-3.318962626,-9.136267406,0.14103,0.34526,-1.4614,-1.4285714285744433e-05,5.0000000000105516e-05,-1.4285714285744433e-05,0.00014675321341939274,0.00014048619568551857,0.0001683814064932232
149740000000.0,-1,-0.06108562285,0.0111403544,0.0846117762,-0.00639,-0.00318,0.004734,1.2957526645,-3.3190606924999995,-9.136463539,0.14088,0.34527,-1.4613,-1.4285714285522388e-05,4.999999999988347e-05,-1.4285714285744433e-05,3.673642817841882e-05,5.595315891615549e-05,0.0002067029875864046
149740000000.0,-1,-0.0648807964,-0.0016475171999999999,0.10632369929999999,-0.02023,-0.000935,0.002572,1.2945758664999998,-3.318178094,-9.1369538715,0.14075,0.34518,-1.4612,-1.4285714285744433e-05,-1.4285714285744433e-05,-1.4285714285744433e-05,0.000494348679999812,0.00021456086356752557,-3.060078178851455e-05
149740000000.0,-1,-0.06614585425,-0.00405014645,0.12466213479999999,-0.028765,0.000197,0.004691,1.2935952014999998,-3.3167070965,-9.137640337,0.14064,0.34501,-1.4611,-1.4285714285744433e-05,-1.4285714285744433e-05,-5.0000000000105516e-05,0.000393236430885624,-4.9287423878885406e-05,1.832214221120232e-05
149740000000.0,-1,-0.0864161998,-0.015072821049999999,0.1406665876,-0.036253,-0.001876,0.005751,1.2922222705,-3.314843833,-9.1385229355,0.14047,0.34481,-1.461,-1.4285714285744433e-05,-1.4285714285744433e-05,-4.999999999988347e-05,2.9762526377985488e-05,-0.00016310894496118777,0.00020638051999133378
149740000000.0,-1,-0.09867451229999999,-0.00055897905,0.13108549055,-0.043724,-0.001819,0.006807,1.290359007,-3.3118037714999997,-9.1398958665,0.14025,0.34448,-1.4608,-1.999999999990898e-05,-1.4285714285522388e-05,-9.999999999998899e-05,0.00036368379770385095,-0.00023884538218177376,0.00013533787839270506
149740000000.0,-1,-0.10743185074999999,0.016504591949999998,0.12918300045,-0.045824,0.000329,0.003599,1.2886918765,-3.3082733774999995,-9.141366864,0.14005,0.3441,-1.4606,-2.0000000000131024e-05,-1.4285714285744433e-05,-9.999999999998899e-05,0.0002556060201737709,-0.0002310435692134405,-6.449366461203088e-05
149740000000.0,-1,-0.1296242997,0.0136508568,0.1356259695,-0.044667,0.006716,-0.003881,1.2872208789999997,-3.3046449169999996,-9.142935928,0.13987,0.34371,-1.4605,-1.999999999990898e-05,-1.4285714285744433e-05,-9.999999999998899e-05,0.0005185435768826352,0.00011979735783040901,-0.0001714607114864375
149740000000.0,-1,-0.12688824435,-0.0036676871,0.15544520914999999,-0.040303,0.015207,-0.009223,1.2869266795,-3.3017029219999996,-9.1440146595,0.13982,0.34339,-1.4604,-2.0000000000131024e-05,-1.4285714285744433e-05,-9.999999999998899e-05,6.651334558394062e-05,0.0002699863689743509,-0.0002582557572998745
149740000000.0,-1,-0.12150439349999999,-0.0173381572,0.1731658257,-0.032774,0.018344,-0.015618,1.2873189454999998,-3.2996435254999996,-9.144701125,0.13986,0.34317,-1.4605,-1.999999999990898e-05,-5.0000000000105516e-05,-9.999999999998899e-05,0.00016408157960762226,6.286663683829907e-05,-0.0003408092586844047
149740000000.0,-1,-0.09330046809999999,-0.04023668495,0.15028691125,-0.033911,0.004506,-0.023066,1.2875150784999998,-3.2978783284999995,-9.145289523999999,0.13987,0.34297,-1.4606,5.0000000000105516e-05,-4.999999999988347e-05,-9.999999999998899e-05,0.0019692521259533913,0.0008753847271072424,-0.0008096027703647923
149740000000.0,-1,-0.07295166935,-0.07165719155,0.1056568471,-0.044707,-0.014584,-0.027319,1.2865344134999999,-3.2955247325,-9.146270188999999,0.13974,0.34272,-1.4608,4.999999999988347e-05,-9.999999999998899e-05,-0.00019999999999997797,0.0003096281293209491,-9.851186089426811e-05,-0.00029527832102327345
149740000000.0,-1,-0.053044169849999996,-0.09038789304999999,0.05596655155,-0.063997,-0.030404,-0.034795,1.284278884,-3.2914059394999997,-9.1481334525,0.13947,0.34228,-1.4611,4.999999999988347e-05,-9.999999999998899e-05,-0.00019999999999997797,0.0012880989385626873,-5.00779427867748e-05,-0.000551079601891824
149740000000.0,-1,-0.04013861845,-0.06585165474999999,0.0180246227,-0.08532,-0.033418,-0.042298,1.2818272215,-3.284639351,-9.1508793145,0.13917,0.34155,-1.4613,5.0000000000105516e-05,-9.999999999998899e-05,-9.999999999998899e-05,0.0009153756283358794,-0.00021922149624753473,-0.0003084214912111305
149740000000.0,-1,-0.036833777399999997,-0.045728408949999994,-0.0034911673999999996,-0.097997,-0.020524,-0.046611,1.2804542904999998,-3.2759114325,-9.1542135755,0.13898,0.3406,-1.4617,5.0000000000105516e-05,-0.00019999999999997797,-9.999999999998899e-05,0.001910498547181172,3.030437707196576e-05,-0.0005233491154539305
149740000000.0,-1,-0.04637564784999999,-0.030910560799999997,0.004834678449999999,-0.1021,-0.000244,-0.047721,1.28074849,-3.2663989819999997,-9.1575478365,0.13895,0.33956,-1.462,4.999999999988347e-05,-0.0018000000000000238,0.0007999999999999119,-0.0061449900436501,-0.0068204306281480775,-0.007744653221022357
149740000000.0,-1,-0.057104122949999996,-0.006678328649999999,-0.007511893899999999,-0.10199,0.01254,-0.047742,1.2822194875,-3.2562981325,-9.160980164,0.13906,0.33848,-1.4623,-9.999999999998899e-05,-9.999999999998899e-05,-9.999999999998899e-05,0.0006133358771254205,-0.0003944888419846748,-0.0002528973927138356
149740000000.0,-1,-0.0605854837,-0.01585735305,-0.00473661195,-0.089113,0.02628,-0.04134,1.2856518149999998,-3.247177948,-9.163726025999999,0.13939,0.33749,-1.4626,-5.0000000000105516e-05,-9.999999999998899e-05,-5.0000000000105516e-05,0.00023166593171902727,-0.00048381337885805564,-0.0005955546493900954
149740000000.0,-1,-0.046140288249999994,0.0204566719,-0.027733206199999996,-0.068816,0.033563,-0.034912,1.2890841425000001,-3.2393326279999997,-9.1659815555,0.13972,0.33664,-1.4629,-4.999999999988347e-05,-9.999999999998899e-05,-4.999999999988347e-05,0.001022464120599087,0.00019203527426525646,-0.0004300625155744253
149740000000.0,-1,-0.0393835064,0.00285373515,-0.013533176999999999,-0.045356,0.035494,-0.029537,1.2926145365000001,-3.2341351035,-9.167354486499999,0.14008,0.33608,-1.4631,-4.999999999988347e-05,-5.0000000000105516e-05,-3.333333333332966e-05,-0.0007289261163556104,-0.0006897091668549571,-0.0009161329782758632
149740000000.0,-1,-0.02246703515,0.00734518085,-0.028252958649999996,-0.028386,0.023631,-0.028419,1.2955565315,-3.2305066429999996,-9.1681390185,0.14038,0.33569,-1.4633,-5.0000000000105516e-05,-4.999999999988347e-05,-3.333333333332966e-05,0.0009037520356986462,0.00018695599992057943,-0.0006762495537095958
149740000000.0,-1,0.0029616083000000002,0.00995374975,-0.0383243882,-0.019984,0.004385,-0.03264,1.2975178615,-3.2277607809999997,-9.168923550499999,0.14058,0.33539,-1.4636,-9.999999999998899e-05,-9.999999999998899e-05,-3.333333333332966e-05,-0.0006651656664783401,-0.000320589090180734,-0.00027670544794411445
149740000000.0,-1,0.0275370732,-0.01415099595,-0.05984998495,-0.014747,-0.013762,-0.042206,1.2984004599999999,-3.2257013844999998,-9.1695119495,0.14066,0.33516,-1.464,-4.999999999988347e-05,-5.0000000000105516e-05,9.999999999998899e-05,0.0003335546876048756,-0.00014008543839016951,-0.0008766913849056479
149740000000.0,-1,0.0354020065,-0.012866324799999999,-0.03533335995,-0.014809,-0.025476,-0.048591,1.2983023935,-3.223641988,-9.170198415,0.14064,0.33495,-1.4645,-5.0000000000105516e-05,-4.999999999988347e-05,3.333333333332966e-05,0.00011889819476740282,5.34164476406751e-05,-0.000218874468581709
149740000000.0,-1,0.023055434149999998,-0.025811102799999996,-0.01740680375,-0.011607,-0.025501,-0.048585,1.2978120610000001,-3.2222690569999997,-9.170786814,0.14058,0.33479,-1.465,-5.0000000000105516e-05,-9.999999999998899e-05,3.333333333332966e-05,-0.0001808290143443525,0.00011709097805323587,-0.0003518558645381198
149740000000.0,-1,-0.00138273765,-0.0359315656,-0.017946169499999998,-0.004139,-0.022371,-0.043241,1.2969294625,-3.221484525,-9.17117908,0.14049,0.33472,-1.4655,-4.999999999988347e-05,-0.00020000000000020002,3.333333333332966e-05,0.0007790165329567555,0.0006161610932520212,-0.0008274595451368549
149740000000.0,-1,-0.01636729885,-0.01825017565,0.0013925443,0.001215,-0.016029,-0.036838,1.2963410635,-3.221288392,-9.171375213,0.14042,0.33469,-1.4659,-4.999999999988347e-05,-9.999999999998899e-05,-0.00019999999999997797,-0.00023807513892992738,0.0003209690121694919,-0.0001355406294256678
149740000000.0,-1,-0.018632634999999998,-0.01273883835,0.02407532575,0.004438,-0.010733,-0.032572,1.296046864,-3.221484525,-9.1712771465,0.14039,0.33472,-1.4662,-5.0000000000105516e-05,-9.999999999998899e-05,-0.00019999999999997797,0.0002292073904220926,0.0006434989381796097,-0.0002916409259335895
149740000000.0,-1,-0.02462449815,-0.0042462794499999994,0.01738719045,0.004418,-0.013929,-0.033633,1.2954584649999998,-3.2216806579999995,-9.1712771465,0.14033,0.33473,-1.4666,-0.0002500000000000835,-9.999999999998899e-05,-0.00019999999999997797,0.0002309291738121777,0.00036044358187559133,-8.239364999018672e-05
149740000000.0,-1,0.00514849125,-0.0012650578499999998,0.00475622525,0.004356,-0.020324,-0.031487,1.2948700659999999,-3.2215825915000003,-9.171375213,0.14026,0.33473,-1.4669,-0.0002500000000000835,0.0016000000000000458,-0.00019999999999997797,0.005800831650845217,0.006678586535925346,0.007604284963308561
149740000000.0,-1,0.0089240515,-0.033009183899999996,0.019466200249999996,0.005363,-0.026728,-0.029339,1.2937913344999998,-3.2223671234999998,-9.1712771465,0.14015,0.33481,-1.4672,-9.999999999998899e-05,-9.999999999998899e-05,1.999999999990898e-05,-0.00024959840056126836,8.338785502792767e-05,-0.00030700098582259194
149740000000.0,-1,0.0017946169499999999,-0.045502855999999994,0.031577413,0.004208,-0.037375,-0.028255,1.291535805,-3.2233477884999995,-9.1712771465,0.1399,0.33491,-1.4675,-3.333333333332966e-05,-9.999999999998899e-05,2.0000000000131024e-05,0.00014918305233646567,6.601510182013826e-05,-0.0003847223316920667
149740000000.0,-1,0.00085317855,-0.02827257195,0.024791211199999996,0.000955,-0.042679,-0.026116,1.2885938099999998,-3.2238381209999996,-9.171571345999999,0.13958,0.33497,-1.4678,-3.333333333332966e-05,-9.999999999998899e-05,1.999999999990898e-05,-0.00028534207587505023,-4.927607100246867e-05,-0.00043734915046012013
149740000000.0,-1,-0.010198915999999999,-0.00041187929999999997,0.0383047749,-0.001149,-0.0384,-0.02506,1.2857498815,-3.2235439214999997,-9.172061678499999,0.13927,0.33494,-1.4681,-3.333333333332966e-05,-9.999999999998899e-05,2.0000000000131024e-05,4.959277118821159e-05,-0.0002303902698488347,-0.00042288492004638467
149740000000.0,-1,-0.024908891,0.00973800345,0.09268264914999999,0.003202,-0.026717,-0.022938,1.283494352,-3.2238381209999996,-9.1722578115,0.13903,0.33497,-1.4683,1.999999999990898e-05,-0.00019999999999997797,1.999999999990898e-05,0.0001250868688339457,-0.0002667220521954672,-0.0002946649464071749
149740000000.0,-1,-0.024193005549999997,0.009983169699999999,0.0926924558,0.006505,-0.013957,-0.022955,1.2828078865,-3.2240342539999998,-9.1722578115,0.13896,0.33499,-1.4686,2.0000000000131024e-05,-4.999999999988347e-05,-9.999999999998899e-05,-0.0012476351385567463,-0.0006339908655494941,0.00023629546204817498
149740000000.0,-1,-0.021751149699999996,0.0397561591,0.15107144325,0.010802,-0.009731,-0.021887,1.2826117535,-3.2249168524999994,-9.171963611999999,0.13894,0.33509,-1.4688,1.999999999990898e-05,-5.0000000000105516e-05,-9.999999999998899e-05,0.00014492163965718063,0.00019451505386181012,-0.00030733873371180387
149740000000.0,-1,-0.0035794272499999995,0.0303025485,0.1655558653,0.011856,-0.010806,-0.020816,1.28270982,-3.2262897835,-9.171473279499999,0.13895,0.33523,-1.4691,2.0000000000131024e-05,-9.999999999998899e-05,-5.0000000000105516e-05,0.0005921159052372227,-2.115612429309799e-05,-0.0006435219533506009
149740000000.0,-1,0.030979207349999996,0.00426589275,0.1909747021,0.008602,-0.017171,-0.019744,1.2830040194999999,-3.2278588475,-9.1708848805,0.139,0.33541,-1.4693,1.999999999990898e-05,-9.999999999998899e-05,-5.0000000000105516e-05,0.0002274306466816256,-5.3035723927008505e-05,-0.00037158157160832594
149740000000.0,-1,0.0615465354,-0.01756371015,0.20357624735,-0.004235,-0.024517,-0.024024,1.283298219,-3.2289375789999997,-9.170492614499999,0.13903,0.33552,-1.4696,9.999999999998899e-05,-9.999999999998899e-05,-9.999999999998899e-05,0.0005488489391888285,-4.730405854158626e-05,-1.818359851690765e-06
149740000000.0,-1,0.0993805911,-0.0300671889,0.18200161734999998,-0.01594,-0.02441,-0.029384,1.2839846844999998,-3.2287414459999995,-9.170394547999999,0.13911,0.3355,-1.47,0.00010000000000021103,-0.00019999999999997797,-0.00019999999999997797,0.0007385250887319006,0.0002241552382840073,-0.0002118511983957294
149740000000.0,-1,0.10646099239999998,-0.05159278565,0.19606435344999998,-0.026486,-0.011527,-0.032629,1.2859460145,-3.2280549805,-9.170394547999999,0.13932,0.33542,-1.4704,9.999999999998899e-05,-0.00010000000000021103,-9.999999999998899e-05,0.00016549459380921228,-0.0003718079408914221,-0.0001263040685768324
149740000000.0,-1,0.1196999699,-0.061056202899999995,0.22989729594999997,-0.038086,0.001368,-0.03801,1.289574475,-3.2264859165,-9.170492614499999,0.13971,0.33526,-1.4708,9.999999999998899e-05,-3.333333333332966e-05,-9.999999999998899e-05,0.0011733085179673197,-0.00023302983696305013,-0.00016853516494630405
149740000000.0,-1,0.1567494936,-0.05781020175,0.2023308028,-0.052889,0.017481,-0.038067,1.2953603985,-3.2234458549999996,-9.1706887475,0.14032,0.33493,-1.4713,9.999999999998899e-05,-3.333333333332966e-05,-0.00029999999999996696,0.0008001698010665637,-0.0007918695426476496,0.00023182572856861317
149740000000.0,-1,0.15409189145,-0.04865079065,0.17215574075,-0.066672,0.032513,-0.030648,1.3022250534999997,-3.2188367295,-9.171375213,0.14104,0.33443,-1.4716,0.00019999999999997797,-3.333333333332966e-05,-9.999999999998899e-05,0.0008680276812638166,-0.00010028971156605948,0.00015259219903240862
149740000000.0,-1,0.1737542247,-0.022927947699999996,0.14705071674999998,-0.081611,0.035834,-0.024279,1.309776174,-3.212266274,-9.172552010999999,0.14183,0.33372,-1.4719,0.00019999999999997797,9.999999999998899e-05,-0.00019999999999997797,0.0009701949708181834,-0.00020380030484412615,-5.2316562436094394e-05
149740000000.0,-1,0.18017758044999999,0.016455558699999998,0.08539630819999999,-0.088045,0.039079,-0.012558,1.317229228,-3.2040286879999997,-9.1744152745,0.1426,0.33283,-1.4721,0.00019999999999997797,5.0000000000105516e-05,-9.999999999998899e-05,0.0018085136200917118,0.0006483199833233755,-0.0006023749569145087
149740000000.0,-1,0.14518745325,0.0486605973,0.06644986039999999,-0.084878,0.042244,-0.00082,1.3239958164999999,-3.1955949689999996,-9.1763766045,0.14329,0.33192,-1.4721,0.00019999999999997797,5.0000000000105516e-05,-0.00019999999999997797,0.0005327884929659521,-4.4842438454484324e-05,0.0001268822456675922
149740000000.0,-1,0.12643713845,0.08041453,0.046002995149999996,-0.079663,0.033671,0.008808,1.329585607,-3.1870631835,-9.1785340675,0.14385,0.331,-1.472,0.00019999999999997797,9.999999999998899e-05,-9.999999999998899e-05,-0.0016077737376392065,-0.0006929276006175655,0.00106096731990446
149740000000.0,-1,0.12098464105,0.10083197529999999,0.00015690639999999998,-0.07446,0.022968,0.017372,1.3336063335,-3.1786294644999997,-9.180887663499998,0.14425,0.33009,-1.4718,0.00019999999999997797,0.00019999999999997797,-0.00019999999999997797,-0.00014381350387909775,-0.00016972051068009364,0.0006459029509376935
149740000000.0,-1,0.10341112425,0.1001455098,-0.046012801799999996,-0.068219,0.010122,0.028076,1.3357637965,-3.1705880114999996,-9.183339326,0.14445,0.32922,-1.4715,0.00019999999999997797,0.00019999999999997797,-9.999999999998899e-05,-0.0005451666500476127,0.00029952789363485444,0.0002634833876430376
149740000000.0,-1,0.07565830474999999,0.09877257879999998,-0.08401357055,-0.056597,0.002559,0.037714,1.3363521955,-3.1633310905,-9.185692922,0.14447,0.32844,-1.471,0.00019999999999997797,0.00019999999999997797,-9.999999999998899e-05,-0.0012474293844415008,-0.0009314140081955191,0.0008647071484063629
149740000000.0,-1,0.03337202995,0.09846857264999999,-0.0708432396,-0.04712,-0.003926,0.051616,1.335077331,-3.157349034,-9.1879484515,0.1443,0.3278,-1.4705,0.00020000000000020002,9.999999999998899e-05,1.999999999990898e-05,0.00015342774856141883,3.230903460882395e-05,0.0005595436791349107
149740000000.0,-1,-0.00195152335,0.0828073526,-0.09029963319999999,-0.040819,-0.009318,0.06231,1.3322334025,-3.152445709,-9.1901059145,0.14396,0.32727,-1.4698,9.999999999998899e-05,0.00019999999999997797,2.0000000000131024e-05,0.0005640675042419829,9.689268702950393e-05,0.0003199639103352858
149740000000.0,-1,-0.0304202283,0.07032348715,-0.1369792872,-0.032342,-0.01472,0.064469,1.3281146094999998,-3.148523049,-9.192067244499999,0.14349,0.32685,-1.469,9.999999999998899e-05,9.999999999998899e-05,1.999999999990898e-05,-0.00024185032874912693,-0.0005058649653273406,0.0006326822352380468
149740000000.0,-1,-0.0716669982,0.06669502664999999,-0.14810983495,-0.024882,-0.01585,0.063416,1.3229170849999998,-3.145188788,-9.193930508,0.14291,0.32649,-1.4682,9.999999999998899e-05,9.999999999998899e-05,2.0000000000131024e-05,0.00035402986247545787,8.553583599435477e-05,0.00023672089655668582
149740000000.0,-1,-0.09393790035,0.05547621904999999,-0.15502352319999999,-0.016322,-0.014856,0.059161,1.3177195604999998,-3.142639059,-9.195499572,0.14233,0.32622,-1.4675,4.999999999988347e-05,9.999999999998899e-05,1.999999999990898e-05,0.0001146472798018161,-0.0003345366206324307,0.00018026528377845796
149740000000.0,-1,-0.1201510758,0.034627281149999994,-0.14501093355,-0.006634,-0.006412,0.054894,1.3128162354999997,-3.141266128,-9.196676369999999,0.14178,0.32607,-1.4668,5.0000000000105516e-05,9.999999999998899e-05,9.999999999998899e-05,-0.0001062866385677097,-0.00040989890087006486,0.00027064106704433044
149740000000.0,-1,-0.15205210824999998,0.00059820565,-0.12308326415,0.004143,0.005217,0.051692,1.308403243,-3.141462261,-9.197264769,0.14132,0.32609,-1.4662,-1.2499999999970868e-05,-3.333333333332966e-05,5.0000000000105516e-05,-0.0010939386529219552,-0.0006647368339465221,0.0001319721013893771
149740000000.0,-1,-0.17740229849999997,-0.018044235999999998,-0.10413681635,0.01705,0.013636,0.04423,1.3047747825,-3.143227458,-9.197166702499999,0.14093,0.32627,-1.4656,-1.2499999999970868e-05,-3.333333333332966e-05,4.999999999988347e-05,-0.0005107867200079275,0.00010165692822594607,3.6639283799932976e-05
149740000000.0,-1,-0.181815291,-0.03176373935,-0.059143906149999995,0.033152,0.019899,0.034643,1.3020289205,-3.1466597855,-9.1963821705,0.14064,0.32665,-1.4652,-1.2499999999970868e-05,-3.333333333332966e-05,0.00019999999999997797,0.0012099806239747046,0.0017133972133980269,-0.000393211855905351
149740000000.0,-1,-0.19428934979999998,-0.0480918116,0.0078060934,0.042837,0.021956,0.02185,1.2997733909999998,-3.1517592435,-9.1950092395,0.14043,0.3272,-1.4648,-1.2500000000192912e-05,-5.0000000000105516e-05,4.999999999988347e-05,-0.0018622684696453229,-0.0006157415984822112,0.00029515310231043035
149740000000.0,-1,-0.17508792909999998,-0.07577598455,0.008492558899999999,0.043944,0.016628,0.005854,1.2981062604999998,-3.1574471004999998,-9.1932440425,0.14028,0.32781,-1.4647,-1.2499999999970868e-05,-4.999999999988347e-05,5.0000000000105516e-05,0.0009753656550777201,0.0010998549998504359,-0.0007468642658803315
149740000000.0,-1,-0.15767131869999998,-0.09843915269999999,0.0035107806999999996,0.041807,0.007064,-0.008007,1.29643913,-3.163036891,-9.191576911999999,0.14012,0.32841,-1.4647,-1.2499999999970868e-05,-0.00019999999999997797,9.999999999998899e-05,0.0004752481886928783,0.0008046526050384806,9.207780034670154e-05
149740000000.0,-1,-0.1619470181,-0.09222173659999999,0.036853390699999995,0.033264,-0.002449,-0.020811,1.2942816669999997,-3.167940216,-9.190203981,0.13991,0.32894,-1.4648,-1.2499999999970868e-05,-9.999999999998899e-05,4.999999999988347e-05,0.00021139396912500663,-0.00040600040260563297,-0.0004830004273270738
149740000000.0,-1,-0.16581083819999998,-0.060614903649999996,0.054642653799999996,0.026869,-0.006658,-0.028284,1.2918300045,-3.1715686764999997,-9.1893213825,0.13967,0.32933,-1.4651,-1.2499999999970868e-05,-0.00029999999999996696,5.0000000000105516e-05,0.0017868634906035297,0.000600533153643612,-0.001031351734815722
149740000000.0,-1,-0.18201142399999998,-0.028115665550000002,0.07528565205,0.017287,-0.007646,-0.033633,1.2891822089999998,-3.1740203389999997,-9.18883105,0.13939,0.32959,-1.4653,-9.999999999998899e-05,-0.00019999999999997797,5.0000000000105516e-05,-0.0004471171824965703,0.0002342240572215104,-0.0004619659840990886
149740000000.0,-1,-0.18213891044999997,-0.008492558899999999,0.05673147025,0.006696,-0.003294,-0.042195,1.2869266795,-3.1749029374999997,-9.18883105,0.13915,0.32969,-1.4657,-5.0000000000105516e-05,-0.00019999999999997797,4.999999999988347e-05,0.0004416714216658457,-0.0005576292007423156,-0.00017222309001063696
149740000000.0,-1,-0.15903444304999997,0.0132193642,0.044218184849999995,0.006805,0.006296,-0.048614,1.2861421474999999,-3.1750990705,-9.18883105,0.13906,0.32971,-1.4661,-4.999999999988347e-05,-9.999999999998899e-05,-1.2499999999970868e-05,-0.0010011384381773403,-0.0015016859054197695,-0.0004032403787672667
149740000000.0,-1,-0.13631243499999998,0.0070019481,0.07903179234999999,0.010139,0.022249,-0.049702,1.2873189454999998,-3.1755894029999996,-9.188536850499998,0.1392,0.32976,-1.4665,-4.999999999988347e-05,-0.00020000000000020002,-1.2499999999970868e-05,-0.0009486096831729518,-0.00046220053086032387,-0.00041120082126366864
149740000000.0,-1,-0.10926569430000001,-0.0028635417999999997,0.09017214675,0.016596,0.02965,-0.048635,1.2898686745,-3.176962334,-9.187654252,0.13948,0.32991,-1.467,-5.0000000000105516e-05,-0.00019999999999997797,-1.2499999999970868e-05,-0.0006225727943096615,-0.00016614192071906508,-0.00022859240756956112
149740000000.0,-1,-0.08993678715,0.006452775699999999,0.07544255845,0.021887,0.025338,-0.046482,1.2926145365000001,-3.1786294644999997,-9.1867716535,0.13978,0.33009,-1.4675,-5.0000000000105516e-05,-9.999999999998899e-05,-1.2499999999970868e-05,-0.0006744489195219527,-0.0003489455285197174,-0.0004963414870978733
149740000000.0,-1,-0.05065134725,0.01581812645,0.08505307545,0.025014,0.016785,-0.045394,1.2951642654999997,-3.180492728,-9.185692922,0.14008,0.33029,-1.468,-4.999999999988347e-05,-0.00019999999999997797,-1.2500000000192912e-05,-0.0004974593761077895,-6.784493069789121e-05,-0.000548586080852731
149740000000.0,-1,-0.01599464615,0.0171616375,0.0752562321,0.030261,0.005021,-0.046431,1.297223662,-3.182846324,-9.1846141905,0.14031,0.33055,-1.4685,4.999999999988347e-05,-0.00019999999999997797,-1.2499999999970868e-05,1.096459637306424e-06,5.136159502439064e-05,-0.0006195915870366164
149740000000.0,-1,-0.010120462799999999,0.0340486888,0.08921109504999998,0.029099,-0.008819,-0.049611,1.2982043269999999,-3.185003787,-9.183731591999999,0.14043,0.33077,-1.4691,5.0000000000105516e-05,-9.999999999998899e-05,-1.2499999999970868e-05,-0.00016743463080792775,0.0001212489872723932,-0.00028906052092791956
149740000000.0,-1,0.028154892149999996,0.0390696936,0.09264342254999999,0.026099,0.010399,-0.059257,1.300754056,-3.1865728509999998,-9.182848993499999,0.14072,0.33094,-1.4697,3.333333333332966e-05,-9.999999999998899e-05,-1.2499999999970868e-05,-0.001678101617950567,-0.0013228443873061213,0.0002642398893231146
149740000000.0,-1,0.07994381079999999,0.045620535799999994,0.3158721965,0.017472,-0.003375,-0.062452,1.3053631815,-3.1886322474999997,-9.1814760625,0.14123,0.33117,-1.4705,3.333333333332966e-05,-0.00019999999999997797,-9.999999999998899e-05,0.001479376650129538,0.00030820936668463084,-0.0005215063007697474
149740000000.0,-1,0.10674538525,-0.02399687255,0.14850210095,-0.024254,-0.011562,-0.051838,1.30820711,-3.1876515825,-9.181377995999998,0.14153,0.33107,-1.4711,3.333333333332966e-05,-9.999999999998899e-05,-9.999999999998899e-05,0.00042922987544669056,2.5860351449136232e-05,-0.00032584091712650753
149740000000.0,-1,0.05927139259999999,0.0051779112,-0.00977723005,-0.03171,-0.009368,-0.050788,1.309776174,-3.1839250555,-9.1824567275,0.14168,0.33066,-1.4716,-4.999999999988347e-05,-9.999999999998899e-05,-9.999999999998899e-05,0.0004181017445161195,-0.0003942695633338822,-0.000558906841778728
149740000000.0,-1,0.10773585689999998,0.04861156404999999,0.1282905953,-0.031629,0.005548,-0.043344,1.3137969005,-3.1801985285,-9.183143193,0.14211,0.33026,-1.4721,-5.0000000000105516e-05,-9.999999999998899e-05,-9.999999999998899e-05,0.0007135161361681019,-0.0014011489129088783,-0.001782940420316459
149740000000.0,-1,0.10625505274999998,0.04468890405,0.12943797334999999,-0.041287,0.004551,-0.033753,1.3152678979999999,-3.1762758685,-9.184319991,0.14225,0.32984,-1.4725,9.999999999998899e-05,-9.999999999998899e-05,9.999999999998899e-05,0.0007197388376909974,0.0011284773029236472,0.0009064691734592678
149740000000.0,-1,0.0375594695,0.0790808256,-0.0223003221,-0.039189,0.004529,-0.027346,1.317229228,-3.1707841445,-9.1859871215,0.14243,0.32924,-1.4727,-3.333333333332966e-05,-0.00019999999999997797,4.999999999988347e-05,0.00025449803660071435,0.00040754427087796863,0.0001929595275119711
149740000000.0,-1,0.026115108949999997,0.09381041389999999,-0.06742071875,-0.027401,0.012956,-0.025206,1.3193866909999998,-3.1656846864999997,-9.187360052499999,0.14264,0.3287,-1.473,-3.333333333332966e-05,-9.999999999998899e-05,5.0000000000105516e-05,0.0005859818323792343,0.0009374941796382874,0.00037164830610980637
149740000000.0,-1,0.021947282699999997,0.11981764969999999,-0.021427530249999997,-0.016773,0.00967,-0.023048,1.321544154,-3.16166396,-9.188438783999999,0.14284,0.32826,-1.4732,-3.333333333332966e-05,-9.999999999998899e-05,5.0000000000105516e-05,0.0007749842934076101,0.0004923990275904622,-0.0002734441285238143
149740000000.0,-1,0.01417060925,0.11910176424999999,-0.0337544893,-0.007188,0.009589,-0.020897,1.3234074174999997,-3.1584277655,-9.1893213825,0.14304,0.32791,-1.4734,-3.333333333332966e-05,-5.0000000000105516e-05,4.999999999988347e-05,-9.283432631956856e-05,-0.0002771486657953126,0.00013102106727980178
149740000000.0,-1,0.0039618866,0.08585722075,-0.05771213524999999,0.003464,0.010563,-0.016611,1.3247803484999998,-3.1565645019999997,-9.1897136485,0.14318,0.32771,-1.4736,-3.333333333332966e-05,-5.0000000000105516e-05,4.999999999988347e-05,-0.00021856576724343935,0.000351309912538067,-0.00018567427667248726
149740000000.0,-1,0.00789435325,0.059016419699999996,-0.0316950928,0.014083,0.007274,-0.012317,1.3261532794999997,-3.1564664354999996,-9.189615582,0.14332,0.32771,-1.4738,-3.333333333332966e-05,-9.999999999998899e-05,5.0000000000105516e-05,-0.00022302189404471706,6.212235546976252e-05,-0.0003955737676716309
149740000000.0,-1,0.0003530394,0.0401876517,-0.011081514499999999,0.021513,0.004014,-0.010164,1.3269378115000001,-3.1576432335,-9.1891252495,0.14341,0.32782,-1.4739,-3.333333333332966e-05,-9.999999999998899e-05,5.0000000000105516e-05,-2.8324402624846368e-05,0.00042387336165039535,-0.00022779761439284396
149740000000.0,-1,0.00995374975,0.019005287699999998,0.0014709974999999999,0.029967,-0.00671,-0.011198,1.3270358779999998,-3.1597026299999995,-9.1883407175,0.14344,0.32806,-1.4741,-3.333333333355171e-05,-9.999999999998899e-05,4.999999999988347e-05,-0.0007375224713319639,0.0002158923268926749,-0.0003111561394673057
149740000000.0,-1,0.013866603099999998,0.0080218397,0.0104342756,0.033012,-0.024852,-0.009026,1.3256629469999999,-3.1625465585,-9.1875561855,0.1433,0.32836,-1.4742,-3.333333333332966e-05,-9.999999999998899e-05,-2.4999999999941735e-05,-0.00048073915295621106,0.000311514370936683,-0.0002982271227309763
149740000000.0,-1,-0.013778343249999998,-0.007247114349999999,0.0327149844,0.035072,-0.035523,-0.011138,1.3228190185,-3.165978886,-9.1867716535,0.14301,0.32873,-1.4744,-4.999999999988347e-05,-9.999999999998899e-05,-2.4999999999941735e-05,-2.7953212139719685e-05,0.00023098346063510355,-0.000551676603628759
149740000000.0,-1,-0.039030467,-0.01266038515,0.05905564629999999,0.037175,-0.042995,-0.016458,1.3187002255,-3.1698034795,-9.186085188,0.14258,0.32914,-1.4746,-5.0000000000105516e-05,-0.00019999999999997797,-2.500000000016378e-05,-0.00021436488633314044,-0.00017851962023041068,-0.0004973697084249551
149740000000.0,-1,-0.05650591729999999,-0.0173577705,0.0869457589,0.032968,-0.04295,-0.028206,1.3146794990000001,-3.1735300065,-9.185398722499999,0.14216,0.32954,-1.4749,-3.333333333332966e-05,-9.999999999998899e-05,-2.4999999999941735e-05,0.00019628317128295159,-0.00020684317238184313,-0.00046527481512947944
149740000000.0,-1,-0.08531785499999998,-0.014268675749999998,0.1049507683,0.019269,-0.031103,-0.043193,1.3114433044999998,-3.1759816689999996,-9.1850064565,0.14182,0.32981,-1.4752,-3.333333333332966e-05,-9.999999999998899e-05,-5.0000000000105516e-05,-1.9896139763275755e-05,-0.0005617602663749999,-0.00030420539290942905
149740000000.0,-1,-0.08642600645,0.00032361945,0.07735485519999999,0.004594,-0.006464,-0.056069,1.3106587724999998,-3.1765700679999997,-9.184908389999999,0.14174,0.32987,-1.4758,-3.333333333332966e-05,-0.00019999999999997797,-4.999999999988347e-05,-0.00014688219296044025,-0.0007069409527289405,-0.00013482141045861873
149740000000.0,-1,-0.07077459305,-0.0112384209,0.09752713425,-0.007938,0.024544,-0.060415,1.3131104349999998,-3.1760797354999997,-9.184712257,0.142,0.32981,-1.4764,4.999999999988347e-05,-0.00019999999999997797,-9.999999999998899e-05,0.0002763416334667923,-0.00040329058847499155,-0.00037620467741827923
149740000000.0,-1,-0.0761192173,-0.03498032055,0.16168223855,-0.016279,0.049119,-0.059404,1.3181118265,-3.1753932699999994,-9.1842219245,0.14255,0.32974,-1.4769,5.0000000000105516e-05,-0.00019999999999997797,-9.999999999998899e-05,0.0005783102284735442,-0.00010675253698444465,-0.000387931881683512
149740000000.0,-1,-0.0401484251,-0.02995931575,0.1574163458,-0.02051,0.056607,-0.054087,1.3247803484999998,-3.1741184055,-9.183731591999999,0.14327,0.3296,-1.4775,1.666666666655381e-05,-9.999999999998899e-05,-0.00019999999999997797,-0.0016395374590867373,-0.0008727294183876744,0.0006201697983378995
149740000000.0,-1,-0.019024901,-0.039962098749999994,0.1694981386,-0.029158,0.046016,-0.047679,1.3310566044999999,-3.172451275,-9.183339326,0.14394,0.32943,-1.478,1.6666666666775853e-05,-9.999999999998899e-05,-9.999999999998899e-05,7.523038407514226e-05,-0.0001435906036131307,-0.00034895618669739115
149740000000.0,-1,0.0140235095,-0.03135186005,0.1556119222,-0.03679,0.025833,-0.04659,1.3359599294999998,-3.1698034795,-9.183535459,0.14447,0.32915,-1.4784,1.6666666666775853e-05,-9.999999999998899e-05,-9.999999999998899e-05,0.0008325805913501072,0.0001269238621885993,-0.0005407703979547485
149740000000.0,-1,0.054142514649999994,-0.00021574629999999997,0.11375713999999998,-0.03695,0.007718,-0.043357,1.3396864565,-3.166371152,-9.1842219245,0.14485,0.32878,-1.4789,1.666666666655381e-05,-9.999999999998899e-05,-0.00019999999999997797,0.00022050579767274314,5.583082766169589e-05,-0.00044181552556277204
149740000000.0,-1,0.0652730624,0.0075707338,0.1238579895,-0.034918,-0.00721,-0.04653,1.3422361854999998,-3.1629388245,-9.1850064565,0.14511,0.32841,-1.4794,1.666666666655381e-05,-0.00020000000000020002,9.999999999998899e-05,0.0016081909236559389,0.0004196632164652492,-0.0009858121276214993
149740000000.0,-1,0.06483176315,0.026203368799999998,0.11206058954999999,-0.031739,-0.009365,-0.045455,1.3441975154999999,-3.159506497,-9.1859871215,0.1453,0.32803,-1.4798,1.6666666666775853e-05,0.00020000000000020002,9.999999999998899e-05,0.003424470872161689,0.0019693580038675496,-0.001322947697522836
149740000000.0,-1,0.06281159324999999,0.0441691516,0.0843175767,-0.025285,-0.001957,-0.04439,1.346453045,-3.1560741695,-9.1867716535,0.14553,0.32766,-1.4803,0.00010000000000021103,-0.0002500000000000835,-9.999999999998899e-05,0.0005422538837480673,-0.0005638709796544905,4.944371596482533e-05
149740000000.0,-1,0.0519556317,0.0311459204,0.09650724265,-0.022046,0.005474,-0.040129,1.3492969734999998,-3.1533283075,-9.187261986,0.14582,0.32737,-1.4807,4.999999999988347e-05,-0.0002500000000000835,-0.000400000000000178,-0.002422731663321853,-0.002540389679772437,0.0008764939861922727
149740000000.0,-1,0.06332153905,0.01905432095,0.10254813904999999,-0.030603,0.006607,-0.033743,1.3524351015,-3.150484379,-9.1877523185,0.14615,0.32706,-1.4811,5.0000000000105516e-05,0.00019999999999997797,0.00019999999999997797,0.0038642712821106984,0.002203419065554879,-0.0015798916584910394
149740000000.0,-1,0.0793357985,0.0206331916,0.053465855799999996,-0.041335,0.003494,-0.026285,1.3552790299999997,-3.1462675195,-9.18883105,0.14643,0.3266,-1.4814,9.999999999998899e-05,-0.00019999999999997797,-0.00039999999999995595,-0.0029801461794656814,-0.0026113953523732025,0.001682008698745685
149740000000.0,-1,0.08226798685,0.016024066099999998,-0.00099047165,-0.04883,0.005682,-0.017764,1.3577306925,-3.1411680614999997,-9.190203981,0.14667,0.32606,-1.4816,9.999999999998899e-05,-4.999999999988347e-05,-9.999999999998899e-05,0.00033245357247135843,-2.9766164000299966e-06,-3.038065083260655e-05
149740000000.0,-1,0.062144741049999994,-0.002353596,0.0056094038,-0.055277,0.004664,-0.010303,1.359593956,-3.135970537,-9.191674978499998,0.14685,0.3255,-1.4817,5.0000000000105516e-05,-5.0000000000105516e-05,-9.999999999998899e-05,0.0006850186392509672,-0.00019250287433014712,0.00013669651982450848
149740000000.0,-1,0.03405849545,0.0117287534,0.005275977699999999,-0.06061,0.006837,-0.007114,1.3609668869999998,-3.1301846134999995,-9.1934401755,0.14697,0.32487,-1.4817,4.999999999988347e-05,-3.333333333332966e-05,-4.999999999988347e-05,0.00014881679854777952,-0.00021749512172308805,0.00015040854157521988
149740000000.0,-1,0.02548748335,0.0402661049,-0.04749360595,-0.063809,0.010057,-0.002856,1.3624378844999998,-3.1232218919999997,-9.195597638499999,0.14709,0.32413,-1.4816,3.333333333332966e-05,-3.333333333332966e-05,-5.0000000000105516e-05,0.0006780642780916946,-1.997082161930841e-05,8.34475939617274e-05
149740000000.0,-1,0.00222610955,0.051582978999999994,-0.07789422095,-0.056325,0.016382,0.003549,1.3637127489999998,-3.1166514364999998,-9.197657034999999,0.14719,0.32341,-1.4815,3.333333333332966e-05,-3.333333333332966e-05,5.999999999994898e-05,-0.0001656919911446897,0.00028137630943270153,0.00031958564641110243
149740000000.0,-1,-0.026085689,0.0497981687,-0.08297406565,-0.041413,0.018381,0.011044,1.364497281,-3.1113558455,-9.199324165499998,0.14725,0.32285,-1.4813,3.333333333332966e-05,-3.333333333332966e-05,5.999999999994898e-05,-0.0018519517430374832,-0.0005064162608037215,0.0005826496454520713
149740000000.0,-1,-0.04855272415,0.02383996615,-0.0526420972,-0.02442,0.012904,0.017488,1.3643011479999998,-3.1085119169999995,-9.200304830499999,0.14722,0.32254,-1.4811,-1.999999999990898e-05,-3.333333333332966e-05,6.000000000017103e-05,-0.000538273653291399,0.0003635250062081763,-5.512624944958855e-05
149740000000.0,-1,-0.058447634,-0.0080806796,-0.033568162949999994,-0.007451,-0.003217,0.012209,1.3630262835,-3.107531252,-9.2008932295,0.14707,0.32244,-1.4809,-2.0000000000131024e-05,-3.333333333332966e-05,5.999999999994898e-05,0.0002908135900826503,0.0006962795967229152,-0.0005717786716571416
149740000000.0,-1,-0.05788865495,-0.018161915799999998,-0.04604222175,0.003071,-0.025677,0.005863,1.3597900889999999,-3.107727385,-9.2012854955,0.14672,0.32246,-1.4807,-1.999999999990898e-05,-0.00014999999999987246,5.999999999994898e-05,0.0048314140631791624,0.0038858861508177522,-0.0023156131901139743
149740000000.0,-1,-0.0385989744,-0.05375024864999999,-0.05333836935,0.008239,-0.051288,-0.001553,1.354690631,-3.1090022494999996,-9.201579695,0.14617,0.3226,-1.4807,-2.0000000000131024e-05,-0.0001500000000000945,-0.00029999999999996696,-0.0037957550537658924,-0.0023153438385095093,0.0010854166704850066
149740000000.0,-1,-0.052740163699999995,-0.0915352711,-0.030949787399999998,-0.000396,-0.071454,-0.013273,1.3477279094999999,-3.1103751804999997,-9.202168094,0.14542,0.32275,-1.4808,-1.999999999990898e-05,-0.001100000000000101,0.00039999999999995595,0.004884769658536681,0.003588644272727315,-0.002067019606808329
149740000000.0,-1,-0.07185332455,-0.0757661779,-0.053573728949999996,-0.010032,-0.079896,-0.019678,1.3395883899999999,-3.110473247,-9.203344891999999,0.14454,0.32275,-1.4809,0.00039999999999995595,-0.0010999999999998789,0.000600000000000156,-0.007959452668568512,-0.0076766247832966705,-0.006995880284755507
149740000000.0,-1,-0.0926924558,-0.0522498312,-0.08022820365,-0.019515,-0.067032,-0.022917,1.3318411364999998,-3.1090022494999996,-9.204913956,0.14369,0.3226,-1.4811,-0.00039999999999995595,0.0017000000000000348,-0.000600000000000156,0.008942520147724398,0.007965304086183123,0.006285988638459417
149740000000.0,-1,-0.14977696545,-0.05206350485,-0.03853032785,-0.024697,-0.04888,-0.024023,1.324878415,-3.1072370525,-9.2065810865,0.14293,0.32241,-1.4812,-4.999999999988347e-05,-0.00029999999999996696,-0.00019999999999997797,-0.00469672357536477,-0.003020527818845098,0.0015485267863113439
149740000000.0,-1,-0.16548721875,-0.055387959199999996,-0.0282039254,-0.024509,-0.027573,-0.02726,1.319778957,-3.1053737889999997,-9.207855950999999,0.14236,0.32221,-1.4813,-5.0000000000105516e-05,-0.00020000000000020002,0.00019999999999997797,0.006450733072278059,0.002641668257628238,-0.003055670151562939
149740000000.0,-1,-0.1501594248,-0.056025391449999996,-0.00418743955,-0.014768,-0.013801,-0.032603,1.3165427625,-3.1042950575,-9.2087385495,0.14201,0.32209,-1.4815,-5.0000000000105516e-05,-0.00019999999999997797,5.0000000000105516e-05,0.0001138840837651145,0.0004984210760430319,-0.0005831213572926597
149740000000.0,-1,-0.1205433418,-0.05098477334999999,0.021790376299999997,-0.00619,-0.012804,-0.038992,1.3146794990000001,-3.104000858,-9.209130815499998,0.1418,0.32206,-1.4819,-4.999999999988347e-05,-0.00019999999999997797,4.999999999988347e-05,-0.0005509097097322613,0.0002246307555042737,-0.0006887294608539651
149740000000.0,-1,-0.07693316924999999,-0.058055367999999996,0.04446335109999999,0.002291,-0.024591,-0.046427,1.3128162354999997,-3.1045892569999998,-9.209130815499998,0.1416,0.32212,-1.4823,-3.333333333332966e-05,-0.00029999999999996696,9.999999999998899e-05,6.437893394561911e-05,9.796110968562921e-05,-0.0007925981963410322
149740000000.0,-1,-0.0460324151,-0.0529951366,0.0484056244,0.008575,-0.044882,-0.054919,1.3100703734999999,-3.105569922,-9.209228882,0.1413,0.32223,-1.4828,-3.333333333332966e-05,-0.00019999999999997797,9.999999999998899e-05,-0.0005544534601256146,0.00019263029703608936,-0.0007666593812041267
149740000000.0,-1,-0.015759286549999998,-0.05288726345,0.04992565515,0.013831,-0.059836,-0.062355,1.3063438465,-3.1070409194999997,-9.209228882,0.14092,0.32238,-1.4834,-3.333333333332966e-05,-0.00019999999999997797,-9.999999999998899e-05,-0.0006178687277998973,-0.00011701981179101928,-0.0007819321103360588
149740000000.0,-1,-0.0006668522,-0.04639526115,0.0635274787,0.01492,-0.061969,-0.069821,1.3028134525,-3.1086099834999996,-9.209228882,0.14053,0.32255,-1.4842,1.4285714285744433e-05,-0.00029999999999996696,-3.333333333332966e-05,-0.00014215276161932966,-0.00023589495888098888,-0.0009398673142041458
149740000000.0,-1,0.01783829635,-0.027429200049999998,0.07827668029999998,0.013975,-0.052361,-0.078379,1.3004598565,-3.109688715,-9.209130815499998,0.14029,0.32267,-1.485,1.4285714285744433e-05,-0.00029999999999996696,-3.333333333332966e-05,-8.648242439301956e-05,-0.00018347068298152358,-0.0008694080426886464
149740000000.0,-1,0.030989014,-0.0228887211,0.11176639004999998,0.013079,-0.035295,-0.084816,1.300165657,-3.110865513,-9.208836616,0.14026,0.32279,-1.4859,1.4285714285744433e-05,-0.00019999999999997797,-3.333333333332966e-05,-9.939177391138365e-05,0.00014244252864492601,-0.0009190110815042729
149740000000.0,-1,0.04310022674999999,-0.02191786275,0.16754661524999998,0.000402,-0.024524,-0.092329,1.3017347209999999,-3.1111597124999997,-9.2085424165,0.14043,0.32283,-1.4869,1.4285714285522388e-05,-0.000300000000000189,-9.999999999998899e-05,0.000570355280537227,-9.705700753648294e-05,-0.000767756186863644
149740000000.0,-1,0.07395194764999999,0.00687446165,0.17668641304999996,-0.016626,-0.020116,-0.093436,1.3043825164999998,-3.1095906484999998,-9.208640483,0.14071,0.32266,-1.4879,1.4285714285744433e-05,-0.00019999999999997797,-9.999999999998899e-05,7.034605881767186e-05,-0.0001187269970617244,-0.0005524720088123658
149740000000.0,-1,0.08754396454999999,0.0234967334,0.12892802755,-0.028362,-0.016824,-0.088126,1.307422578,-3.106158321,-9.209425015,0.14102,0.32229,-1.4889,1.4285714285744433e-05,-0.00019999999999997797,-9.999999999998899e-05,5.065117009706022e-07,-9.138817963183499e-05,-0.0005774979481354414
149740000000.0,-1,0.09401635355,0.0262229821,0.1272510904,-0.033676,-0.010389,-0.081744,1.310756839,-3.1021375945,-9.210209547,0.14137,0.32186,-1.4898,1.4285714285744433e-05,-9.999999999998899e-05,-9.999999999998899e-05,0.0008376029339253743,-0.0001559895339093842,-0.0005422468364054689
149740000000.0,-1,0.07762944139999998,0.05100438665,0.16928239229999997,-0.039014,-0.006086,-0.074291,1.314287233,-3.0976265354999994,-9.2112882785,0.14173,0.32137,-1.4906,9.999999999998899e-05,-0.00019999999999997797,-9.999999999998899e-05,0.0011100969235265934,0.0001108735707970876,-0.0009170422426457714
149740000000.0,-1,0.0633313457,0.08652407294999999,0.17465643649999998,-0.037951,-0.001836,-0.066826,1.317817627,-3.0926251439999994,-9.2124650765,0.14208,0.32083,-1.4913,5.0000000000105516e-05,-0.00019999999999997797,-9.999999999998899e-05,0.0008900244682612524,0.00039884078317053984,-0.0006914686774690537
149740000000.0,-1,0.0671951658,0.0946537858,0.18232523679999998,-0.040149,-0.005019,-0.059354,1.3209557549999997,-3.0875256859999998,-9.213739941,0.1424,0.32029,-1.4919,4.999999999988347e-05,-0.00019999999999997797,-0.00019999999999997797,0.0010537519347130209,0.00039838460459384883,-0.0009180815714960877
149740000000.0,-1,0.07408924075,0.09303568855,0.17640202019999998,-0.037053,-0.014636,-0.053997,1.3234074174999997,-3.0828184939999996,-9.214916739,0.14264,0.31978,-1.4925,9.999999999998899e-05,-9.999999999998899e-05,-9.999999999998899e-05,0.001149650639108879,0.00027654934865695147,-0.0010534720195829461
149740000000.0,-1,0.10037106274999999,0.0756877247,0.19645661944999998,-0.03818,-0.02208,-0.053988,1.3253687474999998,-3.078307435,-9.2161916035,0.14283,0.3193,-1.4931,0.00019999999999997797,-4.999999999988347e-05,-9.999999999998899e-05,0.00033323085363623495,3.426629661418268e-05,-9.849249098337065e-05
149740000000.0,-1,0.13573384265,0.050504247499999995,0.20704780144999999,-0.042556,-0.036954,-0.056106,1.326839745,-3.0737963759999998,-9.217466468,0.14296,0.31881,-1.4937,9.999999999998899e-05,-5.0000000000105516e-05,-0.00019999999999997797,0.001322352272706162,0.0006074495294332571,-0.0006826807003816882
149740000000.0,-1,0.17095932945,0.04329635974999999,0.1485511342,-0.052238,-0.04433,-0.051843,1.32782041,-3.0684027185,-9.2191335985,0.14304,0.31823,-1.4943,0.00019999999999997797,-9.999999999998899e-05,-0.00029999999999996696,0.00125716700666334,0.00044872437984500024,-0.00020854041970730375
149740000000.0,-1,0.17113584915,0.03035158175,0.14059794105,-0.066175,-0.047413,-0.043326,1.3281146094999998,-3.062028396,-9.221192995,0.14304,0.31755,-1.4948,9.999999999998899e-05,-3.333333333332966e-05,-0.00019999999999997797,0.000623694968734545,0.00026830913680586654,-0.00010660877272605784
149740000000.0,-1,0.148080415,0.03125379355,0.12560357319999998,-0.082242,-0.047287,-0.030547,1.3275262104999999,-3.0542811425,-9.223840790499999,0.14294,0.31671,-1.4951,0.00019999999999997797,-3.333333333332966e-05,-0.00020000000000020002,0.0013513887282820547,0.00022708417083516785,-0.0002908622449864229
149740000000.0,-1,0.1238776028,0.03307783045,0.07059807335,-0.09075,-0.03444,-0.015643,1.326839745,-3.0452590244999995,-9.226880852,0.14282,0.31575,-1.4953,9.999999999998899e-05,-3.333333333332966e-05,-0.00019999999999997797,0.0008398268381781815,0.0003166516468067204,6.629407739566773e-05
149740000000.0,-1,0.0783355202,0.0330484105,0.05826130765,-0.092827,-0.020578,-0.004999,1.3264474789999998,-3.0361388399999996,-9.23001898,0.14274,0.31477,-1.4953,0.00029999999999996696,9.999999999998899e-05,-9.999999999998899e-05,-0.00044096209063726466,-1.345139529074224e-05,0.0006491459945400235
149740000000.0,-1,0.045404789499999994,0.061066009549999994,0.06305675949999999,-0.087433,-0.008905,0.001393,1.3263494125,-3.0270186554999996,-9.232960975,0.14267,0.3138,-1.4952,9.999999999998899e-05,-9.999999999998899e-05,-0.00019999999999997797,0.0007169790502413731,0.0003093425911731007,-0.00019073053403306783
149740000000.0,-1,0.051985051649999996,0.0856512811,0.03594137225,-0.076777,-0.006865,0.006744,1.3264474789999998,-3.0183888034999997,-9.2358049035,0.14265,0.31287,-1.495,9.999999999998899e-05,-9.999999999998899e-05,-0.00019999999999997797,0.001022649023104616,0.0004047197885259646,-5.809030289638528e-05
149740000000.0,-1,0.0384616813,0.10623543945,0.0279881791,-0.055502,-0.01237,0.009991,1.326055213,-3.0113280154999997,-9.238158499499999,0.14257,0.31211,-1.4948,0.00020000000000020002,9.999999999998899e-05,-9.999999999998899e-05,-0.00010280398779138888,0.0006134745999348823,0.0002105583868370342
149740000000.0,-1,0.030537908099999997,0.1033424777,0.051377039349999994,-0.042771,-0.01887,0.013225,1.324878415,-3.005738225,-9.240217895999999,0.14241,0.31151,-1.4947,9.999999999998899e-05,5.0000000000105516e-05,-0.00019999999999997797,0.00017538783686116277,0.0009618508693600702,6.291960164328536e-06
149740000000.0,-1,0.0473072796,0.07760982809999999,0.04308061345,-0.034358,-0.033856,0.013265,1.3226228854999997,-3.001423299,-9.241885026499999,0.14215,0.31105,-1.4945,0.00019999999999997797,4.999999999988347e-05,-0.00019999999999997797,8.185308698149818e-05,0.00044586162469673063,-4.939023379124663e-05
149740000000.0,-1,0.07457957324999999,0.0605266438,0.019005287699999998,-0.033334,-0.040253,0.011142,1.3198770234999997,-2.9975006389999996,-9.243552157,0.14183,0.31063,-1.4944,0.00019999999999997797,9.999999999998899e-05,-9.999999999998899e-05,0.00019725485199850734,0.00028449863155532995,6.770451927573529e-05
149740000000.0,-1,0.08560224785000001,0.032577691299999996,0.029155170449999997,-0.035485,-0.045554,0.005809,1.3169350284999999,-2.9937741119999997,-9.2452192875,0.1415,0.31023,-1.4943,0.00019999999999997797,9.999999999998899e-05,-9.999999999998899e-05,0.00024252972373373094,0.0004003537377328392,8.492832830275798e-05
149740000000.0,-1,0.0940065469,0.0073157609,0.029076717250000002,-0.040788,-0.042308,0.004725,1.3143852995,-2.9900475849999997,-9.2467883515,0.1412,0.30983,-1.4942,0.00019999999999997797,9.999999999998899e-05,-0.00019999999999997797,0.00048425084949399455,0.0003986892395859698,1.0406441035559766e-05
149740000000.0,-1,0.1050292215,-6.864654999999999e-05,0.02487947105,-0.048219,-0.031597,0.014299,1.3125220359999998,-2.9858307255,-9.2483574155,0.14097,0.30938,-1.4941,0.00019999999999997797,9.999999999998899e-05,-9.999999999998899e-05,0.0004895568145422691,-1.82861316191385e-05,0.00018101321996366604
149740000000.0,-1,0.08489616905,-0.004118793,0.013827376499999999,-0.051321,-0.011335,0.027066,1.3116394375,-2.981417733,-9.2499264795,0.14086,0.30891,-1.4938,0.00029999999999996696,9.999999999998899e-05,-9.999999999998899e-05,0.0006218626686798623,0.00011265997999565514,0.0004193086362695997
149740000000.0,-1,0.0855336013,-0.031950065699999995,0.0324011716,-0.054473,0.002535,0.039844,1.311933637,-2.9775931395,-9.2511032775,0.14087,0.3085,-1.4934,0.00019999999999997797,0.00019999999999997797,-0.00020000000000020002,-4.7755264787729956e-05,0.0006003079492131747,0.00026547348401217974
149740000000.0,-1,0.09287878214999999,-0.0357746592,0.0289100042,-0.060904,0.004713,0.049435,1.3125220359999998,-2.9732782135,-9.252378142,0.14092,0.30804,-1.4929,0.00019999999999997797,9.999999999998899e-05,-9.999999999998899e-05,0.0007715860647889983,2.2879650347862324e-05,-1.5021823019933933e-05
149740000000.0,-1,0.1020872265,-0.03141069995,-0.02474217795,-0.063125,-0.001666,0.056913,1.3126201025,-2.9683748885,-9.253947206,0.1409,0.30751,-1.4923,0.00020000000000020002,0.00019999999999997797,-9.999999999998899e-05,0.00016511144740855022,0.00029821635110871547,0.0006667347381248412
149740000000.0,-1,0.09676221555,-0.03717701015,-0.045277303049999995,-0.065351,-0.011238,0.060127,1.3114433044999998,-2.963373497,-9.255712402999999,0.14076,0.30698,-1.4916,0.00029999999999996696,0.00019999999999997797,-9.999999999998899e-05,0.00013241301365102265,0.0006490212054901523,0.0005388727863872012
149740000000.0,-1,0.0806302763,-0.02378112625,-0.0424824078,-0.060101,-0.021934,0.060154,1.3090897085,-2.9584701719999997,-9.257673732999999,0.14047,0.30646,-1.4909,0.00029999999999996696,0.00019999999999997797,1.999999999990898e-05,-0.0002778573973050702,0.0005013122542101289,0.0005376492182659343
149740000000.0,-1,0.07640361015,-0.00043149259999999994,-0.06869558325,-0.051603,-0.028392,0.056977,1.3059515805,-2.9538610464999997,-9.2595369965,0.14011,0.30596,-1.4903,0.00029999999999996696,0.00019999999999997797,2.0000000000131024e-05,0.0002153042741054323,0.000516328155019119,0.0008156111905732732
149740000000.0,-1,0.0654299688,0.014258869099999998,-0.06196822135,-0.037757,-0.030636,0.058071,1.3024211865,-2.9503306525,-9.261204127,0.13971,0.30558,-1.4897,0.00029999999999996696,0.00020000000000020002,1.999999999990898e-05,0.00043406577247190326,0.0004088844066205688,0.00046172535785127256
149740000000.0,-1,0.03576485255,0.00457970555,-0.0458755087,-0.026014,-0.029666,0.058089,1.2983023935,-2.9480751229999997,-9.262478991499998,0.13926,0.30535,-1.489,0.00019999999999997797,0.00019999999999997797,2.0000000000131024e-05,-4.002194653018876e-06,0.0006279693278699039,0.0008491226661706541
149740000000.0,-1,0.01495514125,0.00791396655,-0.03571581929999999,-0.02178,-0.035026,0.055971,1.2934971349999997,-2.946506059,-9.2636557895,0.13873,0.30517,-1.4884,0.00029999999999996696,0.00019999999999997797,1.999999999990898e-05,-3.793863430862077e-05,0.00022339706070151344,0.0008355188072560749
149740000000.0,-1,0.028576578099999996,0.02331040705,-0.05620191115,-0.022893,-0.039281,0.058111,1.2884957435,-2.9443485959999998,-9.2650287205,0.13819,0.30495,-1.4878,0.00019999999999997797,0.00019999999999997797,-5.0000000000105516e-05,9.988629117269054e-05,0.0005376521802378242,0.0006102339046158978
149740000000.0,-1,0.01617116585,0.03881472069999999,-0.0643904639,-0.019677,-0.035049,0.06131,1.2833962854999998,-2.942191133,-9.266401651499999,0.13763,0.30472,-1.4871,0.00020000000000020002,0.00019999999999997797,-4.999999999988347e-05,-0.0005434260060035445,5.415123454954873e-05,0.0004977817480851243
149740000000.0,-1,-0.029733762799999997,0.041648842549999995,-0.02433029865,-0.020713,-0.027588,0.066632,1.278198761,-2.9404259359999996,-9.267676516,0.13705,0.30452,-1.4864,0.00019999999999997797,0.00029999999999996696,-4.999999999988347e-05,0.0006026996008888785,3.813702398414165e-05,0.0006771959537928973
149740000000.0,-1,-0.061811314949999994,0.0452086565,-0.0008335652500000001,-0.018537,-0.020153,0.069825,1.2730012365,-2.9388568719999997,-9.268951380499999,0.13649,0.30436,-1.4856,0.00019999999999997797,0.00019999999999997797,-5.0000000000105516e-05,0.000297489619953184,0.0002596190747450322,0.00021905688516132837
149740000000.0,-1,-0.06559668184999999,0.04882731034999999,-0.010071429549999998,-0.010967,-0.008495,0.067683,1.2688824435,-2.9377781405,-9.269833979,0.13603,0.30424,-1.4849,0.00019999999999997797,9.999999999998899e-05,9.999999999998899e-05,0.0007657975158250063,0.00014952230404663425,-5.811854926474069e-05
149740000000.0,-1,-0.0675678185,0.0233594403,0.03725546335,-0.013068,-0.006346,0.064474,1.2652539829999998,-2.937287808,-9.270520444499999,0.13564,0.30419,-1.4841,0.00029999999999996696,0.00019999999999997797,9.999999999998899e-05,0.00019046320885307555,0.0004553908755300373,0.0004240209777918169
149740000000.0,-1,-0.0475622525,0.008433719,0.032999377249999996,-0.017332,-0.010567,0.057003,1.2619197219999998,-2.936503276,-9.27120691,0.13528,0.30411,-1.4835,0.00019999999999997797,0.00019999999999997797,9.999999999998899e-05,0.00011407207578695289,0.00030369912450312064,0.0005420067106808313
149740000000.0,-1,-0.04361997919999999,0.0034617474499999998,0.006207609449999999,-0.025933,-0.020086,0.054871,1.257800929,-2.9350322785,-9.272187575,0.13483,0.30395,-1.4828,0.00019999999999997797,0.00020000000000020002,9.999999999998899e-05,0.00016324065689365952,0.00030884859903990147,0.000184148209455115
149740000000.0,-1,-0.050700380499999996,-0.009973363049999998,-0.015553346899999999,-0.032335,-0.022164,0.051662,1.2531918034999998,-2.932972882,-9.2734624395,0.13432,0.30373,-1.4822,0.00019999999999997797,0.00019999999999997797,9.999999999998899e-05,0.0008166089811101895,0.00044570506396812704,0.0002791850357173331
149740000000.0,-1,-0.04223724155,0.008825985,-0.0077080269,-0.031308,-0.02431,0.055937,1.2484846115,-2.9305212194999997,-9.274933437,0.1338,0.30346,-1.4816,0.00019999999999997797,0.00019999999999997797,0.00010000000000021103,5.355034657417157e-05,0.0004960048157598429,0.0004022200375761731
149740000000.0,-1,-0.059134099499999995,0.006423355749999999,0.0026085689,-0.024894,-0.020108,0.060211,1.2437774195,-2.928657956,-9.276110234999999,0.13329,0.30327,-1.4809,0.00020000000000020002,9.999999999998899e-05,9.999999999998899e-05,-0.0002322031841328065,0.0006601298131023725,0.0007217913666189846
149740000000.0,-1,-0.09981208369999998,0.00748247395,0.039716932499999996,-0.015266,-0.016994,0.060224,1.2388740944999999,-2.9279714905,-9.2769928335,0.13276,0.30319,-1.4802,0.00019999999999997797,0.00029999999999996696,9.999999999998899e-05,-0.0004025881987834157,1.640786063128452e-05,0.00046617645839697186
149740000000.0,-1,-0.1079123766,0.048032971699999996,0.047846645349999994,-0.00458,-0.016019,0.058107,1.2339707695,-2.927481158,-9.277777365499999,0.13222,0.30315,-1.4795,9.999999999998899e-05,9.999999999998899e-05,9.999999999998899e-05,-0.0002715181999995431,0.00039461455020606273,0.0001799363916904495
149740000000.0,-1,-0.10507825475,0.04554208259999999,0.05599597149999999,0.003936,-0.020352,0.054928,1.2288713115,-2.9279714905,-9.278267697999999,0.13168,0.3032,-1.4789,0.0005999999999999339,-0.0016000000000000458,9.999999999998899e-05,-0.00786232022288319,-0.006438629802881568,-0.00759917546458444
149740000000.0,-1,-0.10192051344999999,0.023702673049999998,0.07774712119999999,0.004969,-0.029947,0.046408,1.2232815209999999,-2.929246355,-9.278659964,0.13109,0.30333,-1.4783,0.00019999999999997797,0.00019999999999997797,-9.999999999998899e-05,0.0009793416152795165,0.0007579251715255086,0.00056077833324919
149740000000.0,-1,-0.09866470565,0.030008348999999997,0.05751600225,-0.00147,-0.040544,0.03681,1.2171033315,-2.9295405545,-9.2793464295,0.13041,0.30336,-1.4778,9.999999999998899e-05,0.00019999999999997797,-5.0000000000105516e-05,0.0003887439205296772,0.00041454465968482346,-1.1064183970121988e-05
149740000000.0,-1,-0.08042433665,0.02640930845,0.025654196399999996,-0.011073,-0.045787,0.028264,1.2108270755,-2.9287560225,-9.280425160999998,0.12973,0.30328,-1.4775,9.999999999998899e-05,9.999999999998899e-05,-4.999999999988347e-05,0.0001963108876983921,0.00046842682242953515,0.00014951908428695315
149740000000.0,-1,-0.0885540495,0.020623384949999997,0.0117875933,-0.027051,-0.047782,0.019702,1.20425662,-2.9265985594999995,-9.281994225,0.12902,0.30305,-1.4772,-0.00029999999999996696,0.0018000000000000238,-0.0008000000000001339,0.006252932338074613,0.007051775499908652,0.007605314699033694
149740000000.0,-1,-0.10584317345,0.01670072495,-0.025085410699999998,-0.031227,-0.038159,0.016477,1.198176497,-2.923558498,-9.283759422,0.12836,0.30272,-1.4769,9.999999999998899e-05,9.999999999998899e-05,9.999999999998899e-05,-0.0004883370303333523,0.00012346494050530232,-4.429789817750329e-05
149740000000.0,-1,-0.12611351899999998,0.0122779258,-0.036196345149999996,-0.028962,-0.024326,0.012188,1.1928809059999999,-2.9206165029999998,-9.285328486,0.12777,0.30241,-1.4766,9.999999999998899e-05,9.999999999998899e-05,0.00039999999999995595,-0.0002721168873469626,-0.0002717952033928217,-0.004211839724711508
149740000000.0,-1,-0.149845612,0.01854437515,-0.0014415775499999998,-0.017181,-0.021228,0.007935,1.1880756474999998,-2.918655173,-9.2866033505,0.12724,0.3022,-1.4764,0.00039999999999995595,-0.0016999999999998128,0.000400000000000178,-0.006194343062883856,-0.005585344978017215,-0.003814767612335679
149740000000.0,-1,-0.1745975966,0.0192014207,0.0134939504,-0.010767,-0.022349,0.00368,1.182878123,-2.9175764414999996,-9.287584015499998,0.12668,0.30208,-1.4763,-9.999999999998899e-05,3.333333333332966e-05,3.333333333332966e-05,0.00015532762798647903,0.0004708263449944017,-0.0006947656416050885
149740000000.0,-1,-0.17780437115,0.03668667765,-0.00656064885,-0.002301,-0.034143,-0.00162,1.1768960665,-2.9165957765,-9.288662747,0.12604,0.30198,-1.4762,-9.999999999998899e-05,3.333333333332966e-05,3.333333333332966e-05,-0.0007570596988596412,0.00035895144116482314,-0.00014125014393717716
149740000000.0,-1,-0.19267125255,0.044100505049999995,-0.022202255599999998,-0.000189,-0.040556,-0.008007,1.1701294779999998,-2.9158112444999995,-9.2897414785,0.1253,0.30189,-1.4761,-9.999999999998899e-05,3.333333333332966e-05,3.333333333332966e-05,0.0009675249415729281,0.0007966296290511377,-0.000501253193262774
149740000000.0,-1,-0.19620164655,0.043374812949999994,-0.04455161095,0.009413,-0.047026,-0.018651,1.162872557,-2.915517045,-9.290722143499998,0.12452,0.30186,-1.4762,-9.999999999998899e-05,0.0015999999999998238,-0.000700000000000145,0.006238291285240338,0.006543115895715879,0.007094906777584287
149740000000.0,-1,-0.19203382029999996,0.0026870221,-0.03807922195,0.014784,-0.047071,-0.026112,1.155811769,-2.9163015769999996,-9.291408609,0.12376,0.30195,-1.4763,-5.0000000000105516e-05,-9.999999999998899e-05,3.333333333332966e-05,0.00023560364134500578,0.0005341286952671442,-0.00045115263919848214
149740000000.0,-1,-0.19494639535,-0.03478418755,0.0020299765499999997,0.021277,-0.041796,-0.035714,1.1494374465,-2.9183609735,-9.291506675499999,0.12309,0.30216,-1.4766,-4.999999999988347e-05,-0.00019999999999997797,3.333333333332966e-05,0.00044979126681710113,-0.00023919122167348483,-0.0014286860820191816
149740000000.0,-1,-0.1856202712,-0.0730203159,0.0456793757,0.025643,-0.038628,-0.049587,1.144043789,-2.9214991015,-9.291212475999998,0.12252,0.30251,-1.477,4.999999999988347e-05,-9.999999999998899e-05,3.333333333332966e-05,0.0006492419214122469,0.0011843008520222575,-0.00041144687940242175
149740000000.0,-1,-0.16013278784999999,-0.0948891454,0.07652128995,0.024661,-0.03861,-0.065598,1.1396307964999999,-2.9251275619999997,-9.290624076999999,0.12206,0.30289,-1.4776,5.0000000000105516e-05,-0.00019999999999997797,9.999999999998899e-05,0.0008848549813224027,0.0009192860827305083,-0.00020364183773347033
149740000000.0,-1,-0.10144979424999999,-0.09820379309999999,0.09556580425,0.018275,-0.046007,-0.079471,1.136198469,-2.9282656899999995,-9.290035678,0.1217,0.30322,-1.4784,-9.999999999998899e-05,-9.999999999998899e-05,-9.999999999998899e-05,-7.001215676283312e-05,0.0004007608538478813,-0.0010987693637106721
149740000000.0,-1,-0.051377039349999994,-0.0834153649,0.08893650885,0.005424,-0.056552,-0.085879,1.1327661414999999,-2.929638621,-9.290035678,0.12134,0.30338,-1.4793,4.0000000000040004e-05,-9.999999999998899e-05,8.999999999992347e-05,-0.0003277719742788565,-0.0004751964847049539,-0.0008608083799811483
149740000000.0,-1,-0.023026014199999997,-0.09378099395,0.052171378,-0.00848,-0.060702,-0.084828,1.129333814,-2.9299328204999995,-9.2903298775,0.12096,0.3034,-1.4801,4.0000000000040004e-05,-0.00019999999999997797,9.000000000014552e-05,0.001763332895448444,0.0005764486929782375,-0.0009034636605721458
149740000000.0,-1,-0.0042953127,-0.09495779195,0.04777799879999999,-0.015922,-0.055318,-0.080581,1.1262937524999999,-2.9293444214999997,-9.2909182765,0.12064,0.30334,-1.481,3.999999999981796e-05,-9.999999999998899e-05,8.999999999992347e-05,0.00038854238549079767,-9.987651267273634e-05,-0.0006618587251876473
149740000000.0,-1,0.0009120184499999999,-0.0703332938,0.04604222175,-0.021164,-0.041426,-0.076345,1.1245285555,-2.9279714905,-9.291506675499999,0.12044,0.30319,-1.4817,4.0000000000040004e-05,-0.00019999999999997797,9.000000000014552e-05,0.0002635543814227814,-1.9675991884238186e-05,-0.00096585738770949
149740000000.0,-1,0.0026674088,-0.048140844849999996,0.06714613254999999,-0.02003,-0.030783,-0.072092,1.123645957,-2.9264024264999997,-9.292193141,0.12034,0.30302,-1.4825,4.0000000000040004e-05,-9.999999999998899e-05,8.999999999992347e-05,0.0002426873364003157,-3.05232250297216e-06,-0.0009520557719584488
149740000000.0,-1,0.00257914895,-0.01958388005,0.0768252961,-0.015718,-0.02549,-0.072094,1.123449824,-2.9246372294999996,-9.2926834735,0.12031,0.30284,-1.4832,4.0000000000040004e-05,-9.999999999998899e-05,8.999999999992347e-05,-3.768549597260584e-05,0.0001287212520375558,-0.0008316465078853641
149740000000.0,-1,0.024085132399999997,0.011022674599999999,0.06673425325,-0.010349,-0.024462,-0.077424,1.1239401565,-2.9228720324999995,-9.2932718725,0.12036,0.30264,-1.484,4.0000000000040004e-05,-9.999999999998899e-05,9.000000000014552e-05,-1.3198014069626396e-05,0.00037932466979051505,-0.0011062201253473347
149740000000.0,-1,0.03637286485,0.023771319599999997,0.0557606119,-0.00825,-0.030868,-0.080612,1.1243324225,-2.9209107025,-9.293762205,0.1204,0.30244,-1.4848,3.999999999981796e-05,-9.999999999998899e-05,8.999999999992347e-05,-0.000566336314548499,0.0007974115655713376,-0.0010623919364942669
149740000000.0,-1,0.04480658385,0.036647451049999995,0.05119071299999999,-0.007231,-0.039394,-0.084865,1.1243324225,-2.918851306,-9.2944486705,0.12038,0.30222,-1.4857,4.0000000000040004e-05,-9.999999999998899e-05,9.000000000014552e-05,-9.783777013550043e-06,0.0004431012984900118,-0.0009238910933168087
149740000000.0,-1,0.0587222202,0.0471307599,0.029527823149999997,-0.008331,-0.042581,-0.083795,1.124038223,-2.9163996434999997,-9.295233202499999,0.12034,0.30196,-1.4866,4.0000000000040004e-05,-0.0017000000000000348,8.999999999992347e-05,-0.009691772896394724,-0.005161530536600845,-0.00773341747750611
149740000000.0,-1,0.07034310044999999,0.011875853149999999,0.0245558516,-0.005158,-0.044737,-0.081652,1.123449824,-2.9148305795,-9.2958216015,0.12027,0.30179,-1.4875,-9.999999999998899e-05,-9.999999999998899e-05,-0.000400000000000178,0.0014430746599924382,0.001214415924053469,-0.0005167119287541322
149740000000.0,-1,0.07052942679999999,-0.0032558077999999997,0.04604222175,-0.009457,-0.050024,-0.083786,1.1225672254999999,-2.9134576485,-9.296311934,0.12017,0.30165,-1.4884,-9.999999999998899e-05,0.0015999999999998238,-0.00039999999999995595,0.009873908913075824,0.00644876524027338,0.005919370305220162
149740000000.0,-1,0.08504326879999999,0.0017063571,0.0370887503,-0.01377,-0.056378,-0.084851,1.121488494,-2.9113982519999997,-9.297096466,0.12005,0.30143,-1.4893,-9.999999999998899e-05,-3.333333333332966e-05,-9.999999999998899e-05,-0.0005370033860029322,-0.0010782774626829639,-0.0020410025408345023
149740000000.0,-1,0.0831015521,0.00036284604999999996,-0.0008433719,-0.022317,-0.058434,-0.08593,1.1200174965,-2.908456257,-9.298273263999999,0.11987,0.30111,-1.4902,1.999999999990898e-05,-3.333333333332966e-05,2.4999999999941735e-05,0.0002268983442924588,-0.00030732734840110965,-0.0012978001874629497
149740000000.0,-1,0.0673128456,0.02019189235,-0.011532620399999999,-0.027665,-0.057326,-0.081673,1.1179581,-2.9046316635,-9.299646195,0.11964,0.3007,-1.4911,2.0000000000131024e-05,-3.333333333332966e-05,2.500000000016378e-05,-0.00013234482044277573,-0.00038460230349190994,-0.000549434386161507
149740000000.0,-1,0.06556726189999999,0.01844630865,-0.0215942433,-0.028683,-0.04773,-0.076355,1.116585169,-2.9005128704999996,-9.3011171925,0.11948,0.30026,-1.4919,1.999999999990898e-05,-3.333333333332966e-05,2.4999999999941735e-05,-0.00031912023618091423,9.381974810152016e-05,-0.000996763376338139
149740000000.0,-1,0.049023443349999994,0.0177108099,-0.016720338249999998,-0.020115,-0.038217,-0.067819,1.115604504,-2.8971786095,-9.302293990499999,0.11936,0.29991,-1.4926,2.0000000000131024e-05,-3.333333333332966e-05,2.4999999999941735e-05,-0.0002120921077973792,-6.907724285243333e-06,-0.0005867788685733899
149740000000.0,-1,0.033764295949999995,0.00877695175,0.00199074995,-0.010503,-0.032973,-0.061407,1.1147219055,-2.8951192129999996,-9.302980456,0.11925,0.29969,-1.4933,1.999999999990898e-05,-3.333333333332966e-05,5.0000000000105516e-05,-0.00013487305199527677,1.732494166906129e-05,-0.001189856787861543
149740000000.0,-1,0.031940259049999996,-0.01658304515,0.024987344199999997,-0.006248,-0.034074,-0.060331,1.113839307,-2.894138548,-9.303372721999999,0.11916,0.29958,-1.4939,4.999999999988347e-05,-9.999999999998899e-05,5.0000000000105516e-05,0.0007347795735206386,0.0004559348632038329,-0.0011456476316267228
149740000000.0,-1,0.04861156404999999,-0.00563882375,0.01562199345,-0.000984,-0.041576,-0.058174,1.1127605754999998,-2.8934520824999996,-9.303764988,0.11903,0.29951,-1.4945,5.0000000000105516e-05,-9.999999999998899e-05,4.999999999988347e-05,8.73244578719623e-05,0.0006058771877850422,-0.000870115376445102
149740000000.0,-1,0.05790826824999999,-0.013925443,0.02888058425,-0.001043,-0.054352,-0.066692,1.1107992455,-2.8929617499999996,-9.304157254,0.11882,0.29945,-1.4952,5.0000000000105516e-05,-3.333333333332966e-05,5.0000000000105516e-05,0.0008373095233459305,0.00024075581585525363,-0.0011324013615076067
149740000000.0,-1,0.07541313849999999,-0.038128255199999996,0.04588531535,-0.00858,-0.069195,-0.076286,1.1080533835,-2.892177218,-9.304745653,0.11853,0.29938,-1.496,4.999999999988347e-05,-3.333333333332966e-05,5.0000000000105516e-05,0.0003039981786231438,0.00039159970163638036,-0.0006874170364697951
149740000000.0,-1,0.09403596685,-0.02801759905,0.033548549649999995,-0.013931,-0.073406,-0.079491,1.1052094549999998,-2.8907062205,-9.305530184999999,0.11821,0.29921,-1.4969,9.999999999998899e-05,-3.333333333332966e-05,4.999999999988347e-05,0.0008948578690640141,0.0002613031093761098,-0.0011717745661359302
149740000000.0,-1,0.0838468575,-0.028047019,0.0501315948,-0.014984,-0.071263,-0.07843,1.1021693934999999,-2.8890390899999994,-9.306412783499999,0.11788,0.29903,-1.4977,9.999999999998899e-05,4.999999999988347e-05,-4.999999999988347e-05,0.0004878101323622652,0.0002502361158389643,-0.0007237703633254933
149740000000.0,-1,0.06147788885,-0.035245100099999996,0.08799507044999999,-0.021343,-0.066945,-0.079517,1.0992273984999998,-2.8871758265,-9.307295382,0.11756,0.29884,-1.4986,0.00019999999999997797,5.0000000000105516e-05,-5.0000000000105516e-05,0.0012102230432184946,0.0004320902958601103,-0.0005383801847005376
149740000000.0,-1,0.0763349636,-0.029057103949999996,0.07448150675,-0.024516,-0.063718,-0.079529,1.0969718689999999,-2.8848222304999998,-9.308276047,0.11731,0.29859,-1.4994,0.00010000000000021103,-9.999999999998899e-05,3.333333333332966e-05,7.054151077101611e-05,0.0002758671857381323,-0.0007684834989475364
149740000000.0,-1,0.0654691954,-0.0180834626,0.090025047,-0.021245,-0.053089,-0.07634,1.0953047384999999,-2.8826647674999997,-9.309158645499998,0.11712,0.29835,-1.5002,9.999999999998899e-05,4.999999999988347e-05,3.333333333332966e-05,-3.0418739109416837e-05,-6.567429266612912e-05,-0.0010522746577530384
149740000000.0,-1,0.055740998599999994,-0.0203193788,0.11293338139999999,-0.014754,-0.043547,-0.078481,1.09442214,-2.8809976369999997,-9.309845111,0.11701,0.29818,-1.5011,9.999999999998899e-05,5.0000000000105516e-05,3.333333333332966e-05,-0.00012528461052874196,1.0705063071547727e-06,-0.0009583837320272792
149740000000.0,-1,0.06778356479999999,-0.013395883899999999,0.13589074904999998,-0.011464,-0.033978,-0.080628,1.0947163395,-2.8797227725,-9.3101393105,0.11705,0.29804,-1.5019,0.00019999999999997797,5.0000000000105516e-05,1.4285714285744433e-05,3.708342158698086e-05,0.00031489052751498825,-0.0007267980442415833
149740000000.0,-1,0.08394492399999999,0.0117875933,0.12722167045,-0.000771,-0.03193,-0.081682,1.0956970044999998,-2.8788401739999996,-9.3103354435,0.11714,0.29795,-1.5028,0.00019999999999997797,4.999999999988347e-05,1.4285714285744433e-05,-0.0001888558545827257,0.00040134745175257613,-0.0009092043996742349
149740000000.0,-1,0.1102463593,0.0122190859,0.1340961321,0.007726,-0.03413,-0.077395,1.0970699355,-2.8788401739999996,-9.3101393105,0.11729,0.29795,-1.5037,0.00019999999999997797,9.999999999998899e-05,1.4285714285744433e-05,-2.097091881647639e-05,0.0005562267092742434,-0.001084112785911251
149740000000.0,-1,0.13851893125,-0.005060231399999999,0.14691342364999999,0.009723,-0.046935,-0.069899,1.0977564009999998,-2.879624706,-9.309845111,0.11737,0.29804,-1.5046,0.00029999999999996696,9.999999999998899e-05,1.4285714285522388e-05,0.00036260965552337154,0.00021175636858439262,-0.0003563461323972117
149740000000.0,-1,0.1637122151,-0.0196721399,0.12573105965,-0.005427,-0.069188,-0.062416,1.0966776695,-2.8798208389999997,-9.309845111,0.11726,0.29806,-1.5053,0.00019999999999997797,9.999999999998899e-05,1.4285714285744433e-05,0.0005064676329199491,0.00010318653420005042,-0.00027433546584754165
149740000000.0,-1,0.17896155585,-0.005099457999999999,0.06047761054999999,-0.024758,-0.081814,-0.057093,1.094029874,-2.8775653095,-9.3109238425,0.11696,0.29781,-1.506,0.00019999999999997797,0.00010000000000021103,1.4285714285744433e-05,-0.0001409576368536225,0.00021225630145083052,-0.00012281426474403112
149740000000.0,-1,0.1832470619,0.02897865075,-0.03168528615,-0.03003,-0.065793,-0.044324,1.0914801449999998,-2.8735445829999997,-9.31239484,0.11668,0.29739,-1.5066,0.00029999999999996696,0.00019999999999997797,1.4285714285744433e-05,2.310874497679638e-05,-0.00022794271776493957,0.00015859532782325214
149740000000.0,-1,0.12478962125,0.0290080707,0.0029616083000000002,-0.028791,-0.038102,-0.034766,1.0904014135,-2.8699161225,-9.313669704499999,0.11655,0.29699,-1.507,0.00020000000000020002,0.00019999999999997797,3.333333333332966e-05,-0.0003589955657773425,-0.00029527546440721864,0.00022103186852795442
149740000000.0,-1,0.08524920844999999,0.038442067999999996,0.05161239895,-0.02756,-0.011478,-0.025206,1.0911859455,-2.8665818615,-9.314650369499999,0.11662,0.29664,-1.5073,0.00029999999999996696,0.00019999999999997797,3.333333333332966e-05,-5.069536477048109e-05,-0.0001757917785019103,1.6303553375229818e-05
149740000000.0,-1,0.07901217904999999,0.0720396509,0.032489431449999995,-0.021058,0.008706,-0.013491,1.0934414749999999,-2.8632476005,-9.3154349015,0.11684,0.29628,-1.5075,0.00019999999999997797,0.00019999999999997797,3.333333333332966e-05,-0.0009367025376590399,0.00024008320779378423,-5.9296380848894437e-05
149740000000.0,-1,0.07552101165,0.059545978799999996,0.026428921749999997,-0.012525,0.013958,-0.004948,1.0962854035,-2.8608940044999995,-9.315827167499998,0.11714,0.29604,-1.5076,0.00029999999999996696,0.00029999999999996696,9.999999999998899e-05,-0.00031824736052793456,0.0005892953090824715,9.054266309271863e-05
149740000000.0,-1,0.07985555094999999,0.0530735898,0.042913900399999996,-0.007308,0.005384,0.004682,1.0983448,-2.8595210735,-9.315925234,0.11736,0.29589,-1.5076,0.00019999999999997797,-0.0014000000000000679,9.999999999998899e-05,-0.006135087463536137,0.008305112545265558,0.008578040313471313
149740000000.0,-1,0.07825706699999999,0.04982758864999999,0.0415409694,-0.005317,-0.009552,0.00898,1.099129332,-2.8583442755,-9.316219433499999,0.11743,0.29577,-1.5075,0.00019999999999997797,9.999999999998899e-05,-4.999999999988347e-05,-0.00022857136352699703,0.0013448010126284604,0.0008224708159748628
149740000000.0,-1,0.06777375814999999,0.039834612299999995,0.00930651085,0.001015,-0.018126,0.009004,1.0985409329999998,-2.8577558764999997,-9.316513633,0.11737,0.29571,-1.5075,0.00039999999999995595,0.0019000000000000128,-5.0000000000105516e-05,0.007193710893963201,-0.009755566654189307,-0.010018684178594861
149740000000.0,-1,0.03937369975,0.028331411849999998,0.01099325465,0.006424,-0.010706,0.005798,1.0977564009999998,-2.8579520095,-9.316513633,0.11729,0.29572,-1.5074,0.00029999999999996696,0.00019999999999997797,0.00014999999999987246,1.7651019196041062e-05,-0.00025176676987470614,-0.0002473234399638091
149740000000.0,-1,-0.003530394,0.03080268765,0.053495275749999995,0.014047,0.002029,-0.004886,1.0976583345,-2.8589326745,-9.316219433499999,0.11728,0.29583,-1.5075,0.000300000000000189,-0.0018999999999997907,0.0001500000000000945,-0.004531386949087057,0.012812728085307201,0.012051102900832333
149740000000.0,-1,-0.017259704,0.03870684755,0.0870438254,0.020537,0.010505,-0.009159,1.098737066,-2.860403672,-9.3156310345,0.1174,0.29599,-1.5076,0.00019999999999997797,0.00029999999999996696,-3.333333333332966e-05,0.0017608287113058396,-0.0007242686353670091,-0.0007044257749214689
149740000000.0,-1,-0.02393803265,0.01952504015,0.12944777999999998,0.008814,0.007412,-0.016645,1.0998157975,-2.861776603,-9.315140701999999,0.11753,0.29613,-1.5077,0.00029999999999996696,0.00019999999999997797,-3.333333333332966e-05,0.0010164957142355102,-0.00017848777675810723,-0.00021884266651894801
149740000000.0,-1,-0.014915914649999999,0.0008335652500000001,0.11085437159999999,-0.009354,0.000108,-0.022001,1.1005022629999999,-2.86158047,-9.3150426355,0.1176,0.29611,-1.5079,0.00039999999999995595,0.00019999999999997797,-3.333333333332966e-05,-0.0014330926721904946,-0.0004542490759003037,0.0003245994106561012
149740000000.0,-1,-0.005678050349999999,0.0024712758,0.048493884249999994,-0.027505,-0.000809,-0.020963,1.1009925955,-2.8593249404999996,-9.315729100999999,0.11765,0.29587,-1.5081,0.00029999999999996696,0.00039999999999995595,-9.999999999998899e-05,0.0006518481223614092,-0.001498008518520333,-0.0007331071529605993
149740000000.0,-1,-0.016337878899999998,-0.01807365595,0.06557706854999999,-0.035961,0.008851,-0.020994,1.1019732604999999,-2.8564810119999997,-9.316513633,0.11773,0.29556,-1.5083,0.00019999999999997797,0.00019999999999997797,-9.999999999998899e-05,-0.00034056801444681817,-0.0005894245374666873,-2.077397886801613e-05
149740000000.0,-1,-0.033989848899999994,-0.0289688441,0.09434977964999999,-0.042267,0.020624,-0.021025,1.1037384575,-2.8532448175,-9.317298164999999,0.11791,0.29522,-1.5085,0.000400000000000178,9.999999999998899e-05,-9.999999999998899e-05,0.0007246084839440115,-0.00030925365566569774,-0.00041828363984630634
149740000000.0,-1,-0.04886653694999999,-0.0108265416,0.1085792288,-0.048597,0.031327,-0.017852,1.106386253,-2.849224091,-9.3181807635,0.11818,0.29479,-1.5086,0.00019999999999997797,0.00029999999999996696,-9.999999999998899e-05,0.0031919857391096707,0.00011310521360519132,-0.0004229975659821861
149740000000.0,-1,-0.05020024135,0.011611073599999999,0.11919983074999999,-0.050759,0.032402,-0.010385,1.1092301814999999,-2.844713032,-9.319259494999999,0.11846,0.29431,-1.5086,0.00029999999999996696,0.000300000000000189,-9.999999999998899e-05,0.0013906031937960806,-0.0005347382442753013,0.00038253677534116903
149740000000.0,-1,-0.0610169763,0.02150598345,0.11227633585,-0.05617,0.026045,-0.005046,1.1111915115,-2.8396135739999995,-9.3205343595,0.11866,0.29377,-1.5086,0.00029999999999996696,0.00029999999999996696,-9.999999999998899e-05,0.0016410295909867756,0.00025566755530892493,-0.0005913552500294017
149740000000.0,-1,-0.0748443528,0.030851720899999997,0.07893372585,-0.060539,0.017547,0.001367,1.1118779769999998,-2.8338276505,-9.32220149,0.11871,0.29316,-1.5085,0.0007999999999999119,-0.0008000000000001339,0.0007999999999999119,-0.005709255278774028,-0.0058821248575298135,-0.007114247528812512
149740000000.0,-1,-0.07104917925,0.052338091049999994,0.07962019135,-0.05959,0.006874,0.007792,1.1114857109999998,-2.827845594,-9.3240647535,0.11865,0.29251,-1.5083,0.00039999999999995595,0.00019999999999997797,-9.999999999998899e-05,-0.0006657872185843461,0.00031180502506389374,0.00084499699749363
149740000000.0,-1,-0.07911024554999999,0.04782703205,0.0778255744,-0.057598,-0.005941,0.015291,1.1096224474999998,-2.8221577369999995,-9.326026083499999,0.11843,0.2919,-1.5081,0.000300000000000189,0.00019999999999997797,-0.000500000000000167,-0.001074002560008891,0.0011486970839551525,0.0005132622545676035
149740000000.0,-1,-0.0841018304,0.030430034949999997,0.05575080524999999,-0.050225,-0.014535,0.020657,1.106582386,-2.8171563455,-9.327889347,0.11808,0.29137,-1.5078,-9.999999999998899e-05,0.0019000000000000128,-0.0004999999999999449,0.009703393129263271,0.004014663309529709,0.004290150423690409
149740000000.0,-1,-0.09594826359999999,0.02272200805,0.0713139588,-0.04178,-0.023138,0.024957,1.102463593,-2.813331752,-9.3295564775,0.11762,0.29097,-1.5074,0.00029999999999996696,9.999999999998899e-05,-9.999999999998899e-05,0.0009768345500021924,0.0006778864763796744,0.0004559131873612676
149740000000.0,-1,-0.09100571199999999,0.0060997363,0.08789700395,-0.031159,-0.028558,0.026054,1.0977564009999998,-2.810782023,-9.330831342,0.11711,0.29069,-1.5071,0.00029999999999996696,0.00020000000000020002,-0.00019999999999997797,0.0002170457078732868,0.0009935219420307284,0.001030800871088755
149740000000.0,-1,-0.07414808064999999,-0.026840801049999998,0.09840973274999999,-0.029058,-0.034968,0.022868,1.0927550095,-2.8091148925,-9.3319100735,0.11657,0.29052,-1.5068,0.00029999999999996696,0.00039999999999995595,-0.00019999999999997797,-2.8611496898922617e-06,-0.0008695851520015285,-0.0009471679019438239
149740000000.0,-1,-0.0717062248,-0.02085874455,0.10226374619999999,-0.034454,-0.045578,0.018609,1.0869690859999999,-2.8069574294999997,-9.333283004499998,0.11594,0.29029,-1.5065,0.00019999999999997797,0.00019999999999997797,-9.999999999998899e-05,0.0007924011564985345,0.0010297563219576755,-0.0007073663651016027
149740000000.0,-1,-0.06348825209999999,0.00354020065,0.07645264339999999,-0.043036,-0.05403,0.01434,1.0805947635,-2.803721235,-9.334950135,0.11524,0.28995,-1.5062,0.00029999999999996696,9.999999999998899e-05,-9.999999999998899e-05,0.0009480343056157969,0.0018384713721748547,0.0007968063524259605
149740000000.0,-1,-0.06434143064999999,0.0070313680499999994,0.056241137749999996,-0.055942,-0.065651,0.016474,1.0732397759999999,-2.7991121095000002,-9.337205664499999,0.11444,0.28946,-1.506,0.00019999999999997797,9.999999999998899e-05,-9.999999999998899e-05,9.250722090803354e-05,0.0009133004962718072,0.00030241329273139606
149740000000.0,-1,-0.08581799415,-0.015661220049999997,0.0272428737,-0.071975,-0.06872,0.01752,1.0649041235,-2.7932281195,-9.339951526499998,0.11353,0.28883,-1.5057,0.000300000000000189,-0.00029999999999996696,-5.0000000000105516e-05,-0.002410385496293743,0.003238011002424157,0.0020009972262314824
149740000000.0,-1,-0.0850236555,-0.017573516799999998,-0.036519964599999996,-0.080533,-0.070786,0.018577,1.0561762049999999,-2.786069265,-9.3430896545,0.11257,0.28807,-1.5053,0.00019999999999997797,0.00019999999999997797,-4.999999999988347e-05,0.0004262777480481539,0.0008111935570234152,-0.0005431117894048043
149740000000.0,-1,-0.09980227705,-0.017524483549999997,-0.03696126385,-0.079434,-0.065474,0.020706,1.0474482864999999,-2.7787142774999998,-9.3462277825,0.11161,0.28729,-1.505,0.00029999999999996696,9.999999999998899e-05,-9.999999999998899e-05,0.00037782739576081026,0.0014485135354322942,5.587733031708897e-05
149740000000.0,-1,-0.11768960664999999,-0.03539219984999999,-0.00036284604999999996,-0.071914,-0.059148,0.02071,1.0390145675,-2.7725360880000003,-9.3489736445,0.11068,0.28663,-1.5046,0.00019999999999997797,0.00019999999999997797,0.00039999999999995595,-0.00048788810141825456,0.0008840990711693753,-0.0043020242013421806
149740000000.0,-1,-0.12898686745,-0.029851442599999996,-0.0083748791,-0.062349,-0.064559,0.01967,1.030286649,-2.767044364,-9.351621439999999,0.10973,0.28604,-1.5042,0.0006999999999999229,-0.0009999999999998899,0.00039999999999995595,-0.008701895163388984,-0.004709668063459516,-0.0030737072556475953
149740000000.0,-1,-0.0963797562,-0.029135557149999998,-0.0372260434,-0.0475,-0.074279,0.021849,1.021264531,-2.7626313715,-9.353876969499998,0.10875,0.28558,-1.5039,0.00029999999999996696,9.999999999998899e-05,-3.333333333332966e-05,0.0017278809610890566,0.0014169903954905916,0.0006176348970994283
149740000000.0,-1,-0.0795907714,-0.0338525558,-0.036873003999999994,-0.043346,-0.091362,0.017618,1.011065615,-2.7591009774999997,-9.3560344325,0.10765,0.2852,-1.5036,0.00019999999999997797,9.999999999998899e-05,-3.333333333332966e-05,0.0010168808175440303,0.0011003981095507598,0.00034688302201202337
149740000000.0,-1,-0.0733929686,-0.022270902149999997,-0.08834810985,-0.039254,-0.11059,0.02193,0.998905369,-2.755472517,-9.358388028499999,0.10634,0.28481,-1.5033,0.00020000000000020002,0.00029999999999996696,-3.333333333332966e-05,0.0011032913152925206,0.0006220264703784562,0.000769387714906089
149740000000.0,-1,-0.0710785992,-0.0152395341,-0.16470268675,-0.029712,-0.11387,0.028358,0.9858625244999999,-2.752138256,-9.3607416245,0.10493,0.28446,-1.5029,0.00019999999999997797,9.999999999998899e-05,9.999999999998899e-05,-0.0008193568905993098,0.0014311975299092783,0.0014199706352392427
149740000000.0,-1,-0.09869412559999999,-0.022525875049999998,-0.13329198679999998,-0.019008,-0.10545,0.034768,0.9727314201499999,-2.7502749924999996,-9.3627029545,0.10352,0.28426,-1.5025,0.00019999999999997797,9.999999999998899e-05,9.999999999998899e-05,8.497522977490846e-06,-0.00014625784880006876,-0.0008060236505251783
149740000000.0,-1,-0.1548273902,-0.0290669106,-0.084729456,-0.010407,-0.095936,0.036903,0.9594237961,-2.7495885270000002,-9.3642720185,0.1021,0.28419,-1.502,9.999999999998899e-05,9.999999999998899e-05,4.999999999988347e-05,-0.00011093132161044128,0.0009937697036159765,0.0002494987861819675
149740000000.0,-1,-0.1766766064,0.01320955755,-0.11104069794999999,0.003584,-0.083268,0.032637,0.9470085772,-2.749196261,-9.3656449495,0.10077,0.28415,-1.5016,0.00019999999999997797,9.999999999998899e-05,5.0000000000105516e-05,0.0004950308218735211,-0.0004444272712096353,-0.0010033693145333755
149740000000.0,-1,-0.18490438574999998,0.01825017565,-0.08212088709999998,0.019681,-0.072751,0.030514,0.9357897695999999,-2.7503730589999997,-9.366429481499999,0.099578,0.28427,-1.5012,9.999999999998899e-05,5.0000000000105516e-05,5.0000000000105516e-05,-0.00011780405006567296,0.0004431346680242587,-0.00010195052100125945
149740000000.0,-1,-0.18476709265,-0.0010885381499999998,-0.014298095700000001,0.034715,-0.063288,0.026257,0.9257673732999999,-2.7536092534999996,-9.366527547999999,0.098519,0.28462,-1.5008,9.999999999998899e-05,4.999999999988347e-05,4.999999999988347e-05,0.001739682714692825,0.0011037042127954866,-0.00044378041368375865
149740000000.0,-1,-0.15382711189999998,-0.01925045395,0.021260817199999997,0.040023,-0.070791,0.019876,0.9160784030999999,-2.758022246,-9.366135282,0.097498,0.28509,-1.5006,9.999999999998899e-05,9.999999999998899e-05,0.00010000000000021103,-0.0016133466505325877,0.000734031292654036,-0.0006182133617451679
149740000000.0,-1,-0.11639512884999999,-0.026360275199999998,0.020721451449999997,0.036697,-0.089944,0.014569,0.90573238735,-2.7623371719999996,-9.3658410825,0.096406,0.28554,-1.5004,0.00019999999999997797,9.999999999998899e-05,4.999999999988347e-05,-0.0003626009005611719,0.0006779103430518685,-0.0007863201782786211
149740000000.0,-1,-0.0817286211,-0.054721107,0.00862004535,0.023796,-0.10582,0.009239,0.89425860685,-2.7659656325,-9.365939148999999,0.095192,0.28593,-1.5002,9.999999999998899e-05,-4.999999999988347e-05,5.0000000000105516e-05,9.586825228735663e-05,0.0009771699664482547,-0.0003366601478058673
149740000000.0,-1,-0.0811009955,-0.06698922615,0.0,0.0131,-0.11213,0.004963,0.8821081675,-2.768613428,-9.3662333485,0.093902,0.28622,-1.5002,9.999999999998899e-05,-5.0000000000105516e-05,3.333333333332966e-05,-0.0003653849168601675,0.0006190085503152698,2.8863879464990916e-05
149740000000.0,-1,-0.08908360859999999,-0.061703441799999995,0.00446202575,0.005745,-0.10035,0.001728,0.8706441936499999,-2.7703786249999998,-9.3668217475,0.092683,0.2864,-1.5001,9.999999999998899e-05,-3.333333333332966e-05,3.333333333332966e-05,-0.0003519192831121787,0.0008778317793840529,0.0004953956813178451
149740000000.0,-1,-0.11698352784999999,-0.0496804889,0.03717701015,0.001656,-0.076875,0.003816,0.8606806372499999,-2.7715554229999997,-9.3674101465,0.091624,0.28653,-1.5,9.999999999998899e-05,-3.333333333332966e-05,3.333333333332966e-05,0.0001844755463188963,8.228550673705648e-05,-9.240038115088112e-06
149740000000.0,-1,-0.14320650994999998,-0.014621715149999999,0.07391272105,-0.000288,-0.053422,0.003773,0.8524920844999999,-2.772339955,-9.367900479,0.090751,0.28661,-1.4999,9.999999999998899e-05,-3.333333333332966e-05,2.4999999999941735e-05,-0.0006021725347183371,0.000249176419642394,6.912974748063405e-05
149740000000.0,-1,-0.1374303931,0.0067371685499999995,0.0964778227,-0.004424,-0.036345,0.004805,0.8462648617499999,-2.772339955,-9.368488877999999,0.090086,0.28661,-1.4998,9.999999999998899e-05,-9.999999999998899e-05,2.4999999999941735e-05,-0.0003366102501298762,-3.215625368535591e-05,-8.552767974645548e-05
149740000000.0,-1,-0.13414516534999998,0.0036971070499999996,0.09786056035,-0.006504,-0.027812,0.00799,0.8410379173,-2.7722418885,-9.3689792105,0.089528,0.2866,-1.4996,0.00010000000000021103,-9.999999999998899e-05,2.500000000016378e-05,-0.0011251714720710293,0.0006958507547116799,2.1161803651859046e-05
149740000000.0,-1,-0.0981645665,-0.01175817335,0.1039897166,-0.003305,-0.028907,0.006931,0.8364778250499999,-2.7727322209999996,-9.36927341,0.089043,0.28665,-1.4995,4.999999999988347e-05,-9.999999999998899e-05,2.4999999999941735e-05,-0.0009587432701906318,0.00015915495161222815,-0.00037861000276584456
149740000000.0,-1,-0.06122291595,-0.03686319735,0.12824156204999998,0.000946,-0.035332,0.000546,0.8323099988,-2.773909019,-9.36927341,0.088602,0.28678,-1.4994,5.0000000000105516e-05,-0.00019999999999997797,-5.0000000000105516e-05,-0.0005634728099894737,0.0005199231584060993,-0.0005049171321762636
149740000000.0,-1,-0.04666984735,-0.04669926729999999,0.15371923875000001,0.001991,-0.043858,-0.007977,0.8279264262499999,-2.7755761495,-9.369175343499998,0.088138,0.28696,-1.4995,0.00019999999999997797,-9.999999999998899e-05,-4.999999999988347e-05,0.0009447029924281036,0.0003727512839317715,-0.0003943026419843676
149740000000.0,-1,-0.0383832281,-0.0367160976,0.16077022009999997,-0.008629,-0.044827,-0.018667,0.82353304705,-2.7763606814999995,-9.36927341,0.087671,0.28703,-1.4996,9.999999999998899e-05,-0.00019999999999997797,-9.999999999998899e-05,0.001954586973244077,-0.0004443127412649961,-0.0011454946369761076
149740000000.0,-1,-0.03305821715,-0.02774301285,0.147295883,-0.029909,-0.042514,-0.02618,0.8196986468999999,-2.7749877505,-9.370057941999999,0.087259,0.28689,-1.4998,4.999999999988347e-05,-9.999999999998899e-05,-9.999999999998899e-05,0.0013661035797881138,-0.0005241223140530771,-0.000986763652511491
149740000000.0,-1,-0.04327674645,-0.0178873296,0.11869969159999999,-0.060795,-0.035867,-0.026245,0.8163055459999999,-2.7704766915,-9.3717250725,0.086884,0.28641,-1.5001,5.0000000000105516e-05,-0.00019999999999997797,-0.00020000000000020002,-0.00022528195105747661,-0.00022042521736809206,-0.0003149711446130965
149740000000.0,-1,-0.04668946064999999,-0.030694814499999997,0.07760002145,-0.081963,-0.015447,-0.027385,0.81433440935,-2.7638081695000003,-9.373784469,0.086656,0.2857,-1.5003,9.999999999998899e-05,-0.00010000000000021103,-9.999999999998899e-05,0.0014604303944808494,-0.00035113943318432206,-0.00041533258653714267
149740000000.0,-1,-0.04539498285,-0.030096608849999998,0.11298241464999999,-0.094584,0.007033,-0.027446,0.8145305423499999,-2.755864783,-9.376138065,0.086655,0.28486,-1.5004,9.999999999998899e-05,-0.00019999999999997797,-0.00019999999999997797,0.0016653676110585103,0.0005279731594431958,-8.483983049178967e-05
149740000000.0,-1,-0.0379909621,-0.01793636285,0.16301594295,-0.099805,0.020928,-0.027479,0.8167076186499999,-2.7473329975,-9.378491661,0.086864,0.28395,-1.5006,9.999999999998899e-05,-9.999999999998899e-05,-9.999999999998899e-05,0.0016557409608553564,0.0005810248148099273,-1.976074667442429e-05
149740000000.0,-1,-0.04754263919999999,-0.010983447999999998,0.16048582725,-0.10403,0.027353,-0.02643,0.8195221272,-2.7383108794999997,-9.380845256999999,0.08714,0.28299,-1.5008,4.999999999988347e-05,-9.999999999998899e-05,-9.999999999998899e-05,4.484272012389434e-05,0.0005349289452913908,-0.0003009203061761223
149740000000.0,-1,-0.0226533615,0.005766310199999999,0.09202560359999999,-0.089124,0.024031,-0.024264,0.8224641222,-2.7294848945,-9.383198853,0.08743,0.28205,-1.501,5.0000000000105516e-05,-9.999999999998899e-05,1.1111111111183902e-05,0.000742604711312711,-0.0004750017894743497,-0.00019876343311364675
149740000000.0,-1,-0.0321069721,0.04745437935,0.0297141495,-0.057175,0.016309,-0.025262,0.82443525885,-2.72232604,-9.3850621165,0.08762,0.2813,-1.5011,-2.4999999999941735e-05,-0.00019999999999997797,1.1111111110961858e-05,-0.0009931656222520457,-0.00018718317665356032,-0.00010398765440922109
149740000000.0,-1,-0.0684700303,0.0824543132,0.0262425954,-0.019901,0.007476,-0.026248,0.8250334644999999,-2.7182072469999996,-9.3862389145,0.087673,0.28085,-1.5014,-2.500000000016378e-05,-0.00019999999999997797,1.1111111111183902e-05,0.0003146326648273412,-0.00011266752144645231,-0.0009678574670748397
149740000000.0,-1,-0.052612677249999996,0.12796697585,0.006207609449999999,0.016253,-0.007741,-0.027224,0.8245921652499999,-2.7167362495,-9.386729247,0.087622,0.2807,-1.5016,-2.4999999999941735e-05,-9.999999999998899e-05,1.1111111111183902e-05,-0.0016188251530006026,0.0003669874227163472,-0.0007172388472193036
149740000000.0,-1,-0.054662267099999995,0.044737937299999996,-0.0040795664,0.038732,-0.008976,-0.044261,0.8236409201999999,-2.7188937125,-9.386140847999998,0.087527,0.28093,-1.502,-2.4999999999941735e-05,-0.00019999999999997797,1.1111111110961858e-05,-0.00017233694369783725,0.0010527483109050717,-0.00022764708165745606
149740000000.0,-1,-0.062370294,0.1052645811,0.017191057449999998,0.055748,-0.027214,-0.063411,0.822385669,-2.7218357075,-9.385356316,0.0874,0.28124,-1.5026,4.999999999988347e-05,-9.999999999998899e-05,1.1111111111183902e-05,-0.00031051074255045163,0.0009432769271142671,-0.0005323759166895314
149740000000.0,-1,-0.03474496095,0.32911117399999995,0.0537992819,0.05233,-0.05276,-0.06337,0.8192867675999999,-2.7213453750000003,-9.385748582,0.08707,0.28119,-1.5033,5.0000000000105516e-05,-0.00019999999999997797,1.1111111111183902e-05,-0.001238111010390619,0.00122626864103359,-0.0007590706167309724
149740000000.0,-1,0.029949509099999997,-0.06510634935,-0.10227355285,0.053132,-0.079417,-0.052648,0.8141578896499999,-2.7265428994999996,-9.384767917,0.086536,0.28174,-1.504,5.0000000000105516e-05,-9.999999999998899e-05,1.1111111110961858e-05,-0.0006532826303173866,-0.00024901729770920866,-0.00092728065941583
149740000000.0,-1,0.0100812362,-0.1754409685,-0.0619976413,0.047597,-0.095373,-0.036619,0.80648908935,-2.7334075545,-9.383394985999999,0.085738,0.28247,-1.5044,4.999999999988347e-05,-9.999999999998899e-05,1.1111111111183902e-05,-0.0013563424507768707,0.001138770241217113,-0.000780917919473878
149740000000.0,-1,0.04223724155,-0.011032481249999998,-0.03649054465,0.037875,-0.1017,-0.022749,0.79827111665,-2.737036015,-9.3831007865,0.084872,0.28286,-1.5048,4.999999999988347e-05,-0.000300000000000189,5.0000000000105516e-05,-0.0001441857808970326,0.0009665756201757691,-0.0004179550759597639
149740000000.0,-1,0.075118939,-0.014307902349999999,-0.03137147335,0.022825,-0.11117,-0.015287,0.78964126465,-2.7394876774999997,-9.3831007865,0.083958,0.28312,-1.505,5.0000000000105516e-05,-9.999999999998899e-05,4.999999999988347e-05,-0.00024728664192691374,0.0008740458316736088,0.0004705825067210512
149740000000.0,-1,0.10906956129999999,-0.08621026015,-0.050465020900000004,0.011039,-0.11321,-0.007834,0.7808250862999999,-2.741743207,-9.3831007865,0.083025,0.28336,-1.5052,9.999999999998899e-05,-0.00019999999999997797,4.999999999988347e-05,-0.00012499841298097003,0.0017571061213055295,-0.00011657748496385345
149740000000.0,-1,0.1109132115,-0.07433440699999999,-0.03860878105,0.006831,-0.10465,-0.005723,0.7725482737,-2.743508404,-9.3832969195,0.082147,0.28354,-1.5053,4.999999999988347e-05,-9.999999999998899e-05,5.0000000000105516e-05,0.001034495626330456,0.0008892613864535104,1.9111527234438874e-05
149740000000.0,-1,0.08269947944999999,0.0103362091,0.012013146249999999,-0.000554,-0.092865,-0.003622,0.76485005345,-2.743508404,-9.383983384999999,0.081326,0.28354,-1.5054,5.0000000000105516e-05,-9.999999999998899e-05,-9.999999999998899e-05,0.001255488377437497,0.0008669191116106312,0.000107809337217879
149740000000.0,-1,0.06418452424999999,0.028390251749999998,0.03821651505,-0.004769,-0.082178,0.002755,0.7577794587999999,-2.7428219384999997,-9.384767917,0.080571,0.28347,-1.5054,5.0000000000105516e-05,-9.999999999998899e-05,4.999999999988347e-05,-2.1993336528858265e-05,0.0005795815658506953,0.00032209173130848257
149740000000.0,-1,0.03613750525,0.012346572349999998,0.033862362449999996,-0.002514,-0.063021,0.009129,0.7516993357999999,-2.7424296725,-9.385356316,0.079923,0.28343,-1.5053,4.999999999988347e-05,-4.999999999988347e-05,5.0000000000105516e-05,0.00024636879475048445,0.0003920529532717154,-5.5619829826714096e-05
149740000000.0,-1,0.0206724182,0.03631402495,0.0456597624,0.000834,-0.038549,0.018698,0.7474236364,-2.7422335395,-9.385748582,0.079466,0.28341,-1.5051,4.999999999988347e-05,-5.0000000000105516e-05,-3.333333333332966e-05,-0.000929262436750955,-0.00012962702178609398,0.00014800570568662685
149740000000.0,-1,0.00189268345,0.0450125235,0.0797476778,0.008431,-0.018371,0.02508,0.7446581610999999,-2.7425277390000002,-9.3858466485,0.079172,0.28344,-1.5049,5.0000000000105516e-05,-9.999999999998899e-05,-3.333333333332966e-05,-0.0006429748255256662,0.00030574221558743453,5.28276048761267e-05
149740000000.0,-1,0.00038245935,0.06096794305,0.0981645665,0.012808,-0.004554,0.025064,0.74331465005,-2.7434103375,-9.385748582,0.079031,0.28353,-1.5047,5.0000000000105516e-05,-9.999999999998899e-05,-3.333333333332966e-05,6.0443208959037875e-06,0.00021087109776951607,0.000552113372073948
149740000000.0,-1,-0.0041580196,0.06986257459999999,0.09672298894999999,0.017077,-0.003524,0.026137,0.7423241784,-2.7444890689999997,-9.385454382499999,0.078929,0.28365,-1.5044,4.999999999988347e-05,-9.999999999998899e-05,9.999999999998899e-05,-0.0012072200403843159,0.00013803783003862868,-0.0004093300529162125
149740000000.0,-1,0.014768814899999998,0.06797969779999999,0.07851203989999998,0.0192,-0.009926,0.017612,0.74135332005,-2.7455678005,-9.3852582495,0.078828,0.28377,-1.5042,3.333333333332966e-05,-4.999999999988347e-05,-9.999999999998899e-05,-0.0008853151248041646,-0.00042849583983439743,-0.0001354575471043118
149740000000.0,-1,0.03319551025,0.06920552904999999,0.05491724,0.020283,-0.010993,0.012279,0.7405785947,-2.7466465319999998,-9.384964049999999,0.078748,0.28388,-1.5041,3.333333333332966e-05,-5.0000000000105516e-05,-4.999999999988347e-05,5.055884487537021e-05,0.0007312099616201273,-1.8273596974038853e-05
149740000000.0,-1,0.049209769699999996,0.0682150574,0.08996620709999999,0.01606,-0.009882,0.004797,0.7404216883,-2.7476271969999995,-9.3846698505,0.078734,0.28398,-1.5041,3.333333333332966e-05,-5.0000000000105516e-05,-5.0000000000105516e-05,-0.0001266215915191049,-0.00010281168052705958,-0.00022827701933703093
149740000000.0,-1,0.060095151199999995,0.0625468137,0.10282272524999998,0.00219,-0.012956,-0.00056,0.74047072155,-2.7476271969999995,-9.3846698505,0.078739,0.28398,-1.5041,9.999999999998899e-05,-4.999999999988347e-05,-9.999999999998899e-05,0.0004346371517141012,0.00019560222541259442,9.740688763781868e-05
149740000000.0,-1,0.07137279869999999,0.05820246775,0.07877681945,-0.009547,-0.012856,-0.000581,0.7405589814,-2.7464503989999995,-9.3850621165,0.078746,0.28386,-1.5042,4.999999999988347e-05,-9.999999999998899e-05,-4.999999999988347e-05,-0.0010006953859637013,-0.0005568625925487236,0.0003669299515450808
149740000000.0,-1,0.0765899365,0.05687856999999999,0.07029406719999999,-0.021249,-0.006366,0.002589,0.7411768003499999,-2.744096803,-9.3856505155,0.078806,0.2836,-1.5042,5.0000000000105516e-05,-5.0000000000105516e-05,-5.0000000000105516e-05,0.0006488294008353268,-0.00025679853840276934,0.00020873344669869454
149740000000.0,-1,0.052749970349999994,0.046238354749999995,0.08640639314999998,-0.031849,0.004377,0.005753,0.7421280453999999,-2.7408606085,-9.386533113999999,0.078899,0.28327,-1.5041,0.00010000000000021103,-4.999999999988347e-05,-9.999999999998899e-05,-6.067713931212637e-05,-0.00045787607518432694,0.0001385470601784622
149740000000.0,-1,0.03379371589999999,0.04329635974999999,0.0717258381,-0.033883,0.020374,0.011058,0.74402072885,-2.7374282809999997,-9.3874157125,0.079092,0.28289,-1.504,9.999999999998899e-05,-4.999999999988347e-05,-9.999999999998899e-05,0.0013419515996215825,1.5680233063086746e-06,0.00019508352009389718
149740000000.0,-1,0.005972249849999999,0.024732371299999997,0.08762241775,-0.032693,0.038476,0.015297,0.7471490502,-2.7343882195,-9.388004111499999,0.079418,0.28257,-1.5038,4.999999999988347e-05,-5.0000000000105516e-05,-9.999999999998899e-05,0.0006173106896711356,0.0007563191102994971,0.00023261028000454154
149740000000.0,-1,-0.01065982855,0.015474893699999999,0.10554897395,-0.032687,0.038477,0.01423,0.7503264047999999,-2.731544291,-9.3885925105,0.079749,0.28227,-1.5037,5.0000000000105516e-05,-9.999999999998899e-05,-9.999999999998899e-05,0.0006455479943595632,-0.0005310303958421247,0.00021006129729994605
149740000000.0,-1,-0.006952914849999999,0.0090417313,0.0723338504,-0.033751,0.037423,0.012095,0.7536410525,-2.7286022959999996,-9.3891809095,0.080095,0.28196,-1.5035,9.999999999998899e-05,-4.999999999988347e-05,-9.999999999998899e-05,0.0013253970758565492,-4.858759935943979e-06,3.0156181463292242e-05
149740000000.0,-1,-0.010414662299999999,0.00287334845,0.07253979005,-0.036979,0.029997,0.005698,0.75635749455,-2.7255622345,-9.389867375,0.080377,0.28164,-1.5034,4.999999999988347e-05,-5.0000000000105516e-05,-9.999999999998899e-05,0.00048191713658995994,-0.00023008085691045288,0.0001358353540426016
149740000000.0,-1,-0.0168085981,0.01075789505,0.05514279295,-0.040167,0.028961,0.001425,0.7588581903,-2.7219337739999996,-9.3907499735,0.080634,0.28125,-1.5033,5.0000000000105516e-05,-9.999999999998899e-05,-9.999999999998899e-05,0.0004769615082672596,-0.0008148902307851813,3.997594081406319e-05
149740000000.0,-1,-0.0019319100499999998,0.0024908890999999996,0.02399687255,-0.040151,0.028965,-0.001777,0.7614863725,-2.7181091805,-9.391632571999999,0.080905,0.28085,-1.5033,5.0000000000105516e-05,-9.999999999998899e-05,-9.999999999998899e-05,0.0005930505618763626,-0.00034580774868842035,-0.00026253416599486545
149740000000.0,-1,-0.037804635749999996,-0.0236144132,-0.0024810824500000003,-0.039035,0.034283,-0.002852,0.76414397465,-2.7147749195,-9.392417104,0.08118,0.28049,-1.5033,4.999999999988347e-05,-0.00010000000000021103,-5.0000000000105516e-05,0.00031803248863937483,-0.0007108512013456192,-0.0002424458962595466
149740000000.0,-1,-0.06176228169999999,-0.0134154972,0.0044914457,-0.035722,0.044915,-0.008201,0.7673017159499999,-2.7114406585,-9.3931035695,0.081508,0.28014,-1.5033,-1.4285714285744433e-05,-9.999999999998899e-05,-4.999999999988347e-05,0.0004639221404049154,-0.0006776801646259933,0.0002949294807300662
149740000000.0,-1,-0.059026226349999995,-0.007374600799999999,-0.005766310199999999,-0.035661,0.04918,-0.013545,0.7711557293999999,-2.7081063975,-9.393691968499999,0.081909,0.27979,-1.5033,-1.4285714285744433e-05,-9.999999999998899e-05,-9.999999999998899e-05,4.476024374255871e-06,-0.0007175084562931477,-0.0002391076980143847
149740000000.0,-1,-0.05684915005,0.0081395195,-0.00085317855,-0.031322,0.05554,-0.017818,0.7758629214,-2.7047721365,-9.394280367499999,0.082402,0.27943,-1.5035,-1.4285714285744433e-05,-9.999999999998899e-05,-5.0000000000105516e-05,0.0006410911187126889,-0.0005607737825106263,4.5284437787396215e-05
149740000000.0,-1,-0.0549368533,0.00559959715,0.00183384355,-0.021671,0.059724,-0.02101,0.78112909245,-2.7022224075,-9.394574567,0.082956,0.27916,-1.5036,-1.4285714285522388e-05,-9.999999999998899e-05,-4.999999999988347e-05,-0.0007820757056990479,0.0002572534446811936,0.0001713080213341378
149740000000.0,-1,-0.07263785655,-0.0040795664,0.025105024,-0.008884,0.054294,-0.026314,0.7859637708999999,-2.7010456095,-9.3944765005,0.083468,0.27904,-1.5038,-1.4285714285744433e-05,-9.999999999998899e-05,-4.999999999988347e-05,0.00018581521053312455,0.0006822258235905654,-6.058337038550299e-05
149740000000.0,-1,-0.04006016525,0.00314793465,0.0340290755,0.005915,0.034993,-0.029457,0.7900433372999999,-2.701143676,-9.394182300999999,0.083902,0.27904,-1.5041,-1.4285714285744433e-05,-9.999999999998899e-05,-5.0000000000105516e-05,0.0006837530612853748,-0.00038432837513924234,-0.00035232672892648864
149740000000.0,-1,-0.0102185293,0.01318994425,0.025271737049999996,0.011069,0.010445,-0.032606,0.7923773199999999,-2.7017320750000002,-9.393790034999999,0.084152,0.27911,-1.5045,-1.4285714285744433e-05,-9.999999999998899e-05,9.999999999998899e-05,-6.000823290658319e-05,0.0005309334611174332,-0.00014152010001944326
149740000000.0,-1,0.0002941995,-0.00559959715,-0.0149649479,0.013019,-0.01195,-0.031496,0.7924851931499999,-2.70271274,-9.3934958355,0.084166,0.27921,-1.5048,-3.333333333332966e-05,-0.00019999999999997797,3.333333333332966e-05,-0.0009379546378594505,-0.00025631197879438794,-0.000708779438022944
149740000000.0,-1,0.011454167199999999,-0.01928968055,-0.0579376882,0.012908,-0.025802,-0.031472,0.791200522,-2.7036934049999997,-9.393299702499998,0.084032,0.27931,-1.5051,-3.333333333332966e-05,-0.00029999999999996696,3.333333333332966e-05,-0.0007759819567529913,-0.0002669630279463764,-0.0006200684818604696
149740000000.0,-1,-0.025673809699999998,-0.022329742049999997,-0.04070740415,0.009744,-0.022578,-0.033618,0.7892784185999999,-2.70467407,-9.393201636,0.083829,0.27942,-1.5055,-3.333333333332966e-05,-0.00019999999999997797,3.333333333332966e-05,-0.0012696669109474867,3.2772122861013386e-05,-0.0003549086524068379
149740000000.0,-1,-0.06039915735,-0.00936535075,-0.03292092405,0.006669,-0.010827,-0.040047,0.78793490755,-2.705066336,-9.393201636,0.083688,0.27946,-1.5058,0.00039999999999995595,-0.000600000000000156,-0.000500000000000167,-0.0038444980087078973,-0.004931013394261274,0.006613685063718511
149740000000.0,-1,-0.08607296704999999,0.00932612415,-0.043767078949999996,0.002581,0.008389,-0.045424,0.7880231673999999,-2.7047721365,-9.393299702499998,0.083696,0.27943,-1.5063,-0.0005999999999999339,0.00020000000000020002,0.000400000000000178,0.0040032868299303415,0.004771103915890862,-0.00733449339178216
149740000000.0,-1,-0.134939504,0.027164420499999998,-0.01605348605,-0.001549,0.021212,-0.052925,0.788846926,-2.703889538,-9.3934958355,0.083782,0.27934,-1.5067,-9.999999999998899e-05,-0.00020000000000020002,-0.0001500000000000945,0.0002998833790302524,-0.0017168418435775656,-0.0012508973254741207
149740000000.0,-1,-0.15619051455,0.04650313429999999,-0.02399687255,-0.008939,0.026602,-0.060417,0.7902002437,-2.7019282079999996,-9.3938881015,0.083921,0.27914,-1.5073,0.00029999999999996696,-0.0006999999999999229,-0.0001500000000000945,-0.003506713011262652,-0.005915164079620894,0.005911624403547866
149740000000.0,-1,-0.17458778995,0.052867650149999994,-0.0377752158,-0.015336,0.025585,-0.063627,0.7913868483500001,-2.6990842794999996,-9.394672633499999,0.08404,0.27883,-1.5078,-0.00019999999999997797,-0.00019999999999997797,-0.00019999999999997797,0.0013026307041622553,0.00026915437923014096,-0.0007001262760520932
149740000000.0,-1,-0.20570429040000002,0.0361473119,-0.0389912404,-0.015295,0.025585,-0.072163,0.7922792535,-2.696240351,-9.395359099,0.084128,0.27853,-1.5084,-0.000500000000000167,-0.00014999999999987246,0.00019999999999997797,0.001661016006834104,0.001148972559837258,-0.0055516326110606196
149740000000.0,-1,-0.2313192602,0.02160404995,-0.0338133292,-0.00138,0.02547,-0.081743,0.7929068790999999,-2.6947693534999995,-9.395751364999999,0.084191,0.27837,-1.5091,-0.00039999999999995595,-0.0001500000000000945,0.00020000000000020002,0.003054755699657963,0.0010106803618616933,-0.003512476094586714
149740000000.0,-1,-0.2678392248,0.0360492454,0.011944499699999998,0.018932,0.019981,-0.098774,0.7930637854999999,-2.6947693534999995,-9.395751364999999,0.084207,0.27837,-1.51,-0.00019999999999997797,-0.00039999999999995595,9.999999999998899e-05,-0.001338719006104272,-0.001341564491003977,-0.0014853992474422872
149740000000.0,-1,-0.2773516753,0.0364415114,0.07216713735,0.037034,0.00492,-0.11579,0.79240673995,-2.69682875,-9.395162966,0.084143,0.27859,-1.511,-0.00039999999999995595,-0.00029999999999996696,-0.00020000000000020002,0.0014515694104170196,0.0008244123723639696,-0.0003412802682108973
149740000000.0,-1,-0.2542079813,-0.02278084795,0.10792218324999998,0.047599,-0.019668,-0.13387,0.79050424985,-2.7010456095,-9.3940842345,0.083951,0.27904,-1.5123,-0.00029999999999996696,-0.000500000000000167,-9.999999999998899e-05,0.0005098683238407564,0.0004901400226169361,-0.002365671179343387
149740000000.0,-1,-0.2453819963,-0.0733145154,0.12543686015,0.042121,-0.05158,-0.15517,0.7863168103,-2.7058508679999997,-9.3931035695,0.083518,0.27955,-1.5137,-0.00029999999999996696,-0.0004999999999999449,-4.999999999988347e-05,-0.0008995095784080642,-0.00035664995893847085,-0.00399515306385545
149740000000.0,-1,-0.2265532283,-0.09742906774999999,0.09773307389999998,0.029208,-0.075976,-0.17116,0.78036417375,-2.709773528,-9.3925151705,0.082893,0.27996,-1.5154,-0.000400000000000178,-0.0006999999999999229,-5.0000000000105516e-05,-0.00124073911612399,0.0014503509339340859,-0.002107061394060583
149740000000.0,-1,-0.22595502264999998,-0.10352880404999999,0.0914372046,0.013239,-0.082232,-0.18719,0.77377410495,-2.7122251905,-9.3923190375,0.082198,0.28022,-1.5172,-0.00039999999999995595,-0.000600000000000156,-0.00019999999999997797,0.0014758467866242686,-0.0011453697213736902,-0.0027819109521606267
149740000000.0,-1,-0.24037079815,-0.08625929339999999,0.0829250324,0.001623,-0.07574,-0.20003,0.76769398195,-2.7129116559999997,-9.392613236999999,0.081552,0.28029,-1.5191,-0.00019999999999997797,-0.0011999999999998678,-5.0000000000105516e-05,-0.003430043503116209,-0.0024635819467719866,3.6762372256804454e-05
149740000000.0,-1,-0.2576010822,-0.07377542795,0.09931194455,-0.008863,-0.060735,-0.21181,0.7630848564499999,-2.712323257,-9.3931035695,0.08106,0.28023,-1.5212,-0.0005999999999999339,-0.00039999999999995595,-4.999999999988347e-05,0.0046671444810768015,0.0009990190723057069,-0.0037605920205062704
149740000000.0,-1,-0.28458898299999996,-0.05778078179999999,0.12453464835,-0.021451,-0.043578,-0.22681,0.7598388553,-2.710361927,-9.393986168,0.08071,0.28003,-1.5233,-0.00039999999999995595,-0.000700000000000145,-9.999999999998899e-05,0.0010849290749838647,0.0009617135965118706,-0.0023195988621987906
149740000000.0,-1,-0.2815685348,-0.041658649199999995,0.07187293784999998,-0.028728,-0.028598,-0.24072,0.7586130240499999,-2.707027666,-9.3950648995,0.080571,0.27967,-1.5256,-0.000600000000000156,-0.0006999999999999229,-9.999999999998899e-05,-0.0015641452467260453,-0.0017028139568422418,-0.004073337811762223
149740000000.0,-1,-0.27598855095,-0.044855617099999995,0.0591733261,-0.029693,-0.025389,-0.25566,0.75841689105,-2.7033992055000002,-9.396143631,0.080541,0.27929,-1.5281,-0.0004999999999999449,-0.0009000000000001229,-3.333333333332966e-05,0.0005524659359355533,0.0018923988776164968,-0.002171039144455489
149740000000.0,-1,-0.25084430035,-0.06783259805,0.04361017255,-0.02968,-0.032845,-0.26953,0.7585639908,-2.6996726785,-9.397124296,0.080548,0.2789,-1.5307,-0.0004999999999999449,-0.0007999999999999119,-3.333333333332966e-05,-0.0009949998200421972,-0.0029426412002679925,-0.004423373852263657
149740000000.0,-1,-0.18024622699999998,-0.051259359549999994,-0.013552790299999999,-0.023319,-0.046744,-0.28336,0.75904451665,-2.6959461515,-9.3982030275,0.08059,0.27849,-1.5335,-0.000600000000000156,-0.0007999999999999119,-3.333333333332966e-05,0.0028306906449801494,0.0004768170924980275,-0.002562371444150946
149740000000.0,-1,-0.13481201755,-0.030851720899999997,-0.025212897149999997,-0.010588,-0.061763,-0.29292,0.7592504563,-2.692709957,-9.399085626,0.080604,0.27815,-1.5364,-0.0004999999999999449,-0.0008000000000001339,-9.999999999998899e-05,-1.1973069327819719e-05,0.0017252744048597002,-0.00302502401574245
149740000000.0,-1,-0.09203541024999999,-0.004344345949999999,-0.02954743645,0.007487,-0.073631,-0.29927,0.75912296985,-2.6906505605,-9.399674025,0.080585,0.27793,-1.5395,-0.0004999999999999449,-0.0008999999999999009,-9.999999999998899e-05,-5.319223821220742e-05,0.0016206348624223654,-0.003330380206387429
149740000000.0,-1,-0.0649984762,0.0327934376,-0.012778064949999998,0.018093,-0.083308,-0.30244,0.7585639908,-2.689179563,-9.4001643575,0.080522,0.27778,-1.5426,-0.0005999999999999339,-0.0009000000000001229,-7.500000000004725e-05,-0.0012277607185970374,-0.00013833786806149995,-0.0026478325668644054
149740000000.0,-1,-0.033117057049999996,0.04827813795,0.01267999845,0.023409,-0.088675,-0.30776,0.7581128849,-2.6881988979999996,-9.400458556999999,0.080472,0.27767,-1.5458,-0.000600000000000156,-0.0007999999999999119,-7.49999999998252e-05,0.0009480964621346177,-0.00025919780898719935,-0.0032780571848753937
149740000000.0,-1,0.0098262633,0.07907101895,0.0042168595,0.023429,-0.084414,-0.30563,0.75841689105,-2.686825967,-9.400850822999999,0.080501,0.27753,-1.549,-0.0004999999999999449,-0.0007999999999999119,-7.500000000004725e-05,0.0013271916383499893,-0.0013265911376909578,-0.0038416975114599072
149740000000.0,-1,0.02485985775,0.07955154479999998,0.04872924385,0.015988,-0.077961,-0.30138,0.7595446557999999,-2.6851588365,-9.401243089,0.080617,0.27736,-1.5522,-0.0005999999999999339,-0.000600000000000156,-7.500000000004725e-05,0.0022404803725796785,-0.00150085035027403,-0.001993957073176289
149740000000.0,-1,0.05831034089999999,0.054966273249999996,0.0632136659,0.005357,-0.068288,-0.29395,0.7619963182999999,-2.6830013735,-9.401635355,0.080873,0.27713,-1.5553,-0.00039999999999995595,-0.0008999999999999009,-4.999999999988347e-05,-0.0019808478059606394,0.00047403385047739555,-0.0022948444224284437
149740000000.0,-1,0.09729177464999998,0.0332053169,0.06099736299999999,-0.005285,-0.057552,-0.28224,0.7658209117999999,-2.6802555115,-9.4021256875,0.081273,0.27684,-1.5583,-0.000500000000000167,-0.0006999999999999229,-5.0000000000105516e-05,4.097878161934965e-05,0.0012426426888976216,-0.0018201568144942115
149740000000.0,-1,0.14010760854999998,0.0215550167,0.09084880559999998,-0.002043,-0.043734,-0.26839,0.7713322491,-2.6779019154999997,-9.4023218205,0.081853,0.27659,-1.5612,-0.0004999999999999449,-0.000500000000000167,-0.00029999999999996696,0.000340785322331838,-0.00022450764015724545,-0.0028364966276691606
149740000000.0,-1,0.19531904805,-0.0028047019,0.1442165949,-0.001054,-0.045877,-0.25558,0.77761831175,-2.6763328514999998,-9.4023218205,0.082518,0.27641,-1.564,-0.0004999999999999449,-0.0007999999999999119,9.999999999998899e-05,0.00028324128837176055,-0.0008831650462919338,-0.004220132191965487
149740000000.0,-1,0.22393485275,-0.01687724465,0.1744995301,0.003075,-0.057633,-0.24594,0.7831296490499999,-2.6755483195,-9.402027621,0.083101,0.27633,-1.5667,-0.00039999999999995595,-0.0006999999999999229,-0.00029999999999996696,0.0019003510940946433,0.00024673206959580085,-0.0020140887190849277
149740000000.0,-1,0.2586405871,0.0032165811999999997,0.17405823085,0.006076,-0.078965,-0.2395,0.7871797955,-2.674861854,-9.401929554499999,0.083531,0.27626,-1.5693,-0.00029999999999996696,-0.000700000000000145,-0.00010000000000021103,0.0013150593438004399,0.0006147072869491232,-0.001943624432169111
149740000000.0,-1,0.2788618994,0.015886773,0.1634376289,0.008064,-0.096021,-0.23734,0.7898472043,-2.6740773219999996,-9.401929554499999,0.083812,0.27617,-1.5719,-0.000400000000000178,-0.0005999999999999339,-9.999999999998899e-05,-0.0011863624724858801,0.0006622686301702707,-0.002623768898489365
149740000000.0,-1,0.29484673889999996,0.0274978466,0.1278198761,0.014453,-0.097127,-0.23626,0.7921223471,-2.6733908565,-9.401929554499999,0.084053,0.2761,-1.5745,-0.00039999999999995595,-0.0004999999999999449,-9.999999999998899e-05,-0.0013031145283933232,-0.00011325252648908268,-0.002846623235962298
149740000000.0,-1,0.2849616357,0.03213639205,0.13234074175,0.018755,-0.092887,-0.23626,0.7945249763499999,-2.673096657,-9.401831488,0.084307,0.27607,-1.5771,-0.00039999999999995595,-0.000600000000000156,-0.00029999999999996696,-0.00046819128576552904,-0.0026068171637065873,-0.002985039192993977
149740000000.0,-1,0.26145509564999997,0.05143587925,0.13589074904999998,0.013505,-0.084304,-0.23949,0.7975258112499999,-2.672312125,-9.4017334215,0.084625,0.27599,-1.5797,-0.00029999999999996696,-0.0006999999999999229,-9.999999999998899e-05,-0.000315072931320437,0.0010329891454876616,-0.001465969246298049
149740000000.0,-1,0.2654071756,0.03197948565,0.0870242121,0.00299,-0.067153,-0.24275,0.8018113173,-2.6708411274999997,-9.401831488,0.085076,0.27583,-1.5824,-9.999999999998899e-05,-0.0007999999999999119,-0.00039999999999995595,0.00043266318334161946,-0.0018364413765747933,-0.0004249008048645697
149740000000.0,-1,0.26822168415,0.026036655749999995,0.0317931593,-0.012903,-0.053157,-0.2428,0.80752859425,-2.667604933,-9.402223754,0.085676,0.27549,-1.585,-0.0009000000000001229,0.0007999999999999119,-0.0006999999999999229,0.012429004859815906,0.007411649566727796,0.0030699961738098747
149740000000.0,-1,0.2826472663,0.0145334553,-0.007060788,-0.038299,-0.024169,-0.23863,0.81584463345,-2.6622112755,-9.403008286,0.086547,0.27492,-1.5876,0.00029999999999996696,-0.0017000000000000348,0.0005999999999999339,-0.006144547354975272,-0.007483832534601165,-0.00907578908061657
149740000000.0,-1,0.27957778484999996,-0.0028243152,-0.0256149698,-0.055237,-0.001649,-0.2291,0.8261023893499999,-2.6553466205,-9.404087017499998,0.08762,0.27419,-1.5901,-0.00029999999999996696,-0.00019999999999997797,-0.00019999999999997797,0.00031369225926214384,-0.0012172837969810502,-0.0016311678909886052
149740000000.0,-1,0.26422057095,-0.0047856452,-0.04508117005,-0.075428,0.017694,-0.21423,0.8375565565499999,-2.6465206355,-9.405558014999999,0.088815,0.27326,-1.5924,-0.00029999999999996696,-0.00039999999999995595,-5.0000000000105516e-05,0.0007148157296687496,-0.0007243159871279659,-0.0018317199088161429
149740000000.0,-1,0.26498548964999996,0.05237731765,-0.09204521689999999,-0.087115,0.036961,-0.19401,0.85026597495,-2.6354391209999997,-9.407519344999999,0.090136,0.27208,-1.5945,-0.00019999999999997797,-0.00029999999999996696,-4.999999999988347e-05,0.0005851941642207037,-0.000171763660253621,-0.0016424535509703686
149740000000.0,-1,0.24039041144999998,0.1033424777,-0.09519315155,-0.081815,0.046497,-0.17267,0.8633382394,-2.623671141,-9.409676808,0.091494,0.27084,-1.5964,-0.00029999999999996696,-0.000400000000000178,-9.999999999998899e-05,-0.0011614629041535873,0.0012514873374456226,-0.00032901022633891053
149740000000.0,-1,0.2412828166,0.11338448729999999,-0.0831996186,-0.071264,0.046397,-0.15024,0.8760672710999999,-2.612883826,-9.411442005,0.092818,0.2697,-1.5981,-9.999999999998899e-05,-0.00029999999999996696,-9.999999999998899e-05,0.0014533156807628456,0.0001747968158836155,-0.0008239407452650394
149740000000.0,-1,0.2314173267,0.1471978165,-0.0658810747,-0.055445,0.036666,-0.12992,0.8872664654,-2.6033713754999996,-9.413011069,0.093982,0.26869,-1.5995,-0.00029999999999996696,-0.00039999999999995595,-9.999999999998899e-05,-0.0041786608849409546,-0.0025102889892716362,0.0011309305090021482
149740000000.0,-1,0.24182218235,0.15662200715,-0.06698922615,-0.034379,0.014108,-0.11277,0.8963180033499999,-2.5955260555,-9.414383999999998,0.094921,0.26787,-1.6008,-0.00029999999999996696,0.0012000000000000899,-0.000700000000000145,0.011347222743738172,0.007705262307894367,0.004844945908275999
149740000000.0,-1,0.2532469296,0.1491199199,-0.038010575399999996,-0.017521,-0.003084,-0.098833,0.90345724455,-2.5900343315,-9.415168532,0.095664,0.26728,-1.6019,-0.00010000000000021103,-0.00019999999999997797,0.00019999999999997797,-0.00025827949812035067,0.0007042939321664221,-0.00014116093057836565
149740000000.0,-1,0.25702248985,0.10847135564999999,-0.00342252085,-0.011374,-0.029771,-0.091307,0.9080565634,-2.586209738,-9.415854997499999,0.096142,0.26687,-1.603,-9.999999999998899e-05,-0.00019999999999997797,0.00020000000000020002,-0.0002903720484144223,0.0006586426555579283,-0.0006637654308720986
