Time,placement_label,user_acc_x(m/s^2),user_acc_y(m/s^2),user_acc_z(m/s^2),rotation_rate_x(rad/s),rotation_rate_y(rad/s),rotation_rate_z(rad/s),gravity_x(m/s^2),gravity_y(m/s^2),gravity_z(m/s^2),attitude_roll(rad),attitude_pitch(rad),attitude_yaw(rad),target_delta_x,target_delta_y,target_delta_z,target_delta_roll,target_delta_pitch,target_delta_yaw
150000000000.0,-1,-0.012905551399999998,-0.04457122425,0.005687856999999999,-0.002947,-0.006843,-0.004917,0.06153672875,-9.738003449999999,1.1568905005,3.0884,1.4524,-0.031291,0.0,0.0,0.0,0.0,0.0,0.0
150000000000.0,-1,-0.0030400615,-0.03792231555,-0.0135920169,-0.00402,-0.006836,-0.003852,0.0619976413,-9.738101516499999,1.156204035,3.088,1.4524,-0.030935,-1.999999999990898e-05,-1.2499999999970868e-05,4.0000000000040004e-05,-4.2623786042916834e-05,-3.940741276386994e-05,-7.277421445106569e-05
150000000000.0,-1,0.0055309506,-0.031547993049999994,-0.0212215906,-0.002979,-0.010041,-0.003844,0.0627037201,-9.738101516499999,1.1555175695,3.0874,1.4525,-0.030392,2.999999999997449e-05,-1.2499999999970868e-05,-2.0000000000020002e-05,-0.0001284642169843142,-2.0769433789036285e-05,-0.00013945576268881155
150000000000.0,-1,0.00042168595,-0.02745862,-0.01893664115,0.000198,-0.012199,-0.002768,0.0631744393,-9.738199583,1.1550272369999999,3.087,1.4526,-0.030078,9.999999999998899e-05,-1.2499999999970868e-05,-0.0001100000000000545,-0.00010481147303109672,0.00010393116656581824,-0.0003042664415646712
150000000000.0,-1,0.0019809433,-0.02801759905,-0.022672974799999995,0.004406,-0.017565,0.000451,0.0634097989,-9.738199583,1.1547330374999998,3.0867,1.4526,-0.030026,4.0000000000040004e-05,-1.2499999999970868e-05,-2.999999999997449e-05,6.686964464552858e-05,6.667691646766727e-05,-0.00017088579012281002
150000000000.0,-1,0.00936535075,-0.01905432095,-0.02407532575,0.006508,-0.02078,0.001528,0.0636647718,-9.738199583,1.1547330374999998,3.0865,1.4526,-0.030014,-6.0000000000060005e-05,-1.2500000000414957e-05,7.999999999996898e-05,-9.036894306824195e-05,-0.00018024902035751467,1.859806300252842e-05
150000000000.0,-1,0.0067763951499999996,-0.0081983594,-0.0144746154,0.008666,-0.017601,0.001526,0.0638609048,-9.738101516499999,1.1553214365,3.0864,1.4525,-0.030066,0.0001100000000000545,-1.2499999999970868e-05,-8.999999999992347e-05,-0.000181146709860025,9.676870167307783e-05,-0.00011800363725100738
150000000000.0,-1,0.0009610516999999999,-0.0024712758,0.02005459925,0.004419,-0.016499,-0.000619,0.06412568434999999,-9.738003449999999,1.1563021015,3.0862,1.4524,-0.030041,-6.0000000000060005e-05,-1.2499999999970868e-05,7.999999999996898e-05,-0.00010270573734727506,-7.519705001590715e-05,-0.0002013400318081615
150000000000.0,-1,0.0072765343,-0.00021574629999999997,0.02293775435,0.007662,-0.013325,-0.003821,0.06469447005,-9.7379053835,1.157380833,3.0858,1.4523,-0.029746,0.0001100000000000545,-1.2499999999970868e-05,-9.999999999998899e-05,7.226390815096018e-05,-1.8519172310549337e-05,-7.819615524562451e-05
150000000000.0,-1,0.010375435699999998,-0.0047660318999999994,0.0059918631499999995,0.003415,-0.010095,-0.002767,0.06534170895,-9.737807317,1.1578711654999998,3.0852,1.4523,-0.029325,-2.0000000000020002e-05,-1.4285714285744433e-05,5.999999999994898e-05,-0.00010181880771908958,1.4150780508703775e-05,-1.4342249516907657e-05
150000000000.0,-1,-0.0018240368999999999,-0.00928689755,-0.0006276255999999999,0.002339,-0.011151,-0.002767,0.06571436165,-9.737807317,1.1580672985,3.0849,1.4522,-0.029123,3.999999999992898e-05,-1.4285714285744433e-05,-1.999999999990898e-05,-8.906973447198041e-05,-1.8497952429807896e-06,-0.00013005866896032003
150000000000.0,-1,-0.011503200449999999,-0.022682781449999998,-0.025193283849999998,-0.001904,-0.007919,-0.00278,0.06582223479999999,-9.7379053835,1.1574788994999998,3.0848,1.4523,-0.029079,2.0000000000020002e-05,-1.4285714285744433e-05,1.999999999990898e-05,-8.914295649975479e-05,-0.0001817345858290409,-1.2996511487006757e-05
150000000000.0,-1,-0.0261445289,-0.03743198305,-0.02582090945,-0.001922,-0.01005,-0.002775,0.0656457151,-9.7379053835,1.1568905005,3.0849,1.4524,-0.029306,4.999999999999449e-05,-1.4285714285300344e-05,-2.999999999997449e-05,-0.00023153675218523517,0.00013791936223062073,-8.623834176990641e-05
150000000000.0,-1,-0.04437509125,-0.037814442399999995,-0.015298373999999998,-0.001906,-0.007919,-0.002777,0.06517499589999999,-9.738003449999999,1.156400168,3.0853,1.4524,-0.029769,4.0000000000040004e-05,-1.4285714285744433e-05,-9.99999999995449e-06,-8.543083995782297e-07,-6.378987189825658e-05,-2.284568709498558e-05
150000000000.0,-1,-0.0366376444,-0.04105063689999999,-0.01197391965,-0.001895,-0.005788,-0.001711,0.06476311659999999,-9.738101516499999,1.1559098355,3.0856,1.4525,-0.030159,9.99999999995449e-06,-1.4285714285744433e-05,2.0000000000020002e-05,0.00011296510950309369,-7.07456642652371e-05,-0.00020997499693198307
150000000000.0,-1,-0.0324992381,-0.04192342875,-0.00924767095,-0.000828,-0.005797,-0.001708,0.0643708506,-9.738101516499999,1.155811769,3.086,1.4525,-0.030547,9.00000000000345e-05,-1.4285714285744433e-05,-4.0000000000040004e-05,5.634088390027436e-05,0.00011650207172353433,-3.9125536594575294e-05
150000000000.0,-1,-0.034911674,-0.040158231749999995,-0.02085874455,-0.0019,-0.006852,-0.002774,0.06409626439999999,-9.738199583,1.1548311039999999,3.0861,1.4526,-0.030795,4.0000000000040004e-05,-2.4999999999941735e-05,9.99999999995449e-06,-9.806861547723145e-05,-2.6163611220431093e-05,4.9562452468343565e-05
150000000000.0,-1,-0.02993970245,-0.02260432825,-0.023712479699999997,0.000233,-0.00687,-0.002769,0.06390993805,-9.7382976495,1.1543407714999998,3.0863,1.4526,-0.030992,2.999999999997449e-05,-2.5000000000385825e-05,6.0000000000060005e-05,-9.142971133635491e-05,4.316608993382154e-05,0.00011244204877236541
150000000000.0,-1,-0.02272200805,-0.003726527,-0.010375435699999998,0.000261,-0.002608,-0.001708,0.06371380505,-9.7382976495,1.154242705,3.0864,1.4526,-0.031183,2.999999999997449e-05,-2.4999999999941735e-05,-2.0000000000020002e-05,-5.0930237872837125e-05,-0.000119119791440081,0.0002072778117652163
150000000000.0,-1,-0.024389138549999998,0.00197113665,0.0029616083000000002,0.00029,0.001653,-0.000647,0.06329211909999999,-9.7382976495,1.1541446385,3.0868,1.4527,-0.031543,7.00000000000145e-05,-2.4999999999941735e-05,-2.0000000000020002e-05,-0.00014483783344432233,0.00014274349079701487,0.00010707479290417155
150000000000.0,-1,-0.02285930115,-0.013886216399999998,-0.00489351835,0.001393,0.004843,-0.002784,0.06310579275,-9.7382976495,1.1541446385,3.087,1.4527,-0.031648,7.00000000000145e-05,-3.333333333310762e-05,-4.0000000000040004e-05,5.6126557637092844e-05,-9.261086865253176e-05,9.697857760748718e-05
150000000000.0,-1,-0.0085906254,-0.03019467535,-0.01626923235,0.004598,0.004818,-0.003846,0.06320385925,-9.7382976495,1.1541446385,3.0869,1.4527,-0.031497,-2.0000000000020002e-05,-3.333333333355171e-05,9.00000000000345e-05,0.00011311253786083775,-8.843489590271147e-05,0.0002469560169959806
150000000000.0,-1,-0.0010885381499999998,-0.02138830365,-0.013405690549999998,0.004592,0.004817,-0.002778,0.06334115235,-9.7382976495,1.154242705,3.0868,1.4526,-0.031329,4.999999999999449e-05,-3.333333333310762e-05,-2.0000000000020002e-05,-0.0001995371188265871,-6.24540043907551e-05,-0.0002871707855387484
150000000000.0,-1,0.00818855275,-0.01658304515,-0.0136312435,0.001389,0.005907,-0.000651,0.06348825209999999,-9.7382976495,1.1541446385,3.0866,1.4527,-0.031148,-9.99999999995449e-06,-1.6666666666775853e-05,6.0000000000060005e-05,6.569092008623656e-05,-0.000254061249296722,0.00018011283596308658
150000000000.0,-1,0.01758332345,-0.0074040207499999995,-0.0185541818,-0.001833,0.002738,-0.001719,0.0638216782,-9.7382976495,1.1537523725,3.0863,1.4527,-0.030804,4.499999999996174e-05,-1.6666666666775853e-05,4.999999999999449e-05,-8.044157055353551e-06,-8.844512996875054e-05,1.775106308787855e-05
150000000000.0,-1,0.0343625016,-0.013954862949999999,-0.01205237285,0.001333,-0.001551,-0.001708,0.0645473703,-9.738395716,1.1533601065,3.0857,1.4527,-0.030167,4.499999999996174e-05,-1.6666666666331764e-05,-6.0000000000060005e-05,0.00021363605898816473,-8.30050793738657e-05,-4.495645246205271e-05
150000000000.0,-1,0.030273128549999997,-0.027703786249999997,-0.007207887749999999,-0.001837,0.001673,-0.002788,0.06534170895,-9.738395716,1.1531639734999999,3.085,1.4527,-0.029464,3.0000000000085514e-05,-1.6666666666775853e-05,1.0000000000065512e-05,0.00012956313887957371,-0.00010470491136271853,-0.00011698916386126967
150000000000.0,-1,0.022388581949999996,-0.0302240953,0.00051975245,-0.001876,-0.00259,-0.001714,0.06604778774999999,-9.738395716,1.152869774,3.0844,1.4528,-0.028877,4.999999999999449e-05,-1.6666666666775853e-05,2.0000000000020002e-05,-9.041840838364124e-05,0.00010293676399908414,7.119728152016336e-05
150000000000.0,-1,0.0193583271,-0.027154613850000002,-0.0106107953,-0.005069,-0.001498,-0.001722,0.06667541335,-9.738493782499999,1.1521833085,3.0838,1.4528,-0.028313,-1.0000000000065512e-05,-1.6666666666775853e-05,7.00000000000145e-05,1.1579624556334878e-05,-0.00018933910049079294,0.0001179241403690412
150000000000.0,-1,0.015808319799999998,-0.03692203725,-0.014523648649999998,-0.005075,-0.001499,-0.000655,0.06708729264999999,-9.738591849,1.15130071,3.0834,1.4529,-0.027932,9.00000000000345e-05,-6.666666666710341e-06,-4.0000000000040004e-05,0.00020312166208058535,9.842104662438622e-05,8.840632167217422e-05
150000000000.0,-1,-0.0009120184499999999,-0.04576763555,-0.018426695349999998,-0.008268,-0.000407,-0.000663,0.06720497245,-9.738787982,1.150123912,3.0832,1.453,-0.027787,4.0000000000040004e-05,-6.666666666710341e-06,2.0000000000020002e-05,-0.00011993858565251259,2.4610676650160812e-05,2.2406374112549088e-05
150000000000.0,-1,-0.0079237732,-0.036971070499999995,-0.014749201599999998,-0.007197,-0.000415,-0.001728,0.06718535915,-9.7388860485,1.149143247,3.0832,1.4531,-0.027757,7.999999999996898e-05,-6.666666666710341e-06,-7.00000000000145e-05,9.452181274638427e-05,0.00013840366952133643,-9.261675339189424e-05
150000000000.0,-1,0.007649186999999999,-0.01876012145,-0.01248386545,-0.005055,0.000633,-0.001726,0.067469752,-9.738984115,1.1482606485,3.0829,1.4532,-0.027447,4.0000000000040004e-05,-6.666666666710341e-06,9.99999999995449e-06,5.843195743948648e-05,4.896770742890411e-06,2.9682272966624623e-05
150000000000.0,-1,0.00840429905,-0.0088848249,-0.028576578099999996,-0.009312,0.002798,-0.00067,0.06775414485,-9.7390821815,1.146985784,3.0826,1.4534,-0.027106,-4.999999999999449e-05,-6.666666666710341e-06,9.00000000000345e-05,-0.0002603185413390108,-4.760740294340593e-05,0.00013905686395432326
150000000000.0,-1,0.0087279185,-0.010247949249999999,-0.031057660549999998,-0.003985,0.002753,0.000406,0.0678816313,-9.739278314499998,1.1459070525,3.0824,1.4535,-0.026907,1.999999999990898e-05,-6.666666666710341e-06,4.0000000000040004e-05,0.00016292183343757927,2.3018048181944195e-05,-7.777521572283064e-05
150000000000.0,-1,0.0221434157,-0.02079990465,-0.008865211599999999,-0.005086,-0.0015,0.000411,0.0682346707,-9.739278314499998,1.1452205869999998,3.0821,1.4535,-0.026578,8.000000000008001e-05,-6.666666666710341e-06,-8.000000000008001e-05,3.7202037953543154e-05,0.0003403936199826152,-0.0002958565199211449
150000000000.0,-1,0.022643554849999997,-0.038677427599999994,-0.010542148749999999,-0.00514,-0.00683,0.002554,0.0684896436,-9.739376381,1.1445341214999998,3.0818,1.4536,-0.026379,3.999999999992898e-05,-6.666666666266252e-06,1.0000000000065512e-05,7.622466479473289e-05,7.687285119728493e-05,-7.676110078636e-05
150000000000.0,-1,0.03039080835,-0.061056202899999995,-0.025889555999999998,-0.005173,-0.008964,0.00576,0.0680777643,-9.7394744475,1.1439457225,3.0822,1.4537,-0.026799,4.0000000000040004e-05,-6.666666666710341e-06,8.500000000000174e-05,0.00025279803234945497,-2.89053078139645e-06,-0.00014931004305784867
150000000000.0,-1,0.0310870805,-0.058937966499999994,-0.027135000549999996,-0.00838,-0.008939,0.00682,0.06812679754999999,-9.739670580499999,1.1425727915,3.082,1.4538,-0.026787,-7.999999999996898e-05,-6.666666666710341e-06,8.500000000000174e-05,-1.886533246775457e-05,-9.75457542187197e-05,6.844170890474288e-05
150000000000.0,-1,0.0060408964,-0.035451039749999996,-0.007472667299999999,-0.010498,-0.008918,0.003614,0.06787182465,-9.739768646999998,1.1412979269999999,3.0822,1.4539,-0.027037,0.00019999999999997797,-6.666666666710341e-06,-0.00021000000000004349,0.0003407804375141765,0.00027931997373453754,-1.4090386916798536e-05
150000000000.0,-1,-0.00734518085,-0.0031087080499999998,0.00189268345,-0.016822,-0.002467,-0.001745,0.06779337145,-9.73996478,1.1398269294999999,3.0822,1.4541,-0.027066,-1.0000000000065512e-05,-6.666666666710341e-06,4.999999999999449e-05,-0.00013408734675768308,-0.00012670585603125062,0.00020197414067224528
150000000000.0,-1,-0.011836626549999998,0.0291649771,0.0061879961500000006,-0.00718,0.001717,-0.002802,0.0678031781,-9.740062846499999,1.1389443309999998,3.0821,1.4542,-0.027006,1.0000000000065512e-05,-6.666666666710341e-06,4.0000000000040004e-05,-8.481175768437765e-05,2.994833761738036e-05,9.990911938562164e-05
150000000000.0,-1,0.00051975245,0.030008348999999997,-0.0032754210999999997,-0.009258,0.008129,-0.003885,0.06815621749999999,-9.740160912999999,1.1381597989999999,3.0818,1.4543,-0.026565,-0.0001100000000000545,-6.666666666710341e-06,0.00017000000000000348,-6.266121161413452e-05,-9.346213922789559e-05,0.00020654471222592008
150000000000.0,-1,0.0046581587499999995,-0.0033832942499999997,-0.0271840338,-0.004966,0.011291,-0.003883,0.0685092569,-9.740258979499998,1.1370810674999998,3.0814,1.4544,-0.026096,0.000140000000000029,-6.666666666710341e-06,-0.000140000000000029,-6.313154911730123e-06,0.00015717262578718305,5.431961206703306e-05
150000000000.0,-1,-0.0068450417,-0.02678196115,-0.0374221764,-0.000733,0.009122,-0.000669,0.06849945025,-9.740357046,1.136198469,3.0814,1.4545,-0.025965,2.0000000000020002e-05,-6.2500000002074785e-06,8.999999999992347e-05,0.0002310165174337353,-3.684381719581964e-05,-1.8087445163406102e-05
150000000000.0,-1,-0.0176911966,-0.04541459614999999,-0.029214010349999996,0.000341,0.010179,-0.000668,0.0681169909,-9.7404551125,1.13561007,3.0817,1.4545,-0.026159,-9.999999999998899e-05,-6.249999999763389e-06,9.00000000000345e-05,-0.00021830617899842863,7.115838837101762e-05,-7.5241817629745356e-06
150000000000.0,-1,-0.020986230999999998,-0.05375024864999999,-0.016288845649999998,0.000311,0.005918,-0.001727,0.0678227914,-9.7404551125,1.1353158705,3.0819,1.4546,-0.026323,7.999999999996898e-05,-6.249999999763389e-06,-7.999999999996898e-05,8.750167512583396e-05,-5.6058249708001995e-05,-3.846474233926145e-05
150000000000.0,-1,-0.007433440699999999,-0.0541719346,-0.00587418335,0.00026,-0.000475,-0.001716,0.0678816313,-9.740553178999999,1.1350216709999998,3.0819,1.4546,-0.026235,9.00000000000345e-05,-6.2500000002074785e-06,-0.00012000000000000899,-0.00016914859552907835,-1.6263538287208945e-06,-3.784405085882625e-05
150000000000.0,-1,0.0361865385,-0.031547993049999994,-0.01362143685,0.000226,-0.00261,0.001489,0.06856809679999999,-9.740553178999999,1.1347274715,3.0812,1.4546,-0.025646,9.99999999995449e-06,-6.2500000002074785e-06,-1.4999999999987246e-05,-1.8891669084641904e-06,-2.563778036912545e-05,-0.0001441907780903584
150000000000.0,-1,0.05761406875,-0.0026674088,-0.021937476049999998,0.002335,-0.006887,-0.000638,0.0697252815,-9.740553178999999,1.1346294049999999,3.0802,1.4546,-0.024686,2.0000000000020002e-05,-6.249999999763389e-06,-1.4999999999987246e-05,-0.00040773805129612484,-9.668592304490353e-05,5.8441181648216656e-05
150000000000.0,-1,0.07089227285,0.024506818349999997,-0.02656621485,0.008721,-0.010135,-0.002759,0.07126492555,-9.7404551125,1.1351197375,3.0789,1.4546,-0.02345,-2.0000000000020002e-05,-6.249999999763389e-06,9.99999999995449e-06,0.00032099243996386306,-1.4512386468101823e-05,-0.0002083420612009057
150000000000.0,-1,0.07008812754999999,0.040285718199999994,-0.024634304799999996,0.008725,-0.010134,-0.003829,0.07297128265,-9.740357046,1.1357081365,3.0774,1.4545,-0.022095,-4.999999999999449e-05,-6.2500000002074785e-06,7.00000000000145e-05,-4.8612324601515766e-05,-0.00017159134615263305,9.871246494297381e-05
150000000000.0,-1,0.0438357255,0.031400893299999996,-0.02187863615,0.006613,-0.007985,-0.004906,0.07438344024999999,-9.740357046,1.1361004024999999,3.0762,1.4544,-0.020953,7.999999999996898e-05,-6.2500000002074785e-06,-8.999999999992347e-05,2.7868710050782397e-07,0.0001274758559639544,2.6678357248677287e-05
150000000000.0,-1,0.00969877685,0.01269961175,-0.02048609185,0.002385,-0.003686,-0.005989,0.07514835895,-9.740357046,1.136002336,3.0755,1.4544,-0.02032,-1.999999999990898e-05,-6.249999999763389e-06,3.999999999992898e-05,0.00024125153964638102,3.5550347474710975e-05,-0.0001841037340888363
150000000000.0,-1,-0.0079826131,-0.02705654735,-0.0293218835,0.000234,-0.003672,-0.00279,0.07532487865,-9.740357046,1.13561007,3.0754,1.4545,-0.020177,1.999999999990898e-05,-6.249999999763389e-06,-2.999999999997449e-05,4.578006691113856e-05,-6.47023644078093e-05,-0.00011855003061000957
150000000000.0,-1,-0.01468055505,-0.05153394575,-0.019309293849999996,-0.00192,-0.004722,-0.000656,0.07528565205,-9.7404551125,1.1350216709999998,3.0754,1.4545,-0.020223,-8.999999999992347e-05,-6.2500000002074785e-06,0.00012000000000000899,-6.59930740749548e-05,-2.1021162354806222e-05,-0.00010432659246406573
150000000000.0,-1,-0.0179853961,-0.07269669645,-0.0196721399,-0.00303,-0.007912,0.00255,0.0748443528,-9.740553178999999,1.1343352054999998,3.0757,1.4546,-0.020644,9.99999999995449e-06,-6.2500000002074785e-06,-4.999999999999449e-05,-0.00015929976674611268,1.2974873922155794e-05,-0.0001209662483572238
150000000000.0,-1,0.00187307015,-0.06862693669999999,-0.0293218835,0.004395,-0.011174,0.005771,0.07458937989999999,-9.740553178999999,1.1341390725,3.0759,1.4546,-0.020974,-2.999999999997449e-05,-6.249999999763389e-06,3.999999999992898e-05,8.160379702815135e-05,-4.129477200920384e-05,-1.423117215892944e-05
150000000000.0,-1,0.0157690932,-0.05880067339999999,-0.04282564055,0.002244,-0.01435,0.003638,0.0746089932,-9.740651245499999,1.133256474,3.0759,1.4547,-0.021053,2.999999999997449e-05,-6.249999999763389e-06,-5.999999999994898e-05,-0.00020308768853727344,3.354891306694974e-05,3.2232641923535255e-05
150000000000.0,-1,0.0137489233,-0.0458755087,-0.04821929805,0.004393,-0.012237,0.003637,0.0746874464,-9.740749312,1.1327661414999999,3.0758,1.4548,-0.021092,1.0000000000065512e-05,-6.2500000002074785e-06,-9.99999999995449e-06,-4.434326270552624e-05,-0.00014886478225850652,0.0001796307235331085
150000000000.0,-1,-0.0084141057,-0.0352058735,-0.041315416449999996,0.002291,-0.010085,0.000428,0.07455995995,-9.740749312,1.1323738755,3.0758,1.4548,-0.021282,-3.0000000000085514e-05,-3.333333333355171e-05,2.999999999997449e-05,4.122209628709683e-05,-7.083873562807597e-05,4.79706264631119e-05
150000000000.0,-1,-0.021378497,-0.010493115499999999,-0.03082230095,0.003418,-0.003698,-0.001715,0.07434421364999999,-9.740749312,1.1321777425,3.076,1.4548,-0.021499,4.0000000000040004e-05,-3.333333333310762e-05,-4.999999999999449e-05,-4.9901082306291755e-05,0.00011332384364259873,0.00019784290300872698
150000000000.0,-1,-0.03672590425,-0.0020790098,-0.01517088755,0.00136,0.005909,-0.001734,0.07383426785,-9.7408473785,1.1318835429999998,3.0765,1.4549,-0.021899,-2.0000000000020002e-05,-3.333333333355171e-05,9.99999999995449e-06,-0.0002735444790031849,-5.423062665754763e-05,0.00013395681114136693
150000000000.0,-1,-0.047611285749999996,-0.0037167203499999996,-0.012748645,0.002444,0.008032,-0.001734,0.0731968356,-9.7408473785,1.1318835429999998,3.077,1.4549,-0.022384,-2.0000000000020002e-05,-2.4999999999941735e-05,-9.99999999995449e-06,0.00012266880148570358,6.485098504427356e-05,0.00014465186335632652
150000000000.0,-1,-0.0356569794,-0.0073353742,-0.0115522337,0.007775,0.009052,0.00041,0.07247114349999999,-9.7408473785,1.1321777425,3.0777,1.4549,-0.02294,-2.0000000000020002e-05,-2.4999999999941735e-05,2.0000000000020002e-05,0.00022565075464786588,-1.6811486548196086e-05,6.698973547969445e-05
150000000000.0,-1,-0.022702394749999997,-0.0077080269,-0.0363826715,0.000297,0.008048,0.0004,0.07193177775,-9.7408473785,1.1315893435,3.0781,1.4549,-0.023291,1.0000000000065512e-05,-2.4999999999941735e-05,-3.0000000000085514e-05,0.00012765509234324846,-7.065037826836651e-05,0.000186264730099861
150000000000.0,-1,-0.009022117999999999,-0.023545766649999997,-0.04127618985,0.005638,0.00907,0.000408,0.07156893169999999,-9.740945445,1.1313932105,3.0784,1.4549,-0.023505,2.0000000000020002e-05,-2.4999999999941735e-05,-2.999999999997449e-05,3.015232442526994e-05,0.000157324724909369,5.1018691324067333e-05
150000000000.0,-1,0.0082179727,-0.026654474699999996,-0.03680435745,0.004549,0.005883,-0.000656,0.0716866115,-9.740945445,1.1310990109999999,3.0783,1.455,-0.023309,-6.0000000000060005e-05,-3.333333333355171e-05,4.0000000000040004e-05,-8.074616883124719e-06,-0.00012145292443110911,-1.2451512986011437e-05
150000000000.0,-1,0.00385401345,-0.037196623449999994,-0.04850369089999999,0.001347,0.00591,-0.000662,0.0717062248,-9.7410435115,1.1304125454999998,3.0782,1.455,-0.023204,-3.999999999992898e-05,-3.333333333310762e-05,2.0000000000020002e-05,0.00020636561410158905,6.0632807491245444e-05,7.659742611298981e-05
150000000000.0,-1,-0.006433162399999999,-0.0420705285,-0.037284883299999995,0.001325,0.002714,-0.001723,0.07167680485,-9.7410435115,1.1298241465,3.0782,1.4551,-0.02317,1.999999999990898e-05,-3.333333333355171e-05,-3.0000000000085514e-05,-0.00026875370117518393,5.9922543185209065e-06,6.772764099460815e-05
150000000000.0,-1,0.008786758399999999,-0.0194563936,-0.014092156049999999,0.001305,0.001647,0.000413,0.0718631312,-9.741141577999999,1.1296280134999999,3.0781,1.4551,-0.022972,-1.999999999990898e-05,-3.333333333310762e-05,-1.999999999990898e-05,0.00037217338089123864,-9.807564563080184e-05,-5.478724534624391e-05
150000000000.0,-1,0.0076295737,0.00222610955,-0.00389324005,0.002396,0.002707,-0.002789,0.07212791075,-9.7410435115,1.12972608,3.0778,1.4551,-0.02271,-2.0000000000020002e-05,-3.333333333355171e-05,9.99999999995449e-06,-8.872754097399849e-05,5.008098012693196e-05,0.0002040904609952321
150000000000.0,-1,0.016337878899999998,0.025781682849999998,0.01322917085,0.00562,0.004812,-0.003856,0.07269669645,-9.7410435115,1.1304125454999998,3.0774,1.455,-0.022204,-1.0000000000065512e-05,-3.333333333310762e-05,-4.0000000000040004e-05,0.0004927728439225731,-0.0001541898387984464,-9.571294058741131e-05
150000000000.0,-1,0.026134722249999996,0.01872089485,0.0253403836,0.010991,0.007967,-0.005988,0.07367736144999999,-9.7408473785,1.1319816095,3.0766,1.4549,-0.021364,-2.999999999997449e-05,-1.4285714285744433e-05,1.0000000000065512e-05,5.6928958668267526e-05,8.876531278012578e-05,-8.404148271079492e-06
150000000000.0,-1,0.025634583099999997,-0.0009022117999999999,0.015249340749999998,0.01205,0.006893,-0.005985,0.07461879985,-9.740651245499999,1.1333545405,3.0758,1.4547,-0.020531,4.0000000000040004e-05,-1.4285714285744433e-05,-7.00000000000145e-05,0.00012078107089852352,0.0002070888305840679,-3.753253380089916e-05
150000000000.0,-1,0.0184561153,-0.022584714949999998,-0.0059036033,0.012036,0.005826,-0.004917,0.07536410525,-9.740553178999999,1.1344332719999999,3.0753,1.4546,-0.019888,-4.999999999999449e-05,-1.4285714285744433e-05,3.999999999992898e-05,0.0001901227036584796,-7.99701859568458e-05,7.22852925405526e-05
150000000000.0,-1,0.012140632699999999,-0.03543142645,-0.005491723999999999,0.014123,0.002608,-0.000639,0.07569753135,-9.740357046,1.13561007,3.075,1.4545,-0.019622,-4.0000000000040004e-05,-1.4285714285744433e-05,5.000000000032756e-06,-7.613614991019979e-05,3.7085989635032846e-05,-0.00010062476529082431
150000000000.0,-1,0.01560238015,-0.03860878105,-0.01248386545,0.00128,-0.00155,0.000413,0.07597211755,-9.740357046,1.135806203,3.0748,1.4545,-0.019397,-2.999999999997449e-05,-1.4285714285744433e-05,5.000000000032756e-06,-2.000997431683693e-05,9.980110377227902e-06,-6.242460493766089e-05
150000000000.0,-1,0.017034151049999998,-0.0451890432,-0.0149649479,0.003394,-0.002635,0.002553,0.07604076409999999,-9.740357046,1.135806203,3.0747,1.4545,-0.019365,-2.999999999997449e-05,-1.4285714285744433e-05,-2.0000000000020002e-05,1.3060874666459554e-05,-2.303003723103103e-05,-9.501727550276229e-05
150000000000.0,-1,0.02021150565,-0.04008958519999999,-0.0199074995,0.002306,-0.005822,0.001488,0.07630554364999999,-9.740357046,1.13561007,3.0745,1.4545,-0.019186,-6.0000000000060005e-05,-1.4285714285744433e-05,4.0000000000040004e-05,-3.083605654441435e-05,6.684351206720507e-05,4.867514828710284e-05
150000000000.0,-1,0.0248108245,-0.03066539455,-0.022006122599999997,0.005496,-0.009042,-0.001704,0.0769429759,-9.740357046,1.13561007,3.0739,1.4545,-0.018711,2.999999999997449e-05,-2.4999999999941735e-05,-7.00000000000145e-05,-6.908584229847747e-05,-5.257868411212563e-05,-8.293381350288342e-05
150000000000.0,-1,0.016279039,-0.014847268099999998,-0.014445195449999998,0.007638,-0.007994,-0.001703,0.07754118155,-9.740357046,1.136002336,3.0734,1.4544,-0.018293,-6.999999999990347e-05,-2.4999999999941735e-05,3.999999999992898e-05,0.0001256505489433124,-0.00013456640237619055,-8.804497216186036e-05
150000000000.0,-1,-0.0005295590999999999,0.0037755602499999997,-0.0116699135,0.009796,-0.006943,-0.004903,0.0780413207,-9.740258979499998,1.136590735,3.073,1.4544,-0.017958,-0.0001300000000000745,-2.4999999999941735e-05,0.00012000000000000899,-0.00018896960967085263,7.099265247156872e-05,3.004466364053826e-05
150000000000.0,-1,-0.01605348605,0.0016082905999999998,-0.00909076455,0.008793,0.000526,-0.005984,0.0782962936,-9.740160912999999,1.137179134,3.0728,1.4543,-0.017757,0.0001300000000000745,-2.4999999999941735e-05,-0.00020999999999993246,-5.9086536779995313e-05,-7.388072505953858e-05,-7.268301734253413e-06
150000000000.0,-1,-0.023545766649999997,-0.005952636549999999,-0.0160632927,0.009876,0.002648,-0.005985,0.07846300664999999,-9.740062846499999,1.1378655994999998,3.0727,1.4542,-0.017633,-6.0000000000060005e-05,-1.6666666666775853e-05,3.999999999992898e-05,-6.989593845307951e-05,1.560853242632554e-05,1.4938914507212075e-05
150000000000.0,-1,-0.0180246227,-0.02028995885,-0.01109132115,0.01309,0.003689,-0.007048,0.07877681945,-9.73996478,1.1389443309999998,3.0725,1.4541,-0.017399,-4.999999999999449e-05,-1.6666666666775853e-05,4.999999999999449e-05,-5.31284667639742e-05,-2.26236254057266e-05,2.8866995103182802e-05
150000000000.0,-1,-0.01670072495,-0.03627479835,-0.00028439285,0.009862,0.001582,-0.004914,0.07895333915000001,-9.7398667135,1.139924996,3.0724,1.454,-0.017287,-9.99999999995449e-06,-1.6666666666775853e-05,-2.999999999997449e-05,-0.00034459531565023127,3.306923613610735e-06,7.673759119164458e-05
150000000000.0,-1,-0.0092770909,-0.0565451439,-0.010591182,0.007722,0.001599,-0.00385,0.07915927879999998,-9.739768646999998,1.140513395,3.0723,1.454,-0.017133,-4.499999999996174e-05,-1.6666666666331764e-05,-2.999999999997449e-05,0.0001196423455693818,1.5078011819324999e-05,-0.00013202259446742914
150000000000.0,-1,-9.806649999999999e-06,-0.06669502664999999,-0.0127682583,0.000226,-0.000473,-0.001725,0.07947309159999999,-9.739768646999998,1.140317262,3.072,1.454,-0.016838,-4.500000000007276e-05,-1.6666666666775853e-05,7.00000000000145e-05,0.00015894693866225218,-7.235294711072093e-05,-7.922862557130372e-05
150000000000.0,-1,0.00041187929999999997,-0.06648908699999999,-0.019505426849999997,0.001253,-0.002617,0.00255,0.07934560514999998,-9.7398667135,1.1398269294999999,3.0721,1.454,-0.016942,2.999999999997449e-05,-1.6666666666775853e-05,-9.00000000000345e-05,-4.253558603339869e-05,9.256779666810822e-05,4.797734162531597e-05
150000000000.0,-1,-0.016416332099999997,-0.053691408749999996,-0.03429385505,0.001241,-0.002619,0.004686,0.07866894629999999,-9.73996478,1.1392385305,3.0726,1.4541,-0.017517,-7.00000000000145e-05,-2.4999999999941735e-05,2.999999999997449e-05,-7.294132094948225e-05,-8.348398072799412e-05,7.04696725479792e-05
150000000000.0,-1,-0.02187863615,-0.03658861115,-0.042080335149999995,0.004443,-0.00158,0.005758,0.0776882813,-9.73996478,1.1389443309999998,3.0735,1.4541,-0.01838,-3.999999999992898e-05,-2.4999999999941735e-05,2.0000000000020002e-05,-6.574254052127415e-05,6.789995275369165e-06,-2.8824970123242366e-05
150000000000.0,-1,-0.025154057249999997,-0.03192064575,-0.02093719775,0.001238,-0.002618,0.004688,0.07677626284999998,-9.740062846499999,1.138748198,3.0743,1.4542,-0.019204,-3.500000000000725e-05,-2.4999999999941735e-05,-2.0000000000020002e-05,0.0001440907382286305,9.046675521040548e-05,0.00014159144154790582
150000000000.0,-1,-0.01293497135,-0.023506540049999997,-0.0078060934,-0.000849,0.002728,0.003609,0.07622709044999999,-9.740062846499999,1.1384539985,3.0747,1.4542,-0.019654,-3.500000000000725e-05,-2.4999999999941735e-05,4.0000000000040004e-05,4.6190623445241386e-05,-0.00014036007552209462,0.00014986063616007073
150000000000.0,-1,-0.01760293675,-0.0026674088,-0.012091599449999999,0.000215,0.001655,0.002546,0.07565830474999999,-9.740062846499999,1.1381597989999999,3.0752,1.4542,-0.02012,-2.5000000000052758e-05,-2.4999999999941735e-05,-5.999999999994898e-05,4.7912593443166784e-05,-7.881104334894751e-05,0.00013525828495586367
150000000000.0,-1,-0.00924767095,0.00540346415,0.0053250109499999995,0.001352,0.009107,0.0004,0.07554062495,-9.740062846499999,1.1381597989999999,3.0753,1.4542,-0.020159,-2.4999999999941735e-05,-2.4999999999941735e-05,2.999999999997449e-05,3.116883381726332e-05,-7.585845479773923e-06,0.00015151556629788843
150000000000.0,-1,-0.0043345393,0.01748525695,0.0120229529,0.001366,0.010174,-0.000669,0.07541313849999999,-9.740062846499999,1.1385520649999998,3.0755,1.4542,-0.020188,-4.999999999999449e-05,-2.5000000000385825e-05,2.0000000000020002e-05,-1.3774337205951781e-05,2.1905367955765698e-05,0.00020240753303379933
150000000000.0,-1,0.00018632635,0.023388860249999997,0.0157690932,0.004587,0.011215,-0.0028,0.0755308183,-9.73996478,1.139336597,3.0754,1.4541,-0.020029,-4.999999999999449e-05,-2.4999999999941735e-05,2.999999999997449e-05,5.322217218406422e-05,0.00012158510405946288,6.168648625859419e-05
150000000000.0,-1,0.00291257505,-0.0016867438,0.009992976349999998,0.005645,0.010141,-0.002797,0.0756484981,-9.7398667135,1.1400230625,3.0753,1.454,-0.019874,-2.0000000000020002e-05,-2.4999999999941735e-05,-4.0000000000040004e-05,-0.00014726468681680593,1.3703853894542206e-05,4.973293887378105e-05
150000000000.0,-1,0.015710253299999997,-0.014033316149999999,-0.0001176798,0.006654,0.004801,0.000416,0.07586424439999999,-9.739768646999998,1.140709528,3.0752,1.454,-0.019661,-6.0000000000060005e-05,-2.4999999999941735e-05,1.0000000000065512e-05,-0.0002634805074586133,-0.00011213485465488837,0.00013026020199902177
150000000000.0,-1,0.0225160684,-0.014415775499999998,-0.00387362675,0.007686,0.00053,0.000424,0.07624670374999999,-9.739768646999998,1.1412979269999999,3.0749,1.4539,-0.019339,-9.99999999995449e-06,-2.4999999999941735e-05,-4.999999999999449e-05,-5.054506432222716e-05,-1.8771768179215442e-05,-0.00010343783562438702
150000000000.0,-1,0.0282627653,-0.0165928518,0.0048444850999999995,0.007673,-0.000536,0.001492,0.07663896975000001,-9.739670580499999,1.1419843925,3.0746,1.4538,-0.019027,-7.00000000000145e-05,-2.4999999999941735e-05,-4.999999999999449e-05,6.3670968981632825e-06,-8.069317494840966e-05,-1.381678098733019e-05
150000000000.0,-1,0.03039080835,-0.014768814899999998,0.00981645665,0.009795,-0.002684,0.000431,0.07705084905,-9.7394744475,1.1429650574999999,3.0743,1.4537,-0.018747,-7.00000000000145e-05,9.999999999976694e-05,0.00011999999999989797,3.6313173632285256e-05,-1.0413265404629612e-05,-9.324188913506504e-05
150000000000.0,-1,0.017897136249999997,-0.015347407249999999,0.004707192,0.011912,-0.004833,0.000437,0.07742350174999998,-9.739376381,1.144043789,3.074,1.4536,-0.018527,1.0000000000065512e-05,1.2499999999970868e-05,-6.999999999990347e-05,-0.0003364815738542415,0.00012447185682229467,-2.985553212120351e-05
150000000000.0,-1,0.015004174499999998,-0.027772432799999996,0.013140911,0.010837,-0.00589,0.000437,0.07776673449999999,-9.739180248,1.1453186535,3.0738,1.4535,-0.018367,-2.0000000000020002e-05,1.2499999999970868e-05,-2.0000000000020002e-05,0.0002413461621277868,-0.00011601722827481176,-0.00013095262724638346
150000000000.0,-1,0.023673253099999996,-0.03060655465,0.014523648649999998,0.0087,-0.006937,-0.000634,0.07838455344999999,-9.7390821815,1.1464954514999999,3.0733,1.4533,-0.017975,-6.0000000000060005e-05,1.2499999999970868e-05,3.999999999992898e-05,-3.39462337373142e-06,-2.4938178167843716e-05,-0.00011839165088955994
150000000000.0,-1,0.028674644599999997,-0.035029353799999996,0.02221206225,0.002295,-0.006885,0.000421,0.07891411255,-9.738984115,1.147181917,3.0729,1.4533,-0.017618,1.0000000000065512e-05,1.2500000000414957e-05,-5.999999999994898e-05,5.468191784796517e-05,2.1916498769369852e-05,-5.468191784796517e-05
150000000000.0,-1,0.030233901949999996,-0.03517645355,0.017043957699999997,-0.003024,-0.003647,0.00254,0.07929657189999999,-9.738984115,1.147181917,3.0726,1.4533,-0.017329,-7.00000000000145e-05,1.2499999999970868e-05,4.999999999999449e-05,9.5675790741101e-05,-3.697860032980671e-05,-4.666727646984725e-05
150000000000.0,-1,0.02144714355,-0.03709855695,0.01723028405,-0.005177,-0.004697,0.004672,0.0792573453,-9.738984115,1.146985784,3.0726,1.4533,-0.0174,2.999999999997449e-05,1.2499999999970868e-05,-7.00000000000145e-05,-3.910994900158116e-06,3.659781913323279e-05,0.00011926532704631398
150000000000.0,-1,0.011581653649999999,-0.020623384949999997,0.01271922505,-0.003048,-0.004716,0.005742,0.0789435325,-9.7390821815,1.146789651,3.0729,1.4533,-0.017715,-2.999999999997449e-05,1.2499999999970868e-05,-9.99999999995449e-06,-0.00026191624962357274,-7.98544274607238e-05,0.0001346777448905101
150000000000.0,-1,-0.0027556686499999998,0.00018632635,0.0022947561,0.000175,-0.00261,0.004677,0.0784728133,-9.7390821815,1.146789651,3.0733,1.4533,-0.018158,-9.00000000000345e-05,1.2499999999970868e-05,5.999999999994898e-05,0.0002235400532433207,3.015224121338811e-05,-0.00015670654669674988
150000000000.0,-1,-0.016082905999999998,-0.0037167203499999996,0.0016475171999999999,0.00127,-0.000485,0.002541,0.0778844143,-9.7390821815,1.146985784,3.0738,1.4533,-0.018683,-1.666666666666483e-05,1.0000000000065512e-05,-2.0000000000020002e-05,3.442036748158017e-05,-8.016277917621828e-05,8.487551391311854e-05
150000000000.0,-1,-0.0220257359,-0.015278760699999998,0.00701175475,0.003412,0.000563,0.002544,0.07723717539999998,-9.738984115,1.1472799834999998,3.0744,1.4533,-0.019259,-1.666666666666483e-05,1.0000000000065512e-05,-4.999999999999449e-05,-8.999606406434602e-05,-5.5297486820649056e-06,-5.306952819372768e-05
150000000000.0,-1,-0.01485707475,-0.023692866400000002,0.0013140911,0.004493,0.001621,0.001477,0.0768056828,-9.738984115,1.147574183,3.0748,1.4532,-0.019634,-1.666666666666483e-05,9.999999999621423e-06,2.0000000000020002e-05,-0.00016261210486523403,4.524896987612159e-05,4.949916780461194e-05
150000000000.0,-1,-0.00392266,-0.02538941685,-0.0026379888499999996,0.005539,-0.001584,0.000418,0.0766487764,-9.7388860485,1.1481625819999999,3.0749,1.4532,-0.019808,-6.666666666710341e-06,1.0000000000065512e-05,-2.999999999997449e-05,-0.0001879596764537972,0.00010782560027466914,-1.6748040933212138e-05
150000000000.0,-1,0.00044129925,-0.033636809499999996,-0.013984282899999999,0.004461,-0.001577,0.00255,0.0764722567,-9.7388860485,1.1482606485,3.0751,1.4532,-0.019988,-6.666666666599319e-06,1.0000000000065512e-05,-6.0000000000060005e-05,6.987305917416364e-05,-4.863905449670192e-05,-4.5117231211477815e-05
150000000000.0,-1,-0.004059953099999999,-0.031234180249999997,-0.01587696635,0.002318,-0.002625,0.002549,0.07618786385,-9.7388860485,1.1481625819999999,3.0753,1.4532,-0.02027,-6.666666666710341e-06,1.0000000000065512e-05,-3.4999999999896225e-05,2.0974115930938453e-05,5.194680778086713e-05,6.070992721651791e-05
150000000000.0,-1,-0.01240541225,-0.0207312581,-0.011611073599999999,0.000184,-0.002607,0.002546,0.0758446311,-9.7388860485,1.1479664489999999,3.0756,1.4532,-0.020575,2.0000000000020002e-05,1.0000000000065512e-05,-3.500000000000725e-05,7.915132025360094e-07,0.00017544798927704441,-6.589940606094302e-05
150000000000.0,-1,-0.016612465099999998,-0.0051386846,-0.020348798749999997,0.001277,-0.000482,0.00041,0.0755700449,-9.738984115,1.147770316,3.0758,1.4532,-0.020803,-2.0000000000020002e-05,9.999999999621423e-06,-2.0000000000020002e-05,0.0001010878510572244,-4.873421289164348e-05,-2.7563989564161062e-05
150000000000.0,-1,-0.02689964095,0.00397169325,-0.01034601575,0.004527,0.003757,-0.002793,0.0752366188,-9.738984115,1.1478683825,3.0761,1.4532,-0.02107,-3.999999999992898e-05,1.0000000000065512e-05,3.999999999992898e-05,3.571166547589044e-05,9.230488527234293e-05,-2.4324225609273498e-05
150000000000.0,-1,-0.014121576,0.0037657536,0.00041187929999999997,0.004517,0.003755,-0.000657,0.07502087249999999,-9.7388860485,1.1483587149999999,3.0764,1.4532,-0.021253,-6.0000000000060005e-05,1.0000000000065512e-05,1.0000000000065512e-05,7.227650090113613e-05,-1.8544706433365477e-05,-7.821792857454213e-05
150000000000.0,-1,-0.01781868305,-0.01989769285,0.00045110589999999997,0.003422,0.001631,0.00148,0.07454034664999999,-9.7388860485,1.1486529145,3.0768,1.4532,-0.021667,2.999999999997449e-05,1.6666666666775853e-05,-7.999999999996898e-05,0.0002235082779811215,3.019037629647947e-05,-0.0001566671074093584
150000000000.0,-1,-0.0144746154,-0.030047575599999998,-0.00952225715,-0.000834,0.003796,0.002537,0.07403040085,-9.7388860485,1.1484567815,3.0772,1.4532,-0.022051,1.0000000000065512e-05,1.6666666666775853e-05,-5.0000000000105516e-05,0.00011968210440294058,8.106995499046477e-05,-7.16506015958629e-05
150000000000.0,-1,0.00565843705,-0.04692482025,-0.013611630199999999,0.000196,0.000589,0.004679,0.0736479415,-9.7388860485,1.1481625819999999,3.0775,1.4532,-0.022363,-0.0001100000000000545,1.6666666666331764e-05,0.00010000000000010001,-0.00011727929651428326,-5.098006556214507e-05,3.855089382032162e-05
150000000000.0,-1,0.018103075899999998,-0.04508117005,-0.0190445143,-0.000903,-0.0026,0.005749,0.0734714218,-9.738984115,1.147770316,3.0777,1.4532,-0.022525,-1.999999999990898e-05,1.6666666666775853e-05,9.99999999995449e-06,0.0001616283980807598,-8.198485906696362e-05,-2.69949328313146e-06
150000000000.0,-1,0.011365907350000001,-0.0376771493,-0.014866881399999999,-0.003046,-0.003648,0.005747,0.07303012254999999,-9.7390821815,1.147181917,3.078,1.4533,-0.022917,4.999999999999449e-05,1.6666666666775853e-05,-9.00000000000345e-05,9.548016938709658e-05,0.00016772223706018607,-5.348490780487936e-06
150000000000.0,-1,-0.0053544309,-0.03411733535,-0.023212340550000002,-0.005173,-0.002565,0.005742,0.07239269029999999,-9.739180248,1.146201252,3.0785,1.4534,-0.023447,-0.000140000000000029,1.6666666666775853e-05,0.00017000000000000348,-5.391675949284469e-05,3.656752357894533e-05,-2.233442493126958e-05
150000000000.0,-1,-0.012375992300000001,-0.03223445855,-0.0132389775,-0.00407,0.000625,0.003604,0.07177487134999999,-9.739278314499998,1.1455147865,3.079,1.4535,-0.023958,-2.999999999997449e-05,1.4285714285744433e-05,2.0000000000020002e-05,-4.177408769079349e-05,-3.260217189282599e-05,3.880224254437792e-05
150000000000.0,-1,-0.024310685349999996,-0.0243989452,0.0041580196,-0.005132,0.000635,0.002536,0.07114724574999999,-9.739278314499998,1.1450244539999999,3.0795,1.4535,-0.024473,-2.0000000000020002e-05,1.4285714285744433e-05,-2.999999999997449e-05,0.00012393294448287406,0.00010376853838156563,9.278737149287508e-06
150000000000.0,-1,-0.03144992655,-0.017455837,0.00844352565,-0.005106,0.003832,0.002532,0.0703529071,-9.739376381,1.1446321879999999,3.0802,1.4536,-0.0251,-2.0000000000020002e-05,1.4285714285744433e-05,2.0000000000020002e-05,-5.525662959393607e-05,-0.00012541543560184998,0.00014139364560561418
150000000000.0,-1,-0.025909169299999996,-0.0097870367,-0.0008139519499999999,-0.002969,0.004879,0.003602,0.06959779505,-9.739376381,1.1443379885,3.0808,1.4536,-0.025695,-7.00000000000145e-05,1.4285714285300344e-05,4.999999999999449e-05,-9.389097265932733e-05,-6.941389178183321e-05,7.010927901029973e-05
150000000000.0,-1,-0.01018910935,-0.0127094184,-0.008237586,-0.001908,0.004869,0.004672,0.06899958939999999,-9.7394744475,1.143847656,3.0813,1.4537,-0.026136,-9.99999999995449e-06,1.4285714285744433e-05,-1.0000000000065512e-05,-0.00017837737255210762,0.00012023787065373881,-1.1245913928092932e-05
150000000000.0,-1,-0.006903881599999999,-0.013180137599999999,-0.0052563644,0.004455,-0.00051,0.003625,0.06855829014999999,-9.7394744475,1.144043789,3.0817,1.4537,-0.026519,-4.999999999999449e-05,1.4285714285744433e-05,3.0000000000085514e-05,-5.429361257247578e-05,-1.3693653608148892e-05,-7.345674529890545e-05
150000000000.0,-1,0.0019122967499999998,-0.018593408399999997,-0.01303303785,0.006588,-0.000527,0.003629,0.06826409065,-9.739376381,1.1443379885,3.082,1.4536,-0.026776,-4.0000000000040004e-05,1.4285714285744433e-05,9.99999999995449e-06,-7.409988955964231e-05,5.89170471485545e-05,-5.618909482585366e-06
150000000000.0,-1,0.0176127434,-0.005315204299999999,-0.0155925735,0.005484,-0.005845,0.002568,0.06842099704999999,-9.739376381,1.1446321879999999,3.0819,1.4536,-0.026705,2.0000000000020002e-05,2.4999999999941735e-05,-4.0000000000040004e-05,-0.00017787300416416407,0.00012467792031944924,-0.000188570631579843
150000000000.0,-1,0.02993970245,-0.00253992235,-0.0017357770499999998,0.0044,-0.007967,0.002569,0.06882306969999999,-9.739278314499998,1.1451225205,3.0816,1.4535,-0.026458,-9.00000000000345e-05,2.5000000000385825e-05,8.000000000008001e-05,-0.00017706161428665546,-0.00012638362818617743,1.9618670712873154e-05
150000000000.0,-1,0.0291257505,-0.0046581587499999995,-0.005197524499999999,0.003299,-0.012221,0.002573,0.06918591575,-9.739278314499998,1.1453186535,3.0813,1.4535,-0.026253,-2.5000000000052758e-05,2.4999999999941735e-05,-3.0000000000085514e-05,-9.834353272974994e-05,7.956851007229204e-05,2.781333741097569e-07
150000000000.0,-1,0.019279873899999998,-0.02138830365,-0.01065982855,9.2e-05,-0.012196,0.003634,0.06930359555,-9.739278314499998,1.1450244539999999,3.0811,1.4536,-0.026269,-2.4999999999941735e-05,2.4999999999941735e-05,4.999999999999449e-05,3.476006523528419e-05,-3.748874157838422e-05,-0.00010753938997165591
150000000000.0,-1,0.01167972015,-0.027350746849999996,-0.00031381279999999996,-0.002039,-0.011114,0.004695,0.06912707585,-9.739376381,1.1449263875,3.0813,1.4536,-0.026541,2.0000000000020002e-05,3.333333333310762e-05,-1.999999999990898e-05,0.00027509299713734947,8.651009127569331e-05,-0.00012953164303386444
150000000000.0,-1,-0.012160246,-0.021358883699999998,0.00493274495,0.000109,-0.010064,0.00363,0.06856809679999999,-9.739376381,1.1449263875,3.0818,1.4536,-0.027131,-2.0000000000020002e-05,3.333333333355171e-05,-1.666666666666483e-05,0.00013076179076265682,-8.11056577159075e-05,-1.437440842222415e-05
150000000000.0,-1,-0.0232025339,-0.00491313165,0.01726951065,-0.000912,-0.005791,0.001487,0.06808757095,-9.739376381,1.1449263875,3.0822,1.4536,-0.027612,-9.99999999995449e-06,3.333333333310762e-05,-1.666666666666483e-05,2.39695634458581e-05,8.503523780101219e-05,-5.518654474334639e-05
150000000000.0,-1,-0.024124358999999998,-0.00775706015,0.01856398845,-0.001956,-0.00365,0.000415,0.067665885,-9.739376381,1.1450244539999999,3.0826,1.4536,-0.028011,2.999999999997449e-05,4.999999999988347e-05,-1.666666666666483e-05,6.0613743180448765e-05,7.319697659591284e-05,-1.853607352719777e-05
150000000000.0,-1,-0.01572005995,-0.02058415835,0.0008825985,-0.003037,-0.004708,0.001484,0.06734226554999999,-9.739376381,1.1447302545,3.0828,1.4536,-0.028316,-9.00000000000345e-05,5.000000000032756e-05,-0.0008600000000000829,-0.01140282414420235,0.008932591972838022,-0.0004538892878946932
150000000000.0,-1,-0.01020872265,-0.03668667765,-0.01511204765,-0.001934,0.00061,0.002544,0.0669205796,-9.7394744475,1.144239922,3.0832,1.4536,-0.028669,0.0001300000000000745,-0.00010000000000021103,0.0008099999999999774,0.011418699487669048,-0.009067599266224136,0.0004147685318676153
150000000000.0,-1,-0.01611232595,-0.04009939184999999,-0.00679600845,0.000163,-0.002606,0.004689,0.06624392074999999,-9.7394744475,1.144043789,3.0838,1.4537,-0.029263,-0.0001300000000000745,0.00019999999999997797,-0.0007899999999999574,-0.011307110997824665,0.009064518131643107,-0.0005263570217124425
150000000000.0,-1,-0.02083913125,-0.04021707164999999,0.0067862018,-0.003032,-0.002578,0.003617,0.0654299688,-9.7394744475,1.1437495894999998,3.0844,1.4537,-0.029971,0.0001100000000000545,-9.999999999976694e-05,0.0008299999999999974,0.011503307809053842,-0.00894623564914987,0.00048761188873625017
150000000000.0,-1,-0.0173381572,-0.041962655349999996,0.00848275225,-0.005186,-0.005756,0.002552,0.064920023,-9.739572514,1.14345539,3.0849,1.4537,-0.030437,-4.0000000000040004e-05,4.999999999988347e-05,4.999999999999449e-05,-0.00013825653178933806,3.051793308639361e-05,4.050266096733424e-06
150000000000.0,-1,-0.0008629851999999999,-0.040354364749999996,-0.0080218397,-0.007298,-0.003606,0.001477,0.06476311659999999,-9.739670580499999,1.142474725,3.085,1.4538,-0.030579,-4.0000000000040004e-05,4.999999999988347e-05,6.0000000000060005e-05,0.0003052574591628776,0.00013216126146553542,-0.00036718833326387923
150000000000.0,-1,0.0106892485,-0.028056825649999995,-0.032911117399999995,-0.008401,-0.004668,0.006814,0.0644296905,-9.7398667135,1.1410037274999998,3.0852,1.454,-0.030851,-9.999999999998899e-05,0.00010000000000021103,-0.0009000000000000119,-0.011914001450293421,0.008979081338168715,-0.000189226286454236
150000000000.0,-1,0.0057859235,-0.0176127434,-0.030841914249999994,-0.003055,-0.003646,0.005754,0.06394916465,-9.73996478,1.139924996,3.0856,1.4541,-0.031263,0.000140000000000029,-0.00010000000000021103,0.0008299999999999974,0.012235513725901148,-0.008970551659962522,0.0002208211868359733
150000000000.0,-1,-0.0081787461,0.0047464186,-0.0216530832,0.00015,-0.003671,0.004693,0.0633901856,-9.740062846499999,1.1394346635,3.086,1.4542,-0.03177,-7.00000000000145e-05,5.000000000032756e-05,-2.0000000000020002e-05,-0.00012262613040059378,0.00010017582351484755,6.2326903580434134e-06
150000000000.0,-1,-0.01987807955,0.01989769285,-0.012121019399999999,0.00016,-0.003668,0.002559,0.06283120655,-9.740062846499999,1.1392385305,3.0865,1.4542,-0.032277,-7.00000000000145e-05,4.999999999988347e-05,-0.0008099999999999774,-0.011965108597037366,0.008817448921027982,-0.0001661700538004851
150000000000.0,-1,-0.036010018799999995,0.02711538725,-0.01124822755,-0.000867,0.000604,0.001484,0.06204667455,-9.740062846499999,1.1389443309999998,3.0872,1.4542,-0.032932,0.00012000000000000899,2.0000000000131024e-05,-0.00019999999999997797,-0.0001994958851747608,0.0005791532647720921,-0.0002123578932931025
150000000000.0,-1,-0.028772711099999997,0.010973641349999999,-0.008600432049999999,0.001274,0.001652,0.001487,0.061389628999999994,-9.740062846499999,1.1388462645,3.0877,1.4542,-0.033489,-2.0000000000020002e-05,1.9999999999686935e-05,0.0010499999999999954,0.01195260374043805,-0.009280943077988546,0.0005469283501158273
150000000000.0,-1,-0.00844352565,-0.00279489525,-0.0095124505,0.003402,0.001634,0.002558,0.06096794305,-9.740062846499999,1.1388462645,3.0881,1.4542,-0.03384,2.0000000000020002e-05,2.0000000000131024e-05,-2.0000000000020002e-05,0.000457053750377856,0.0001016022435433861,-0.00022624705404483691
150000000000.0,-1,0.0028243152,-0.019887886199999996,-0.0044522191,0.004438,-0.001573,0.003633,0.060614903649999996,-9.740062846499999,1.139140464,3.0884,1.4542,-0.034167,-2.999999999997449e-05,1.9999999999686935e-05,4.999999999999449e-05,-0.003143438553930178,0.002054921404735177,-0.0038595233062497236
150000000000.0,-1,0.010728475099999999,-0.04666984735,-0.0090613446,0.002288,-0.001558,0.006831,0.06020302435,-9.740062846499999,1.139140464,3.0888,1.4542,-0.034553,-0.000140000000000029,2.0000000000131024e-05,-0.0008900000000000574,-0.009622608006771838,0.007012482234576067,0.0038358311611994544
150000000000.0,-1,0.0040991797,-0.05663340374999999,-0.019181807399999997,-0.000953,-0.005795,0.007901,0.059653851949999996,-9.740160912999999,1.1386501315,3.0893,1.4543,-0.035068,0.00014999999999998348,2.4999999999941735e-05,0.0008799999999999919,0.012912989901761929,-0.008942284967234704,-4.498933362429014e-05
150000000000.0,-1,-0.0019221033999999998,-0.04925880294999999,-0.0028243152,-0.003077,-0.005775,0.005762,0.05908506625,-9.740160912999999,1.1382578655,3.0897,1.4543,-0.03559,-5.999999999994898e-05,2.4999999999941735e-05,9.00000000000345e-05,6.028678474057081e-05,6.494611702412278e-05,0.00010962624598587212
150000000000.0,-1,0.0028341218499999994,-0.042806027249999996,0.00285373515,-0.000938,-0.005792,0.004698,0.0586633803,-9.740160912999999,1.1381597989999999,3.0901,1.4543,-0.036001,-4.999999999999449e-05,2.5000000000385825e-05,6.0000000000060005e-05,0.00013652867611191333,-0.0001250519825879426,-1.96427144985023e-05
150000000000.0,-1,0.009934136449999999,-0.0384224547,-0.00040207264999999996,-0.00308,-0.00684,0.004696,0.058447634,-9.740258979499998,1.1377675329999999,3.0903,1.4544,-0.036245,-7.00000000000145e-05,2.4999999999941735e-05,6.999999999990347e-05,-3.9865642977421345e-05,-1.6058056910850382e-05,3.391883726377998e-05
150000000000.0,-1,0.0257718762,-0.00871811185,-0.020123245799999998,-0.00412,-0.004698,0.002555,0.05877125345,-9.740357046,1.137179134,3.09,1.4544,-0.035991,-2.0000000000020002e-05,2.4999999999941735e-05,2.0000000000020002e-05,-2.066070864903402e-05,4.178561200185449e-05,7.515486753328915e-05
150000000000.0,-1,0.0403445581,0.00389324005,-0.01974078645,0.00013,-0.006864,0.002564,0.05932042584999999,-9.740357046,1.136786868,3.0895,1.4545,-0.035567,-4.999999999999449e-05,2.5000000000385825e-05,6.0000000000060005e-05,-0.00010077071006997507,1.6444298335027696e-05,3.1897827605931184e-06
150000000000.0,-1,0.0289100042,0.00050013915,-0.025683616349999997,0.000135,-0.004735,0.004694,0.0595263655,-9.7404551125,1.1362965354999999,3.0893,1.4545,-0.035411,2.0000000000020002e-05,2.4999999999941735e-05,-3.0000000000085514e-05,-4.639927418614853e-05,9.61003869179855e-05,0.000137063540069704
150000000000.0,-1,0.005982056499999999,-0.00079433865,-0.0161221326,-0.001991,-0.003652,0.004688,0.059261585949999994,-9.7404551125,1.1359042695,3.0895,1.4546,-0.035662,-1.4999999999987246e-05,2.4999999999941735e-05,-0.0011199999999998989,-0.012471489457440699,0.00963495738695297,-0.0005520305523347702
150000000000.0,-1,-0.007060788,-0.0022555294999999998,-0.010502922149999998,0.000173,-0.000472,0.003619,0.0586829936,-9.7404551125,1.13561007,3.09,1.4546,-0.036172,-1.4999999999987246e-05,2.4999999999941735e-05,0.0011099999999999444,0.012429301853502217,-0.009615141417958384,0.0006794242213299384
150000000000.0,-1,-0.0141804159,-0.0047856452,-0.011611073599999999,0.001231,-0.001546,0.003623,0.05802594805,-9.740553178999999,1.1355120035,3.0905,1.4546,-0.036753,2.0000000000020002e-05,2.4999999999941735e-05,-9.99999999995449e-06,4.813365793499003e-06,0.00012618191084623476,-5.777635419423888e-06
150000000000.0,-1,-0.016994924449999997,-0.01062060195,-0.011179581,0.002331,0.002707,0.003619,0.05739832244999999,-9.740553178999999,1.1355120035,3.0911,1.4546,-0.03729,-4.0000000000040004e-05,2.4999999999941735e-05,3.999999999992898e-05,-3.2863577279718115e-05,-3.6001194918977575e-05,0.00016116076831762527
150000000000.0,-1,-0.016082905999999998,-0.0206528049,-0.010787315,0.0034,0.001635,0.001488,0.0569374099,-9.740553178999999,1.13561007,3.0915,1.4546,-0.037673,-4.999999999999449e-05,2.4999999999941735e-05,4.999999999999449e-05,-0.00015119769758764612,-8.176630241663041e-05,4.8140800805285267e-05
150000000000.0,-1,-0.007119627899999999,-0.027703786249999997,-0.016180972499999998,0.005543,0.00162,-0.000642,0.0568001168,-9.7404551125,1.135806203,3.0916,1.4546,-0.037784,4.0000000000040004e-05,2.4999999999941735e-05,-4.999999999999449e-05,-9.251909498431132e-05,2.058031581664288e-05,0.00026293587918857497
150000000000.0,-1,0.005060231399999999,-0.01473939495,-0.0072569209999999995,0.006604,0.00161,0.000427,0.056888376649999996,-9.7404551125,1.1362965354999999,3.0916,1.4545,-0.03772,-5.0000000000105516e-05,2.4999999999941735e-05,6.0000000000060005e-05,0.0002006599615858029,-6.375093801258558e-05,9.326627972150447e-07
150000000000.0,-1,0.0171616375,-0.0139450563,0.00361865385,0.007684,0.00054,-0.00384,0.0575061956,-9.740357046,1.1370810674999998,3.0911,1.4544,-0.037203,-2.999999999997449e-05,2.5000000000385825e-05,2.999999999997449e-05,-8.447961680735361e-05,-5.9286658584456475e-05,0.00016420299695285578
150000000000.0,-1,0.022310128749999998,-0.01642613875,0.01093441475,0.004496,0.002696,-0.002783,0.058192661099999994,-9.740258979499998,1.1378655994999998,3.0905,1.4544,-0.036606,9.00000000000345e-05,2.4999999999941735e-05,-0.0001100000000000545,0.00010569610701671728,0.00017566286579562274,5.142094727439428e-05
150000000000.0,-1,0.0162201991,-0.024820631149999998,-0.0012944778,0.001279,0.00272,0.000413,0.058447634,-9.740258979499998,1.1379636659999999,3.0903,1.4543,-0.036354,-2.999999999997449e-05,3.333333333310762e-05,4.0000000000040004e-05,-0.0005697172875760437,7.955831517558742e-05,0.00020959556765465237
150000000000.0,-1,0.0084533323,-0.03676513085,-0.01721067075,0.001256,0.000588,0.001484,0.05843782734999999,-9.740258979499998,1.1376694665,3.0903,1.4544,-0.036347,-3.0000000000085514e-05,3.333333333355171e-05,4.999999999999449e-05,-6.9762977388254654e-06,4.16978155066694e-05,0.00022001709328911545
150000000000.0,-1,0.007649186999999999,-0.0389912404,-0.004354152599999999,0.0002,0.002726,0.002545,0.05833976085,-9.740258979499998,1.1375714,3.0903,1.4544,-0.036404,4.0000000000040004e-05,3.333333333310762e-05,-7.00000000000145e-05,0.0003717974433210536,-2.545380243756945e-05,-0.00013400669635244
150000000000.0,-1,0.00865927195,-0.030145642099999998,-0.0013925443,0.000169,-0.000471,0.003618,0.05823188769999999,-9.740258979499998,1.1374733334999998,3.0904,1.4544,-0.036493,6.0000000000060005e-05,5.000000000032756e-05,-7.00000000000145e-05,-0.00015946953227508054,0.00021782718125407108,-7.972336730821539e-05
150000000000.0,-1,0.01264077185,-0.022947561,-0.0069234948999999995,-0.000905,-0.002591,0.001484,0.058290727599999995,-9.740258979499998,1.1372772005,3.0904,1.4544,-0.036471,-6.0000000000060005e-05,4.999999999988347e-05,6.0000000000060005e-05,-7.190229629627787e-05,-5.417620974235149e-05,0.00015759312978769202
150000000000.0,-1,0.02784107935,-0.0034617474499999998,-0.014121576,-0.000897,-0.001526,0.001481,0.05865357365,-9.740357046,1.136983001,3.0901,1.4544,-0.036162,2.0000000000020002e-05,3.333333333310762e-05,-2.999999999997449e-05,0.0002955765190166826,0.00016834956207611995,4.4419190031064204e-05
150000000000.0,-1,0.04553227595,-0.00446202575,-0.0244185585,-0.001982,-0.003648,0.001481,0.05935965245,-9.740357046,1.1364926685,3.0894,1.4545,-0.035574,-4.0000000000040004e-05,3.333333333355171e-05,3.999999999992898e-05,-0.0001688073367425158,-4.1250823194394215e-05,7.165969618139201e-05
150000000000.0,-1,0.031165533699999998,-0.0131997509,-0.032165811999999995,-0.001986,-0.004713,0.000414,0.059967664749999997,-9.7404551125,1.1357081365,3.0888,1.4546,-0.035052,-9.99999999995449e-06,3.333333333310762e-05,-2.0000000000020002e-05,0.00015122544242074376,8.16874238176446e-05,-4.811949054595033e-05
150000000000.0,-1,0.00152003075,-0.0222414822,-0.02427145875,-0.003051,-0.00364,0.001478,0.05983037164999999,-9.740553178999999,1.1350216709999998,3.0889,1.4546,-0.035174,-2.999999999997449e-05,3.333333333355171e-05,1.0000000000065512e-05,6.063421129010038e-05,7.317213229662833e-05,-1.8469922948405326e-05
150000000000.0,-1,-0.0260268491,-0.0154160538,-0.030400614999999995,-0.000921,-0.002593,0.003616,0.0590948729,-9.740651245499999,1.134237139,3.0895,1.4547,-0.035808,7.00000000000145e-05,3.333333333310762e-05,-9.999999999998899e-05,1.4676903734578417e-05,8.390193294327553e-05,-2.3178716812566336e-07
150000000000.0,-1,-0.032577691299999996,-0.01624961905,-0.027321326899999998,0.00017,0.000595,0.003614,0.058173047799999995,-9.740749312,1.1337468065,3.0903,1.4548,-0.036599,-1.0000000000065512e-05,3.333333333355171e-05,2.999999999997449e-05,6.251510834309748e-05,8.972945840124424e-05,-2.3325223538428475e-05
150000000000.0,-1,-0.048562530799999996,-0.0317539327,-0.028037212349999997,0.001216,-0.002609,0.002556,0.057094316299999996,-9.740749312,1.133256474,3.0913,1.4548,-0.037545,-5.999999999994898e-05,2.4999999999941735e-05,2.999999999997449e-05,-5.366871587231259e-05,0.00011083198954398021,-7.709442247438858e-05
150000000000.0,-1,-0.0391089202,-0.03064578125,-0.028154892149999996,0.00125,0.00059,0.000417,0.05631959095,-9.7408473785,1.1327661414999999,3.0919,1.4549,-0.038206,1.999999999990898e-05,2.4999999999941735e-05,-5.999999999994898e-05,2.3810781523359026e-05,6.479673105075356e-05,0.00012591766635150492
150000000000.0,-1,-0.0323423317,-0.02593858925,-0.026713314599999996,0.000172,0.000597,0.002552,0.055535058949999994,-9.740945445,1.1322758089999998,3.0926,1.4549,-0.038855,2.0000000000020002e-05,2.4999999999941735e-05,-2.999999999997449e-05,-6.580377600928777e-05,0.00021296681076621304,-0.00010805453360340778
150000000000.0,-1,-0.012817291549999998,-0.025242317099999998,-0.03696126385,-0.001992,-0.001519,0.004687,0.0550153065,-9.7410435115,1.1313932105,3.093,1.455,-0.039288,2.0000000000020002e-05,2.4999999999941735e-05,-7.00000000000145e-05,4.1243074651253764e-05,0.00015034193611551672,-0.0001278772675696871
150000000000.0,-1,0.005972249849999999,-0.0203586054,-0.03350932305,-0.000935,-0.002593,0.004691,0.054779946899999994,-9.741141577999999,1.1306086785,3.0932,1.4551,-0.039485,-9.00000000000345e-05,2.0000000000131024e-05,9.999999999998899e-05,8.428605432309055e-05,5.13466738933932e-05,8.3038426120563e-05
150000000000.0,-1,0.01546508705,-0.01583773975,-0.018259982299999998,0.001193,-0.002611,0.005761,0.0545642006,-9.741141577999999,1.1304125454999998,3.0934,1.4551,-0.039699,3.0000000000085514e-05,2.0000000000131024e-05,-6.0000000000060005e-05,-1.2310037388996165e-05,-8.451423354483012e-06,7.648719618957855e-05
150000000000.0,-1,0.006207609449999999,-0.0244773984,-0.0172400907,0.000159,0.00166,0.005752,0.0540934814,-9.741141577999999,1.130118346,3.0938,1.4552,-0.040102,-2.0000000000020002e-05,1.9999999999686935e-05,5.000000000032756e-06,0.00013024203026734682,0.0001516181574738873,0.00011550847242780549
150000000000.0,-1,-0.008629852,-0.043874952099999996,-0.00612915625,-0.005117,0.007034,0.002531,0.0535246957,-9.7412396445,1.1296280134999999,3.0942,1.4552,-0.040535,-1.0000000000065512e-05,2.0000000000131024e-05,5.000000000032756e-06,0.00016977698854625523,7.235987166787083e-05,4.0214202688737544e-05
150000000000.0,-1,-0.009718390149999999,-0.059889211549999995,-0.027674366299999996,-0.007258,0.007051,0.003596,0.05296571665,-9.741337711,1.1284512155,3.0947,1.4553,-0.040909,-9.99999999995449e-06,2.0000000000131024e-05,9.99999999995449e-06,0.0005349709764306265,0.00011805574928458462,0.0002266157889589948
150000000000.0,-1,-0.01081673495,-0.0542307745,-0.0793554118,-0.008333,0.007059,0.004662,0.05226944449999999,-9.741631910499999,1.1260976194999999,3.0952,1.4556,-0.041347,4.0000000000040004e-05,1.2499999999970868e-05,-3.999999999992898e-05,0.00013123721517938058,0.00014962280397723404,0.0001971627757377803
150000000000.0,-1,-0.018818961349999996,-0.03892259385,-0.08417047695,-0.015727,0.015648,0.0025,0.05143587925,-9.7420241765,1.1231556245,3.0958,1.4559,-0.041834,-3.0000000000085514e-05,1.2499999999970868e-05,6.999999999990347e-05,0.0003755743933926414,-1.5849145248436614e-05,0.0002525995559432559
150000000000.0,-1,-0.0526420972,-0.02917478375,-0.04315906665,-0.021026,0.021019,0.003551,0.04994526845,-9.742318376,1.1204097625,3.097,1.4562,-0.042852,4.999999999999449e-05,1.2499999999970868e-05,-4.999999999999449e-05,0.0006596446366449182,-5.1277614349753975e-05,9.684826607614383e-05
150000000000.0,-1,-0.07931618519999999,-0.05104361325,-0.042953127,-0.031657,0.02537,0.002462,0.048042778349999996,-9.742710642,1.116781302,3.0986,1.4566,-0.044151,-3.999999999992898e-05,1.2499999999970868e-05,9.999999999998899e-05,0.0006205551274021115,-0.0004293963936585765,0.000564734211789375
150000000000.0,-1,-0.0716669982,-0.06815621749999999,-0.08299367895,-0.050838,0.025534,-0.002905,0.046679654,-9.7433971075,1.1107011789999999,3.0996,1.4572,-0.044865,7.999999999996898e-05,1.2499999999970868e-05,-1.999999999990898e-05,0.0008470745431570226,-0.0001339459026730161,0.00040955594897651437
150000000000.0,-1,-0.0430708068,-0.06713632589999999,-0.13079129104999998,-0.071069,0.026775,-0.010412,0.04651294095,-9.744475839,1.1017771275,3.0994,1.4581,-0.044407,2.0000000000020002e-05,1.2499999999970868e-05,8.999999999992347e-05,0.0014694406744895083,-0.0003716510726257116,0.00028772362332674106
150000000000.0,-1,-0.0060703163499999995,-0.0448163905,-0.14100001369999998,-0.089129,0.033325,-0.016859,0.04767012565,-9.745652637,1.090891746,3.0979,1.4592,-0.042599,9.999999999998899e-05,1.2499999999970868e-05,4.999999999999449e-05,0.0022703122010008236,-0.00039032929744253764,0.00038837049752515895
150000000000.0,-1,0.023124080699999997,-0.0289492308,-0.08530804835,-0.11789,0.038892,-0.019054,0.0496020357,-9.747025568,1.0786334335,3.0956,1.4605,-0.039934,7.00000000000145e-05,1.2499999999970868e-05,0.0001100000000000545,0.003261821629165107,-0.00012880686203997627,9.031448079799276e-05
150000000000.0,-1,-0.0043737659,-0.0981057266,-0.0531324297,-0.18393,0.053287,-0.017059,0.05076902705,-9.7488888315,1.06107953,3.0938,1.4623,-0.037565,7.00000000000145e-05,0.00010000000000021103,0.00010999999999994348,0.002462904426978385,-0.00025744203639654906,0.00012095427069080955
150000000000.0,-1,-0.0045698989,-0.26286725325,-0.1706945499,-0.24578,0.061253,-0.013977,0.051563365699999995,-9.75173276,1.0346996415,3.0918,1.465,-0.034957,4.999999999999449e-05,9.999999999976694e-05,0.0001100000000000545,0.0027536891376302997,-0.00010103123715055062,-5.691956418196753e-06
150000000000.0,-1,0.07724698205,-0.3394866097,-0.27715554229999995,-0.27044,0.048669,-0.012933,0.05353450235,-9.755067020999999,1.003024162,3.0883,1.4682,-0.03088,-4.0000000000040004e-05,0.00010000000000021103,0.00024000000000001798,0.003370539081962276,0.00015560112895296463,-0.0001466766508690931
150000000000.0,-1,0.12211240579999999,-0.27429200049999997,-0.23157423309999997,-0.26517,0.036912,-0.02038,0.057006056449999995,-9.758205148999998,0.9722803142499999,3.083,1.4713,-0.025239,7.00000000000145e-05,9.999999999976694e-05,5.999999999994898e-05,0.002821371833751085,6.785360180616706e-06,0.0002925614773228169
150000000000.0,-1,0.1531994863,-0.19546614779999996,-0.09474204565,-0.25555,0.038966,-0.022508,0.0615269221,-9.7608529445,0.94497860065,3.0766,1.4741,-0.018399,2.0000000000020002e-05,0.00010000000000021103,0.00014999999999998348,0.0034949982580618766,0.00012907405714446263,0.00036925435991896904
150000000000.0,-1,0.22205197594999998,-0.10498018824999998,0.0511514864,-0.26183,0.054998,-0.019355,0.0667440599,-9.763206540499999,0.9200010630999998,3.0692,1.4766,-0.010506,-1.0000000000065512e-05,9.999999999976694e-05,0.00017000000000000348,0.003713772199713361,4.7243864428336835e-05,0.000515991232342472
150000000000.0,-1,0.20434116605,-0.04700327345,0.075118939,-0.31206,0.047947,-0.014101,0.07158854499999999,-9.765756269499999,0.8915421648,3.0615,1.4795,-0.002286,7.00000000000145e-05,0.00010000000000021103,0.00012000000000000899,0.0037508002867505663,-3.510215215785095e-05,0.0004420044332427153
150000000000.0,-1,0.1476293091,-0.0036284604999999998,-0.09457533259999999,-0.36867,0.052657,0.003932,0.0735302617,-9.7690905305,0.8547280007,3.0558,1.4832,0.003949,-4.999999999999449e-05,9.999999999976694e-05,0.00019000000000002348,0.0022600756616075746,-0.00015713825050545083,0.0006878602334188244
150000000000.0,-1,0.03476457425,0.02266316815,-0.1528072203,-0.37278,0.064426,-0.008906,0.07403040085,-9.772424791499999,0.81496203495,3.051,1.4873,0.009338,-9.99999999995449e-06,0.00010000000000021103,0.0001100000000000545,0.0031276899587728835,3.2949232580126164e-06,0.00038260749551977113
150000000000.0,-1,0.02689964095,-0.0932808548,0.0401091985,-0.3321,0.067313,-0.033393,0.07665858304999999,-9.775170653499998,0.7814036786499999,3.0438,1.4906,0.017236,-0.00021000000000004349,0.00019999999999997797,0.00030999999999992145,0.0032080485264831538,5.44416244814272e-05,1.0368460274357005e-05
150000000000.0,-1,0.10162631395,-0.16407506114999998,0.1762647271,-0.28734,0.060549,-0.03224,0.08122848195,-9.77723005,0.7544844244,3.0343,1.4933,0.027352,-0.00013999999999991797,0.00019999999999997797,0.00017000000000000348,0.003691892329041213,3.220854446794874e-05,0.000227864547550638
150000000000.0,-1,0.13033037849999998,-0.194563936,0.0799830374,-0.2768,0.05618,-0.013007,0.08470003605,-9.779191379999999,0.7279084028999999,3.0257,1.496,0.036532,-8.000000000008001e-05,0.00010000000000021103,0.0001100000000000545,0.003103451659423939,0.0003201349175601109,0.0005166523874970963
150000000000.0,-1,0.14716839655,-0.09005446695,-0.08596509389999998,-0.29073,0.057345,0.000837,0.08701440545,-9.781348843,0.6979785071,3.0176,1.499,0.045288,-0.00012999999999996348,4.999999999988347e-05,0.00012999999999996348,0.0029113296765561625,0.00029664076279711793,0.0010326811601504282
150000000000.0,-1,0.11597344289999999,0.05935965245,-0.2121962927,-0.30248,0.05957,0.00401,0.08827946329999999,-9.783702438999999,0.66454763725,3.0095,1.5024,0.053921,-0.00014999999999998348,4.999999999988347e-05,0.00012000000000000899,0.0029628355283470853,0.00046647566033075627,0.0008762728806273046
150000000000.0,-1,-0.04894499014999999,0.09996899009999999,-0.2487750972,-0.30453,0.072373,0.005054,0.08650445965,-9.7859579685,0.6300576492,3.0052,1.5059,0.058983,-0.000300000000000078,-9.999999999976694e-05,0.00024000000000001798,0.0025333120332049486,0.000594658557774963,0.0013170961074728815
150000000000.0,-1,-0.24710796670000001,0.0284981249,-0.20758716719999998,-0.29588,0.091474,0.013574,0.08489616905,-9.787821231999999,0.6008338322,3.0012,1.5089,0.063795,-0.00023999999999990695,-9.999999999976694e-05,5.999999999994898e-05,0.003285199819226703,0.001055369372415349,0.0009087823093913983
150000000000.0,-1,-0.32586517285,-0.0043737659,-0.1613193925,-0.28206,0.10199,0.039197,0.08120886865,-9.789586429,0.57297313955,3.0008,1.5118,0.065212,-0.00038000000000004697,-0.00010000000000021103,4.999999999999449e-05,0.00112188350944753,0.0006013705579486217,0.0006642922735657919
150000000000.0,-1,-0.31134152419999994,0.06889171625,-0.22620999555,-0.27156,0.10293,0.075505,0.07416769395,-9.791155493,0.5461421451499999,3.0066,1.5146,0.060433,-0.0005899999999999794,-0.00020000000000042206,0.000180000000000069,0.0022144985609982015,0.0008495056846171689,0.0003732689880378004
150000000000.0,-1,-0.27418412735,0.17049841689999998,-0.3874215149,-0.23447,0.093002,0.10762,0.058702606899999996,-9.792920689999999,0.51491777155,3.0281,1.5179,0.03993,-0.00046000000000001595,-0.00039999999999995595,-0.000160000000000049,0.00018035873691601978,0.0018381922204939727,0.00017611268753903175
150000000000.0,-1,-0.24904968339999997,0.28779575755,-0.5173105941499999,-0.17479,0.091435,0.11734,0.0467384939,-9.793999421499999,0.49620668334999996,3.0477,1.52,0.021228,-0.0005199999999999649,-0.00039999999999995595,-0.00014999999999998348,0.000831670806196616,0.001075166659771698,0.00017733250740903372
150000000000.0,-1,-0.1736561582,0.3849894657,-0.5732477257499999,-0.11392,0.088818,0.1025,0.03584330575,-9.794685887,0.48361494474999994,3.0676,1.5213,0.002152,-0.0005700000000000705,-0.0004999999999997229,-0.00031000000000003247,0.0009113307186605635,0.00028370350902995334,0.000546727617332099
150000000000.0,-1,-0.0836114979,0.3900496970999999,-0.6367261712,-0.073344,0.081043,0.08444,0.026752541199999997,-9.795078153,0.47572059149999996,3.0854,1.5222,-0.014845,-0.0006199999999999539,-0.000500000000000167,-0.00015999999999993797,-0.0008522515767646066,0.00014151171068355062,0.0009850047490540526
150000000000.0,-1,-0.03490186735,0.3274832701,-0.6724517971499999,-0.046692,0.074444,0.071693,0.0182992089,-9.7959607515,0.45757828899999997,3.1016,1.5241,-0.03031,-0.0006500000000000394,-0.000500000000000167,-0.00026999999999999247,0.0008329043969534933,0.00017180026163887696,0.0017421097128198504
150000000000.0,-1,-0.0145334553,0.25057952079999996,-0.6622626877999999,-0.028584,0.064714,0.062135,0.011689526799999999,-9.796058818,0.45442054769999995,3.1159,1.5244,-0.043897,-0.0007800000000000029,-0.0006999999999997009,-0.00024000000000001798,-0.00044432466583188557,0.0010064353076486565,-0.00013728525511069734
150000000000.0,-1,0.038893173899999994,0.20829324599999996,-0.616642152,-0.009339,0.062437,0.050431,0.006148769549999999,-9.796156884499998,0.4530868433,3.128,1.5246,-0.055433,-0.0009500000000000064,-0.000700000000000145,-9.999999999998899e-05,-0.0006860154662875484,0.0010546486047602333,0.00021362814898351346
150000000000.0,-1,0.10690229164999998,0.2078225268,-0.5444259814,0.009941,0.066549,0.041917,0.0015886773,-9.796156884499998,0.4535967891,3.1381,1.5245,-0.064862,-0.0011799999999999589,-0.0005999999999999339,7.999999999996898e-05,-0.0004979892052481283,-0.0002267351784965843,0.0006586236602883488
150000000000.0,-1,0.18234485009999998,0.20800885315,-0.48002571084999995,0.030256,0.070647,0.039811,-0.0026281822,-9.796058818,0.45608767819999996,-3.1358,1.5243,-0.073444,-0.001100000000000101,-0.000500000000000167,-0.00012999999999996348,-0.0006860087764835043,0.0002196560482246035,0.002187179775638093
150000000000.0,-1,0.21314753775,0.1653205057,-0.43970076604999997,0.047295,0.067308,0.040913,-0.006952914849999999,-9.795862685,0.46019666455,-3.1265,1.5238,-0.082112,-0.0008999999999999009,-0.0007999999999999119,-0.0003300000000000525,-0.0017994748041370023,0.0010355422659651392,0.00029939246950849707
150000000000.0,-1,0.2290637307,0.10157728069999998,-0.40220013644999997,0.067536,0.066072,0.04522,-0.011640493549999999,-9.7955684855,0.46639446734999995,-3.1166,1.5232,-0.091305,-0.001100000000000101,-0.000700000000000145,-0.00026999999999999247,-0.00016003535799424817,0.0006832455308163343,-0.0007024162365936171
150000000000.0,-1,0.2714088454,0.0433061664,-0.3369368807,0.08673,0.070171,0.05057,-0.011179581,-9.795470418999999,0.4677183651,-3.1177,1.5231,-0.089592,-0.0012999999999998568,-0.0005999999999999339,-2.999999999997449e-05,-0.0012814600813364496,0.0006345652644594857,0.0015028438706568004
150000000000.0,-1,0.30213307985,-0.040658370900000004,-0.33116076385,0.099454,0.063667,0.05594,-0.016769371499999998,-9.794980086499999,0.47720139565,-3.1065,1.5221,-0.10016,-0.0009000000000001229,-0.0005999999999999339,-0.0005100000000000104,-7.479211286076648e-05,0.0006408396005779249,0.0002963087632883443
150000000000.0,-1,0.27490981945,-0.09125087825,-0.35366702559999996,0.087509,0.043509,0.065562,-0.023222147199999998,-9.7945878205,0.48624312695,-3.0939,1.5211,-0.11229,-0.0013999999999998458,-0.000700000000000145,-9.00000000000345e-05,-0.00034398386904377354,0.001311997149287647,-0.00019350927624195435
150000000000.0,-1,0.24678434724999998,-0.08054201644999999,-0.39900316855,0.063861,0.030901,0.080487,-0.030851720899999997,-9.7941955545,0.49312739525,-3.0791,1.5204,-0.12674,-0.0012000000000000899,-0.0006999999999997009,-0.00024000000000001798,-0.0014269581279180432,0.0012923122982790858,0.0007593958592595484
150000000000.0,-1,0.2203946521,-0.0654691954,-0.39502166864999994,0.060521,0.026649,0.097556,-0.0355981395,-9.794293621,0.4906463128,-3.0692,1.5206,-0.13642,-0.0016000000000000458,-0.0005999999999999339,-8.999999999992347e-05,-0.0016545765794475642,0.0010741003758365508,0.001464802959419309
150000000000.0,-1,0.1919945937,-0.039520799499999995,-0.3180884994,0.074391,0.033982,0.10931,-0.046248161399999994,-9.793901355,0.49750116115,-3.0489,1.5198,-0.15642,-0.0012999999999998568,-0.000800000000000356,-0.00043999999999999595,-0.00012190810744061586,0.0015904559609671853,-0.00035985712442077045
150000000000.0,-1,0.18972925754999997,-0.0107480884,-0.345782479,0.11193,0.061374,0.1136,-0.0576042621,-9.793312956,0.5072391646,-3.0285,1.5187,-0.17628,-0.0015000000000000568,-0.0006999999999997009,-0.00019000000000002348,-0.001331313923127686,0.0009664605620072209,0.00030178848621709164
150000000000.0,-1,0.21826660904999998,0.05447594075,-0.38468545954999994,0.13752,0.060096,0.11578,-0.06922514234999999,-9.792626490499998,0.5202623958,-3.0093,1.5173,-0.19487,-0.0013000000000000789,-0.000700000000000145,-0.00041999999999997595,-0.0011964072225099098,0.0010257053144668848,0.0007826203294238887
150000000000.0,-1,0.20658688890000002,0.18332551509999997,-0.3563540477,0.1148,0.027239,0.1254,-0.0814932615,-9.7918419585,0.5323245753,-2.9897,1.5159,-0.21417,-0.0016000000000000458,-0.0007999999999999119,-0.00034000000000000696,-0.0011460907219127403,0.0014603877238386076,0.0011140258360167188
150000000000.0,-1,0.07945347829999999,0.24504857019999998,-0.31622523589999996,0.085902,0.023206,0.13389,-0.0930651085,-9.7916458255,0.53455068485,-2.9692,1.5154,-0.23446,-0.0014999999999998348,-0.0009000000000001229,-0.00048000000000003595,-0.002887058768398232,0.0023744397929932326,2.498383168791918e-06
150000000000.0,-1,0.0020593965,0.12199472599999998,-0.3193633639,0.10429,0.05715,0.13814,-0.10680422514999999,-9.790959359999999,0.54382777575,-2.9477,1.5143,-0.25557,-0.0015000000000000568,-0.0007999999999999119,-0.00036000000000002697,6.236107668033952e-07,0.0013494304080625685,0.0031270653390862435
150000000000.0,-1,0.05292649005,-0.020888164499999997,-0.29460157265,0.15594,0.11214,0.13599,-0.11980784305,-9.790370960999999,0.5513788962499999,-2.9276,1.5132,-0.27468,-0.0019000000000000128,-0.0009000000000001229,-0.00017999999999995797,-0.0031477778870312445,0.000821536089955055,0.001288764958834232
150000000000.0,-1,0.1338999991,-0.049013636699999995,-0.33093521089999994,0.18392,0.14813,0.14131,-0.1315071765,-9.7896844955,0.56183278515,-2.9117,1.5119,-0.28927,-0.0019000000000000128,-0.0007999999999999119,-6.0000000000060005e-05,-0.0009143183693698376,0.003101330437527805,0.0013355224304989477
150000000000.0,-1,0.15107144325,0.0421293684,-0.34813607499999993,0.16885,0.14823,0.16476,-0.14478538059999999,-9.7888999635,0.5712373625,-2.8934,1.5107,-0.3061,-0.0015000000000000568,-0.0007999999999999119,-0.0007199999999999429,-0.0018492580140332393,0.00251174316699343,0.0019575769993593894
150000000000.0,-1,0.04382591885,0.09823321304999999,-0.3588645501,0.16214,0.13014,0.19467,-0.16338859564999997,-9.7881154315,0.5792788154999999,-2.8667,1.5094,-0.33146,-0.0020000000000000018,-0.0009999999999998899,-7.00000000000145e-05,-0.0037402684433018862,0.0018124107766304132,0.002850151906486964
150000000000.0,-1,-0.08698498549999999,0.12907512729999998,-0.24609788174999997,0.19093,0.13948,0.21072,-0.18684610245,-9.7869386335,0.5919097807,-2.8358,1.5075,-0.36103,-0.0019000000000000128,-0.001000000000000334,-0.0005300000000000304,-0.0012033345504893767,0.0018322170740807664,0.002141428842186155
150000000000.0,-1,-0.08953471449999999,0.1365870212,-0.09738003449999999,0.24247,0.18274,0.21394,-0.21124504765,-9.785271503,0.6125821989,-2.8095,1.5047,-0.38565,-0.0015999999999998238,-0.0008999999999996788,-0.00044999999999995044,-0.0036932364373269966,0.002934331055596928,0.004037912549867961
150000000000.0,-1,0.0169655045,0.04521846314999999,-0.13115413709999998,0.27922,0.2453,0.21816,-0.233790536,-9.7830159735,0.6387169211499999,-2.7907,1.5014,-0.40219,-0.0018000000000000238,-0.000800000000000356,-0.0005800000000000249,-0.0005040937003721879,0.0018254241925761416,0.0015880545990949457
150000000000.0,-1,0.0969485419,-0.0195544601,-0.1371950335,0.27512,0.2709,0.22558,-0.25735591594999996,-9.780662377499999,0.6654106224499999,-2.7725,1.498,-0.41772,-0.0019000000000000128,-0.0007999999999999119,-9.00000000000345e-05,-0.002512224727734491,0.002475945503378707,0.0030143607269259576
150000000000.0,-1,0.07732543524999999,0.0174362237,0.025507096649999998,0.22056,0.25643,0.23192,-0.2817254412,-9.778406848,0.68780901105,-2.7528,1.4949,-0.43485,-0.0017000000000000348,-0.0007999999999999119,-0.0006099999999999994,-0.0016736283733238544,0.0016274390480219836,0.0018526038928001753
150000000000.0,-1,0.06532209565,0.09493817865,0.1441185284,0.17781,0.23974,0.21906,-0.3053398544,-9.776445518,0.70522562145,-2.733,1.4924,-0.4523,-0.0020000000000000018,-0.0007999999999999119,-0.00017999999999995797,-0.003754901792675458,0.0024087808344916972,0.0016076522579986374
150000000000.0,-1,0.2154324872,0.06616546755,0.16619329754999998,0.19154,0.20769,0.19778,-0.32227593895,-9.7743861215,0.72699638445,-2.7243,1.4896,-0.45886,-0.0020000000000000018,-0.0007999999999999119,-0.00041999999999997595,-0.001665303778360494,0.0011274087148560596,0.00020151554303904362
150000000000.0,-1,0.42652062844999994,-0.00042168595,0.17711790565,0.23076,0.16582,0.18298,-0.34167349264999997,-9.772130592,0.74794338885,-2.7131,1.4868,-0.46838,-0.0018000000000000238,-0.000700000000000145,-0.0005899999999999794,-0.002252859394964446,0.0029105106029800876,0.0018790424138570572
150000000000.0,-1,0.5241164092499999,-0.03283266419999999,0.07822764704999999,0.27103,0.13352,0.18631,-0.36085530005,-9.7694827965,0.7729111197499999,-2.7048,1.4837,-0.47529,-0.0018000000000000238,-0.000700000000000145,-0.0005900000000000905,-0.003627439837520674,0.00159259173115478,0.0007476202966145706
150000000000.0,-1,0.54010124875,0.015935806249999997,0.0161613592,0.2953,0.1056,0.19494,-0.38058627985,-9.766442735,0.8010071719999999,-2.698,1.4802,-0.48094,-0.0020000000000000018,-0.0005999999999999339,-0.00040999999999991044,-0.0028063357655265797,0.001226663487288171,0.0016263467388677455
150000000000.0,-1,0.5503099713999999,0.15080666369999998,0.1027148521,0.28456,0.089717,0.18428,-0.39976808725,-9.7634026735,0.82892670455,-2.6922,1.4768,-0.48584,-0.0018000000000000238,-0.0005999999999999339,-0.00029000000000001247,-0.0011694666204402626,0.0016871514204408466,0.0011319128308930893
150000000000.0,-1,0.4719940645,0.23517327365,0.23231953849999998,0.24949,0.098546,0.17243,-0.4067602287,-9.760362612,0.86048450425,-2.7,1.4736,-0.47719,-0.0017000000000000348,-0.000700000000000145,-0.000500000000000056,-0.0030091742335145444,0.001350743841430857,0.0010097919439586711
150000000000.0,-1,0.2094112041,0.19076876245,0.35577545535,0.22396,0.094515,0.15211,-0.4230981076,-9.757714816499998,0.8824710135499999,-2.6945,1.4708,-0.48172,-0.0016999999999998128,-0.0006999999999997009,-0.0005899999999999794,-0.0023287499762405517,0.000966605428761147,-2.3856846649294994e-06
150000000000.0,-1,-0.2018796969,0.1552981094,0.49514756514999997,0.2464,0.085827,0.13082,-0.43707258385,-9.754968954499999,0.9051636016499999,-2.6917,1.4681,-0.48363,-0.0016000000000000458,-0.000800000000000356,-0.0006000000000000449,-0.004493127139143294,0.001312977255591763,-0.0006469536167790224
150000000000.0,-1,-0.27247777025,0.0368141641,0.4704642271,0.29212,0.057758,0.11814,-0.44937012295,-9.751928892999999,0.9322397622999998,-2.6924,1.4651,-0.48227,-0.0018000000000000238,-0.0005999999999999339,-0.00032999999999994145,-0.0009511491673173111,0.0010579912737498365,-0.0013274670189797888
150000000000.0,-1,-0.26840801049999996,-0.1628688432,0.33604447554999994,0.31821,-0.013854,0.12045,-0.46107926305,-9.748398499,0.96280709035,-2.695,1.4617,-0.47963,-0.0017000000000000348,-0.0006999999999997009,-0.00026999999999999247,-0.003331935006459563,0.0017339905058491034,-0.001408976856553501
150000000000.0,-1,-0.2123335858,-0.23293735745,0.12301461759999999,0.30154,-0.087259,0.13549,-0.47329834895,-9.744770038499999,0.9931194455,-2.6969,1.4584,-0.47844,-0.0017000000000000348,-0.000800000000000356,-0.0005100000000000104,-0.0032350389607604946,0.0004866211204450632,-0.0025318313311339935
150000000000.0,-1,-0.21007805629999998,-0.12286751785,-0.0613504024,0.27319,-0.15737,0.14517,-0.48589008754999996,-9.7412396445,1.0209703314999998,-2.6974,1.4552,-0.4793,-0.0015000000000000568,-0.0008999999999996788,-0.00044999999999995044,-0.002709641363677129,0.0019186133193049848,-0.0034877736881027133
150000000000.0,-1,-0.3187945782,-0.0042168595,-0.23477120099999998,0.2663,-0.22124,0.141,-0.49777574734999996,-9.737807317,1.047938619,-2.6981,1.4522,-0.48063,-0.0018999999999997907,-0.0009000000000001229,-0.000320000000000098,-0.0033346427184390848,0.0006593318092622535,-0.0034454670911578944
150000000000.0,-1,-0.45792152175,0.0068450417,-0.3174412605,0.27536,-0.28951,0.14114,-0.5085924823,-9.7341788565,1.075789505,-2.7,1.4492,-0.4815,-0.0018000000000000238,-0.001100000000000101,-0.00034000000000000696,-0.003724323864692014,0.0015583067151656582,-0.0058284792825453735
150000000000.0,-1,-0.5795141750999999,-0.03974635245,-0.3933055049,0.29396,-0.35468,0.15623,-0.51972303005,-9.7302561965,1.1056997874999999,-2.7022,1.4459,-0.48268,-0.0018000000000000238,-0.0013000000000000789,-0.00030999999999992145,-0.004901373303558554,-5.748356917645303e-05,-0.0027974261598222583
150000000000.0,-1,-0.6601640647,-0.0486017574,-0.47899601259999997,0.31586,-0.40816,0.17344,-0.5316969497,-9.725843203999998,1.1379636659999999,-2.7045,1.4424,-0.48435,-0.0016000000000000458,-0.0010999999999996568,-0.00036999999999998145,-0.0017777023996292662,0.002376100111950441,-0.005009286977822214
150000000000.0,-1,-0.6550646066999999,-0.0460716417,-0.6068158887,0.33249,-0.45413,0.18743,-0.5444357880499999,-9.721037945499999,1.1724830739999998,-2.7069,1.4386,-0.48646,-0.0013000000000000789,-0.0017000000000000348,-0.0007400000000000739,-0.0048683614369853245,0.0006624026985233566,-0.004582254330631308
150000000000.0,-1,-0.7520131486,0.0038442067999999996,-0.72123007425,0.33022,-0.46904,0.19065,-0.5574688259,-9.716036553999999,1.2072966815,-2.709,1.4348,-0.48902,-0.0018000000000000238,-0.0015000000000000568,-2.0000000000020002e-05,-0.0024281646201191887,0.0012799814848554192,-0.004508960452444644
150000000000.0,-1,-1.08069283,0.030714427799999996,-0.76230032445,0.32618,-0.45194,0.17353,-0.5691779659999999,-9.711035162499998,1.2416199565,-2.7118,1.4311,-0.49088,-0.0010999999999998789,-0.0017000000000000348,-0.0010299999999999754,-0.004864812940868157,0.0009938222535104124,-0.002941203147939664
150000000000.0,-1,-1.4413814169999999,0.0789631458,-0.5812597587999999,0.33205,-0.40293,0.14357,-0.5786021566499999,-9.706033771,1.276041298,-2.7159,1.4274,-0.49093,-0.001100000000000101,-0.0019000000000000128,-0.0007599999999999829,-0.002845014648545474,0.0016652199780538002,-0.003473135259473459
150000000000.0,-1,-1.58083198,0.14067639425,-0.3124006424,0.34872,-0.3391,0.1136,-0.5859277241999999,-9.7008362465,1.311541371,-2.7214,1.4238,-0.48889,-0.0014999999999998348,-0.002200000000000202,-0.00014999999999998348,-0.004344977541078432,-0.002957444648205909,-0.0012687411209344468
150000000000.0,-1,-1.4981619204999999,0.25706171645,-0.15830875095,0.35885,-0.29333,0.079381,-0.5904682031499999,-9.695638722,1.3479240424999999,-2.7287,1.4202,-0.48462,-0.0012000000000000899,-0.0019999999999997797,-0.0006099999999999994,-0.002448335481568087,0.0027793007442273865,-0.0043386355008436794
150000000000.0,-1,-1.308403243,0.30077976214999996,-0.2162758591,0.36658,-0.27632,0.055881,-0.5925766329,-9.6902450645,1.385091246,-2.7373,1.4166,-0.47874,-0.0013000000000000789,-0.0024999999999999467,-0.00036000000000002697,-0.006393732020738341,-0.003567800507118024,0.00020348565015737563
150000000000.0,-1,-1.175228936,0.22397407935,-0.33571104944999997,0.36989,-0.27526,0.035605,-0.5926256661499999,-9.684851407,1.4225526489999998,-2.7469,1.413,-0.47188,-0.0012999999999998568,-0.0022999999999999687,-0.0005699999999999594,-0.002855517091381765,0.0009309657706608743,-0.0031475656210333547
150000000000.0,-1,-1.1192329644999999,0.25033435454999997,-0.42901151755,0.3626,-0.26559,0.014227,-0.5906447228499999,-9.6794577495,1.459425653,-2.757,1.4096,-0.46431,-0.000600000000000156,-0.0026000000000001577,-0.0013900000000000023,-0.005577403118204316,-0.000953707231720724,-0.001692392634666362
150000000000.0,-1,-1.0341112424999999,0.40641699594999997,-0.46043202414999995,0.34482,-0.24409,-0.022134,-0.5857413978499999,-9.674358291499999,1.49453346,-2.7681,1.4064,-0.45564,-0.0011999999999998678,-0.0026999999999999247,-0.00039000000000000146,-0.00196810205468978,-0.003660026406861583,-0.002212400427099581
150000000000.0,-1,-0.89657297625,0.54298440385,-0.51162273715,0.34194,-0.22805,-0.061661,-0.57720961235,-9.669553033,1.528856735,-2.7806,1.4034,-0.4453,-0.001000000000000112,-0.0028000000000001357,-0.0012999999999999678,-0.005746141723626641,0.0014648523197342556,-0.0031980789284777877
150000000000.0,-1,-0.83912562055,0.5276369966,-0.5927335393,0.3635,-0.22073,-0.094726,-0.5653729858,-9.664453575,1.5646510075,-2.7948,1.4003,-0.4331,-0.0015999999999998238,-0.0025999999999997137,0.00022999999999995246,-0.0027153109653599294,-0.0017286597866255082,-0.0014189358440899191
150000000000.0,-1,-0.8890120491,0.48337958515,-0.6163675658,0.39364,-0.20497,-0.12139,-0.55094740365,-9.658961850999999,1.6031911419999998,-2.8106,1.3971,-0.41924,-0.0013000000000000789,-0.0032000000000000917,-0.0008599999999999719,-0.005123304425886932,-0.0034098665258011085,-0.001720067570500028
150000000000.0,-1,-0.8821768140499999,0.42583416295,-0.69310460205,0.40973,-0.20082,-0.13311,-0.53504101735,-9.653077861,1.6437906729999998,-2.8269,1.3936,-0.4047,-0.0008000000000001339,-0.0033000000000003027,-0.0010999999999999899,-0.005665218694811847,-0.0017524977660325902,-0.0006529959708441169
150000000000.0,-1,-0.8804704569499999,0.38656833635,-0.7017148407499999,0.40438,-0.20504,-0.13738,-0.51848739215,-9.646997738,1.6840960044999997,-2.8429,1.3901,-0.39049,-0.0010999999999998789,-0.0030999999999998806,-0.0009000000000000119,-0.0015084927234956247,-0.0015381307983062253,-0.003581361638345548
150000000000.0,-1,-0.91532329105,0.3645524071,-0.6825918732499999,0.40659,-0.2061,-0.15338,-0.50069812905,-9.640917615,1.724205203,-2.859,1.3867,-0.37626,-0.0007999999999999119,-0.0034000000000000696,-0.0010299999999999754,-0.004059725825354965,-0.0025664956406581396,0.0020281031171451858
150000000000.0,-1,-0.8762634041,0.28679547925,-0.71907261125,0.41513,-0.2168,-0.17998,-0.5033949578,-9.6363084895,1.7489179609999999,-2.8613,1.3841,-0.37552,-0.0013000000000000789,-0.0035999999999998256,-0.0007700000000000484,-0.005841205032001806,-0.003975474263832934,-0.005177627323819323
150000000000.0,-1,-0.8443623716499999,0.2150206079,-0.8229936813,0.4161,-0.24236,-0.20128,-0.4802316505,-9.629934166999998,1.790105891,-2.8795,1.3807,-0.35942,-0.0008000000000001339,-0.0039000000000000146,-0.0019599999999999618,-0.00475300611290419,-0.0014003822563160018,-0.004279090798560148
150000000000.0,-1,-0.8609552234499999,0.1917200075,-0.9693677392,0.40632,-0.27104,-0.21192,-0.45525411294999996,-9.623559844499999,1.8305092889999999,-2.8978,1.3772,-0.34342,-0.0014999999999998348,-0.0038000000000000256,-0.00017000000000000348,-0.005337742216957153,-0.006536808953420348,-0.002993313191898217
150000000000.0,-1,-0.8620731815499999,0.21751149699999997,-1.11207411,0.40504,-0.30193,-0.21721,-0.42899190424999994,-9.616989388999999,1.870716554,-2.9162,1.3738,-0.32773,-0.0012000000000000899,-0.0038000000000000256,-0.0011400000000000299,-0.0009555920087609415,0.0006242956736366434,0.002069114177426279
150000000000.0,-1,-0.8324178719499999,0.2063711426,-1.200530093,0.41216,-0.34247,-0.22455,-0.41885182814999994,-9.6139493275,1.8886627235,-2.9234,1.3722,-0.32334,-0.0010999999999998789,-0.0041999999999999815,-0.0013100000000000334,-0.006269749962559912,-0.0026497113650796322,-0.006253604950547498
150000000000.0,-1,-0.8806763965999999,0.19063146935,-1.2728051034999999,0.41721,-0.37981,-0.22661,-0.3898927907,-9.6068885395,1.9303409859999998,-2.9423,1.3686,-0.30782,-0.0012000000000000899,-0.0043999999999999595,-0.0014899999999999913,-0.0012624502596023657,-0.003942119846259251,-0.006357559218121089
150000000000.0,-1,-0.9937078444999999,0.12722167045,-1.2859460145,0.41699,-0.40325,-0.22123,-0.36077684685,-9.5996316185,1.9718231155,-2.9606,1.3649,-0.29314,-0.0013000000000000789,-0.0044999999999999485,-0.0007399999999999629,-0.004506054244710844,-0.0028885255061597004,7.628039170182177e-05
150000000000.0,-1,-1.1413959934999998,-0.07532487865,-1.3402748555000001,0.42005,-0.42352,-0.22546,-0.3308959843,-9.5919824315,2.013501378,-2.9787,1.3612,-0.27894,-0.0012999999999998568,-0.0050000000000001155,-0.0012400000000000189,-0.006549681931788953,-0.0040170044931999715,-0.005556806985528517
150000000000.0,-1,-1.2583893279999998,-0.042364728,-1.2873189454999998,0.42191,-0.44378,-0.22106,-0.33855497794999995,-9.590707566999999,2.0185027695,-2.9754,1.3605,-0.28586,-0.001000000000000112,-0.005099999999999882,-0.0016699999999999493,-0.007021412043200614,-0.0020778791368689653,-0.0020325786612129804
150000000000.0,-1,-1.488453337,-0.0532501095,-1.3028134525,0.43148,-0.446,-0.21784,-0.30858585555,-9.582666114,2.060965564,-2.993,1.3567,-0.27247,-0.0010999999999998789,-0.0052000000000000934,-0.0010900000000000354,-0.0023917153977057737,-0.00410061547624796,-0.002000240443932988
150000000000.0,-1,-1.673210623,-0.11614015594999999,-1.227008048,0.45608,-0.43874,-0.21888,-0.2783911802,-9.573938195499998,2.1053896885,-3.0101,1.3525,-0.25943,-0.0014000000000000679,-0.005600000000000049,-0.0010200000000000209,-0.0036824452262387286,-0.0040227273574684475,-0.0046788689983152665
150000000000.0,-1,-1.80050094,-0.03337202995,-1.054607141,0.48394,-0.42511,-0.22099,-0.24813766494999998,-9.564425745,2.1520693425,-3.0268,1.3481,-0.24675,-0.0008999999999999009,-0.005900000000000016,-0.0016500000000000403,-0.007554801296725033,-0.0039943466335585764,-0.0014592863092275365
150000000000.0,-1,-1.8961157775,0.07785499435,-0.94719490355,0.50982,-0.39015,-0.23261,-0.27887170605,-9.5586398215,2.1739381719999997,-3.014,1.3454,-0.26249,-0.000600000000000156,-0.005800000000000027,-0.0018299999999999983,-0.004174624127044391,-0.0006959312615602009,-0.00030938609956887575
150000000000.0,-1,-1.9599570689999999,0.0938692538,-0.9826263299999999,0.53168,-0.35512,-0.28173,-0.2453035431,-9.547656373499999,2.225325018,-3.0318,1.3405,-0.24793,-0.0008999999999999009,-0.006299999999999972,-0.0010899999999999244,-0.0061522650674243895,-0.006024835186475563,-0.001154147889240953
150000000000.0,-1,-1.8376681435,0.19895731519999998,-0.9051537949999999,0.51621,-0.32616,-0.34265,-0.20664572879999998,-9.5366729255,2.2760253985,-3.051,1.3356,-0.23157,-0.001100000000000101,-0.006099999999999994,-0.0007400000000000739,-0.0030876373504773458,-0.005874603425872094,-0.0018831369075531512
150000000000.0,-1,-1.6917451915,0.1983689162,-0.8115297074499999,0.46533,-0.31503,-0.39186,-0.1630061363,-9.526375943,2.3223127865,-3.0715,1.3311,-0.21377,-0.0008999999999999009,-0.006399999999999961,-0.0011799999999999589,-0.004370744418395356,-0.0033500641743000603,-0.002201956668019811
150000000000.0,-1,-1.603583408,-0.108069283,-0.76632105095,0.41314,-0.31777,-0.41436,-0.11637551555,-9.516961558999999,2.3633045835,-3.0924,1.3271,-0.19552,-0.001000000000000112,-0.006699999999999928,-0.0006599999999999939,-0.002486149064764076,-0.006207834928051215,-0.004862736536185075
150000000000.0,-1,-1.5607283475,-0.6172893909,-0.66637167415,0.36168,-0.344,-0.40586,-0.06938204875,-9.5084297735,2.3991969225,-3.1127,1.3235,-0.17806,-0.0004999999999999449,-0.006599999999999939,-0.0008599999999999719,-0.00459457341160463,-0.0030288329269125835,1.0148769462148266e-05
150000000000.0,-1,-1.4977696544999999,-1.1960190339999999,-0.6338430160999999,0.29916,-0.40851,-0.38131,-0.02301620755,-9.500976719499999,2.4294014045,-3.1321,1.3205,-0.16204,-0.0008999999999999009,-0.00670000000000015,-0.00042000000000008697,0.0014025187725652533,-0.006804626173068096,-0.008372102687387084
150000000000.0,-1,-1.414511196,-1.5642587415,-0.65307385675,0.22487,-0.47612,-0.35677,0.022702394749999997,-9.494994663,2.4526431649999996,3.1323,1.318,-0.14746,-0.000400000000000178,-0.006899999999999906,-0.0006999999999999229,9.44153627726596e-05,-0.0033016150138698297,-0.006920953829397725
150000000000.0,-1,-1.3165427625,-1.5940709574999998,-0.531324297,0.14122,-0.51808,-0.33656,0.06763646505,-9.4907778035,2.467941539,3.1142,1.3163,-0.13399,-0.00019999999999997797,-0.006900000000000128,-0.0005899999999999794,0.0009335602479512151,-0.004916431916735853,-0.0009281180382174625
150000000000.0,-1,-1.2865344134999999,-1.483942278,-0.26155316214999996,0.039545,-0.54603,-0.31854,0.11170755014999999,-9.48891454,2.473629396,3.0965,1.3155,-0.12123,-0.00039999999999995595,-0.006999999999999895,-8.000000000008001e-05,0.0014694122663283515,-0.0030835456793867344,-0.008432912395540448
150000000000.0,-1,-1.323309351,-1.417453191,-0.16471249339999997,-0.047287,-0.57732,-0.28661,0.1538859518,-9.489110672999999,2.470295135,3.0794,1.3156,-0.10947,-0.0006999999999999229,-0.007400000000000073,-2.999999999997449e-05,-0.0008458980168486452,-0.003438594992249966,-0.006383165552411363
150000000000.0,-1,-1.4169628585,-1.3803840539999999,-0.2889823622,-0.1032,-0.60248,-0.24076,0.19263202595,-9.4909739365,2.4606846179999997,3.0635,1.3164,-0.099193,-0.00019999999999997797,-0.007500000000000062,-0.00029999999999996696,0.004728524763104369,-0.002583565023885015,-0.007686997709284604
150000000000.0,-1,-1.5827933099999998,-1.3506699045,-0.5097496669999999,-0.1346,-0.62572,-0.18527,0.22674936129999998,-9.493719798499999,2.4472495074999996,3.0492,1.3175,-0.090853,-0.000600000000000156,-0.007699999999999818,0.0006099999999999994,0.001537486465489346,-0.0012413063350318332,-0.003582395916733816
150000000000.0,-1,-1.877777342,-1.378030458,-0.7166503687,-0.16919,-0.64574,-0.12766,0.25584569185,-9.4972501925,2.4305782024999996,3.0367,1.3189,-0.084585,-9.999999999998899e-05,-0.008099999999999996,0.00015999999999993797,0.004816052601189336,-0.0016073114920502896,-0.006423350558367069
150000000000.0,-1,-2.3395724904999997,-1.4774698889999998,-0.8643385176999999,-0.22386,-0.64854,-0.080782,0.28036231684999996,-9.502055451,2.4091016389999997,3.0257,1.3209,-0.079953,-0.00019999999999997797,-0.008500000000000174,0.0005300000000000304,0.003238433420575948,-0.0015083355151981337,-0.005052914281763243
150000000000.0,-1,-2.8051922325,-1.5745557239999999,-0.9700149780999999,-0.29844,-0.61705,-0.051079,0.30087782864999996,-9.50852784,2.380662354,3.0159,1.3236,-0.076263,0.00019999999999997797,-0.008799999999999919,0.0001100000000000545,0.005280579807165342,-0.0004957136334204915,-0.005093329618442333
150000000000.0,-1,-3.0828184939999996,-1.638495082,-1.099913864,-0.37371,-0.54293,-0.029992,0.31751971369999993,-9.5168634925,2.3449661479999997,3.007,1.3271,-0.072936,0.00014999999999987246,-0.009400000000000075,0.0007899999999999574,0.003321337880083375,-0.000950542313304048,-0.002594515215134763
150000000000.0,-1,-3.22050386,-1.720674809,-1.196215167,-0.42108,-0.45091,-0.011023,0.330091839,-9.526375943,2.3042685505,2.9993,1.3311,-0.069912,0.0001500000000000945,-0.009199999999999875,0.0009599999999999609,0.006600999423284737,0.0015977582880051244,-0.0020296981395730995
150000000000.0,-1,-3.372703068,-1.8670880934999998,-1.0022396299999998,-0.45787,-0.36433,0.016513,0.3380352255,-9.5366729255,2.260236692,2.9931,1.3356,-0.06753,0.00010000000000021103,-0.009500000000000064,0.0012900000000000134,0.004876423956226228,0.0005748997919718946,-0.0007461317459158678
150000000000.0,-1,-3.3849613804999996,-1.992319014,-0.70761844405,-0.50938,-0.24672,0.050373,0.34038882149999994,-9.5478525065,2.2120860405,2.9889,1.3405,-0.066064,0.0008999999999999009,-0.009800000000000031,0.0007500000000000284,0.008654607212343679,0.001961958104465422,0.0008678276246731897
150000000000.0,-1,-3.2241323205,-1.9027842995,-0.1917200075,-0.5849,-0.061788,0.086207,0.33549530315,-9.560503084999999,2.1575610665,2.9873,1.3463,-0.065605,0.001100000000000101,-0.00990000000000002,0.0012799999999999478,0.005639393445755703,0.0031527907109936137,0.006723642581417444
150000000000.0,-1,-2.9484673889999997,-1.712044957,0.39984654044999995,-0.64702,0.19337,0.11554,0.32237400545,-9.574330461499999,2.0973482354999997,2.9891,1.3527,-0.066089,-0.0012000000000000899,-0.009299999999999864,0.004330000000000056,0.008358561412533216,-0.0011272615440593992,0.003561002053286799
150000000000.0,-1,-2.7777336125,-1.625158038,1.069317116,-0.70039,0.47404,0.14164,0.30111318825,-9.58894237,2.0327224119999996,2.9945,1.3597,-0.067532,0.0012000000000000899,-0.009700000000000042,0.0017599999999999838,0.009605736816457044,0.003276186212983978,0.004514658544715111
150000000000.0,-1,-2.697809415,-1.6396718799999999,1.7766707805,-0.77216,0.71969,0.16456,0.27263467664999996,-9.604436877,1.962310665,3.0035,1.3674,-0.069976,0.0018999999999997907,-0.009300000000000086,0.0023499999999999632,0.010095912147325192,0.007227739960495416,0.01608977091524455
150000000000.0,-1,-2.3305503725,-1.711456558,2.2378775299999996,-0.84766,0.90038,0.18866,0.23846830804999997,-9.620912049,1.8846419969999997,3.0157,1.3759,-0.073618,0.0015000000000000568,-0.009099999999999886,0.0021700000000000053,0.011224159409394252,0.0029230437460645575,0.006944806709048734
150000000000.0,-1,-1.3377251264999999,-1.8212910379999998,2.4786307874999998,-0.9209,0.96595,0.21724,0.2006244457,-9.637975619999999,1.7998144745,3.0306,1.3851,-0.078973,0.0015000000000000568,-0.008800000000000141,0.0025300000000000322,0.01291434994887175,0.0037232846510111273,0.004559307565427773
150000000000.0,-1,0.0898877539,-1.9292622544999998,2.421654151,-1.0187,0.89852,0.25455,0.16089770655,-9.655823723,1.7055725679999998,3.0475,1.3952,-0.086831,0.0017000000000000348,-0.008299999999999974,0.002569999999999961,0.0127044948372399,0.005485212312989596,0.004973840562628951
150000000000.0,-1,1.4127459989999998,-1.9216130675,1.9519156159999997,-1.1545,0.75361,0.29086,0.12046488859999999,-9.6747505575,1.5986800829999999,3.0664,1.4066,-0.097904,0.0015000000000000568,-0.007800000000000029,0.0026599999999999957,0.017891911644828395,0.002586430889466529,3.868642905313635e-05
150000000000.0,-1,2.2852436495,-1.7711790564999998,1.6601677785,-1.3341,0.58139,0.30259,0.0816697812,-9.69485419,1.474527894,3.0863,1.4196,-0.11167,0.0014999999999998348,-0.007199999999999873,0.0025800000000000267,0.018120466258524592,0.0021029157014234023,0.0008280528740733928
150000000000.0,-1,3.094782607,-1.2522111384999999,1.520423016,-1.5329,0.39656,0.2887,0.04702288674999999,-9.715840421,1.3307624049999998,3.1063,1.4346,-0.12741,0.0016000000000000458,-0.006900000000000128,0.0022800000000000598,0.02057843295458439,0.0022192458926608705,-0.0008084529805358898
150000000000.0,-1,3.8013517394999994,-0.40961396385,1.4914933984999998,-1.7231,0.21805,0.27908,0.01636729885,-9.736826652,1.167775882,3.1276,1.4514,-0.14626,0.0014000000000000679,-0.006699999999999928,0.0023499999999999632,0.02130860939672763,0.0029612156541547474,-0.002806348721310137
150000000000.0,-1,4.164491988999999,0.3625910771,1.2899667409999998,-1.8917,0.078791,0.26622,-0.0111207411,-9.756832218,0.9871373889999999,-3.1303,1.47,-0.17058,0.0010999999999998789,-0.006399999999999961,0.0021799999999999597,0.019971203481730537,0.003190324180276205,-0.0030766827782073847
150000000000.0,-1,4.2521634399999995,0.8248373314999999,0.9276306367999999,-1.9947,-0.003465,0.25445,-0.03627479835,-9.7743861215,0.7942503901499999,-3.096,1.4896,-0.20496,0.0009000000000001229,-0.00649999999999995,0.0021600000000000508,0.017472799441783815,0.004026586996761949,-0.0038631332007614816
150000000000.0,-1,3.9768907744999997,0.8870016858499999,0.5956755343,-1.9986,-0.081241,0.27379,-0.061899574799999996,-9.788213498,0.5981271967999999,-3.0385,1.5094,-0.26317,-0.0004999999999999449,-0.0016000000000000458,-0.00541999999999998,0.01159257977810757,0.0010916676112293633,0.009535898713391333
150000000000.0,-1,3.1677440829999997,0.68345485845,0.29681787554999994,-1.9182,-0.25247,0.34575,-0.09272187574999999,-9.7977259485,0.40782915355,-2.918,1.5281,-0.38582,0.0005999999999999339,-0.006899999999999906,0.0020299999999999763,0.012279268673961896,0.0037669807543305733,-0.003423428416797769
150000000000.0,-1,1.8132495849999999,0.44321154674999996,0.0612131093,-1.7574,-0.38175,0.41884,-0.13114433044999999,-9.8030215395,0.23147616659999998,-2.6261,1.5437,-0.68147,0.0005999999999999339,-0.007100000000000106,0.0020799999999999708,0.013525129621200893,0.002575063613076356,-0.00044508254944197745
150000000000.0,-1,0.5007667755999999,0.10085158859999999,-0.07053923344999999,-1.562,-0.34927,0.43193,-0.17305795254999998,-9.804884803,0.07368716809999999,-1.9733,1.5516,-1.3381,0.0004999999999999449,-0.007200000000000095,0.0021400000000000308,0.01241936133232735,0.0026566944724428776,0.004781022886437114
150000000000.0,-1,-0.26631919405,-0.28922752845,-0.0142000292,-1.361,-0.19531,0.39465,-0.2129612114,-9.804100271,-0.0642139442,-1.278,1.5481,-2.036,0.000600000000000156,-0.007599999999999829,0.0022099999999999342,0.011557410466086715,-0.0002788121147463407,0.003132657502037617
150000000000.0,-1,-0.7101877863499999,-0.466012008,0.18610079705,-1.1903,0.027144,0.31449,-0.24599000859999998,-9.8018447415,-0.18490438574999998,-0.92624,1.5394,-2.3882,0.0005999999999999339,-0.008000000000000007,0.0023500000000000743,0.0067576370062001345,0.0008490461705636942,0.004427300307139781
150000000000.0,-1,-0.9582666113999999,-0.4265500484,0.35405929159999994,-1.0584,0.30217,0.19576,-0.26771173835,-9.798608546999999,-0.29226758994999996,-0.74158,1.5304,-2.5706,0.0006999999999999229,-0.008099999999999996,0.0022900000000000142,0.009874093658207572,0.0003600401399173059,0.006577131628374033
150000000000.0,-1,-1.0971680019999999,-0.3191868442,0.52244927875,-0.97383,0.52645,0.071687,-0.27604739084999996,-9.794980086499999,-0.39076558255,-0.61502,1.522,-2.6926,0.0008000000000001339,-0.008199999999999985,0.0021299999999999653,0.010222901372462623,-0.0014839246868658673,0.007650575509918767
150000000000.0,-1,-1.1504181114999998,-0.17325408554999996,0.6637434919499999,-0.94214,0.6989,-0.016089,-0.27341920864999997,-9.790763227,-0.4853703351,-0.51301,1.514,-2.7882,0.0008999999999999009,-0.007900000000000018,0.0018599999999999728,0.008135784859924167,-0.0005281598200128634,0.013317591531579964
150000000000.0,-1,-1.2130826049999999,0.10735339755,0.65680038375,-0.94917,0.86098,-0.058015,-0.26403424459999997,-9.7859579685,-0.5801810273,-0.42708,1.5057,-2.866,0.0005999999999999339,-0.008299999999999974,0.0019500000000000073,0.006578148255662608,0.00016713393884693062,0.009263725402597345
150000000000.0,-1,-1.1027577924999998,0.4673260991,0.5444848213,-0.96628,0.98686,-0.063604,-0.2517955454,-9.779975912,-0.6769138229,-0.35611,1.4971,-2.9276,0.0008000000000001339,-0.008000000000000007,0.0015700000000000713,0.0062888267908762785,-0.0027812822271062743,0.013799281929100182
150000000000.0,-1,-0.7743919238999999,0.82520017755,0.3517449222,-0.94098,1.0974,-0.03707,-0.23955684619999998,-9.7732093235,-0.77267576015,-0.30064,1.4882,-2.9724,0.0004999999999999449,-0.008000000000000007,0.0013599999999999168,0.0058379912903889775,0.001633795483058087,0.012196901443551234
150000000000.0,-1,-0.38648988315,1.094814406,0.41277170515,-0.86184,1.1575,0.021668,-0.23061318139999998,-9.7659524025,-0.8618280153,-0.26146,1.4797,-3.0003,0.0004999999999999449,-0.008099999999999996,0.0015700000000000713,0.006642219073685451,-0.00025548926736895794,0.008551879719061795
150000000000.0,-1,-0.0798457443,1.2886918765,0.6996750575499999,-0.75667,1.1448,0.093389,-0.22766137974999998,-9.7586954815,-0.941046134,-0.23736,1.4719,-3.0129,0.00029999999999996696,-0.007900000000000018,0.0013099999999999223,0.007300770614494967,6.437512652324173e-05,0.00986073539247112
150000000000.0,-1,0.19136696809999998,1.4254946439999998,0.9659157984,-0.6625,1.079,0.1449,-0.22997574915,-9.75173276,-1.010477216,-0.22377,1.4649,-3.0155,0.00020000000000020002,-0.007800000000000029,0.000980000000000092,0.007206995194090071,-0.0011484663679077745,0.011160326010193344
150000000000.0,-1,0.5965973594,1.47688149,1.0667673869999998,-0.6003,1.0017,0.17077,-0.23551650639999996,-9.7449661715,-1.0727494435,-0.21612,1.4586,-3.0129,0.00029999999999996696,-0.007600000000000051,0.0008599999999999719,0.004522575363030912,0.0009823351966000704,0.00826537521749815
150000000000.0,-1,1.061471796,1.4861978074999997,0.9487051276499999,-0.55725,0.91505,0.17206,-0.24201831534999999,-9.7382976495,-1.1302164125,-0.21095,1.4527,-3.0087,-6.666666666665932e-05,-0.007500000000000062,0.0006599999999999939,0.006564605603412987,0.0021862957642464487,0.007869639802327022
150000000000.0,-1,1.4765872905,1.4720762314999998,0.7711361160999999,-0.53328,0.84027,0.1669,-0.248500511,-9.7316291275,-1.1847413864999998,-0.20675,1.447,-3.0043,-6.666666666665932e-05,-0.00749999999999984,0.0007899999999999574,0.0033358466417454657,0.0006917559598520473,0.005979957317040263
150000000000.0,-1,1.7257742669999998,1.4204932525,0.56087173345,-0.5135,0.7783,0.16491,-0.25483560689999996,-9.7249606055,-1.2372069639999999,-0.20313,1.4416,-2.9999,-6.666666666665932e-05,-0.007400000000000073,0.0008700000000000374,0.00615643656885112,0.002670883582976513,0.003798111919488978
150000000000.0,-1,1.7825547704999998,1.261331323,0.3666902568,-0.48627,0.72052,0.17466,-0.2622102077,-9.7182920835,-1.2872208789999997,-0.20095,1.4364,-2.9947,-0.000400000000000178,-0.007500000000000062,0.0007899999999999574,0.006913841468711324,0.0034641361740697096,0.004892406245530445
150000000000.0,-1,1.5832836425,1.0694151824999998,0.31117481115,-0.44625,0.66902,0.1983,-0.2719776311,-9.711721628,-1.3335082669999998,-0.2012,1.4316,-2.9875,-0.00029999999999996696,-0.00749999999999984,0.0005800000000000249,0.0006473900779309094,0.0023699601610362997,0.004134768243764686
150000000000.0,-1,1.2430909540000001,0.9078310104499999,0.38162578475,-0.39238,0.62166,0.2305,-0.28497144235,-9.705641505,-1.3747942635000001,-0.20439,1.4271,-2.9779,-0.0005999999999999339,-0.007300000000000084,0.00043000000000004146,0.003589923033071818,0.003531614268519112,0.005627419891465646
150000000000.0,-1,0.87488066645,0.8131772246499999,0.49657933605,-0.33305,0.5913,0.26695,-0.3017702338,-9.700051714499999,-1.410392403,-0.21078,1.4232,-2.9654,-0.00029999999999996696,-0.007300000000000084,2.999999999997449e-05,0.0021134454272924152,0.0010080242396452999,0.0068109261308055835
150000000000.0,-1,0.61447488235,0.8155406273,0.6007259590499999,-0.26719,0.57686,0.30232,-0.32208961259999996,-9.695050323,-1.4397142864999999,-0.22009,1.4198,-2.9501,-0.0005999999999999339,-0.007199999999999873,0.00029000000000001247,0.0014893549002998885,0.004232901847417425,0.004736960624685871
150000000000.0,-1,0.50095310195,0.8413517300999999,0.6010299652,-0.18928,0.59431,0.3259,-0.3447233608,-9.690931529999999,-1.4620734485,-0.23156,1.417,-2.9326,0.00019999999999997797,-0.01200000000000001,0.006730000000000014,0.011078008240183346,0.00018226892569384034,-0.009708716928016337
150000000000.0,-1,0.37712453239999993,0.8681827244999999,0.62341854715,-0.11453,0.60116,0.32282,-0.36740614224999996,-9.687793401999999,-1.4769795565,-0.24381,1.415,-2.9141,-0.000500000000000167,-0.007400000000000073,0.0005299999999999194,-0.00021434578004519977,-0.0013420387102391906,0.0011811163995210094
150000000000.0,-1,0.40175883719999994,0.9596199290999999,0.5527224073,-0.06262,0.54002,0.29953,-0.38874541265,-9.6855378725,-1.4861978074999997,-0.25584,1.4135,-2.8962,-9.999999999998899e-05,-0.00770000000000004,4.999999999999449e-05,-3.7529665188884564e-06,0.006549967980287175,0.008188249977476136
150000000000.0,-1,0.45935329264999997,1.0856942215,0.2298874893,-0.034344,0.45031,0.26238,-0.40818219294999997,-9.683870742,-1.4918856644999998,-0.26705,1.4124,-2.8801,-0.00039999999999995595,-0.007600000000000051,-0.0006099999999999994,-5.684894995106049e-05,-0.00030160256974642863,0.0049993284671350224
150000000000.0,-1,0.37268211995,1.239168294,-0.1011457881,-0.01015,0.366,0.19639,-0.42310791425,-9.682792010499998,-1.4952199254999998,-0.27577,1.4117,-2.8673,-0.0009999999999998899,-0.007799999999999807,-0.00034000000000000696,0.00033770612100036956,-0.001478691424469547,0.0015331566245402328
150000000000.0,-1,0.3601590279,1.4122556665,-0.34290913054999994,0.025197,0.33808,0.12392,-0.4318358327499999,-9.6823997445,-1.495121859,-0.28118,1.4114,-2.8584,-0.000500000000000167,-0.008000000000000007,-0.0007199999999999429,-0.0022468263529655808,-0.0006967718312274052,0.005130834451186672
150000000000.0,-1,0.26218078775,1.6617368424999999,-0.27620429724999995,0.065163,0.35274,0.049244,-0.43321857039999995,-9.6829881435,-1.491003066,-0.28276,1.4118,-2.8533,-0.0007999999999999119,-0.008099999999999996,-0.0008700000000000374,-7.648235587387475e-05,-0.002919216586644735,0.0031395382637966485
150000000000.0,-1,0.1907001159,1.877188943,-0.17405823085,0.092318,0.36964,-0.02012,-0.4274326469,-9.684263007999999,-1.4842364775,-0.28039,1.4126,-2.852,-0.0005999999999999339,-0.008199999999999985,-0.0010999999999999899,-0.0010943349620395892,-0.0007104063180645159,0.0046985024606627235
150000000000.0,-1,0.1669484096,1.9274970574999999,-0.28559906794999995,0.11201,0.39831,-0.071372,-0.41593925309999996,-9.6861262715,-1.475508559,-0.27477,1.4138,-2.8537,-0.0013000000000000789,-0.008300000000000196,-0.0019700000000000273,-0.0013188608415639624,-0.004110754134544425,0.004128977142170864
150000000000.0,-1,0.02285930115,1.8749334135,-0.3926778793,0.13063,0.43336,-0.11303,-0.39979750719999996,-9.688381801,-1.4649173770000001,-0.26642,1.4153,-2.8579,-0.0008999999999999009,-0.008499999999999952,-0.0013499999999999623,-0.0029188687601569008,-0.0019733774133514626,0.004951169825517798
150000000000.0,-1,-0.08379782425,1.8113863215000001,-0.49657933605,0.16526,0.47254,-0.1472,-0.3794781284,-9.6912257295,-1.4516783994999998,-0.25568,1.4172,-2.8641,-0.0009000000000001229,-0.00869999999999993,-0.0013900000000000023,-0.0046968373938978125,-0.0018305162982608092,0.006939013419485995
150000000000.0,-1,-0.13035979844999998,1.7701983915,-0.5800731541499999,0.22111,0.50726,-0.16531,-0.35655998735,-9.6947561235,-1.4336341634999998,-0.24377,1.4196,-2.8711,-0.0011999999999998678,-0.008799999999999919,-0.0017399999999999638,-0.001747631862822896,-0.002452882935456868,0.003506398231616803
150000000000.0,-1,-0.1914846479,1.7958918144999998,-0.58695742245,0.28956,0.52695,-0.16736,-0.33284750765,-9.699169116,-1.409019472,-0.23197,1.4226,-2.8777,-0.0013000000000000789,-0.00890000000000013,-0.0016300000000000203,-0.006653831342352978,-0.0005741447863627513,0.004964072423093491
150000000000.0,-1,-0.20985250335,1.770296458,-0.66031116445,0.37796,0.51555,-0.15438,-0.31013530624999996,-9.704660839999999,-1.376265261,-0.22165,1.4264,-2.8829,-0.0014000000000000679,-0.008999999999999897,-0.0016899999999999693,-0.005075201729522583,0.00035439381029500616,0.004770596589682707
150000000000.0,-1,-0.12493672099999999,1.55337336,-0.8025370094000001,0.47352,0.47956,-0.11999,-0.2909044656,-9.711133229,-1.3339985995,-0.21471,1.4311,-2.885,-0.0018000000000000238,-0.009100000000000108,-0.0016800000000000148,-0.005577987168663867,-0.0018895870629080935,0.003943767185082159
150000000000.0,-1,0.0070313680499999994,1.1787593299999999,-0.9900793839999998,0.55403,0.44154,-0.064277,-0.27728302875,-9.71839015,-1.2832001524999999,-0.21281,1.4365,-2.8823,-0.0019000000000000128,-0.008999999999999897,-0.0016300000000000203,-0.005484907348193957,0.002031038681027386,0.0037216638805861457
150000000000.0,-1,0.21608953274999998,0.7357144963,-1.2201433929999999,0.57914,0.42847,0.014777,-0.2713107789,-9.725647071,-1.2282829124999999,-0.21739,1.4422,-2.8734,-0.0018000000000000238,-0.009100000000000108,-0.0012600000000000389,-0.003515343684613814,0.0032162479862529736,0.005480453166919919
150000000000.0,-1,0.4301588956,0.19008229695,-1.4413814169999999,0.53503,0.44046,0.10754,-0.27424296724999997,-9.7320213935,-1.1759154015,-0.22911,1.4474,-2.8572,-0.0018999999999997907,-0.008999999999999897,-0.0016100000000000003,-0.0013554476905730528,0.002792642520835331,0.0038401079145615746
150000000000.0,-1,0.5139861398,-0.44774221905,-1.613782324,0.43633,0.42839,0.19706,-0.28623650019999997,-9.7369247185,-1.1319816095,-0.24768,1.4515,-2.8341,-0.0016000000000000458,-0.009200000000000097,-0.0010099999999999554,-0.0039029608671545812,0.00614797889396268,0.00443555879604185
150000000000.0,-1,0.19590744705000002,-0.996159507,-1.6901761275,0.30529,0.37397,0.28338,-0.30753654399999997,-9.73996478,-1.099913864,-0.27263,1.4541,-2.805,-0.0017000000000000348,-0.009199999999999875,-0.0007200000000000539,0.006140242691163866,-0.0025278530766290608,0.0023430563877449018
150000000000.0,-1,-0.55720404635,-1.4383413555,-1.488061071,0.1513,0.36027,0.33331,-0.33524033025,-9.740945445,-1.0823599604999998,-0.30034,1.455,-2.7735,-0.0018000000000000238,-0.008800000000000141,-0.0024199999999999777,-0.013185215888718904,-0.01246195989892751,0.018891179806646008
150000000000.0,-1,-1.123449824,-1.7490160275,-1.0827522264999998,-0.017802,0.43411,0.34249,-0.36407188124999995,-9.740062846499999,-1.081477362,-0.32472,1.4542,-2.7448,-0.0012000000000000899,-0.009099999999999886,-0.0009099999999999664,0.003542243203083162,0.0011445305729462785,0.011194059270184464
150000000000.0,-1,-1.2023933564999998,-1.9204362695,-0.7752254891499999,-0.18108,0.55375,0.32812,-0.39080480914999993,-9.737218918,-1.0971680019999999,-0.34218,1.4517,-2.722,-0.0017999999999998018,-0.009400000000000075,-0.00022999999999995246,0.006029364561535688,0.004703367248452439,0.003668973829753064
150000000000.0,-1,-0.9453708666499999,-1.8841516644999998,-0.8035274810499999,-0.3401,0.67229,0.31269,-0.41437999575,-9.7326097925,-1.1290396145,-0.35176,1.4478,-2.7058,-0.0013000000000000789,-0.009300000000000086,-0.0005100000000000104,0.0065127370068340795,-0.0010837582057048323,0.013001681398311593
150000000000.0,-1,-0.6448656906999999,-1.7092010284999999,-1.153458173,-0.48761,0.7758,0.31866,-0.43641553829999996,-9.726039337,-1.1761115345,-0.35531,1.4425,-2.6947,-0.0014000000000000679,-0.009599999999999831,-0.0007099999999999884,0.008316480989661423,0.0028841638922605384,0.013964754523945633
150000000000.0,-1,-0.60455055255,-1.498848386,-1.5307199985,-0.63609,0.90167,0.3406,-0.45847069414999997,-9.7173114185,-1.2382856955,-0.35459,1.4357,-2.6867,-0.0015000000000000568,-0.010099999999999998,-0.000180000000000069,0.011381957179190882,0.0027239117086197417,0.010589064081215405
150000000000.0,-1,-0.7514639761999999,-1.2792774925000001,-1.9802568344999998,-0.77586,1.052,0.36891,-0.48064352979999997,-9.7061318375,-1.3151698315,-0.35038,1.4275,-2.6807,-0.0013999999999998458,-0.00990000000000002,-0.0008199999999999319,0.00178736842780447,-0.006690608153871347,0.02018389475112281
150000000000.0,-1,-0.9396045564499999,-0.983803128,-2.526585306,-0.89563,1.1648,0.39092,-0.50260061915,-9.692402527499999,-1.4050968119999998,-0.34351,1.418,-2.6761,-0.0021999999999999797,-0.01110000000000011,-0.00048000000000003595,0.01058391356525501,0.006387944872135565,0.005925446007729818
150000000000.0,-1,-1.1865065835,-0.50481692205,-3.0308432489999997,-0.94362,1.1546,0.3695,-0.5221943058499999,-9.676809954,-1.502182647,-0.33455,1.4079,-2.6733,-0.0018000000000000238,-0.011299999999999866,-9.999999999998899e-05,0.0015165114255775158,-0.005108884458265628,0.010913937279365182
150000000000.0,-1,-1.130706745,0.12046488859999999,-3.5315707979999997,-0.8494,1.0069,0.28133,-0.535835356,-9.661511579999999,-1.5932864254999999,-0.32443,1.3985,-2.673,-0.0026000000000001577,-0.011500000000000066,-1.0000000000065512e-05,0.0037003667382609073,-0.0006815591982998193,0.00812993305047005
150000000000.0,-1,-0.6525148776999999,0.6731872958999999,-3.7819345724999995,-0.58714,0.92168,0.18481,-0.5408465541499999,-9.649351333999999,-1.6636981725,-0.31431,1.3914,-2.6738,-0.0028999999999999027,-0.011800000000000033,0.00038000000000004697,0.003052099720131096,-0.0003075826693978989,0.004763631985165162
150000000000.0,-1,-0.3547261438,0.5193307640499999,-2.6329874584999997,-0.28849,0.86069,0.10538,-0.5380124323,-9.642584745499999,-1.703415105,-0.30593,1.3876,-2.6734,-0.0028999999999999027,-0.011800000000000033,0.0005800000000000249,0.0029704795609322154,0.00045692821381959625,0.0008994775598907268
150000000000.0,-1,0.35802117819999996,-0.37290767289999993,-1.2302442425,-0.033589,0.80326,0.033337,-0.5289020544499999,-9.640721481999998,-1.7168502154999998,-0.29884,1.3866,-2.6722,-0.0034000000000000696,-0.011499999999999844,0.0007399999999999629,0.005118216970619871,-0.0002633107907250576,0.00020184525044797397
150000000000.0,-1,1.4402046189999997,-1.1583614979999999,-0.6350884606499999,0.17304,0.71745,-0.0334,-0.51456473215,-9.642878945,-1.7088087624999997,-0.29248,1.3878,-2.6711,-0.0037000000000000366,-0.011200000000000099,0.0010099999999999554,0.0012703766178525644,0.0020215275141530764,-0.0025529176795555664
150000000000.0,-1,2.476767524,-1.415099595,-0.34037901484999994,0.31616,0.55757,-0.10439,-0.49591248385,-9.648174535999999,-1.6843902039999998,-0.28633,1.3908,-2.6713,-0.0035000000000000586,-0.010499999999999954,0.0011100000000000554,0.0007679984334667544,0.002165826379319391,-0.0017449763260559692
150000000000.0,-1,3.273263637,-1.542586045,0.14102943364999998,0.33828,0.36987,-0.1339,-0.47639725034999997,-9.654548858499998,-1.6534011899999999,-0.28053,1.3944,-2.673,-0.0030999999999998806,-0.009400000000000075,0.0005899999999999794,-0.01926851571491439,-0.0016629839888302467,0.013190165599055614
150000000000.0,-1,3.6974993159999996,-2.079402066,1.0817715615,0.19112,0.15363,-0.067599,-0.4639329982,-9.6588637845,-1.6312381609999997,-0.27709,1.397,-2.6743,-0.0032000000000000917,-0.009299999999999864,0.0016000000000000458,0.0049737546749442085,0.004370113970807665,-0.0012240030303796168
150000000000.0,-1,3.3687804079999997,-3.4292874385,1.697138849,-0.11072,-0.10517,0.13728,-0.47223923075,-9.6580792525,-1.6338859565,-0.28137,1.3965,-2.6704,-0.0035000000000000586,-0.009200000000000097,0.0016300000000000203,0.002002447010414299,0.007148216433998433,-0.000833798075077663
150000000000.0,-1,1.8461018624999999,-5.176538269,1.6771332829999999,-0.37133,-0.25459,0.38152,-0.5071214848,-9.6512145975,-1.6635020395,-0.29591,1.3925,-2.658,-0.0035999999999998256,-0.009500000000000064,0.0012799999999999478,-0.0017240675407197426,0.0037170567278350664,-0.00025965263872462785
150000000000.0,-1,0.5039441302,-5.271270508,1.9366172419999998,-0.31956,-0.2264,0.52993,-0.559763582,-9.642584745499999,-1.6965504499999997,-0.31869,1.3876,-2.6372,-0.0035000000000000586,-0.009700000000000042,0.0006399999999999739,-0.0075494966701703525,0.004650471539430878,-0.00021342097076715305
150000000000.0,-1,0.26561311525,-2.3407492885,2.8031328359999996,0.035568,-0.12701,0.50796,-0.6130725314,-9.638367886,-1.7020421739999998,-0.34572,1.3853,-2.6113,-0.0036000000000000476,-0.009899999999999798,0.00017000000000000348,-0.008928451074602606,0.00048527669606590607,-0.0015419163966776672
150000000000.0,-1,0.8364385984499999,1.7507812244999998,3.0585960685,0.4608,-0.029094,0.33347,-0.6510438802,-9.64189828,-1.6672285665,-0.37228,1.3873,-2.5848,-0.0031999999999998696,-0.00990000000000002,-0.0005300000000000304,-0.008106702150447065,-0.0005058929853849481,-0.0014510511593650577
150000000000.0,-1,1.3952901619999998,4.893910615999999,2.509914001,0.72729,-0.069411,0.10344,-0.667440599,-9.651901062999999,-1.601622078,-0.39484,1.3929,-2.5624,-0.0032000000000000917,-0.009800000000000031,-0.00030999999999992145,-0.011308271655158908,-0.0021094095895566323,-0.002357720739636804
150000000000.0,-1,1.2317152399999998,6.4747425960000005,1.7836335019999998,0.81895,-0.19572,-0.080838,-0.6660480547000001,-9.6647477745,-1.5231688780000001,-0.41223,1.4005,-2.5464,-0.0023999999999999577,-0.009000000000000119,-0.0008799999999999919,0.0035629043735980748,-0.002571714815467363,-0.001636008177547943
150000000000.0,-1,0.620957078,6.1624988599999995,1.7559787489999998,0.91954,-0.21776,-0.17456,-0.65417220155,-9.678967416999999,-1.435497427,-0.42761,1.4092,-2.5331,-0.0032000000000000917,-0.009199999999999875,-1.0000000000065512e-05,-0.008969467185379942,-0.003788017920259623,0.003366118620627745
