Time,placement_label,user_acc_x(m/s^2),user_acc_y(m/s^2),user_acc_z(m/s^2),rotation_rate_x(rad/s),rotation_rate_y(rad/s),rotation_rate_z(rad/s),gravity_x(m/s^2),gravity_y(m/s^2),gravity_z(m/s^2),attitude_roll(rad),attitude_pitch(rad),attitude_yaw(rad),target_delta_x,target_delta_y,target_delta_z,target_delta_roll,target_delta_pitch,target_delta_yaw
149740000000.0,2,-0.3148915315,-0.18527703845,0.8721446111,0.63592,0.04492,0.11341,1.14737805,-2.9767105409999997,-9.273266306499998,0.1231,0.30841,1.9323,0.0,0.0,0.0,0.0,0.0,0.0
149740000000.0,2,-0.31637233564999995,-0.11852317189999999,0.8502757816,0.74065,0.016435,0.03359,1.1488490475,-3.0434938275,-9.251397477,0.12354,0.31556,1.9319,-0.00029999999999996696,0.0004999999999999449,0.0005999999999999339,-0.007055877611912731,-0.0008752398695806018,0.0007659260921320521
149740000000.0,2,-0.07505029245,0.0666067668,0.8205027922,0.85216,-0.10267,-0.053534,1.1433573234999999,-3.1194953649999997,-9.226684719,0.12329,0.32373,1.9305,-9.999999999998899e-05,0.00039999999999995595,0.00039999999999995595,-0.007527317373817288,-0.0012613863437305195,0.0006485592474156227
149740000000.0,2,0.19190633384999997,-0.02313388735,0.7980063371,0.91119,-0.25756,-0.15776,1.1274705505,-3.201282826,-9.20059903,0.12193,0.33253,1.928,-0.00039999999999995595,0.000400000000000178,0.0006999999999999229,-0.009055746519436858,-3.259787137643855e-05,-0.0010448770292793425
149740000000.0,2,0.5471522301,-0.15266012054999997,0.7566026607999999,0.88065,-0.39894,-0.25043,1.1013848615,-3.280912824,-9.175690139,0.11946,0.34114,1.9244,-0.000400000000000178,0.00039999999999995595,0.000600000000000156,-0.00910126719386084,0.00172601883565493,-0.0028316427687412465
149740000000.0,2,0.8018015106499999,-0.21608953274999998,0.50136498125,0.76703,-0.52046,-0.34008,1.0668654535,-3.3508342384999996,-9.1544097085,0.11602,0.34871,1.9201,-0.00019999999999997797,0.00039999999999995595,0.00039999999999995595,-0.007580706076853572,0.0017145887169596197,-0.003318742550038667
149740000000.0,2,0.81572695365,-0.35870764369999997,0.12761393645,0.59087,-0.56265,-0.38514,1.0284233855,-3.4055553455,-9.138621002,0.11206,0.35466,1.9153,-0.0004999999999999449,0.00019999999999997797,0.00039999999999995595,-0.008562863961212974,0.0023425510944699024,-0.005601344354318374
149740000000.0,2,0.83545793345,-0.30542811425,-0.10694151824999999,0.35708,-0.56181,-0.35779,0.99047165,-3.44017282,-9.129893083499999,0.10806,0.35842,1.9108,-0.00039999999999995595,9.999999999998899e-05,0.00029999999999996696,-0.006019603112681737,0.002716615610998785,-0.006278900013376512
149740000000.0,2,0.5570961731999999,0.0407760507,-0.33478922435,0.12597,-0.56537,-0.2333,0.9454198999,-3.4557653934999997,-9.1287162855,0.1032,0.36013,1.9078,-0.00029999999999996696,9.999999999998899e-05,9.999999999998899e-05,-0.0038085031390436286,0.00376560257978098,-0.00563522546064861
149740000000.0,2,0.0650769294,0.2995343176,-0.73796021915,-0.14372,-0.4748,-0.13679,0.90547741445,-3.446841342,-9.136169339499999,0.098786,0.35915,1.9063,9.999999999998899e-05,0.00019999999999997797,-0.00039999999999995595,0.00020093987623298615,0.0050060449427205,-0.0028078542956421343
149740000000.0,2,-0.20619462289999999,0.34360540269999995,-0.96131647955,-0.35563,-0.26743,-0.1023,0.8794211454,-3.4176175249999994,-9.1497025165,0.09582,0.35597,1.9054,9.999999999998899e-05,9.999999999998899e-05,-0.00039999999999995595,0.0024669905700445693,0.0043771028613937,-0.002581890320733568
149740000000.0,2,-0.01595541955,0.12563299314999998,-1.2376972964999997,-0.47779,-0.079924,-0.12419,0.8720367379499999,-3.3751547304999994,-9.1661776885,0.094851,0.35135,1.9047,9.999999999998899e-05,9.999999999998899e-05,-0.0004999999999999449,0.0035743199387892055,0.0020783644763673337,-0.0011739532488436455
149740000000.0,2,0.0549956932,0.02954743645,-0.7364205750999999,-0.5266,0.067564,-0.15656,0.8803920037499999,-3.321708488,-9.184810323499999,0.095561,0.34556,1.9036,9.999999999998899e-05,0.00010000000000021103,-0.000600000000000156,0.005394798477357132,0.00023849233936856784,-0.0010400711340139146
149740000000.0,2,-0.0027262486999999995,-0.030175062049999996,-0.6135628638999999,-0.48551,0.13542,-0.15661,0.8969554356,-3.274244302,-9.200304830499999,0.097186,0.34042,1.9024,-9.999999999998899e-05,9.999999999998899e-05,-0.00029999999999996696,0.005963040871265923,-0.0007290651122495717,-0.0012192498091693205
149740000000.0,2,-0.12310287745,0.0006276255999999999,-0.3695341853,-0.36211,0.11093,-0.12433,0.9127441421,-3.236586766,-9.2120728105,0.098759,0.33634,1.9014,-9.999999999998899e-05,0.00019999999999997797,-0.00019999999999997797,0.004427356063341048,-0.001669734989120819,-0.001249048672840647
149740000000.0,2,-0.23407492885,0.17103778265,0.0436395925,-0.22024,0.020173,-0.048138,0.9191184646,-3.212462407,-9.219918130499998,0.099361,0.33374,1.9009,4.999999999988347e-05,0.00039999999999995595,-0.00029999999999996696,0.0048285016698952354,-0.00039219792333677894,-0.0004972723115121147
149740000000.0,2,-0.2514621193,0.2154913271,0.38354788814999996,-0.086106,-0.095053,0.040895,0.90702686515,-3.199713762,-9.225507921,0.098003,0.33237,1.9014,5.0000000000105516e-05,0.00029999999999996696,-0.00019999999999997797,0.0024847946673647314,-0.00029996732652959324,-9.685360600864001e-05
149740000000.0,2,-0.13443936485,-0.015288567349999999,0.418743955,0.019447,-0.18978,0.1181,0.8883059702999999,-3.200106028,-9.2271750515,0.095975,0.33241,1.9025,0.00019999999999997797,0.00039999999999995595,-0.00019999999999997797,-2.476120922156877e-05,0.0007917050185373142,0.0008093113847066069
149740000000.0,2,-0.06573397495,-0.16318265599999998,0.43860242125,0.089412,-0.2064,0.18229,0.8634559192,-3.20873588,-9.226488586,0.093312,0.33334,1.9042,9.999999999998899e-05,0.00039999999999995595,9.999999999998899e-05,-0.0007472648692389838,0.0026552897140910137,-0.00025678698882969364
149740000000.0,2,-0.1048919284,-0.21334367075,0.54592639885,0.006988,-0.044921,0.28113,0.84799083215,-3.213246939,-9.2263905195,0.091652,0.33382,1.9069,0.00029999999999996696,0.000400000000000178,-9.999999999998899e-05,-0.002283016646371039,0.0019631935542814283,0.0007808365969458886
149740000000.0,2,-0.3909322955999999,-0.250069575,0.4803885569,-0.046649,0.10885,0.37578,0.8328101379499999,-3.223641988,-9.22413499,0.090042,0.33494,1.9109,0.00029999999999996696,0.00039999999999995595,-9.999999999998899e-05,0.0012252950859776846,0.0015632999081081067,0.0029030142309911244
149740000000.0,2,-0.84369551945,-0.14876688049999998,0.18649306305,-0.11722,0.25431,0.42556,0.8404004850499999,-3.217757998,-9.225507921,0.090845,0.33431,1.9154,0.00039999999999995595,0.00029999999999996696,-0.00029999999999996696,0.0006434822240318216,-9.4313856325412e-05,0.004657980879989504
149740000000.0,2,-0.7083049095499999,-0.16312381609999999,0.45993188499999993,-0.21073,0.4075,0.3803,0.86213202145,-3.2037344884999994,-9.2283518495,0.093151,0.3328,1.9198,0.000300000000000189,0.00019999999999997797,-0.00020000000000020002,-0.0008330129133635733,-0.0013722435281240397,0.0045072522132356685
149740000000.0,2,-0.3872253819,-0.4306492281,0.1246032949,-0.216,0.40118,0.35682,0.8883648102,-3.1869651169999997,-9.2316861105,0.095934,0.33099,1.9238,0.00019999999999997797,0.00029999999999996696,-0.00019999999999997797,0.0024891868611144896,-0.0022413467477429005,0.00547562577404806
149740000000.0,2,-0.0796496113,-0.35748181245,-0.09023098665,-0.20794,0.3159,0.31856,0.9083409562499999,-3.1747068045,-9.234039706499999,0.098054,0.32967,1.9275,0.00019999999999997797,0.00019999999999997797,-0.00019999999999997797,0.002182221520741101,-0.0032247033050099017,0.005221463642245919
149740000000.0,2,-0.2749980793,-0.25104043335,-0.18879762579999998,-0.16926,0.16861,0.24097,0.9191871111499998,-3.1605852285,-9.237766233499999,0.099176,0.32814,1.9305,9.999999999998899e-05,0.00019999999999997797,-9.999999999998899e-05,0.0005324646419396784,-0.0007752653330992398,0.003347841318529929
149740000000.0,2,0.23912535359999998,-0.09886083864999999,-0.51460395875,-0.13269,0.017084,0.15377,0.9186281320999998,-3.1490133815,-9.241786959999999,0.099074,0.3269,1.9325,0.00019999999999997797,0.000300000000000189,-0.00019999999999997797,0.0017258708535985434,-0.0009292701398861958,0.0031171113983279874
149740000000.0,2,0.6534268961499999,-0.18641460985,-0.31944181709999997,-0.10664,-0.11089,0.073976,0.9228547982499999,-3.1406777289999996,-9.2442386225,0.099501,0.326,1.933,9.999999999998899e-05,0.00029999999999996696,-9.999999999998899e-05,0.00212130572249547,0.001020284843654684,0.0017477371355851534
149740000000.0,2,0.66680316675,-0.195348468,-0.3150876645,-0.095836,-0.13861,0.002527,0.90947852765,-3.131655611,-9.248553548499999,0.098022,0.32504,1.9333,-3.333333333332966e-05,0.00019999999999997797,3.333333333332966e-05,0.0003658531380071328,0.000940936642363166,4.0611862423503564e-05
149740000000.0,2,0.5900269038999999,-0.29583721054999995,-0.19916325485,-0.085591,-0.10346,-0.0701,0.9005054429,-3.1229276925,-9.252378142,0.097022,0.32409,1.9329,-3.333333333332966e-05,0.00019999999999997797,3.333333333332966e-05,0.0009776291954289307,0.0008120367403519069,-0.0003204876832626907
149740000000.0,2,0.47041519384999997,-0.16240793064999998,-0.008786758399999999,-0.076391,-0.05233,-0.12141,0.8980145538,-3.1146901065,-9.2554182035,0.096723,0.3232,1.9318,-3.333333333332966e-05,0.00019999999999997797,3.333333333332966e-05,0.0003049773401722633,0.0006562680764352624,-0.0013088552441188755
149740000000.0,2,0.44597702204999995,-0.1050292215,0.08144422825,-0.005722,-0.14563,-0.10725,0.89327794185,-3.1102771139999996,-9.2573795335,0.096196,0.32273,1.9306,-0.00019999999999997797,0.00029999999999996696,9.999999999998899e-05,0.0012768045502491443,0.0005612958562570824,-0.0020034058760383944
149740000000.0,2,0.0998709236,-0.0262229821,0.36808280109999997,0.037044,-0.26213,-0.096298,0.8787640998499999,-3.1190050324999996,-9.255810469499998,0.094658,0.32367,1.9293,-0.0002666666666666373,9.999999999998899e-05,9.999999999998899e-05,-2.7724074943280552e-05,-0.00013292763679784159,-0.001365791370199404
149740000000.0,2,0.1263292653,-0.026330855249999997,0.37059330349999997,0.012655,-0.32489,-0.012972,0.8522959514999999,-3.1189069659999995,-9.2583601985,0.091799,0.32366,1.9289,-0.00026666666666685934,0.00029999999999996696,9.999999999998899e-05,-0.002072591053818962,0.001898757762697878,-0.0016423625793304808
149740000000.0,2,0.5137213602499999,-0.10817715614999998,-0.014356935599999999,0.03365,-0.30067,0.094829,0.82104215795,-3.122241227,-9.260027329,0.088434,0.32402,1.9296,-0.0002666666666666373,0.00029999999999996696,0.0012000000000000899,-0.002740323859855953,0.0021676182757246476,-0.003258029294876938
149740000000.0,2,0.06950953519999999,-0.32032441559999997,-0.19965358734999997,0.034105,-0.34122,0.15254,0.7861206772999999,-3.1268503525,-9.2614983265,0.084677,0.32452,1.9311,0.0012000000000000899,0.00010000000000021103,-0.001000000000000112,0.0024674688801919475,0.004593473972841711,0.0018124647169005248
149740000000.0,2,-0.2686825967,0.0693134022,0.58809499385,0.005026,-0.35807,0.18135,0.7410885405,-3.1324401429999997,-9.263361589999999,0.079832,0.32511,1.9331,0.00029999999999996696,0.00019999999999997797,9.999999999998899e-05,-0.0007515464839827901,0.0036338679157310594,0.00038697892359040864
149740000000.0,2,0.1339392257,-0.0900054337,0.1239952826,-0.025842,-0.33972,0.1962,0.7026856990999999,-3.1321459435,-9.266401651499999,0.075687,0.32509,1.9352,0.00039999999999995595,0.00019999999999997797,-9.999999999998899e-05,-0.00028464951573020647,0.0035644092185160847,0.0010296781123282084
149740000000.0,2,0.09376138064999999,-0.4165668787,0.1545331907,-0.057265,-0.27444,0.18323,0.66939212235,-3.1288116825,-9.270030111999999,0.072085,0.32472,1.9372,0.000300000000000189,9.999999999998899e-05,9.999999999998899e-05,-4.789025473689312e-05,0.0032277781695793095,0.0005489292050951666
149740000000.0,2,-0.02793914585,-0.36760227524999994,0.1105209455,-0.059453,-0.1572,0.16807,0.6465426278499999,-3.1243006234999995,-9.273168239999999,0.069609,0.32425,1.9391,0.00029999999999996696,0.00019999999999997797,4.999999999988347e-05,-8.25442462047965e-05,0.0036568748620273706,0.0004907203607691923
149740000000.0,2,-0.09991995684999999,-0.09156469105,0.11358062029999999,-0.055903,0.005831,0.14644,0.6356278263999999,-3.1232218919999997,-9.2742469715,0.068429,0.32413,1.9408,0.00019999999999997797,9.999999999998899e-05,5.0000000000105516e-05,0.00015473585386938105,0.0023126278880305495,0.0012026377910068775
149740000000.0,2,-0.29248333625,-0.0011081514499999999,0.16593832464999997,-0.034167,0.16766,0.11204,0.64367908605,-3.1203779634999997,-9.274639237499999,0.069291,0.32381,1.9421,0.00019999999999997797,0.00019999999999997797,3.333333333332966e-05,0.0008918254125086511,0.0009839781090603683,0.0015631453184591498
149740000000.0,2,-0.27789104105,-0.0932416282,0.08714189189999999,-0.016867,0.30502,0.072333,0.66664626035,-3.1189069659999995,-9.273560505999999,0.071763,0.32366,1.943,9.999999999998899e-05,9.999999999998899e-05,3.333333333332966e-05,-0.00022276498715506632,-0.0016928988676354617,0.0014100949496284043
149740000000.0,2,-0.21763898345,-0.07800209409999999,0.11764057339999999,-0.007627,0.36254,0.023147,0.6982727066,-3.1182205004999997,-9.271403043,0.075173,0.32359,1.9434,9.999999999998899e-05,9.999999999998899e-05,3.333333333332966e-05,-2.7500437742300488e-05,-0.003548769228844284,0.001428432194308174
149740000000.0,2,-0.25134443949999996,-0.01169933345,0.10688267835,-0.007639,0.32742,-0.030157,0.72464278845,-3.1189069659999995,-9.26924558,0.078019,0.32366,1.9434,-5.0000000000105516e-05,9.999999999998899e-05,0.00010000000000021103,-0.000745801113402389,-0.0034295408613658207,0.0018610573498071825
149740000000.0,2,-0.16952755854999998,-0.056662823699999997,0.082571993,-0.016772,0.22418,-0.075889,0.75027737155,-3.1170437025,-9.2677745825,0.080779,0.32346,1.9428,-4.999999999988347e-05,0.00019999999999997797,9.999999999998899e-05,0.00016051655685839217,-0.0031544157136214057,0.000658958071442492
149740000000.0,2,-0.007472667299999999,-0.10619621285,-0.0252815437,-0.025104,0.094279,-0.1109,0.76524231945,-3.114199774,-9.267480382999999,0.082385,0.32315,1.9417,-9.999999999998899e-05,0.00019999999999997797,9.999999999998899e-05,0.0007569757985140257,-0.00216402088075629,0.00028445152929067186
149740000000.0,2,0.08903457534999999,-0.12439735525,-0.09933155785,-0.03509,0.038962,-0.12256,0.7733229990499999,-3.1102771139999996,-9.2681668485,0.083247,0.32274,1.9404,-9.999999999998899e-05,9.999999999998899e-05,9.999999999998899e-05,0.00018015863464665438,-0.0011788824631548955,-0.0009456010888305583
149740000000.0,2,0.09923349135,-0.1297812061,-0.09687989535,-0.038176,0.061356,-0.10873,0.78452219335,-3.1082177175,-9.267872649,0.084448,0.32251,1.9392,-9.999999999998899e-05,9.999999999998899e-05,9.999999999998899e-05,0.00040720323857307283,-0.0006816111970155969,-0.0008128992391188417
149740000000.0,2,0.07176506469999999,0.020986230999999998,-0.06932320885,-0.038958,0.10504,-0.096,0.7962803667,-3.103804725,-9.2683629815,0.085703,0.32204,1.9382,-9.999999999998899e-05,0.00010000000000021103,9.999999999998899e-05,0.0006495987378833945,-0.0008599621217098008,-0.0008320385634389277
149740000000.0,2,-0.0379517355,0.0240459058,0.02756649315,-0.041696,0.16686,-0.089709,0.81307915815,-3.099293666,-9.268461047999999,0.087501,0.32155,1.9372,-9.999999999998899e-05,9.999999999998899e-05,5.0000000000105516e-05,0.0013046347669372071,-0.001157703683321909,-0.0005680177487525639
149740000000.0,2,-0.07325567549999999,-0.05351488905,0.13674392759999998,-0.051858,0.24896,-0.059984,0.8364091785,-3.0940961415,-9.268068782,0.090003,0.321,1.9366,-9.999999999998899e-05,9.999999999998899e-05,4.999999999988347e-05,0.0016144650778751046,-0.0016682282748192723,-0.00048013379876109263
149740000000.0,2,-0.10555878059999999,-0.01583773975,0.20170317719999997,-0.093824,0.35796,-0.027158,0.8657212553499999,-3.088702484,-9.2671861835,0.093148,0.32041,1.9364,-3.333333333332966e-05,9.999999999998899e-05,-4.999999999988347e-05,0.0003831717830604653,-0.0024860177632597402,0.00011602387724368723
149740000000.0,2,-0.28836454325,-0.0060703163499999995,0.35149975595,-0.14997,0.42553,0.000378,0.90800753015,-3.0733060434999997,-9.268264915,0.097658,0.31876,1.9363,-3.333333333332966e-05,9.999999999998899e-05,-5.0000000000105516e-05,0.0022436881115232565,-0.0027860315028289673,0.0008697095178092223
149740000000.0,2,-0.15469009709999998,0.08917186845,0.3000442634,-0.17815,0.39695,0.042008,0.9441842619999999,-3.0578115364999996,-9.2697359125,0.10151,0.3171,1.9369,-3.333333333332966e-05,9.999999999998899e-05,-9.999999999998899e-05,0.0021861973401145485,-0.004421335604674503,0.0011755936221376218
149740000000.0,2,-0.4250300176499999,-0.06752859189999999,0.36854371365,-0.16086,0.27854,0.023033,0.9728589066,-3.0425131625,-9.271795309,0.10454,0.31546,1.9374,-5.0000000000105516e-05,5.0000000000105516e-05,-9.999999999998899e-05,0.0016213334016393355,-0.0025432274205954286,0.0019051968877582814
149740000000.0,2,-0.34780264889999996,-0.27581203125,0.3841657071,-0.11073,0.11406,-0.019279,0.97883115645,-3.0413363645,-9.271599175999999,0.10518,0.31533,1.9377,-4.999999999988347e-05,4.999999999988347e-05,-9.999999999998899e-05,0.001978200443336686,-0.00132776366704479,0.00041568279105066996
149740000000.0,2,0.07283398954999999,-0.1407254275,0.0561528779,-0.051069,-0.064332,-0.073299,0.9786644433999999,-3.0345697759999997,-9.2738547055,0.10514,0.31461,1.9372,-0.00010000000000021103,4.999999999988347e-05,-0.00019999999999997797,0.0012973224620350665,-0.000512362533913846,-0.00035190556597419764
149740000000.0,2,-0.1634572422,-0.1297419795,0.0273997801,-0.010273,-0.20739,-0.13916,0.9661119314,-3.031823914,-9.2760121685,0.10378,0.31431,1.9359,-9.999999999998899e-05,5.0000000000105516e-05,-0.00010000000000021103,-0.0004801687091425255,0.00040647773795976505,-0.0011754967628027913
149740000000.0,2,-0.21329463749999997,-0.24024331169999996,-0.008953471449999998,-0.006262,-0.27875,-0.202,0.9472733567499999,-3.0294703179999996,-9.278758030499999,0.10174,0.31406,1.934,-0.00029999999999996696,-3.333333333332966e-05,-4.999999999988347e-05,-0.0004998962495084691,0.0014346140957022246,-0.002654402120999405
149740000000.0,2,-0.26392637145,-0.2833141185,0.14530513305,-0.022176,-0.29564,-0.24362,0.91889291165,-3.0345697759999997,-9.279934828499998,0.098698,0.31461,1.9318,-0.0004999999999999449,-3.333333333332966e-05,-5.0000000000105516e-05,-0.0004294288582879502,0.002878166739777477,-0.0033739615715065313
149740000000.0,2,-0.33520110365,-0.14581507885,0.25500231994999994,-0.025315,-0.29136,-0.24683,0.8897573545,-3.0359427070000002,-9.282386491,0.095563,0.31475,1.9295,-0.0004999999999999449,-3.333333333332966e-05,-0.00019999999999997797,0.0013261235905188684,0.0032706449487431843,-0.004131445668237199
149740000000.0,2,-0.32242303869999994,-0.0975369409,0.2815685348,-0.013454,-0.26699,-0.23083,0.8627694536999999,-3.0371195049999997,-9.284543954,0.09266,0.31487,1.9274,-0.00039999999999995595,-4.999999999988347e-05,-0.00029999999999996696,0.0008344153081009664,0.0013707668367968218,-0.002911983036458121
149740000000.0,2,-0.31084138505000003,-0.12512304735,0.28450072314999997,-0.014286,-0.21376,-0.19036,0.8393609801499999,-3.0396692339999998,-9.2858188185,0.090147,0.31516,1.9255,-0.000500000000000167,-5.0000000000105516e-05,-0.00019999999999997797,0.001106230550515619,0.0019508080728845023,-0.003350458876784243
149740000000.0,2,-0.22262076164999997,-0.28190196089999997,0.2242388589,-0.050223,-0.14638,-0.14677,0.8228171616000001,-3.0436899604999996,-9.2860149515,0.088378,0.31558,1.9241,-0.0004999999999999449,-9.999999999998899e-05,-0.00019999999999997797,0.0009797956572282773,0.0013631303929553251,-0.001959627035846248
149740000000.0,2,-0.15717117954999998,-0.43835725499999995,0.16869399329999998,-0.11581,-0.067016,-0.12781,0.8145305423499999,-3.045553224,-9.286113018,0.087491,0.31578,1.923,-0.0004999999999999449,-0.00019999999999997797,-9.999999999998899e-05,-0.00012559067047490657,0.0010234548048868586,-0.0022872701593085187
149740000000.0,2,-0.14795292855,-0.35706012649999996,0.2219441028,-0.19636,-0.00987,-0.13979,0.81294186505,-3.0381982364999995,-9.288662747,0.087298,0.315,1.9218,-0.0004999999999999449,-0.00019999999999997797,-0.00019999999999997797,-0.0006268256412904627,0.0003853843983199212,-0.0017585877685317997
149740000000.0,2,-0.11854278519999999,-0.2874329115,0.3585703506,-0.26547,0.000314,-0.16875,0.8154131408499999,-3.022801796,-9.2934680055,0.087516,0.31335,1.9205,-0.000500000000000167,-0.000400000000000178,-0.0004999999999999449,0.0022747621028553766,-0.00017242348880652791,-0.0011831807344281492
149740000000.0,2,-0.09470281905,-0.21975721984999996,0.3507838705,-0.29539,-0.031372,-0.2061,0.8176000238,-3.0015213655,-9.3001365275,0.087687,0.31106,1.9187,-0.0006999999999999229,-0.00029999999999996696,-0.000300000000000189,0.004349068941709278,-0.0006053924397853017,-0.001206460331829487
149740000000.0,2,-0.10594123994999999,-0.08932877485,0.3436838559,-0.28501,-0.092161,-0.2444,0.8156779204,-2.9766124745,-9.308276047,0.087405,0.30839,1.9166,-0.0006999999999999229,-0.00029999999999996696,-0.00039999999999995595,0.00393890475592934,0.0007725863964802571,-0.0022849873487943845
149740000000.0,2,-0.06875442315,0.024026292499999997,0.31627426915,-0.24364,-0.1383,-0.27093,0.8103627161,-2.9518016499999997,-9.316709765999999,0.086761,0.30574,1.9141,-0.000600000000000156,-0.00039999999999995595,-0.0006999999999999229,0.0022678534250500926,0.00019099893647078758,-0.0032487431557245428
149740000000.0,2,0.05810440124999999,0.0827877393,0.1539447917,-0.19022,-0.12702,-0.26659,0.8072540080499999,-2.9293444214999997,-9.3240647535,0.086362,0.30334,1.9114,-0.0008999999999999009,-0.00019999999999997797,-0.00019999999999997797,0.0010141878186099018,0.0012772372342717553,-0.00337858608138758
149740000000.0,2,0.1421571984,0.08569050769999999,0.06589088135,-0.14399,-0.065621,-0.23887,0.8068421287499999,-2.912967316,-9.329262278,0.086271,0.30159,1.9089,-0.0005999999999999339,-0.00029999999999996696,-0.000600000000000156,0.004808567789313711,0.00047475046340172966,-0.002442026595011637
149740000000.0,2,0.15648471404999997,0.12686863104999999,0.09772326725,-0.12134,-0.011501,-0.20156,0.8107745954,-2.8995322055,-9.333086871499999,0.086653,0.30015,1.9068,-0.000500000000000167,-0.00020000000000020002,-0.00039999999999995595,0.0007017042752139324,-0.0008841058919941691,-0.0022346211036379793
149740000000.0,2,0.12245563855,0.18897414549999997,0.1497083189,-0.12439,0.033236,-0.16002,0.81802170975,-2.8865874275,-9.336421132499998,0.087393,0.29878,1.9052,-0.0022999999999999687,0.00010000000000021103,0.0013000000000000789,0.0004234559617252165,0.0028812007282670304,-0.0016013766061126478
149740000000.0,2,0.1421571984,0.193583271,0.18898395215,-0.14489,0.033367,-0.1163,0.8292895506,-2.8691315905,-9.340834124999999,0.088549,0.29691,1.9038,-0.0025999999999999357,9.999999999998899e-05,0.0018000000000000238,-0.0017341512250824698,0.0018433933171342343,-0.0033903595485116345
149740000000.0,2,0.23825256174999998,0.10764759705,0.2588367201,-0.17509,0.019717,-0.07256,0.83375157635,-2.8527544849999997,-9.345443250499999,0.088979,0.29517,1.9031,-0.00029999999999996696,-0.00020000000000020002,-0.00039999999999995595,0.0020420934155769843,-0.002258653298255142,-0.0007425391825158778
149740000000.0,2,0.26681933319999995,0.12044527529999999,0.2236112333,-0.18715,0.004855,-0.030926,0.83571290635,-2.8352005814999997,-9.350640775,0.089138,0.29329,1.9029,-0.00039999999999995595,-0.00019999999999997797,-0.000500000000000167,0.0034744413723614143,-6.331606269038836e-05,-0.0005786823714362677
149740000000.0,2,0.23287851755,0.19751573764999997,0.2021935097,-0.18219,-0.029307,-0.00951,0.8343399753499999,-2.817842811,-9.355936366,0.088942,0.29145,1.9029,-0.000500000000000167,-0.00019999999999997797,-0.00029999999999996696,0.002796134787071247,-7.064259221145619e-06,2.5741014059055267e-05
149740000000.0,2,0.28346121825,0.24126320329999998,0.1365674079,-0.15181,-0.086041,0.00985,0.8352323804999999,-2.7973469124999997,-9.362016488999998,0.088979,0.28927,1.9029,-9.999999999998899e-05,0.0048000000000001375,-0.005800000000000027,0.014271698515734399,0.007390028485447786,0.0014741215270248909
149740000000.0,2,0.43856319464999993,0.24852012429999998,-0.0031185146999999996,-0.10647,-0.14504,0.022841,0.8224347022499999,-2.7863634645,-9.366429481499999,0.087582,0.2881,1.9032,-9.999999999998899e-05,-9.999999999998899e-05,-0.0004999999999999449,0.0020675978672015094,0.0005554860171255172,-0.00040423501257577654
149740000000.0,2,0.4941767068,0.109638347,-0.09740945445,-0.063066,-0.17419,0.044316,0.8055672642499999,-2.7797930089999996,-9.369861809,0.085764,0.2874,1.9036,-9.999999999998899e-05,-9.999999999998899e-05,-0.00039999999999995595,0.00105407416630382,0.0003303100202221021,-8.549227543525051e-05
149740000000.0,2,0.5061408197999999,0.11449263874999999,-0.09762520075,-0.035411,-0.17018,0.06784,0.7876309013999999,-2.7765568144999997,-9.372313471499998,0.08384,0.28706,1.9043,-0.00029999999999996696,-0.00020000000000020002,-0.0005999999999999339,-0.0014250449394093145,0.0012352604598147021,0.0007364112297214009
149740000000.0,2,0.43063942145,0.044737937299999996,-0.0325384647,-0.033083,-0.14035,0.076321,0.7824726034999999,-2.7724380215,-9.373980602,0.08328,0.28662,1.9048,-5.0000000000105516e-05,-9.999999999998899e-05,-0.000400000000000178,-0.0007963431414200195,0.0015488378569472605,0.0002761756150502226
149740000000.0,2,0.35926662275,0.10458792224999998,-0.055103566349999994,-0.055071,-0.090083,0.072992,0.7706457835999999,-2.768613428,-9.376138065,0.082008,0.28621,1.9056,-4.999999999988347e-05,-9.999999999998899e-05,-0.00029999999999996696,-0.0006815890145294157,0.0013758216028842973,0.00031437755234475784
149740000000.0,2,0.32415881575,0.08562186114999999,-0.0479937451,-0.08566,-0.05146,0.064332,0.7632515695,-2.7617487729999994,-9.378687794,0.081202,0.28548,1.9064,-4.999999999988347e-05,-9.999999999998899e-05,-0.0005999999999999339,-0.0031651037722421616,0.002869774966435479,0.0005616537914830133
149740000000.0,2,0.3278363095,-0.07844339334999999,-0.0359707922,-0.099214,-0.01724,0.055709,0.7592798762499999,-2.7530208544999994,-9.381629789,0.080757,0.28455,1.907,-5.0000000000105516e-05,-9.999999999998899e-05,-0.00039999999999995595,0.0018778983398609062,0.00032098368682720313,0.0006371229957291835
149740000000.0,2,0.25126598629999997,-0.1467467106,-0.08073814945,-0.094668,0.016832,0.055652,0.7649187,-2.7469407315,-9.382904653499999,0.081342,0.28391,1.9075,-5.0000000000105516e-05,-9.999999999998899e-05,-0.00019999999999997797,0.00041576340906318565,-0.0005105318897906663,0.0006069658378562715
149740000000.0,2,0.13542983649999998,-0.06620469414999999,-0.009924329800000001,-0.07099,0.048595,0.065243,0.7670369363999999,-2.7400760765,-9.384767917,0.081551,0.28318,1.9082,-4.999999999988347e-05,-9.999999999998899e-05,-0.000400000000000178,-0.0006679710385933957,-0.00034538998273303534,0.0011321914220054907
149740000000.0,2,0.06493963629999999,-0.0054328841,-0.12862402139999998,-0.022948,0.055653,0.070651,0.7701848710499999,-2.7373302144999996,-9.385356316,0.081879,0.28288,1.909,0.0043999999999999595,-0.005400000000000071,0.001000000000000112,-0.0021369792132456267,-0.00786800065090354,-0.000655582265386645
149740000000.0,2,-0.015504313649999999,0.023349633649999996,-0.27784200779999996,0.035737,0.054107,0.066486,0.7726659534999999,-2.7372321479999995,-9.385160183,0.082143,0.28287,1.9097,-4.999999999988347e-05,-9.999999999998899e-05,-0.00019999999999997797,0.0005738141849090383,-0.0003383703969492835,0.000838544483529241
149740000000.0,2,-0.02019189235,0.07355968165,-0.37855630329999995,0.099801,0.051462,0.052726,0.7760100211500001,-2.745469734,-9.382414321,0.082521,0.28375,1.9102,-5.0000000000105516e-05,2.4999999999941735e-05,9.999999999998899e-05,-0.0006768030534425318,-0.0005689126853265503,0.0005646255423703284
149740000000.0,2,0.0040795664,0.06945069529999999,-0.42165653005,0.14894,0.050007,0.03787,0.7797267414999999,-2.7587087114999997,-9.378295527999999,0.082951,0.28516,1.9105,-5.0000000000105516e-05,2.500000000016378e-05,9.999999999998899e-05,-0.001383865518699956,-0.00062483790385226,0.0005831832466136333
149740000000.0,2,-0.01005181625,0.0508769002,-0.3899516306,0.17028,0.041321,0.024046,0.7830806158,-2.7745954845,-9.3732941365,0.08335,0.28685,1.9107,-4.999999999988347e-05,2.4999999999941735e-05,9.999999999998899e-05,-0.0031073512178561025,-0.0009150221941609527,0.00014244961928241984
149740000000.0,2,-0.026713314599999996,0.026281822,-0.3461551317,0.17148,0.047722,0.005892,0.7856793780499999,-2.7881286615,-9.369077276999999,0.083663,0.28829,1.9107,-6.666666666665932e-05,2.4999999999941735e-05,9.999999999998899e-05,-0.0016921807449508108,-0.0005896780492242737,0.0006126040054202642
149740000000.0,2,-0.07904159899999999,-0.015180694199999997,-0.3154407039,0.16746,0.068018,-0.010162,0.7917693077,-2.8038193015,-9.363879752499999,0.084355,0.28996,1.9104,-6.666666666665932e-05,3.333333333332966e-05,9.999999999998899e-05,-0.001247589341309585,-0.0006641500637645237,0.00028887519996145805
149740000000.0,2,-0.12376972965,-0.042521634399999994,-0.27302694265,0.17091,0.092511,-0.021941,0.8004285796499999,-2.819608008,-9.358388028499999,0.085323,0.29163,1.9101,-6.666666666665932e-05,3.333333333355171e-05,0.00019999999999997797,-0.001384088001779915,-0.0006913353092248276,0.00016467551536947234
149740000000.0,2,-0.17391113109999998,-0.013003617899999998,-0.2205907851,0.18278,0.10521,-0.027279,0.8107745954,-2.8362793129999995,-9.3525040385,0.086475,0.29341,1.9097,-9.999999999998899e-05,3.333333333332966e-05,0.00029999999999996696,-0.0011755739632130502,-0.0007696242671573206,0.00013019327243377066
149740000000.0,2,-0.202605389,0.011454167199999999,-0.1082065761,0.1924,0.10831,-0.026197,0.81611921965,-2.853342884,-9.3468161815,0.087094,0.29523,1.9094,-0.00029999999999996696,4.999999999988347e-05,0.00019999999999997797,-0.001977394885260886,-0.001005108812006661,0.00028726955021843303
149740000000.0,2,-0.16164301195,-0.0197309798,-0.07522681214999999,0.19334,0.1019,-0.012308,0.82633774895,-2.8712890535,-9.340441858999998,0.088239,0.29714,1.909,-0.00019999999999997797,5.0000000000105516e-05,0.000400000000000178,-0.0017804047102638054,-0.0009013082367546055,-0.00023478962286530014
149740000000.0,2,-0.17281278629999997,-0.038255741649999994,-0.09230999644999999,0.189,0.095534,-0.006967,0.8358600061,-2.8889410235,-9.3340675365,0.08931,0.29903,1.9087,-0.000300000000000189,-1.0000000000065512e-05,0.00029999999999996696,-0.0015737744709566903,-0.00113844087499948,1.8477439130498707e-05
149740000000.0,2,-0.15597476824999998,-0.01893664115,-0.08228760014999999,0.17284,0.079676,-0.000562,0.84385242585,-2.9054161954999995,-9.328281613,0.090217,0.30079,1.9086,-0.00019999999999997797,-9.999999999843467e-06,0.00029999999999996696,-0.0016601396561625736,-0.0013021802702166685,0.00028998313318237545
149740000000.0,2,-0.0069234948999999995,-0.01073828175,-0.08786758399999998,0.14923,0.069205,0.009022,0.8501384885,-2.920028104,-9.3230840885,0.090934,0.30235,1.9085,-0.00029999999999996696,-1.0000000000065512e-05,0.00039999999999995595,-0.0020772630542973958,-0.0012181414529328638,2.3434927010873574e-05
149740000000.0,2,0.08842656305,-0.04182536225,-0.10035144945,0.12576,0.072592,0.015378,0.8587781471499999,-2.932972882,-9.31827883,0.091901,0.30373,1.9084,-0.00029999999999996696,-1.0000000000065512e-05,0.00039999999999995595,-0.0014917122633026358,-0.0007723385231841462,0.0003368817375831168
149740000000.0,2,0.1136983001,-0.00579573015,-0.01893664115,0.10228,0.074918,0.019601,0.8683788575,-2.9434659974999997,-9.314160036999999,0.092964,0.30484,1.9084,-9.999999999998899e-05,-1.0000000000065512e-05,9.999999999998899e-05,-0.0009860366239476948,-0.0009692598863009216,0.000658755542239875
149740000000.0,2,0.1430594102,0.0608992965,0.08642600645,0.078747,0.071914,0.027034,0.8786660333499999,-2.9507229185,-9.310825776,0.094092,0.30562,1.9085,-9.999999999998899e-05,-9.999999999843467e-06,0.00020000000000020002,-0.0013119566111535752,-0.0008257046858688444,0.0004705335205971717
149740000000.0,2,0.11057978539999999,0.1000670566,0.17486237615,0.063664,0.060306,0.037702,0.8836085849499999,-2.957293374,-9.308276047,0.094644,0.30632,1.9088,-0.00019999999999997797,-1.0000000000065512e-05,0.00019999999999997797,-0.001133315936220236,-0.0008102512687275798,0.0004490618037645
149740000000.0,2,0.14145111959999998,0.10478405525,0.24851031764999998,0.052771,0.042264,0.053726,0.8865603865999999,-2.9628831645,-9.3062166505,0.094979,0.30692,1.9093,-9.999999999998899e-05,-1.0000000000065512e-05,9.999999999998899e-05,-0.0004056054121997499,-0.000604518215688632,0.0007352894654392428
149740000000.0,2,0.25945453905,0.05981075835,0.24352853945,0.056746,0.017702,0.07299,0.8866192265,-2.9685710214999994,-9.304353386999999,0.095004,0.30754,1.9099,-9.999999999998899e-05,-9.999999999843467e-06,0.00019999999999997797,-0.0009036834333291388,-0.0001599556308515826,0.00044336381492032784
149740000000.0,2,0.276351397,0.0828073526,0.23963529939999997,0.068238,-0.006897,0.082654,0.8924639899,-2.97533761,-9.3017055915,0.095654,0.30826,1.9104,1.1111111111183902e-05,-1.0000000000065512e-05,9.999999999998899e-05,-0.0006305940130958976,0.00015385424235314638,0.0006699614705619472
149740000000.0,2,0.2542864345,0.15469990375,0.30444744925,0.073423,-0.028247,0.078431,0.8879038976499999,-2.9826925974999994,-9.299744261499999,0.095187,0.30905,1.9112,1.1111111110961858e-05,9.999999999998899e-05,9.999999999998899e-05,-0.001469539641905604,0.0002253220860921612,0.0007660263941718093
149740000000.0,2,0.20188950355,0.18701281549999998,0.2656425352,0.072368,-0.036746,0.062433,0.8825396601,-2.9900475849999997,-9.297880997999998,0.094634,0.30983,1.9118,1.1111111111183902e-05,-9.999999999998899e-05,9.999999999998899e-05,-0.0011706642614321416,0.00047958836542960626,0.00017260510739336432
149740000000.0,2,0.17686293274999998,0.15637684089999998,0.20976424349999997,0.062911,-0.029191,0.045325,0.8780776343499999,-2.9966180405,-9.296213867499999,0.094176,0.31054,1.9123,1.1111111111183902e-05,-2.0000000000131024e-05,5.0000000000105516e-05,-0.0008586927568805525,0.00027800538290678745,0.0002585069730564604
149740000000.0,2,0.18659112954999998,0.08202282059999999,0.1971725049,0.041778,-0.008752,0.036709,0.8813726687499999,-3.0008348999999996,-9.294546737,0.094544,0.31099,1.9124,1.1111111110961858e-05,-1.999999999990898e-05,4.999999999988347e-05,-0.0007639910491538671,0.00022951067257004354,0.0004469404380367248
149740000000.0,2,0.18060907304999999,0.0574081291,0.16562451185,0.013213,0.020257,0.034473,0.8815197684999999,-3.0029923629999997,-9.2938602715,0.094567,0.31122,1.9128,1.1111111111183902e-05,-2.0000000000131024e-05,-9.999999999998899e-05,-0.00036853983351420316,0.00019735093653538982,0.00021808285890673185
149740000000.0,2,0.13614572195,0.03217561865,0.16512437269999997,-0.016483,0.041815,0.033317,0.8839420110499999,-3.0025020304999996,-9.293762205,0.094826,0.31117,1.9131,1.1111111111183902e-05,-1.999999999990898e-05,-5.0000000000105516e-05,-0.00030573675669842704,-0.00036740308521876486,0.0004991879779970843
149740000000.0,2,0.0638412915,0.011964112999999998,0.19489736209999997,-0.04524,0.049509,0.035388,0.8874037585,-2.9991677694999996,-9.294546737,0.095188,0.31081,1.9135,1.1111111110961858e-05,-2.0000000000131024e-05,-4.999999999988347e-05,0.0001103301776343435,-0.0004300572282096571,0.00041451424418620375
149740000000.0,2,0.033568162949999994,-0.00383440015,0.1655558653,-0.059143,0.044299,0.034305,0.8920913371999999,-2.9955393089999998,-9.295233202499999,0.09568,0.31042,1.9139,1.1111111111183902e-05,-4.999999999988347e-05,-0.00019999999999997797,0.0005430247262029342,-0.0004742762058354,0.0005327845020433597
149740000000.0,2,-0.0395011862,-0.02191786275,0.07187293784999998,-0.057123,0.024044,0.025806,0.8933367817499999,-2.9932837795,-9.2958216015,0.095807,0.31018,1.9143,-2.4999999999941735e-05,-5.0000000000105516e-05,-9.999999999998899e-05,0.0009621987435390889,-0.00020078094663222856,0.00047051146985815917
149740000000.0,2,-0.03949137955,-0.02589936265,0.073157609,-0.038028,-0.001668,0.006671,0.8933269750999999,-2.9892630529999997,-9.297096466,0.095792,0.30975,1.9145,-2.500000000016378e-05,-5.0000000000105516e-05,-0.00019999999999997797,0.000937241700393554,4.641948578498756e-05,0.0006820345167226072
149740000000.0,2,-0.0241635856,0.013376270599999998,-0.0226925881,-0.003844,-0.006197,-0.009272,0.89221882365,-2.9875959224999997,-9.297782931499999,0.095667,0.30957,1.9144,-2.4999999999941735e-05,-4.999999999988347e-05,-9.999999999998899e-05,0.000686561786815143,-1.862512799766236e-06,5.803630551970418e-05
149740000000.0,2,-0.0083160392,0.03368584275,-0.06751878524999999,0.027319,0.015934,-0.018864,0.89327794185,-2.9879881885,-9.2975867985,0.095783,0.30961,1.9142,-2.4999999999941735e-05,-9.999999999998899e-05,-9.999999999998899e-05,2.124942093528759e-05,-1.407161533850676e-05,-8.413293220516094e-05
149740000000.0,2,-0.0395992527,0.06967624825,-0.035039160449999995,0.04467,0.046699,-0.02636,0.8967298826499999,-2.9897533854999994,-9.296704199999999,0.096159,0.3098,1.914,-9.999999999998899e-05,1.666666666655381e-05,1.999999999990898e-05,-0.0001789639632299167,-0.00026691748529761306,-0.00012513068505454195
149740000000.0,2,-0.07416769395,0.10964815365,-0.05243615755,0.061958,0.067877,-0.03704,0.90196663375,-2.9920089149999995,-9.2954293355,0.09673,0.31004,1.9136,-9.999999999998899e-05,1.6666666666775853e-05,2.0000000000131024e-05,-0.00016618670022583437,-0.0006258061855082264,-3.031102359235538e-05
149740000000.0,2,-0.057427742399999995,0.09927271794999999,-0.0191033542,0.081081,0.054935,-0.042321,0.9076741040499999,-2.9964219075,-9.2934680055,0.097359,0.31051,1.9131,-9.999999999998899e-05,1.6666666666775853e-05,1.999999999990898e-05,-0.00044987491064213403,-0.0005209532742185274,-0.00019617089519152753
149740000000.0,2,-0.0067862018,0.087475318,0.0213196571,0.094721,0.023925,-0.046512,0.91208709655,-3.0028942964999996,-9.2909182765,0.097856,0.31121,1.9126,-9.999999999998899e-05,1.666666666655381e-05,2.0000000000131024e-05,-0.0001253758027108809,-0.0009442937261936457,-9.328389379065216e-05
149740000000.0,2,-0.0027850886,0.10015531644999999,0.03717701015,0.11036,-0.026279,-0.053869,0.9125872357,-3.01064155,-9.2883685475,0.097936,0.31204,1.9119,-0.00020000000000020002,1.666666666655381e-05,1.999999999990898e-05,-0.000516755138153302,0.00023499819621419782,-0.0004944553341278413
149740000000.0,2,-0.00020593964999999999,0.09684066875,0.07136299204999999,0.12388,-0.073271,-0.0591,0.90865476905,-3.019859801,-9.285720752,0.097544,0.31303,1.9112,-9.999999999998899e-05,1.6666666666775853e-05,-9.999999999998899e-05,-0.0009718712786309647,-0.00025262894765321064,-0.0005343575297181435
149740000000.0,2,0.0076688003,0.08418028359999999,0.0336956494,0.13219,-0.10211,-0.062237,0.90167243425,-3.0300587169999997,-9.2830729565,0.096827,0.31412,1.9104,-0.00019999999999997797,3.333333333332966e-05,9.999999999998899e-05,-0.0015342453651668864,0.00013238448307095751,-0.0007552435932016155
149740000000.0,2,0.0072961475999999996,0.05515259959999999,-0.016994924449999997,0.14078,-0.096848,-0.064366,0.8942684134999999,-3.0413363645,-9.2801309615,0.096067,0.31533,1.9096,-9.999999999998899e-05,3.333333333332966e-05,9.999999999998899e-05,-0.0016661053857197627,0.0005499881519501759,-0.0010003139674670813
149740000000.0,2,-0.01817172245,0.0547603336,-0.0587614468,0.14841,-0.069218,-0.053727,0.8881686771999999,-3.053202411,-9.276796700499998,0.095449,0.3166,1.9089,-0.00029999999999996696,3.333333333332966e-05,9.999999999998899e-05,-0.001501722427109775,0.0008435924479530676,-0.0009905898931339974
149740000000.0,2,0.0185737951,0.12190646614999999,-0.06712651925,0.15709,-0.045853,-0.046282,0.8853835886,-3.0643819919999995,-9.273364373,0.095187,0.3178,1.9082,-9.999999999998899e-05,9.999999999998899e-05,9.999999999998899e-05,-0.0014602315529345655,0.0006454315225112861,-0.0003646809498665249
149740000000.0,2,0.06387071144999999,0.1493356662,-0.03682397075,0.15604,-0.043709,-0.047356,0.8842264039,-3.0753654399999997,-9.2699320455,0.0951,0.31898,1.9075,-0.00019999999999997797,0.00010000000000021103,9.999999999998899e-05,-0.0018534947213993402,0.0003223722230305537,-0.000671898548946448
149740000000.0,2,0.08800487709999999,0.1267411446,-0.00034323274999999994,0.16541,-0.068293,-0.041962,0.88404007755,-3.0848778905,-9.266695851,0.095112,0.32001,1.9068,-0.00019999999999997797,9.999999999998899e-05,9.999999999998899e-05,-0.0018515303341792855,-0.00022652381210752637,-0.0008767841496575557
149740000000.0,2,0.09654646924999999,0.14322612325,-0.0050308114499999996,0.18524,-0.11429,-0.025836,0.8754984853999999,-3.1014511289999995,-9.261988658999998,0.094246,0.32178,1.9063,-9.999999999998899e-05,9.999999999998899e-05,9.999999999998899e-05,-0.0014618896912329538,0.000488253719748144,-0.0006192430125155357
149740000000.0,2,0.03807922195,0.2200219994,0.06099736299999999,0.19753,-0.16556,-0.006512,0.8624360275999999,-3.1156707714999996,-9.258458265,0.092883,0.32331,1.906,-0.00019999999999997797,9.999999999998899e-05,0.00019999999999997797,-0.0018771273031000235,0.0014745476988267114,-0.0012160851457916622
149740000000.0,2,0.042815833899999996,0.23176055945,0.0526813238,0.20976,-0.22748,0.006426,0.8434895798000001,-3.130871079,-9.255124004,0.090886,0.32494,1.9058,-9.999999999998899e-05,0.00019999999999997797,0.0001500000000000945,-0.0018580776001597132,0.0013134175263165293,-0.0005766067191735058
149740000000.0,2,0.11029539255,0.1368027675,0.11576750324999999,0.22,-0.27978,0.007603,0.82045375895,-3.1495037139999997,-9.250809078,0.088458,0.32695,1.9056,-9.999999999998899e-05,9.999999999998899e-05,0.00014999999999987246,-0.002450928952118625,0.0017810876346593396,-0.0007061142746549454
149740000000.0,2,0.1596326487,0.07739408179999999,0.1973686379,0.22414,-0.29366,0.01297,0.79625094675,-3.1703918785,-9.2458076865,0.085908,0.32921,1.9054,-9.999999999998899e-05,0.00019999999999997797,-3.333333333332966e-05,-0.002326021757778962,0.0018829291877620058,-0.0004255873323553705
149740000000.0,2,0.1006358423,-0.0213981103,0.332053169,0.20626,-0.25729,0.020346,0.7728032466,-3.1931433065,-9.240021763,0.083442,0.33165,1.9053,-2.0000000000131024e-05,9.999999999998899e-05,-3.333333333332966e-05,-0.0023976889571014626,0.0022313576780468303,-0.0007121515091371988
149740000000.0,2,0.07102956595,-0.08042433665,0.3899712439,0.16944,-0.19092,0.023368,0.7543667446,-3.2143256705,-9.234137772999999,0.081512,0.33394,1.9053,-1.999999999990898e-05,9.999999999998899e-05,-3.333333333332966e-05,-0.0014985591249632169,0.0020941177041107206,-0.0002703600245012039
149740000000.0,2,-0.0062566426999999996,-0.14646231775,0.34270319089999995,0.12743,-0.1149,0.013555,0.741578873,-3.2326641059999996,-9.2287441155,0.080183,0.33592,1.9054,-2.0000000000131024e-05,9.999999999998899e-05,-4.999999999988347e-05,-0.0017096602416774576,0.001660831101286675,-0.0003472488555311126
149740000000.0,2,-0.0009708583499999999,-0.0282039254,0.26345565225,0.089634,-0.04106,0.00909,0.73613618225,-3.2443340195,-9.225115655,0.079629,0.33719,1.9054,-1.999999999990898e-05,9.999999999998899e-05,-5.0000000000105516e-05,-0.0014355481703435258,0.0007108830108015773,-0.00024240625173072017
149740000000.0,2,-0.0007060788,0.11451225204999999,0.18282537594999998,0.058094,0.015681,0.005733,0.73662651475,-3.249727677,-9.223154325,0.079697,0.33776,1.9054,-2.0000000000131024e-05,9.999999999998899e-05,-0.00019999999999997797,-0.0013177463968989112,0.00046726636312444114,0.00023274500992545577
149740000000.0,2,0.00697252815,0.0814344216,0.1544351242,0.029517,0.042561,0.002434,0.74047072155,-3.2525716055,-9.2218794605,0.080123,0.33807,1.9054,-5.0000000000105516e-05,5.0000000000105516e-05,-9.999999999998899e-05,-0.0007856294338427494,-0.00023456861998916168,0.0001276446657482999
149740000000.0,2,-0.015494507,0.04333558635,0.08701440545,0.014603,0.044816,0.001337,0.7446777743999999,-3.2539445364999997,-9.220996862,0.080583,0.33822,1.9054,-4.999999999988347e-05,4.999999999988347e-05,-0.00019999999999997797,-0.0009238551385155058,-0.00036738237478917135,0.00029564667061765526
149740000000.0,2,-0.01434712895,0.038893173899999994,0.038049802,0.007082,0.031037,-0.010394,0.7478649356499999,-3.2541406695,-9.220702662499999,0.08093,0.33824,1.9053,-9.999999999998899e-05,9.999999999998899e-05,-0.00029999999999996696,6.140505303292576e-05,-0.00042626470506479386,0.0001524339159320598
149740000000.0,2,-0.00226533615,0.0766095498,0.019377940399999998,0.02306,0.012816,-0.034884,0.75045389125,-3.2543368024999997,-9.220408462999998,0.081211,0.33826,1.905,-0.00019999999999997797,5.0000000000105516e-05,-9.999999999998899e-05,-0.0009761466681201814,-0.000699418781765937,-0.0005017813072316357
149740000000.0,2,0.0710197593,0.07178467799999999,0.02917478375,0.050967,0.017943,-0.060464,0.75527876305,-3.256788465,-9.2191335985,0.081742,0.33853,1.9044,-9.999999999998899e-05,4.999999999988347e-05,-9.999999999998899e-05,-0.0004497532814787264,-0.0005279770578194842,-0.0001742218490337899
149740000000.0,2,0.1303696051,-0.0270271274,0.0593694591,0.079861,0.021984,-0.071096,0.76251607075,-3.2641434524999995,-9.2159954705,0.08255,0.33932,1.9035,-0.00019999999999997797,9.999999999998899e-05,-0.00010000000000021103,-0.0001155111723384894,-0.00042124842685731245,-0.0005833517066378691
149740000000.0,2,0.1444715678,0.00965955025,0.09714467489999999,0.11545,0.065393,-0.076449,0.7717637417,-3.2735578364999998,-9.2118766775,0.083584,0.34034,1.9025,-9.999999999998899e-05,9.999999999998899e-05,-0.00019999999999997797,-0.0004616399320838127,-0.000915750878134336,-0.000752804152902381
149740000000.0,2,-0.016896857949999997,0.025889555999999998,-0.19152387449999997,0.18335,0.1437,-0.089279,0.78587551105,-3.286600681,-9.205992687499998,0.085159,0.34176,1.9014,-0.00019999999999997797,9.999999999998899e-05,-9.999999999998899e-05,-0.00039511846111706106,-0.0009119208571624071,-0.0004437033665213308
149740000000.0,2,0.0650965427,0.0894954879,0.02848831825,0.22752,0.20088,-0.0829,0.8077443405499999,-3.3050371829999996,-9.1975589685,0.087597,0.34375,1.9003,-9.999999999998899e-05,0.00010000000000021103,-9.999999999998899e-05,-0.0017138611920408664,-0.0022153041442207755,-0.0004949450809652589
149740000000.0,2,-0.00293218835,0.1472762697,-0.1316640829,0.248,0.23054,-0.079716,0.8325257450999999,-3.3222968870000003,-9.1891252495,0.090352,0.34562,1.8992,-3.333333333332966e-05,0.00019999999999997797,-9.999999999998899e-05,-0.0014332246112923608,-0.0023893136053347863,0.00021757862269872197
149740000000.0,2,-0.02797837245,0.16920393909999998,-0.14193164544999998,0.24278,0.25508,-0.063757,0.8575719291999999,-3.3442637829999997,-9.178828267,0.093158,0.348,1.8982,-3.333333333332966e-05,0.00019999999999997797,9.999999999998899e-05,-0.00205943729693997,-0.0023727795908368154,0.00010897453206568097
149740000000.0,2,0.0916921775,0.15846565734999998,-0.15705349975,0.2281,0.30206,-0.040385,0.8878352511,-3.3617196199999997,-9.1695119495,0.096524,0.3499,1.8974,-3.333333333332966e-05,0.00019999999999997797,0.00014999999999987246,-0.002421990656456041,-0.002626026997158082,0.0002797900957285382
149740000000.0,2,0.05707470299999999,-0.028125472199999998,-0.14803138175,0.21877,0.3405,-0.034065,0.9208150150499999,-3.3816271195,-9.159018834,0.1002,0.35206,1.8967,-0.00019999999999997797,0.00019999999999997797,0.0001500000000000945,-0.003585323615414193,-0.0033834878333589558,0.00044062526085028586
149740000000.0,2,0.012836904849999999,-0.0876518377,-0.08097350905,0.20497,0.34701,-0.037302,0.9545695043499999,-3.401730752,-9.148035386,0.10397,0.35424,1.8961,-9.999999999998899e-05,0.00019999999999997797,0.00020000000000020002,-0.0023836683445017104,-0.0040774127241940405,0.000323513041152107
149740000000.0,2,0.07815900049999999,-0.0185541818,-0.056780503499999996,0.1834,0.31629,-0.040488,0.987725788,-3.4188923895,-9.1381306695,0.10767,0.35611,1.8954,9.999999999998899e-05,0.00019999999999997797,9.999999999998899e-05,-0.0017070806019573448,-0.004126113339515403,0.0006131284935120829
149740000000.0,2,0.08539630819999999,0.004344345949999999,-0.0836311112,0.15739,0.25898,-0.05004,1.016557339,-3.4330139655,-9.1296969505,0.11089,0.35764,1.8946,9.999999999998899e-05,0.00019999999999997797,-0.00020000000000020002,-0.0016382916985557272,-0.004140711816944309,0.0011483426059985813
149740000000.0,2,0.2782146605,-0.10638253919999999,-0.038157675149999994,0.13233,0.20271,-0.036111,1.0457811559999999,-3.4469394085,-9.121165164999999,0.11416,0.35916,1.8937,-9.999999999998899e-05,0.00019999999999997797,0.00010000000000021103,-0.0006633392964691676,-0.00249461131999551,0.000544271354561171
149740000000.0,2,0.265367949,-0.09701718845,-0.0431884866,0.089786,0.11989,0.018399,1.0586278675,-3.4562557259999998,-9.1161637735,0.11561,0.36018,1.8936,-9.999999999998899e-05,0.00019999999999997797,0.00029999999999996696,-0.0010709582775935145,-0.0024757681011668975,0.00013365940131920828
149740000000.0,2,0.2695651952,-0.11453186535,0.04285506049999999,0.024938,0.061738,0.09204,1.0628447269999999,-3.4608648515,-9.113908244,0.11609,0.36068,1.8943,0.00029999999999996696,9.999999999998899e-05,-9.999999999998899e-05,-0.0005342201569654703,-0.0013657989132493942,0.001040937910958939
149740000000.0,2,0.25634583099999997,-0.18431598675,-0.0611346561,-0.034446,0.005697,0.14327,1.0600007985,-3.460570652,-9.11430051,0.11578,0.36065,1.8957,0.00019999999999997797,0.00020000000000020002,0.00019999999999997797,-0.0007946406493428704,0.0005627024423238147,0.0008846175972354042
149740000000.0,2,0.1663011707,-0.1192880906,0.013954862949999999,-0.079604,-0.01953,0.17312,1.0559800719999999,-3.4579228564999998,-9.1157715075,0.11532,0.36036,1.8975,0.00019999999999997797,5.0000000000105516e-05,-0.00019999999999997797,0.0004995077532801706,0.0006825522787656801,0.0013208099953907204
149740000000.0,2,0.16168223855,-0.0732752888,0.048905763549999995,-0.087111,-0.016284,0.18591,1.0478405524999999,-3.4519407999999996,-9.119007702,0.11441,0.3597,1.8995,0.00039999999999995595,4.999999999988347e-05,-0.00019999999999997797,0.0005854725227416591,0.0011014496842585153,0.0019086584435588083
149740000000.0,2,0.12172013979999999,-0.0625272004,0.1867774559,-0.080735,-0.019533,0.18593,1.0396029665,-3.4463510095,-9.1220477635,0.11348,0.3591,1.9016,0.00039999999999995595,4.999999999988347e-05,-0.00010000000000021103,2.1262713666425626e-06,0.0009693708942353219,0.0016036032241679987
149740000000.0,2,0.0968700887,0.01989769285,0.18506129214999997,-0.077678,-0.046184,0.17211,1.0300905159999998,-3.4410554184999995,-9.1251858915,0.11241,0.35852,1.9036,0.000500000000000167,5.0000000000105516e-05,-0.00019999999999997797,0.0006875893572687031,0.0009824175611357067,0.002081973286421679
149740000000.0,2,0.1497475455,-0.0428942871,0.1660265845,-0.077051,-0.11223,0.15515,1.0194993339999998,-3.4375250244999997,-9.127637554,0.11123,0.35814,1.9052,0.00039999999999995595,3.333333333332966e-05,-0.00019999999999997797,0.0006290987965931749,0.0007471868578337038,0.001566248967200909
149740000000.0,2,0.22072807819999998,-0.10068487555,0.1817956777,-0.09381,-0.20268,0.16168,0.9976305044999999,-3.4310526355,-9.132540878999999,0.10881,0.35743,1.907,0.00039999999999995595,3.333333333332966e-05,-9.999999999998899e-05,0.0009315274139358731,0.0015253947101891985,0.000920190200957044
149740000000.0,2,0.1672622224,-0.07246133684999999,0.22545488349999998,-0.13705,-0.25882,0.18412,0.9689362466,-3.4214421184999995,-9.139209400999999,0.10563,0.35639,1.909,0.00039999999999995595,3.333333333332966e-05,-0.00019999999999997797,0.00021807078237157107,0.002348150688703754,0.0008805115536665159
149740000000.0,2,0.05735909585,-0.0934573745,0.33637790165,-0.19914,-0.27963,0.19366,0.937123474,-3.4065360105,-9.1481334525,0.10208,0.35477,1.9113,0.000600000000000156,-6.666666666665932e-05,-0.00039999999999995595,0.001302028178200687,0.003251482811499784,0.0011755663636257158
149740000000.0,2,-0.0089632781,-0.1788929093,0.32186405965000003,-0.2726,-0.2758,0.17004,0.90559509425,-3.3900608384999997,-9.1573517035,0.098572,0.35298,1.9134,0.0004999999999999449,-6.666666666665932e-05,-0.00039999999999995595,0.0012816770632956276,0.0034608818812860154,0.0014143733887106574
149740000000.0,2,0.06959779505,-0.19380882395,0.34441935464999995,-0.35231,-0.25593,0.13998,0.8782149274499998,-3.366230679,-9.168825484,0.095491,0.35038,1.9153,0.0005999999999999339,-6.666666666665932e-05,-0.000600000000000156,0.0022268501936010265,0.0030027856303231903,0.0013665857605429654
149740000000.0,2,-0.00612915625,-0.21736439725,0.33275924779999994,-0.42428,-0.19884,0.11628,0.85442399455,-3.3350455319999996,-9.1824567275,0.092783,0.347,1.917,0.0004999999999999449,-0.00019999999999997797,-0.0006999999999999229,0.0030087540924356726,0.003756972986116436,0.000424962418007227
149740000000.0,2,-0.09142739794999999,-0.24509760345,0.3649838997,-0.46417,-0.13455,0.091545,0.8360169125,-3.2993493259999997,-9.197068636,0.090652,0.34314,1.9185,0.000400000000000178,-0.000300000000000189,-0.0006999999999999229,0.003959230299619643,0.0029546000243134696,0.0004552465470148842
149740000000.0,2,-0.09673279559999999,-0.25423740125,0.42379437975,-0.47857,-0.084316,0.064746,0.8248667514499999,-3.2560039329999997,-9.213543807999999,0.08929,0.33844,1.9197,0.0004999999999999449,-0.00019999999999997797,-0.0008000000000001339,0.004452076295601015,0.001990678671027757,0.0005162313450518125
149740000000.0,2,-0.11505161779999999,-0.22318954735,0.38009594735,-0.47194,-0.069429,0.042316,0.8168547183999999,-3.2123643404999997,-9.2295286475,0.088275,0.33373,1.9206,0.00039999999999995595,-0.00029999999999996696,-0.0007999999999999119,0.0049177921149881065,0.0015999011469320923,8.66409820616948e-05
149740000000.0,2,-0.12859460144999998,-0.17972647455,0.2965727093,-0.44632,-0.074954,0.029561,0.8091466915,-3.1706860779999997,-9.2446308885,0.087304,0.32923,1.9214,0.00019999999999997797,-0.00029999999999996696,-0.0006999999999999229,0.004567597918159638,0.0014069663128726262,-0.0001820812993790083
149740000000.0,2,-0.1344491715,-0.18027564694999998,0.19513272169999998,-0.39737,-0.09454,0.027549,0.7973394849,-3.137147335,-9.2569872675,0.085922,0.32563,1.9222,0.00039999999999995595,-0.00039999999999995595,-0.0009000000000001229,0.005186557249050483,0.0013761711559081569,0.00010920784223572566
149740000000.0,2,-0.14995348515,-0.19102373534999997,0.0994590443,-0.33244,-0.11425,0.025561,0.7863658435499999,-3.1050795895,-9.2687552475,0.084637,0.32217,1.9227,9.999999999998899e-05,-0.00029999999999996696,-0.00039999999999995595,0.0033912361313306327,0.001258519925415147,-0.0005512601587515792
149740000000.0,2,-0.20067347894999998,-0.10719649114999999,0.06950953519999999,-0.26327,-0.1372,0.025721,0.7734897121,-3.0791900334999998,-9.2785618975,0.083171,0.31939,1.9233,-9.999999999998899e-05,-0.00019999999999997797,-0.00039999999999995595,0.0018264120488912794,0.0014391538180138497,-0.0017538014429348964
149740000000.0,2,-0.20812653294999997,0.02995931575,-0.008090486249999999,-0.20361,-0.14941,0.024779,0.7590935499,-3.0590864009999996,-9.286309151,0.081561,0.31723,1.9237,0.00029999999999996696,-0.000400000000000178,-0.000700000000000145,0.002592300532931191,0.0016203954875226856,7.915451165933785e-05
149740000000.0,2,-0.2475394593,0.031214566949999998,-0.12471116804999999,-0.14693,-0.13922,0.013121,0.7392448903,-3.0427092955,-9.293369939,0.079379,0.31547,1.9242,0.000300000000000189,-9.999999999998899e-05,-0.0005999999999999339,0.0011552404710079567,0.001786507340186816,0.00019140437099875174
149740000000.0,2,-0.18244291659999998,-0.01322917085,-0.14809022165,-0.10178,-0.11399,-0.014598,0.72817318245,-3.0322161799999994,-9.2975867985,0.078158,0.31435,1.9242,0.00019999999999997797,-0.00029999999999996696,-0.0004999999999999449,0.0012660283560769203,0.0017860667645415162,-0.0005080468748247247
149740000000.0,2,-0.08803429705,-0.03297976395,-0.22167932324999998,-0.073616,-0.073709,-0.034901,0.72115162105,-3.024566993,-9.30062686,0.077383,0.31353,1.924,9.999999999998899e-05,-9.999999999998899e-05,-0.00039999999999995595,0.0006157176485869775,0.0011937541780779881,-0.0002474217904443743
149740000000.0,2,-0.09083899895,-0.0927316824,-0.34343868964999996,-0.048717,-0.033413,-0.042401,0.7182684659499999,-3.0191733354999997,-9.3026862565,0.077059,0.31295,1.9236,9.999999999998899e-05,-0.00019999999999997797,-0.000400000000000178,0.0009237159766298797,0.0013622382675142486,-2.0442210714857745e-05
149740000000.0,2,-0.15279741365,-0.08885805564999999,-0.3556479689,-0.018446,0.014285,-0.045632,0.7158854499999999,-3.0158390745,-9.303863054499999,0.076793,0.31259,1.9233,-0.0012000000000000899,0.00029999999999996696,0.000500000000000167,-0.003206698398216412,-0.005060452295172269,-0.0033723900094494996
149740000000.0,2,-0.1481784815,-0.05110245315,-0.32637511864999996,0.01161,0.036416,-0.046687,0.7202494092499999,-3.0158390745,-9.303568855,0.077262,0.3126,1.9228,-4.999999999988347e-05,-0.00019999999999997797,-9.999999999998899e-05,0.0006419361488838593,-0.00016803791007924396,-9.111698018032799e-05
149740000000.0,2,-0.05021985464999999,-0.038128255199999996,-0.32843451515,0.036087,0.031947,-0.041299,0.72478008155,-3.0183888034999997,-9.302392056999999,0.077757,0.31287,1.9223,-5.0000000000105516e-05,-9.999999999998899e-05,2.4999999999941735e-05,-0.002809136981624938,-0.001652511182665295,-0.0005734863550126146
149740000000.0,2,0.0019122967499999998,-0.0729810893,-0.37328032559999996,0.046496,0.007339,-0.028429,0.7271238709,-3.0223114635,-9.3009210595,0.078018,0.31329,1.9219,9.999999999998899e-05,-9.999999999998899e-05,2.4999999999941735e-05,0.00023855779841136515,-0.00020909607606167668,-8.476205826221661e-05
149740000000.0,2,0.02003498595,-0.08356246465,-0.3925994261,0.049349,-0.024672,-0.010222,0.7256136468,-3.025939924,-9.299842328,0.077866,0.31367,1.9218,6.666666666665932e-05,-9.999999999998899e-05,2.500000000016378e-05,-0.0006217755831101623,-0.00021864495654311256,-0.00034123832190131875
149740000000.0,2,0.0401288118,-0.08164036125,-0.39886587544999996,0.054502,-0.040709,0.000489,0.7221224793999999,-3.0308432489999997,-9.2985674635,0.077504,0.3142,1.9217,6.666666666665932e-05,-0.00019999999999997797,2.4999999999941735e-05,0.0009925568627038306,0.0004615113072770072,-0.0004061709589310708
149740000000.0,2,0.03339164325,-0.07290263609999999,-0.35835460429999993,0.063052,-0.037585,0.002634,0.7183861457499999,-3.0364330395,-9.2969983995,0.077117,0.3148,1.9217,6.666666666665932e-05,-5.0000000000105516e-05,-9.999999999998899e-05,0.0008988696752708081,0.001458788013611656,0.0002060645604731598
149740000000.0,2,0.0356177528,-0.028233345349999998,-0.27026146735,0.070578,-0.032316,-0.000565,0.71526763105,-3.042807362,-9.295135135999999,0.076799,0.31549,1.9216,3.333333333332966e-05,-4.999999999988347e-05,9.999999999998899e-05,5.81210709729163e-05,0.0004377629220702062,-2.681365163709204e-06
149740000000.0,2,0.03721623675,-0.025811102799999996,-0.21881578144999997,0.07598,-0.027026,-0.005902,0.71336514095,-3.0487894184999997,-9.293369939,0.076611,0.31613,1.9215,3.333333333332966e-05,-9.999999999998899e-05,0.00019999999999997797,-0.0012596597648226182,-0.000434808737493686,-0.000374486958598666
149740000000.0,2,-0.0141019627,-0.0539758016,-0.19716269825,0.088922,-0.019657,-0.021904,0.71201182325,-3.056536672,-9.2909182765,0.076486,0.31696,1.9213,3.333333333332966e-05,-9.999999999998899e-05,0.00019999999999997797,-6.232902675357144e-05,-8.105655524937028e-05,-0.0003571169518852557
149740000000.0,2,-0.0031577413,-0.041011410299999995,-0.11735618055,0.10501,-0.019771,-0.038954,0.7113940042999999,-3.0656568565,-9.287976281499999,0.076444,0.31794,1.9208,3.333333333332966e-05,-9.999999999998899e-05,0.00019999999999997797,0.00030826817416035324,0.0007269951506556627,-9.442282429006355e-05
149740000000.0,2,0.010954028049999998,-0.052612677249999996,-0.08351343139999999,0.11682,-0.024109,-0.060274,0.7111978713,-3.0764441714999995,-9.284347820999999,0.076452,0.3191,1.9201,3.333333333332966e-05,-9.999999999998899e-05,0.00029999999999996696,-0.0017523872486621128,-0.00020114041023133744,-0.0005759473045387764
149740000000.0,2,0.0203586054,-0.047728965549999995,-0.0540346415,0.1275,-0.032705,-0.075184,0.71091347845,-3.0882121515,-9.2805232275,0.076454,0.32036,1.9193,3.333333333332966e-05,-5.0000000000105516e-05,0.00019999999999997797,-0.0005677565845029764,-0.00016260253788025203,-0.0007624839331234201
149740000000.0,2,0.02701732075,-0.0737852346,-0.0008825985,0.12213,-0.037985,-0.077319,0.71054082575,-3.1007646635,-9.2764044345,0.076448,0.32171,1.9183,-4.999999999988347e-05,-5.0000000000105516e-05,0.00029999999999996696,-0.0010916751528664004,0.0004169211276077167,-0.0007265232122131982
149740000000.0,2,0.00420705285,-0.11301183459999999,-0.0055309506,0.11257,-0.028324,-0.068813,0.7098641669,-3.1135133085,-9.272187575,0.07641,0.32308,1.9175,-5.0000000000105516e-05,-9.999999999998899e-05,0.000300000000000189,-0.0018968864727547108,-0.0007428674624381237,-0.0008032649635898725
149740000000.0,2,-0.04872924385,-0.06492982964999999,0.0625272004,0.096602,-0.014358,-0.052853,0.7089325351499999,-3.1243986899999996,-9.2685591145,0.076339,0.32426,1.9168,-9.999999999998899e-05,-5.0000000000105516e-05,0.00039999999999995595,-0.0014248147884422524,-0.0005231325683732191,-0.0006351267151084028
149740000000.0,2,-0.06965663494999999,-0.0089632781,0.142000292,0.060352,-0.003419,-0.040125,0.7083049095499999,-3.1320478769999998,-9.266009385499999,0.076293,0.32508,1.9164,-0.00019999999999997797,-4.999999999988347e-05,0.00039999999999995595,-0.0013436414808217778,-0.0010210112421813466,-0.0009910431564369437
149740000000.0,2,-0.0751385523,-0.013101684399999999,0.13596920225,0.014389,-0.008382,-0.030588,0.7070594649999999,-3.135578271,-9.264930654,0.076168,0.32545,1.9161,4.999999999988347e-05,-9.999999999998899e-05,0.00019999999999997797,-0.0009635658222172383,0.0004923566837755633,1.605759289746711e-05
149740000000.0,2,-0.035274520049999994,-0.040285718199999994,0.12728051035,-0.030459,-0.01015,-0.025325,0.7063926128,-3.1352840714999997,-9.2650287205,0.076096,0.32543,1.9158,5.0000000000105516e-05,-9.999999999998899e-05,9.999999999998899e-05,0.0006679731498528407,0.0010679060050726719,1.9224044394389184e-05
149740000000.0,2,-0.010071429549999998,-0.07394214099999999,0.1575928655,-0.065675,-0.013054,-0.027515,0.70602976675,-3.1325382095,-9.266009385499999,0.076049,0.32512,1.9156,-5.0000000000105516e-05,-0.00019999999999997797,9.999999999998899e-05,-9.08252802048759e-05,1.092373225475285e-05,-0.0002409501945167536
149740000000.0,2,-0.00456009225,-0.06919572239999999,0.1852083919,-0.090235,-0.018176,-0.030751,0.70546098105,-3.1270464854999998,-9.267872649,0.075972,0.32454,1.9153,-4.999999999988347e-05,-9.999999999998899e-05,9.999999999998899e-05,0.00010634619994986938,-0.0006378024638780122,-0.0007397638924815098
149740000000.0,2,-0.0044718324,-0.0443064447,0.20167375724999997,-0.10303,-0.020197,-0.035039,0.7049216153,-3.1195934315,-9.270422378,0.075894,0.32374,1.915,0.001100000000000101,-0.0007999999999999119,-0.0004999999999999449,0.002561992656385459,0.004837964908186221,0.001102252927662556
149740000000.0,2,-0.012993811249999999,-0.031185147,0.1994084211,-0.096516,-0.007462,-0.036117,0.7049216153,-3.1121403775,-9.272972107,0.075873,0.32293,1.9147,9.999999999998899e-05,-9.999999999998899e-05,-9.999999999998899e-05,0.0023847471391258424,0.0008248532915879903,0.0006563316894619142
149740000000.0,2,-0.06565552175,0.026850607699999997,0.1996830073,-0.071747,0.021104,-0.036123,0.7062553197,-3.1051776559999995,-9.2752276365,0.075998,0.32219,1.9144,-0.00029999999999996696,-0.00029999999999996696,0.00029999999999996696,-0.0004370544614812344,-0.0003995173602964197,-0.0007802175218091789
149740000000.0,2,-0.10062603564999999,0.09532063799999999,0.23409454214999997,-0.040628,0.04535,-0.032909,0.7091973146999999,-3.100078198,-9.276698633999999,0.076301,0.32163,1.9142,9.999999999998899e-05,-0.00020000000000020002,-9.999999999998899e-05,0.001688698598092786,-0.0002444632242295519,0.0003321302983260721
149740000000.0,2,-0.08913264185,0.13487085745,0.23481042759999998,-0.012865,0.052571,-0.026469,0.7134141741999999,-3.09694007,-9.2773850995,0.076747,0.3213,1.914,-9.999999999998899e-05,-0.00019999999999997797,4.999999999988347e-05,0.0004263299075705773,-0.0003847184624803379,2.9706327394102283e-05
149740000000.0,2,-0.11483587149999999,0.12269099815,0.16515379264999996,0.006204,0.038553,-0.02214,0.7159246765999999,-3.0956652055,-9.2775812325,0.077015,0.32117,1.9138,-6.666666666665932e-05,-0.00019999999999997797,5.0000000000105516e-05,0.0005117865687433998,-0.00044460822480951734,-1.6182502115630326e-05
149740000000.0,2,-0.08370956439999999,0.12469155475,0.11666971504999998,0.019884,0.011803,-0.027405,0.7169837948,-3.0954690725,-9.2775812325,0.077127,0.32114,1.9136,-6.666666666665932e-05,-9.999999999998899e-05,5.0000000000105516e-05,-0.0006559905090055551,-0.0004036003791965115,-0.0002125569134232841
149740000000.0,2,-0.0740009809,0.12619197219999997,0.0647435033,0.026182,-0.010613,-0.043366,0.7163953958,-3.095567139,-9.2775812325,0.077064,0.32116,1.9132,-6.666666666665932e-05,-9.999999999998899e-05,4.999999999988347e-05,4.92746092064511e-05,-8.426074459055855e-05,-0.00014674033383024754
149740000000.0,2,-0.04827813795,0.11980784305,0.03284247085,0.022952,-0.024423,-0.060425,0.7152185978,-3.0954690725,-9.277777365499999,0.076937,0.32115,1.9126,-9.999999999998899e-05,-9.999999999998899e-05,9.999999999998899e-05,-0.0005373112396543367,-0.00042316200696479456,-0.0007069166865946719
149740000000.0,2,-0.0493666761,0.095124505,0.0002941995,0.012294,-0.031781,-0.075374,0.7136103072,-3.094782607,-9.278071565,0.076762,0.32107,1.9119,-0.00010000000000021103,-9.999999999998899e-05,9.999999999998899e-05,-0.00037012854883983204,-0.00018935065734027035,-0.0005985176724635777
149740000000.0,2,-0.07379504124999998,0.0699802544,-0.00775706015,0.001713,-0.026359,-0.085008,0.7120020166,-3.0933116094999997,-9.278758030499999,0.076585,0.3209,1.9111,-9.999999999998899e-05,-9.999999999998899e-05,-0.00019999999999997797,-7.148354393049505e-05,-5.2630841416156926e-05,-0.0007416035061882098
149740000000.0,2,-0.07812958055,0.08397434394999999,0.03190103245,-0.009945,-0.01561,-0.083979,0.7115411040499999,-3.0906638139999996,-9.279640629,0.076528,0.32062,1.9102,-9.999999999998899e-05,-9.999999999998899e-05,-4.999999999988347e-05,1.061790825918063e-05,-9.198978931235224e-05,-0.000619689042912569
149740000000.0,2,-0.0704313603,0.06893094285,0.053152043,-0.033469,-0.016494,-0.075478,0.711178258,-3.0866430874999997,-9.28101356,0.076478,0.3202,1.9095,-9.999999999998899e-05,-9.999999999998899e-05,-5.0000000000105516e-05,0.00023593515203573778,2.038782396818206e-05,-0.0008543833803555667
149740000000.0,2,-0.0711570524,0.032254071849999996,0.0415213561,-0.064519,-0.022646,-0.063779,0.7099622334,-3.0805629645,-9.283171023,0.07633,0.31954,1.9089,-0.00019999999999997797,-9.999999999998899e-05,-5.0000000000105516e-05,0.0008379018256690629,0.0002553586191684776,-0.001069173070931101
149740000000.0,2,-0.0737263947,0.03458805455,0.06139943565,-0.097625,-0.019192,-0.0521,0.7083343295,-3.0714427799999995,-9.2862110845,0.076131,0.31856,1.9084,-9.999999999998899e-05,-0.00019999999999997797,-4.999999999988347e-05,0.0015902827288331034,0.00039234886640771016,-0.0007991396440104326
149740000000.0,2,-0.1305068982,0.050161014749999996,0.0874164781,-0.12951,-0.002952,-0.050048,0.7067554588499999,-3.0591844674999997,-9.290427944,0.075928,0.31725,1.9081,-0.00029999999999996696,-9.999999999998899e-05,9.999999999998899e-05,0.0008282745942347347,0.0005069937394530655,-0.0007025386542489631
149740000000.0,2,-0.1136198469,0.048905763549999995,0.10039067604999999,-0.14748,0.017441,-0.052249,0.7073732777999999,-3.0450628914999998,-9.2950370695,0.075956,0.31573,1.9077,-0.00019999999999997797,-9.999999999998899e-05,-9.999999999998899e-05,0.001075744704261361,-0.00012317285756013874,-0.0008285718265566011
149740000000.0,2,-0.0975173276,-0.00387362675,0.0638216782,-0.15259,0.039866,-0.060836,0.7105800523499999,-3.0307451824999996,-9.299450062,0.076263,0.3142,1.9073,-9.999999999998899e-05,-9.999999999998899e-05,-9.999999999998899e-05,0.001357876919321821,-0.0004084316948766986,-0.000325595304719678
149740000000.0,2,-0.1424121713,-0.02784107935,0.07261824324999999,-0.13417,0.066364,-0.074725,0.71567951035,-3.0181926704999995,-9.303176589,0.076777,0.31285,1.9067,-0.00019999999999997797,-9.999999999998899e-05,-0.00019999999999997797,0.0019940008893266636,-0.0006266031268569172,-0.00019658498202049235
149740000000.0,2,-0.11706198104999999,0.02366344645,0.1275256766,-0.10734,0.077874,-0.087507,0.7232502441499999,-3.007111156,-9.306118584,0.077561,0.31166,1.906,-0.00019999999999997797,-9.999999999998899e-05,-0.00019999999999997797,0.0010972264610655813,-0.0012160312621078972,-0.0002397912190822138
149740000000.0,2,-0.08562186114999999,0.026105302299999997,0.1056568471,-0.076453,0.068032,-0.092772,0.7311642106999999,-2.9987755035,-9.308177980499998,0.078389,0.31077,1.9052,-0.00019999999999997797,-0.00010000000000021103,-0.00019999999999997797,0.0016222018633821333,-0.0008965231604811663,-0.0005528343761566357
149740000000.0,2,-0.09649743599999999,-0.0097478101,0.061899574799999996,-0.04352,0.047515,-0.096948,0.7372443336999999,-2.9937741119999997,-9.3093547785,0.079029,0.31023,1.9043,-0.0012000000000000899,0.000300000000000189,0.00039999999999995595,-0.0018400191058159932,-0.005431629289737172,-0.002799370395544204
149740000000.0,2,-0.08830888325,0.0323031051,0.077080269,-0.015002,0.009983,-0.098966,0.7404314949499999,-2.9909301834999997,-9.310041243999999,0.079363,0.30993,1.9033,-0.00029999999999996696,-9.999999999998899e-05,-9.999999999998899e-05,-2.0751580370625966e-05,-0.0007796381777345207,-0.0007159893568909337
149740000000.0,2,-0.03872646085,0.0412271566,0.06785221135,0.003843,-0.034928,-0.098854,0.7405295614499999,-2.9898514519999995,-9.3103354435,0.079371,0.30981,1.9023,-0.00019999999999997797,-4.999999999988347e-05,-9.999999999998899e-05,0.0014206096975630245,0.00027487735069553487,-0.0004396587067053981
149740000000.0,2,-0.02287891445,-4.903325e-05,0.048170264799999994,0.013137,-0.070176,-0.093439,0.7371070405999999,-2.9904398509999996,-9.31043351,0.079005,0.30988,1.9013,-0.00029999999999996696,-5.0000000000105516e-05,-9.999999999998899e-05,0.00022198978765625155,-0.00010702366019654797,-0.0012076365727252403
149740000000.0,2,-0.033440676499999995,0.0053544309,0.0251246373,0.010863,-0.085081,-0.089147,0.73135053705,-2.9909301834999997,-9.3107277095,0.078389,0.30993,1.9003,-0.000400000000000178,-5.0000000000105516e-05,-6.666666666665932e-05,-0.0013764180095209855,-0.0005026725790084896,-0.001746741586564654
149740000000.0,2,-0.03390158905,0.02958666305,0.0393050532,-0.001937,-0.083912,-0.088103,0.7253782872,-2.9901456515,-9.311414175,0.077744,0.30985,1.8994,-0.00039999999999995595,-4.999999999988347e-05,-6.666666666665932e-05,-0.0005036415131940419,0.00031378633531709,-0.001484101376312441
149740000000.0,2,-0.026105302299999997,-0.0003530394,0.0341663686,-0.029569,-0.073025,-0.09244,0.7205730287,-2.9877920555,-9.312590972999999,0.077223,0.30959,1.8985,-0.00019999999999997797,-5.0000000000105516e-05,-6.666666666665932e-05,0.0004512116420729573,0.0007942954631505739,-0.000885692963709217
149740000000.0,2,0.0037363336499999997,-0.03670629095,0.006541035549999999,-0.06456,-0.049288,-0.097879,0.7182684659499999,-2.9824964645,-9.3144542365,0.076961,0.30903,1.8975,-0.00029999999999996696,-5.0000000000105516e-05,-9.999999999998899e-05,0.0013533070121832802,0.0008694575727326015,-0.001258799978119285
149740000000.0,2,-0.022388581949999996,-0.024281265399999998,-0.02125101055,-0.093056,-0.011756,-0.10013,0.71879802505,-2.9738666125,-9.317200098499999,0.076996,0.3081,1.8966,-0.00019999999999997797,-9.999999999998899e-05,-0.00020000000000020002,0.0013882148036393205,0.0015212177288077555,-0.0006978942355954365
149740000000.0,2,-0.006648908699999999,-0.006943108199999999,0.0032067745499999994,-0.10985,0.022481,-0.10022,0.7231227576999999,-2.963177364,-9.320240159999999,0.077431,0.30696,1.8956,-0.00029999999999996696,-5.0000000000105516e-05,-0.00019999999999997797,0.0010999727565272344,-0.000513586126398291,-0.0007010353664397562
149740000000.0,2,0.05757484215,-0.0224572285,0.035911952299999994,-0.11511,0.037437,-0.091715,0.73040909865,-2.9521939159999997,-9.323182155,0.078184,0.30578,1.8947,-0.00039999999999995595,-4.999999999988347e-05,-9.999999999998899e-05,0.001685101292002611,-0.00042711638107006955,-0.0007644721597877546
149740000000.0,2,0.08440583655,-0.018210949049999998,0.027213453749999998,-0.1109,0.03952,-0.075702,0.7381465455,-2.9413085344999996,-9.326026083499999,0.078985,0.30462,1.8939,-0.000400000000000178,-9.999999999998899e-05,0.0002500000000000835,0.00013800171241401538,-0.0010491094142819346,-0.0011187240039242374
149740000000.0,2,0.10402894319999999,-0.011365907350000001,0.05641765745,-0.097184,0.031933,-0.05752,0.74515830025,-2.9318941505,-9.3283796795,0.079712,0.30361,1.8933,-0.0007999999999999119,-5.0000000000105516e-05,0.0002500000000000835,-0.003102496363459384,-0.0048681930898053505,-0.0026657654343782144
149740000000.0,2,0.12937913345,-0.0036873003999999994,0.07240249694999999,-0.077048,0.022169,-0.045727,0.7515326227499999,-2.924146897,-9.3303410095,0.080374,0.30278,1.8928,-0.00029999999999996696,-4.999999999988347e-05,-0.00010000000000021103,0.0012401963595289889,-0.0002770205137490045,-0.0005673864238284754
149740000000.0,2,0.15771054529999998,0.0187895414,0.04678752715,-0.054775,0.010262,-0.038197,0.75702434675,-2.9180667739999997,-9.331812007,0.080946,0.30213,1.8923,0.00019999999999997797,-4.999999999988347e-05,-0.0007999999999999119,0.005456453250437088,0.003996361020032868,0.0017123981089296192
149740000000.0,2,0.14110788685,0.030537908099999997,0.028115665550000002,-0.031353,0.004745,-0.037081,0.7613490794,-2.913947981,-9.3326946055,0.081399,0.30169,1.8919,-0.0005999999999999339,-5.0000000000105516e-05,0.0005999999999999339,-0.003895197033351838,-0.00462996033177876,-0.0024370457355583353
149740000000.0,2,0.1407058142,0.0740009809,0.028184312099999997,-0.007873,0.006687,-0.035978,0.76565419875,-2.9111040525,-9.333283004499998,0.081852,0.3014,1.8914,0.00019999999999997797,2.4999999999941735e-05,-0.0007999999999999119,0.004119234362100432,0.0036529119778461183,0.0016233585384317073
149740000000.0,2,0.11901350439999998,0.11083475829999999,0.01834824215,0.013521,0.013975,-0.035955,0.7701358378,-2.909829188,-9.333283004499998,0.082328,0.30125,1.8909,-9.999999999998899e-05,2.500000000016378e-05,-5.0000000000105516e-05,-6.39737703596599e-05,-0.00014944656920423682,-0.00018033863098934622
149740000000.0,2,0.12176917304999998,0.09684066875,0.007286340949999999,0.025229,0.012814,-0.032731,0.7745586369499999,-2.910025321,-9.3328907385,0.082803,0.30128,1.8905,-0.00019999999999997797,2.4999999999941735e-05,-4.999999999988347e-05,-0.0002561561161220638,5.844390810394451e-05,-0.0002334794606119739
149740000000.0,2,0.12325978385,0.07597211755,-0.027154613850000002,0.028339,0.008519,-0.022045,0.7784616836499999,-2.9110059859999997,-9.332204273,0.083223,0.30138,1.8902,-0.00020000000000020002,2.4999999999941735e-05,9.999999999998899e-05,-0.0007970686173552899,-0.0003455143158244134,-0.0002637397259906138
149740000000.0,2,0.10286195185,0.07072555979999999,-0.05416212795,0.025076,0.00641,-0.013509,0.7813448387499999,-2.9118885845,-9.3317139405,0.083536,0.30148,1.8899,-9.999999999998899e-05,4.999999999988347e-05,-9.999999999998899e-05,0.00015349090320565528,-0.00010158769911261523,-9.19112701682212e-05
149740000000.0,2,0.10098888169999999,0.0596832719,-0.062370294,0.020793,0.00751,-0.00925,0.78411031405,-2.9125750499999996,-9.3313216745,0.083834,0.30154,1.8897,-9.999999999998899e-05,5.0000000000105516e-05,4.999999999988347e-05,-5.988006358170761e-05,0.00018441645276556784,0.00013317720982358727
149740000000.0,2,0.111403544,0.0293807234,-0.0324600115,0.01441,0.008634,-0.011398,0.7871699888499999,-2.913163449,-9.330831342,0.084163,0.30162,1.8895,-0.00029999999999996696,9.999999999998899e-05,5.0000000000105516e-05,-0.0005499306506246415,-0.0010961001273190885,-0.000546773868855488
149740000000.0,2,0.10366609715,0.007178467799999999,0.005678050349999999,0.004867,0.016176,-0.011429,0.7907199961499999,-2.913751848,-9.3303410095,0.084545,0.30167,1.8894,-9.999999999998899e-05,4.999999999988347e-05,2.4999999999941735e-05,-0.0001334298950524393,-0.00010040182833237488,-1.432142331558861e-05
149740000000.0,2,0.0572904493,-0.015268954049999998,0.01360182355,-0.00465,0.024785,-0.014663,0.7942994233999999,-2.913751848,-9.330046809999999,0.084929,0.30167,1.8892,-9.999999999998899e-05,5.0000000000105516e-05,2.500000000016378e-05,0.0002521569143446589,-0.00018283691363962795,-0.0002445458582094884
149740000000.0,2,0.05684915005,-0.03541181315,0.04317867994999999,-0.014196,0.030196,-0.016824,0.7986241560499999,-2.913163449,-9.329850677,0.085391,0.30162,1.889,-9.999999999998899e-05,5.0000000000105516e-05,2.4999999999941735e-05,0.00035184435977153594,0.00024916482052517175,0.00022266189814024173
149740000000.0,2,0.0695879884,-0.05439748755,0.0333818366,-0.024831,0.035612,-0.014718,0.8036941941,-2.911986651,-9.3297526105,0.085931,0.30149,1.8888,-9.999999999998899e-05,4.999999999988347e-05,2.4999999999941735e-05,0.00026171937364022346,-0.00018544320470992304,-0.00010539435159606647
149740000000.0,2,0.0481898781,-0.08258179965,0.046856173699999996,-0.025865,0.042012,-0.010461,0.80878384545,-2.9111040525,-9.329654543999998,0.086474,0.30139,1.8887,-9.999999999998899e-05,1.6666666666775853e-05,4.999999999988347e-05,0.0005308841713162482,-0.0002962317377601664,-3.677731720180821e-05
149740000000.0,2,0.054348454299999994,-0.0803753034,0.09605613674999999,-0.020564,0.041963,-0.00298,0.8138538834999999,-2.9107117865,-9.329262278,0.087016,0.30135,1.8886,-9.999999999998899e-05,1.666666666655381e-05,5.0000000000105516e-05,0.00048808059269511705,-0.0003650964541759283,6.414407931498722e-05
149740000000.0,2,0.048454657649999996,-0.07108840585,0.12843769505,-0.018526,0.035545,0.006641,0.8182472626999999,-2.9107117865,-9.328870012,0.087487,0.30135,1.8887,-9.999999999998899e-05,1.666666666655381e-05,5.0000000000105516e-05,0.000183316727245586,-0.00031751619629605266,6.251333869977671e-05
149740000000.0,2,0.0471895998,-0.07786480099999998,0.1210532876,-0.014331,0.033369,0.018394,0.8219149497999999,-2.9113001855,-9.3283796795,0.087881,0.30141,1.8888,-0.00019999999999997797,1.6666666666775853e-05,4.999999999988347e-05,-0.00018753329358639492,-0.0013979360701026344,-0.0004386803648795401
149740000000.0,2,0.042080335149999995,-0.06524364245,0.16195682474999998,-0.011217,0.022688,0.019485,0.8247686849499999,-2.9122808504999997,-9.327889347,0.088191,0.30151,1.889,-3.333333333332966e-05,1.6666666666775853e-05,-3.333333333332966e-05,0.0006062574322225345,0.00014788506582164018,0.00028366827003245554
149740000000.0,2,0.05266171049999999,-0.04637564784999999,0.16239812399999998,-0.015502,0.017403,0.015217,0.8272105407999999,-2.9125750499999996,-9.3275951475,0.088453,0.30155,1.8891,-3.333333333332966e-05,1.666666666655381e-05,-3.333333333332966e-05,-7.798323402591345e-05,-0.00045238143049863844,0.00019746694226466244
149740000000.0,2,0.05266171049999999,-0.04637564784999999,0.16239812399999998,-0.015502,0.017403,0.015217,0.8272105407999999,-2.9125750499999996,-9.3275951475,0.088453,0.30155,1.8891,-3.333333333332966e-05,-1.666666666655381e-05,-3.333333333332966e-05,0.0001346525418073341,-2.5512145877426562e-05,0.00021906685259126535
149740000000.0,2,0.0132389775,-0.022682781449999998,0.14299076365,-0.014366,0.018472,0.003476,0.8292209040499999,-2.9122808504999997,-9.3273990145,0.088668,0.30152,1.8892,-9.999999999998899e-05,-1.6666666666775853e-05,9.999999999998899e-05,-0.0002025150177795143,-0.0005778176697524007,-4.489720771433392e-05
149740000000.0,2,-0.004118793,0.0026870221,0.1383129916,-0.016439,0.015311,-0.0136,0.8313195271499999,-2.9113001855,-9.3275951475,0.08889,0.30142,1.8891,-5.0000000000105516e-05,-1.6666666666775853e-05,-9.999999999998899e-05,0.0007400685037466381,0.00019380475620267568,-3.9043532346766385e-05
149740000000.0,2,0.0165732385,0.016073099349999998,0.1073043643,-0.022858,0.005786,-0.025336,0.8332122106,-2.909436922,-9.327987413499999,0.089088,0.30122,1.8889,-4.999999999988347e-05,-1.666666666655381e-05,-9.999999999998899e-05,0.00046891009224375724,0.00029028260999908184,-5.052975415223426e-05
149740000000.0,2,-0.00027458619999999996,0.005933023249999999,0.05642746409999999,-0.022893,-0.000604,-0.028527,0.8342124889,-2.9072794589999997,-9.3285758125,0.089188,0.30098,1.8886,-9.999999999998899e-05,-1.666666666655381e-05,-9.999999999998899e-05,0.0006265976092062475,-0.0003671747038647144,-0.00027496958744416267
149740000000.0,2,0.01230734575,0.00656064885,0.05963423864999999,-0.025072,-0.001658,-0.021057,0.8350852807499999,-2.904925863,-9.329262278,0.089275,0.30073,1.8884,-5.0000000000105516e-05,-1.6666666666775853e-05,-5.0000000000105516e-05,0.000566757447506061,0.0004489143625217018,-0.00019326079635403892
149740000000.0,2,0.00832584585,0.023006400899999998,0.0737852346,-0.029473,-0.009096,-0.006108,0.83518334725,-2.9021800009999996,-9.330046809999999,0.089277,0.30044,1.8883,-5.0000000000105516e-05,-0.0001500000000000945,-4.999999999988347e-05,8.513463562564993e-05,-0.0002536543294486826,-0.00015045368841165585
149740000000.0,2,0.00477583855,0.029625889649999997,0.0419136221,-0.03598,-0.015447,0.004565,0.8340948091,-2.898649607,-9.331223608,0.08915,0.30006,1.8883,0.001000000000000112,-0.00014999999999987246,-0.0008999999999999009,0.001678007355904676,0.005116970354042127,0.002607305226818346
149740000000.0,2,0.038873560599999996,0.0240066792,0.0407172108,-0.043528,-0.020719,0.012033,0.8329180110999999,-2.8946288804999996,-9.332596538999999,0.089012,0.29964,1.8885,-3.333333333332966e-05,3.333333333332966e-05,-0.00010000000000021103,0.0002147094978267039,0.0003236728705831027,0.00013990928982729467
149740000000.0,2,0.0362649917,0.00224572285,0.046454101049999995,-0.045706,-0.024964,0.014171,0.8308880345499999,-2.8907062205,-9.3340675365,0.088783,0.29922,1.8886,-3.333333333332966e-05,3.333333333332966e-05,-9.999999999998899e-05,0.0005159741206416935,0.00045843232765907516,4.9678021087767865e-05
149740000000.0,2,0.02784107935,-0.0235163467,0.0403445581,-0.046718,-0.022816,0.006694,0.8291326441999999,-2.8867835605,-9.335342401,0.088583,0.2988,1.8887,-3.333333333332966e-05,3.333333333332966e-05,-9.999999999998899e-05,-4.819913294284994e-05,0.00026137582160079553,-3.371621881242959e-05
149740000000.0,2,0.04072701744999999,-0.021466756849999998,0.0652926757,-0.041328,-0.02072,-0.000773,0.8277695198499999,-2.8834492995,-9.336519199,0.088428,0.29844,1.8888,-5.0000000000105516e-05,1.6666666666775853e-05,-9.999999999998899e-05,0.0007094179075354812,0.00034599716222771804,0.0001818400038585133
149740000000.0,2,0.0299298958,0.0015396440499999998,0.08087544255000001,-0.035938,-0.018624,-0.008239,0.82674962825,-2.880213105,-9.3375979305,0.088309,0.2981,1.8887,-4.999999999988347e-05,1.666666666655381e-05,-9.999999999998899e-05,0.0006392188020544198,0.00042741964783266084,-3.235706657445103e-05
149740000000.0,2,0.0155925735,0.0033931009,0.07786480099999998,-0.034851,-0.015436,-0.007175,0.8258179964999999,-2.8771730434999996,-9.338676662,0.088201,0.29777,1.8886,-2.4999999999941735e-05,1.666666666655381e-05,-9.999999999998899e-05,0.00016602503843371474,-8.156495159172827e-05,9.438297388325578e-05
149740000000.0,2,0.0199074995,-0.0101400761,0.07986535759999999,-0.036964,-0.01435,-0.009316,0.8252492108,-2.8742310485,-9.3395592605,0.088131,0.29746,1.8886,-2.4999999999941735e-05,1.6666666666775853e-05,-9.999999999998899e-05,0.0004091075170784553,-1.3120648582720662e-05,-8.920053868033406e-05
149740000000.0,2,0.0034323275,0.0179265562,0.059026226349999995,-0.044404,-0.010027,-0.008269,0.8246608118,-2.8702103219999997,-9.340932191499999,0.088056,0.29702,1.8885,-2.500000000016378e-05,1.6666666666775853e-05,-9.999999999998899e-05,0.0006660622915484748,0.0004157549014029982,-9.45805544378675e-05
149740000000.0,2,0.004971971549999999,0.0352058735,0.04509097669999999,-0.048579,-0.000399,-0.011496,0.82492559135,-2.865306997,-9.342403188999999,0.088071,0.29651,1.8885,-2.4999999999941735e-05,1.666666666655381e-05,-9.999999999998899e-05,0.00016883951446272638,-0.00013726949102310648,-0.00017559681583775855
149740000000.0,2,0.036412091449999996,0.022947561,0.0373633365,-0.057101,0.00074,-0.01258,0.8259552895999999,-2.8599133395,-9.343972252999999,0.088165,0.29593,1.8884,-3.333333333332966e-05,5.0000000000105516e-05,-0.00019999999999997797,0.0009361004605415446,0.00032169849625440783,6.917214926299708e-05
149740000000.0,2,0.028762904449999998,0.0235163467,0.015886773,-0.06768,0.011485,-0.013685,0.8277597132,-2.853342884,-9.34573745,0.08834,0.29523,1.8883,-3.333333333332966e-05,4.999999999988347e-05,-9.999999999998899e-05,0.0005646001859125338,-0.00017448766664807103,-5.5841830698150074e-05
149740000000.0,2,0.05204389155,0.02993970245,0.012375992300000001,-0.074027,0.018997,-0.012643,0.83067228825,-2.8457917635,-9.3477968465,0.088629,0.29443,1.8882,-3.333333333332966e-05,3.333333333332966e-05,-9.999999999998899e-05,0.0006577670110852751,3.6463868462455196e-06,-0.0002499474358659548
149740000000.0,2,0.05343643585,0.0249677309,0.0060408964,-0.077177,0.027546,-0.009461,0.8343693953,-2.8380445099999996,-9.349856243,0.089003,0.2936,1.8881,-0.00019999999999997797,3.333333333332966e-05,-0.00019999999999997797,-3.888704352489336e-05,-0.0006629684813215242,9.288543094831958e-05
149740000000.0,2,0.031842192549999995,0.04946474259999999,0.0252815437,-0.067527,0.034925,-0.007323,0.83830186195,-2.830591456,-9.351719506499999,0.089402,0.29281,1.8881,-0.00019999999999997797,3.333333333332966e-05,-5.0000000000105516e-05,0.0004775044857622257,0.0001649373729577519,-0.0004826563252267879
149740000000.0,2,0.06991160785,0.0497981687,0.031547993049999994,-0.055829,0.031632,-0.005163,0.8428815675,-2.8244132664999997,-9.353190504,0.089874,0.29214,1.888,-0.00020000000000020002,5.0000000000105516e-05,-4.999999999988347e-05,0.000494326430886094,-0.0001673517806506375,5.2753760040158415e-05
149740000000.0,2,0.07765886135,0.02574245625,0.023339827,-0.043102,0.026196,0.001272,0.8469513272499999,-2.819608008,-9.354269235499999,0.090296,0.29164,1.888,-0.00019999999999997797,5.0000000000105516e-05,-9.999999999998899e-05,0.0006122577605526258,-3.8985561844562255e-05,-2.4752742215888857e-05
149740000000.0,2,0.055182019549999996,0.0327345977,0.01997614605,-0.029358,0.013293,0.005588,0.84938337645,-2.8161756805,-9.355151833999999,0.090545,0.29127,1.8881,-0.00019999999999997797,0.0004999999999999449,0.0004999999999999449,-0.0027262482174505998,-0.004631521510677139,-0.0021004399514658045
149740000000.0,2,0.06498866955,0.039412926349999995,0.043139453349999995,-0.017738,0.001473,0.009898,0.85079553405,-2.8138220845,-9.3556421665,0.090689,0.29102,1.8881,3.333333333332966e-05,9.999999999998899e-05,-9.999999999998899e-05,0.00019252594216601082,-0.00018124311691569694,6.403876018101773e-05
149740000000.0,2,0.06961740834999999,0.0157690932,0.04219801495,-0.013608,-0.012416,0.015266,0.8508053406999999,-2.81254722,-9.3560344325,0.090686,0.29088,1.8883,3.333333333332966e-05,9.999999999998899e-05,-3.333333333332966e-05,-0.0010781983423963637,-0.00046634150519486717,-0.00013461119380656084
149740000000.0,2,0.04615990155,-0.0005687857,0.0546034272,-0.017939,-0.017711,0.019537,0.8495697028,-2.8114684884999996,-9.356524765,0.090551,0.29076,1.8884,3.333333333332966e-05,9.999999999998899e-05,-3.333333333332966e-05,0.00010169312715596623,0.0003035648237781352,-9.626004396273702e-06
149740000000.0,2,0.043139453349999995,0.003530394,0.04780741875,-0.031813,-0.017596,0.02058,0.8480987053,-2.8091148925,-9.357309297,0.090388,0.29052,1.8887,9.999999999998899e-05,5.0000000000105516e-05,-3.333333333332966e-05,0.00030487831711245583,0.00045732576413848314,0.00015681059000671738
149740000000.0,2,0.0451890432,-0.01118938765,0.027997985749999996,-0.046647,-0.004685,0.020531,0.8475495329,-2.805486432,-9.358486095,0.090319,0.29013,1.8889,9.999999999998899e-05,4.999999999988347e-05,-9.999999999998899e-05,0.0004836599389820839,0.00018289583239083917,0.0002426034610339689
149740000000.0,2,0.01634768555,-0.026360275199999998,0.013788149899999998,-0.060358,0.015674,0.021539,0.84810851195,-2.8007792400000002,-9.359859025999999,0.090365,0.28963,1.8891,9.999999999998899e-05,9.999999999998899e-05,-9.999999999998899e-05,0.001480931285011755,0.00040081348072762424,0.0002941233941829158
149740000000.0,2,0.00995374975,-0.0274978466,0.0033342610000000003,-0.062351,0.035933,0.025769,0.8506092076999999,-2.7953855825000002,-9.361231957,0.090617,0.28906,1.8895,0.00010000000000021103,9.999999999998899e-05,-9.999999999998899e-05,0.00021967031377218005,-0.0003538873165509493,0.00017651136642032883
149740000000.0,2,-6.864654999999999e-05,-0.030096608849999998,0.02234935535,-0.056931,0.049735,0.031092,0.85434554135,-2.7907764569999998,-9.3623106885,0.091002,0.28856,1.8898,9.999999999998899e-05,9.999999999998899e-05,-9.999999999998899e-05,0.0006539115764787051,-0.00016181636444567715,0.0005797652637360429
149740000000.0,2,-0.016671304999999997,-0.042099948449999994,0.020780291349999997,-0.042019,0.046415,0.031124,0.8577876755,-2.7874421959999998,-9.362997154,0.09136,0.28821,1.8902,4.999999999988347e-05,9.999999999998899e-05,-9.999999999998899e-05,0.000705751330246307,-0.0008466661247825691,9.217017031326602e-05
149740000000.0,2,-0.014239255799999998,-0.0374221764,0.0196917532,-0.027238,0.026048,0.030118,0.85954306585,-2.785480866,-9.363389419999999,0.091542,0.28801,1.8906,5.0000000000105516e-05,9.999999999998899e-05,-5.0000000000105516e-05,0.0004147261818902015,-0.0006008739389813389,0.000278615076405031
149740000000.0,2,-0.00257914895,-0.0344801814,0.014405968849999999,-0.013601,-0.0039,0.029127,0.85895466685,-2.7847944005,-9.363585553,0.091477,0.28794,1.8909,9.999999999998899e-05,9.999999999998899e-05,-4.999999999988347e-05,0.0003492441166212945,0.00048705275762617184,0.0004947840119514935
149740000000.0,2,-0.02003498595,-0.04219801495,-0.0091594111,-0.00524,-0.028474,0.024916,0.8557576989499999,-2.7850885999999995,-9.363879752499999,0.091137,0.28796,1.8912,9.999999999998899e-05,4.999999999988347e-05,-5.0000000000105516e-05,-2.527359077414415e-05,0.0006828924498816225,0.0003716740948529196
149740000000.0,2,-0.026389695149999996,-0.028870777599999998,-0.04150174279999999,-0.004245,-0.0402,0.020669,0.8510407002999999,-2.7850885999999995,-9.3642720185,0.090633,0.28796,1.8914,9.999999999998899e-05,5.0000000000105516e-05,-5.0000000000105516e-05,4.351990736123357e-05,0.00047189732471975,0.00014451156113609587
149740000000.0,2,-0.029292463549999998,-0.03853032785,-0.057535615549999995,-0.005289,-0.03806,0.019596,0.8461667952499999,-2.7850885999999995,-9.364664284499998,0.090112,0.28797,1.8916,9.999999999998899e-05,9.999999999998899e-05,5.0000000000105516e-05,-0.00032899781395068217,0.00039349236425456624,-4.648630116016461e-05
149740000000.0,2,-0.0371083636,-0.05575080524999999,-0.03862839435,-0.006161,-0.01461,0.018487,0.8429011808,-2.7853827995,-9.3648604175,0.089765,0.288,1.8918,5.0000000000105516e-05,9.999999999998899e-05,5.0000000000105516e-05,-2.538781067584761e-05,0.00020875952300891676,-0.00024391415139696226
149740000000.0,2,-0.05526047275,-0.045473436049999996,-0.026477955,-0.005985,0.012019,0.025912,0.8417538027499999,-2.7856769989999997,-9.364958484,0.089643,0.28802,1.8921,4.999999999988347e-05,9.999999999998899e-05,-0.00010000000000021103,-0.00040024002232152966,-0.00024500447496289546,0.00028548239851775015
149740000000.0,2,-0.06034031744999999,-0.042923707049999996,-0.01322917085,-0.006982,0.025869,0.034426,0.8420480022499999,-2.785873132,-9.3648604175,0.089674,0.28804,1.8925,9.999999999998899e-05,9.999999999998899e-05,0.00010000000000021103,0.00010391333666620595,-4.729782498813506e-05,0.0004990934872302344
149740000000.0,2,-0.0467384939,-0.05086709354999999,0.015759286549999998,-0.008061,0.02481,0.035494,0.8426560145499999,-2.786265398,-9.364664284499998,0.089741,0.28809,1.8929,5.0000000000105516e-05,0.00010000000000021103,0.00012499999999993072,-0.000299416630525573,-0.00034675187341282054,0.0004004834627241993
149740000000.0,2,-0.049651068949999995,-0.058271114299999996,0.036284605,-0.010287,0.010977,0.032313,0.8422833618499999,-2.7867557304999995,-9.364566218,0.089702,0.28814,1.8933,4.999999999988347e-05,9.999999999998899e-05,0.00012499999999993072,0.0002872867459485229,-0.0002484742156247943,0.0002867479565417941
149740000000.0,2,-0.0299691224,-0.05551544565,0.0510926465,-0.015759,-0.012412,0.022739,0.84055739145,-2.7868537969999996,-9.364664284499998,0.089518,0.28815,1.8936,-0.0001500000000000945,4.999999999988347e-05,0.00012500000000015277,-0.00019176901512635292,-7.590618907737934e-05,-0.00012539343795373026
149740000000.0,2,-0.015582766849999999,-0.0451890432,0.03711817025,-0.028677,-0.033607,0.01208,0.83724274375,-2.785480866,-9.36535075,0.089161,0.28801,1.8937,-0.00014999999999987246,5.0000000000105516e-05,0.00012499999999993072,-0.004075212300479081,-0.0030991748122124463,-0.0015946383455295587
149740000000.0,2,-0.02144714355,-0.06276256,0.021407916949999998,-0.039331,-0.036709,0.004596,0.8332318239,-2.7832253364999997,-9.366429481499999,0.088726,0.28776,1.8938,-9.999999999998899e-05,9.999999999998899e-05,-3.333333333332966e-05,-8.893566804096809e-05,-0.00015172044921052397,-0.0004767849189354634
149740000000.0,2,-0.03898143375,-0.0648807964,0.04072701744999999,-0.039194,-0.027108,-0.007162,0.8298093030499999,-2.7806756075,-9.367508212999999,0.088354,0.28749,1.8939,9.999999999998899e-05,4.999999999988347e-05,-3.333333333332966e-05,0.0003483319268695051,0.0003022798840097707,-9.262119557273962e-05
149740000000.0,2,-0.05227925115,-0.02793914585,0.09270226244999999,-0.033716,-0.015423,-0.016779,0.8277008733,-2.7780278119999995,-9.368488877999999,0.088121,0.28722,1.8938,-5.0000000000105516e-05,5.0000000000105516e-05,-3.333333333332966e-05,0.0009237258138574123,0.0009286613374552832,0.00017531502905399066
149740000000.0,2,-0.0452282698,-0.0023928226,0.0963797562,-0.02399,-0.002713,-0.021054,0.8270928609999999,-2.7759684154999995,-9.369175343499998,0.08805,0.28699,1.8936,-4.999999999988347e-05,9.999999999998899e-05,9.999999999998899e-05,-0.00038285920513247973,-0.0008992404504415408,-0.0004832538416002785
149740000000.0,2,-0.0646062102,0.0032361944999999997,0.0862200668,-0.011079,0.009967,-0.022121,0.8273086073,-2.7747916174999996,-9.369469543,0.088071,0.28687,1.8934,-4.999999999988347e-05,4.999999999988347e-05,-9.999999999998899e-05,0.0006596392343239388,0.00020068534392669868,-8.287019922609273e-05
149740000000.0,2,-0.08581799415,0.02191786275,0.09276110235,0.004971,0.013034,-0.026367,0.8278675863499999,-2.7747916174999996,-9.3693714765,0.08813,0.28687,1.8932,-5.0000000000105516e-05,5.0000000000105516e-05,2.4999999999941735e-05,-7.3258227126227204e-06,-0.00027472901364267166,-0.0002938472344244103
149740000000.0,2,-0.045375369549999996,0.01003220295,0.07882585269999999,0.022074,0.015026,-0.029543,0.82947587695,-2.7763606814999995,-9.3687830775,0.088306,0.28704,1.8929,-3.333333333332966e-05,9.999999999998899e-05,2.4999999999941735e-05,0.00010958702109359342,-0.00040188268924334913,-2.5708618505371206e-05
149740000000.0,2,-0.032577691299999996,-0.009414384,0.0738636878,0.042293,0.006337,-0.032695,0.8307409347999999,-2.7800872085,-9.367508212999999,0.088451,0.28744,1.8925,-3.333333333332966e-05,4.999999999988347e-05,2.500000000016378e-05,0.0001372511292804246,0.0004083682787323628,-7.626491838957916e-05
149740000000.0,2,-0.0323423317,0.004707192,0.0761192173,0.062472,-0.008743,-0.03797,0.8309566811,-2.7855789325,-9.365939148999999,0.08849,0.28802,1.8921,-3.333333333332966e-05,5.0000000000105516e-05,2.4999999999941735e-05,-0.0001574956690540419,0.0004468427200088332,-4.12530031966285e-05
149740000000.0,2,-0.0035892338999999997,0.014572681899999999,0.046581587499999993,0.075104,-0.030159,-0.03791,0.8297406565,-2.7921493879999995,-9.3640758855,0.088378,0.28871,1.8916,-9.999999999998899e-05,9.999999999998899e-05,5.0000000000105516e-05,-0.00040432163398956833,9.444977440353775e-05,-0.000468564533529392
149740000000.0,2,-0.0112188076,0.015474893699999999,0.00255953565,0.074972,-0.047206,-0.038948,0.8264456220999999,-2.7987198435,-9.362408754999999,0.088044,0.28941,1.8912,9.999999999998899e-05,9.999999999998899e-05,4.999999999988347e-05,-0.00025523622377998656,0.0008826805820345562,-0.00013890706492877825
149740000000.0,2,-0.009943943099999998,0.012601545249999999,-0.02307504745,0.07069,-0.048238,-0.037886,0.82276812835,-2.8049960995,-9.360839691,0.08767,0.29008,1.8907,9.999999999998899e-05,9.999999999998899e-05,-0.00039999999999995595,0.0024519087194387335,0.0030301970101824782,0.0011191130195227494
149740000000.0,2,-0.00648219565,-0.0050308114499999996,0.0031185146999999996,0.060147,-0.033232,-0.038998,0.8202085927,-2.8106839564999997,-9.359368693499999,0.087412,0.29069,1.8903,-0.00039999999999995595,9.999999999998899e-05,0.0005999999999999339,-0.003807501215236486,-0.0028678454807069542,-0.0019891005122426586
149740000000.0,2,-0.02586013605,0.00403053315,0.011179581,0.045393,-0.009669,-0.037997,0.8193848341,-2.8149988825000003,-9.3581918955,0.087336,0.29114,1.8898,-0.00010000000000021103,9.999999999998899e-05,3.333333333332966e-05,-0.0003378094289834821,4.364099148368439e-05,-0.00026977020258400763
149740000000.0,2,-0.019387747049999998,0.0007354987499999999,0.021839409549999998,0.030589,0.009629,-0.033787,0.8206989252,-2.8179408775,-9.357113164,0.087485,0.29146,1.8895,-9.999999999998899e-05,9.999999999998899e-05,3.333333333332966e-05,0.00036433124800000494,0.00018036749575367494,-0.00026552946765492913
149740000000.0,2,-0.01581812645,-0.0217315364,0.0751385523,0.014608,0.018275,-0.024223,0.8229642613499999,-2.820196407,-9.356230565499999,0.087733,0.2917,1.8892,-0.00019999999999997797,0.00019999999999997797,3.333333333332966e-05,-0.0007718499616181651,-0.0013477926091891579,-0.0005448706585110819
149740000000.0,2,-0.0183580488,-0.021809989599999996,0.06859751675,-0.007887,0.010994,-0.017845,0.8246019718999998,-2.8205886729999996,-9.3560344325,0.087909,0.29174,1.889,-9.999999999998899e-05,9.999999999998899e-05,-3.333333333332966e-05,-0.00021949576872182242,-0.00022258070709813005,-0.00017751668236348772
149740000000.0,2,-0.00367749375,-0.027389973449999997,0.05045521425,-0.033615,-0.003714,-0.016796,0.8250334644999999,-2.8185292764999996,-9.356524765,0.08795,0.29152,1.8888,-9.999999999998899e-05,9.999999999998899e-05,-3.333333333332966e-05,-0.0003509305836233989,-0.0015078742057623717,-0.0006110152576445649
149740000000.0,2,0.021584436649999997,-0.045365562899999996,0.06600856114999999,-0.057162,-0.012046,-0.014687,0.8249157846999999,-2.814704683,-9.357701563,0.087926,0.29111,1.8887,0.000700000000000145,9.999999999998899e-05,-3.333333333332966e-05,8.577919213531571e-05,0.00025360194871493213,-6.443414697959726e-05
149740000000.0,2,0.015445473749999999,-0.034401728199999995,0.0689603628,-0.078502,-0.009742,-0.010459,0.8246117785499999,-2.808428427,-9.359662893,0.087876,0.29045,1.8886,0.0006999999999999229,-0.00039999999999995595,-0.0012000000000000899,0.006374366175290858,0.008872083614142046,0.004512600918820303
149740000000.0,2,0.007433440699999999,-0.0471111466,0.053465855799999996,-0.09759,0.005333,-0.009451,0.82529824405,-2.8004850405,-9.362016488999998,0.087927,0.2896,1.8886,9.999999999998899e-05,9.999999999998899e-05,-9.999999999998899e-05,0.000783903447446388,2.9880647813396166e-05,0.00011932698752722959
149740000000.0,2,0.0022359162,-0.05539776585,0.0481506515,-0.10599,0.023515,-0.007363,0.8273576405499999,-2.7916590555,-9.3644681515,0.088122,0.28866,1.8886,-9.999999999998899e-05,5.0000000000105516e-05,-9.999999999998899e-05,0.0008039658424299212,-0.00011392546373545365,-0.0001537734488938347
149740000000.0,2,-0.0141804159,-0.028576578099999996,0.0543680676,-0.09733,0.039426,-0.006308,0.8307507414499999,-2.7828330705,-9.366723681,0.08846,0.28772,1.8886,-9.999999999998899e-05,4.999999999988347e-05,-9.999999999998899e-05,0.0017883904023184294,0.0001390958279183785,0.00019350475079712992
149740000000.0,2,-0.02001537265,0.018426695349999998,0.07350084174999999,-0.078015,0.049929,-0.01163,0.8353892868999999,-2.7748896839999997,-9.368685010999998,0.088933,0.28688,1.8886,-3.333333333332966e-05,4.999999999988347e-05,-0.00019999999999997797,0.0012284916660897927,-0.00025683592581215997,0.00013699346616516395
149740000000.0,2,-0.014239255799999998,0.039403119699999996,0.09927271794999999,-0.048174,0.041166,-0.019035,0.8399395725,-2.7693979599999996,-9.3699598755,0.089403,0.28629,1.8885,-3.333333333332966e-05,5.0000000000105516e-05,-9.999999999998899e-05,0.0009373549892460198,-0.0004359647779001996,0.00010440679494791438
149740000000.0,2,0.01328801075,0.05480936685,0.0789631458,-0.025911,0.020741,-0.02323,0.8433915133,-2.7656714329999996,-9.3707444075,0.089761,0.2859,1.8883,-3.333333333332966e-05,9.999999999998899e-05,-3.333333333332966e-05,0.0004250080116949828,-0.0002957852573806097,-0.0005258584174408776
149740000000.0,2,0.016190779149999997,0.04135464305,0.06957818175,-0.004782,-0.006071,-0.024214,0.8445192780499999,-2.7641023689999997,-9.371038607,0.089878,0.28574,1.888,-9.999999999998899e-05,5.0000000000105516e-05,-3.333333333332966e-05,-0.00013490473145910675,-0.0001094121852134311,-0.00037336326352738203
149740000000.0,2,0.0328522775,0.01083634825,0.0695683751,0.005698,-0.031727,-0.027353,0.8435680329999999,-2.7644946349999997,-9.371038607,0.089777,0.28577,1.8877,-6.666666666665932e-05,5.0000000000105516e-05,-3.333333333332966e-05,0.00047690854950532824,0.0002553870883443832,-0.00020516598365219463
149740000000.0,2,0.050818060299999995,-0.0053740442,0.08955432779999999,0.007678,-0.047731,-0.021985,0.8410281106499999,-2.7654752999999994,-9.3709405405,0.089508,0.28588,1.8874,-6.666666666665932e-05,9.999999999998899e-05,4.999999999988347e-05,0.00025617467554961415,9.501207833828573e-07,-0.00027586323761946696
149740000000.0,2,0.0564470774,-0.0065704555,0.09644840275,-0.003052,-0.050845,-0.014526,0.83779191615,-2.765867566,-9.3711366735,0.089164,0.28592,1.8872,-6.666666666665932e-05,9.999999999998899e-05,5.0000000000105516e-05,-0.0004653364907983848,0.0002884633997068953,-0.0005367312007626412
149740000000.0,2,0.035343166599999996,-0.0383243882,0.09970421055,-0.021145,-0.036856,-0.000706,0.8348008878999998,-2.7654752999999994,-9.3715289395,0.088844,0.28587,1.8872,-0.000500000000000167,0.00024999999999986144,-0.00019999999999997797,0.0005468594481104483,0.0003686888291778434,-9.13601393174035e-05
149740000000.0,2,-0.006952914849999999,-0.06580262149999999,0.0615269221,-0.038062,-0.013281,0.006695,0.8328101379499999,-2.76351397,-9.372313471499998,0.088626,0.28567,1.8873,-0.0004999999999999449,0.0002500000000000835,0.0005999999999999339,-0.0025560552972615502,-0.004491061844650979,-0.0024032725366226193
149740000000.0,2,-0.0253796102,-0.04096237705,0.05182814524999999,-0.053819,0.016686,0.005548,0.83312395075,-2.759787443,-9.373392203,0.088649,0.28528,1.8874,-0.00013333333333331865,9.999999999998899e-05,-9.999999999998899e-05,0.00036918745018060806,8.838732805349636e-05,0.00023432502528752952
149740000000.0,2,-0.03717701015,0.011356100699999998,0.069823348,-0.059046,0.029516,0.004449,0.83504605415,-2.754491852,-9.374765134,0.088839,0.28471,1.8875,-0.00013333333333331865,4.999999999988347e-05,-0.00019999999999997797,0.0001882561547377759,-0.0006282402620330085,-3.168417425361558e-05
149740000000.0,2,-0.04233530804999999,-0.012140632699999999,0.0422470482,-0.05797,0.030572,0.004449,0.8372133238,-2.749392394,-9.3760399985,0.089056,0.28417,1.8876,-0.00013333333333331865,5.0000000000105516e-05,0.0004999999999999449,-0.0034470491200598308,-0.0038085076042440047,-0.0015373720741323482
149740000000.0,2,-0.01415099595,-0.0442476048,0.041844975549999996,-0.051718,0.010276,0.002361,0.8385078015999999,-2.745273601,-9.37711873,0.089183,0.28373,1.8877,-5.0000000000105516e-05,5.0000000000105516e-05,-9.999999999998899e-05,0.0004015775718588799,1.5336073692084895e-05,6.248879039599808e-05
149740000000.0,2,-0.013003617899999998,-0.0554467991,0.05427980775,-0.039057,-0.011135,-0.002916,0.8379586291999999,-2.742331606,-9.378099395,0.089116,0.28342,1.8877,-4.999999999988347e-05,4.999999999988347e-05,-9.999999999998899e-05,0.00013150411229556624,-0.00026417499992237303,-0.00023572724298157044
149740000000.0,2,-0.0192994872,-0.0637039984,0.057211996099999995,-0.027424,-0.028275,-0.009269,0.835722713,-2.7406644754999996,-9.3787858605,0.088873,0.28324,1.8877,-4.999999999988347e-05,4.999999999988347e-05,-9.999999999998899e-05,0.0006403187960331014,0.0005309241939961407,-0.00021408075247450475
149740000000.0,2,-0.00752170055,-0.07128453885,0.0919471504,-0.014672,-0.039029,-0.015633,0.83247671185,-2.7405664089999995,-9.37908006,0.088527,0.28323,1.8876,-5.0000000000105516e-05,5.0000000000105516e-05,-9.999999999998899e-05,-0.0002694470129024351,0.00048213856851497816,-0.0006380103176173157
149740000000.0,2,-0.022329742049999997,-0.09321220824999998,0.0872007318,-0.006119,-0.043352,-0.025216,0.8288776712999999,-2.7415470739999996,-9.37908006,0.088146,0.28333,1.8873,-9.999999999998899e-05,9.999999999998899e-05,-9.999999999998899e-05,-0.0002934170959450477,-0.0008087728529397875,-0.0007244427353178262
149740000000.0,2,-0.00960071035,-0.10657867219999999,0.0779040276,-0.001837,-0.043385,-0.027343,0.8254257304999999,-2.743116138,-9.378981993499998,0.087783,0.2835,1.8871,-9.999999999998899e-05,4.999999999988347e-05,-9.999999999998899e-05,0.00025444944744912323,0.0005972261284292735,-0.0003266210817248205
149740000000.0,2,-0.024497011699999998,-0.1073043643,0.0564470774,-0.005052,-0.044427,-0.025212,0.8216207502999999,-2.7444890689999997,-9.378883927,0.08738,0.28365,1.8868,0.00029999999999996696,5.0000000000105516e-05,-0.0005999999999999339,0.0036981361027024207,0.004031639231813378,0.0009776651081203902
149740000000.0,2,-0.007433440699999999,-0.09596787689999998,0.021623663249999998,-0.012534,-0.041178,-0.016691,0.81802170975,-2.7448813349999996,-9.37908006,0.086998,0.28369,1.8866,-9.999999999998899e-05,-2.4999999999941735e-05,-9.999999999998899e-05,2.248689680628413e-05,0.00044270908118893004,-0.00021217288830652214
149740000000.0,2,-0.01218966595,-0.09321220824999998,-0.011532620399999999,-0.020997,-0.025137,-0.004992,0.81513855465,-2.7444890689999997,-9.379472325999998,0.08669,0.28365,1.8866,-9.999999999998899e-05,-2.500000000016378e-05,-9.999999999998899e-05,0.0006289322552482934,0.0007136042380313512,-0.0004180726604029461
149740000000.0,2,-0.018240369,-0.09174121075,-0.01683801805,-0.024051,-0.003806,0.000302,0.8138636901499999,-2.7436064705,-9.3797665255,0.086551,0.28355,1.8866,-9.999999999998899e-05,-2.4999999999941735e-05,-9.999999999998899e-05,0.0002323025723744987,0.00031891924133109484,0.00021196266752054882
149740000000.0,2,0.0016082905999999998,-0.07742350174999998,-0.031175340349999997,-0.028163,0.015409,0.000262,0.8148149351999999,-2.7422335395,-9.3801587915,0.086649,0.28341,1.8866,-9.999999999998899e-05,-2.4999999999941735e-05,0.00019999999999997797,0.00011815157448835656,-0.0017187195194401372,-0.0007826787387718581
149740000000.0,2,-0.00354020065,-0.059134099499999995,-0.05791807489999999,-0.033383,0.028241,-0.001905,0.8171194979499999,-2.739781877,-9.380649124,0.086888,0.28315,1.8866,-9.999999999998899e-05,-2.4999999999941735e-05,-9.999999999998899e-05,0.000437135329396654,-0.0003160034823146418,-0.00014034983834382286
149740000000.0,2,-0.0020593965,-0.048170264799999994,-0.0735302617,-0.038685,0.028291,-0.008318,0.8199830397499999,-2.7365456825,-9.381335589499999,0.087184,0.28281,1.8866,-5.0000000000105516e-05,-2.4999999999941735e-05,-5.0000000000105516e-05,0.0007004618829853371,0.00022574416478682302,0.00025789030828526904
149740000000.0,2,0.0228887211,-0.04726805299999999,-0.09235902969999998,-0.038764,0.017637,-0.009367,0.8225621886999999,-2.733113355,-9.382120121499998,0.08745,0.28244,1.8865,-4.999999999988347e-05,-2.500000000016378e-05,-4.999999999988347e-05,0.0007464161259549407,8.912341974220972e-05,-1.2424245498160458e-05
149740000000.0,2,0.027213453749999998,-0.04716017985,-0.09098609869999999,-0.032487,0.002667,-0.008263,0.8237782132999999,-2.7301713599999995,-9.382904653499999,0.087571,0.28212,1.8864,4.999999999988347e-05,-2.4999999999941735e-05,-4.999999999988347e-05,0.0007969328576139523,0.00035624971191983157,0.00017117652368220382
149740000000.0,2,0.028811937699999998,-0.046238354749999995,-0.0676266584,-0.02298,-0.008069,-0.006093,0.82367034015,-2.728013897,-9.383493052499999,0.087554,0.2819,1.8864,5.0000000000105516e-05,-1.999999999990898e-05,-5.0000000000105516e-05,0.0002406770134418812,0.0011292502414839145,0.00045794953470212896
149740000000.0,2,0.0316558662,-0.025526709949999997,-0.04439470455,-0.009177,-0.012451,0.000343,0.8230721345,-2.7270332319999997,-9.383787252,0.087488,0.2818,1.8864,-0.00019999999999997797,-2.0000000000131024e-05,0.00019999999999997797,-0.0005006497128547949,-0.0015065025575242696,-0.0008479245168148131
149740000000.0,2,0.029733762799999997,-0.023330020349999998,-0.029292463549999998,0.001458,-0.011481,0.008899,0.8222974091499999,-2.7273274315,-9.383787252,0.087406,0.28182,1.8864,-9.999999999998899e-05,-1.999999999990898e-05,9.999999999998899e-05,6.937240600879413e-05,0.0003511091070227401,0.0001270365614756408
149740000000.0,2,0.028351025149999997,-0.0310478539,-0.0215157901,0.006853,0.001254,0.017425,0.8221895359999999,-2.7284061630000003,-9.383493052499999,0.087397,0.28194,1.8865,-1.4285714285744433e-05,-2.0000000000131024e-05,6.666666666665932e-05,0.0001454791331945149,0.0006372207396350138,0.00036305130314248646
149740000000.0,2,0.024693144699999996,-0.017259704,0.014915914649999999,0.005843,0.012977,0.024874,0.8228563882,-2.7294848945,-9.3831007865,0.087471,0.28206,1.8868,-1.4285714285744433e-05,-1.999999999990898e-05,6.666666666665932e-05,0.0001680874413911293,0.00041583201547013005,0.00042814499885115986
149740000000.0,2,0.0308713342,-0.04155077605,0.0365788045,0.001577,0.016205,0.030198,0.82416067265,-2.7307597589999997,-9.382610454,0.087614,0.28219,1.887,-1.4285714285744433e-05,-3.333333333332966e-05,6.666666666665932e-05,-0.0005512158272957257,-0.000709091362736114,0.00037110880114454847
149740000000.0,2,0.02293775435,-0.0533285627,0.03774579585,-0.000525,0.017293,0.025923,0.8255041837,-2.7320346234999997,-9.382120121499998,0.087761,0.28232,1.8873,-1.4285714285744433e-05,-3.333333333332966e-05,4.999999999988347e-05,0.0001899382494559565,0.00020709990742528994,0.000422280717181589
149740000000.0,2,0.02837063845,-0.0274390067,0.0502688879,-0.000516,0.010913,0.014192,0.8269555678999999,-2.7328191554999997,-9.381825921999999,0.087917,0.2824,1.8875,-1.4285714285744433e-05,-3.333333333332966e-05,5.0000000000105516e-05,-0.00016220063515193228,-0.00029293450407874566,0.00043367080417039405
149740000000.0,2,0.040354364749999996,-0.015651413399999998,0.0349901272,-0.001604,0.00028,0.0014,0.82784797305,-2.7330152885,-9.381629789,0.088013,0.28243,1.8875,-1.4285714285744433e-05,-5.0000000000105516e-05,5.0000000000105516e-05,-0.00012233091017249675,0.0004637939924145851,0.0001973681555692275
149740000000.0,2,0.0369122306,-0.02287891445,0.02331040705,0.0037,-0.010407,-0.009246,0.82784797305,-2.7336036874999996,-9.3815317225,0.088014,0.28249,1.8874,-1.4285714285744433e-05,-4.999999999988347e-05,4.999999999988347e-05,-0.00013209550833953587,-0.00026980046151181547,-0.00024852994569032894
149740000000.0,2,0.03902066035,-0.0212804305,0.04118793,0.005825,-0.013616,-0.01244,0.82768126,-2.7344862859999997,-9.381237523,0.087999,0.28258,1.8873,-4.999999999988347e-05,-4.999999999988347e-05,9.999999999998899e-05,0.0003540187041053411,0.00018854178665761445,-4.8918854927360034e-05
149740000000.0,2,0.03292092405,-0.0225945216,0.023212340550000002,0.009008,-0.012581,-0.007099,0.8271909274999999,-2.7356630839999996,-9.3809433235,0.08795,0.28271,1.8871,-5.0000000000105516e-05,-5.0000000000105516e-05,9.999999999998899e-05,-0.0006701720377533804,2.622412215447234e-05,-4.560402401965202e-05
149740000000.0,2,0.0241439723,-0.0122779258,0.01993691945,0.01543,-0.004119,0.002504,0.82714189425,-2.7371340815000003,-9.3805510575,0.087949,0.28287,1.8871,-0.00014999999999987246,-3.333333333332966e-05,9.999999999998899e-05,-0.00019383846166481922,-8.412051621786709e-05,-2.2322727809664933e-05
149740000000.0,2,0.025114830649999996,0.0135724036,0.06840138375,0.020786,0.006481,0.015303,0.8278185531,-2.7390954114999997,-9.379864591999999,0.088026,0.28307,1.8872,-0.0001500000000000945,-3.333333333332966e-05,0.00039999999999995595,-0.004327315754165062,-0.002252838591249029,-0.0007174649007786749
149740000000.0,2,0.011130547749999999,0.019946726099999996,0.0826112196,0.02295,0.012853,0.019565,0.82863250505,-2.741350941,-9.3791781265,0.08812,0.28332,1.8874,3.333333333332966e-05,-3.333333333332966e-05,9.999999999998899e-05,-0.0002486390210796885,0.00011527493523355581,0.000340001634045739
149740000000.0,2,0.019407360349999996,0.00269682875,0.07895333915000001,0.020808,0.011806,0.019563,0.8296327833499999,-2.74390067,-9.378295527999999,0.088233,0.28359,1.8875,3.333333333332966e-05,-3.333333333332966e-05,4.999999999988347e-05,-0.00027346365016567287,-0.00020008653272651777,0.0001699830998954932
149740000000.0,2,0.016622271749999997,0.0082179727,0.0838076309,0.014439,0.015057,0.018478,0.8309272611499999,-2.7458620000000002,-9.3776090625,0.088376,0.28379,1.8877,3.333333333332966e-05,-3.333333333332966e-05,5.0000000000105516e-05,-0.0003548862833022137,0.00029616887889183374,0.0005014199311680623
149740000000.0,2,-0.000392266,-0.00169655045,0.06618508085,0.00921,0.023633,0.010982,0.8325355517499999,-2.7473329975,-9.37711873,0.088551,0.28395,1.8878,-9.999999999998899e-05,-3.333333333332966e-05,9.999999999998899e-05,-0.0002901695146008132,-0.0004929925844645577,0.00013370359875997107
149740000000.0,2,-0.01211121275,-0.00456009225,0.08285638584999999,0.00606,0.025797,0.004569,0.8346734014499999,-2.7485097955,-9.376530331,0.088783,0.28407,1.8879,-4.999999999988347e-05,-5.0000000000105516e-05,9.999999999998899e-05,0.0001627069924947655,-0.0004920672350550159,-0.00011647667023423347
149740000000.0,2,-0.009669356899999999,-0.01642613875,0.08795584384999999,0.000714,0.021583,0.000297,0.8367131846499999,-2.7492943275,-9.376138065,0.089003,0.28416,1.8879,-5.0000000000105516e-05,-4.999999999988347e-05,5.0000000000105516e-05,-0.00012156181810601963,-0.0007814272679000922,-5.5190539522242954e-05
149740000000.0,2,-0.01695569785,-0.03425462845,0.062144741049999994,0.000669,0.013063,-0.003957,0.8380174691,-2.750176926,-9.375745798999999,0.089144,0.28425,1.8879,8.000000000008001e-05,-4.999999999988347e-05,4.999999999988347e-05,-4.136172150265294e-05,-0.00024690688915729453,-7.088513437900068e-05
149740000000.0,2,0.01230734575,-0.043698432399999994,0.058388794099999995,0.005903,0.000233,-0.003925,0.83883142105,-2.7515498569999997,-9.3752554665,0.089236,0.2844,1.8878,7.999999999985796e-05,-5.0000000000105516e-05,0.00010000000000021103,-0.0005880104433720335,-0.0005443456723526197,-3.290302843567128e-05
149740000000.0,2,0.0072765343,-0.0268898343,0.08191494744999998,0.015425,-0.007308,0.000374,0.8386254813999999,-2.7535111869999995,-9.374667067499999,0.089218,0.28461,1.8878,8.000000000008001e-05,-9.999999999998899e-05,-0.00019999999999997797,0.00015482133355454453,0.00016600137970379514,-5.978889650104513e-05
149740000000.0,2,0.008237586,-0.0281646988,0.101793027,0.022812,-0.013769,0.006803,0.8376644296999999,-2.756453182,-9.373980602,0.089124,0.28492,1.8878,7.999999999985796e-05,-9.999999999998899e-05,-0.00020000000000020002,-5.766365506643112e-05,-7.374145207572624e-06,-7.395824851011423e-05
149740000000.0,2,0.012944777999999999,-0.031744126049999995,0.09802727339999999,0.018515,-0.013739,0.0132,0.83639937185,-2.7594932434999997,-9.373196069999999,0.088998,0.28524,1.8879,8.000000000008001e-05,-5.0000000000105516e-05,-0.00019999999999997797,0.0030280744754631606,0.004219561822666584,0.002089242488423515
149740000000.0,2,0.0015298374,-0.03860878105,0.0731772223,0.005755,-0.007242,0.015301,0.8350950873999999,-2.7614545735,-9.372705737499999,0.088864,0.28545,1.888,-0.0004999999999999449,-4.999999999988347e-05,0.000700000000000145,-0.003568159099752277,-0.004197914824525251,-0.0022674128813803263
149740000000.0,2,-0.0031577413,-0.047846645349999994,0.04669926729999999,-0.010164,0.00248,0.014189,0.8345459149999999,-2.7620429724999997,-9.372607670999999,0.088807,0.28551,1.8882,0.0015000000000000568,-0.000500000000000167,-0.0013000000000000789,0.006663671189076181,0.008474805327435941,0.005229175468094482
149740000000.0,2,-0.0072176943999999995,-0.05314223635,0.0475622525,-0.021751,0.0175,0.008806,0.8354677401,-2.761356507,-9.372705737499999,0.088903,0.28544,1.8883,-0.001000000000000112,0.00029999999999996696,0.0005999999999999339,-0.00224588240336826,-0.004170777296296446,-0.0026023587505161483
149740000000.0,2,-0.01134629405,-0.029076717250000002,0.047179793149999996,-0.028081,0.025013,0.006647,0.83734081025,-2.75959131,-9.373098003499999,0.089099,0.28525,1.8884,-5.0000000000105516e-05,-9.999999999998899e-05,0.00019999999999997797,0.0007060494841621412,-3.538160308758087e-05,0.00012920318851780688
149740000000.0,2,-0.011365907350000001,-0.01634768555,0.04542440279999999,-0.037665,0.027223,0.006627,0.8396061464,-2.7567473815000003,-9.373686402499999,0.089333,0.28495,1.8885,-4.999999999988347e-05,-9.999999999998899e-05,0.00020000000000020002,-0.0006015454610367454,-0.0007650112892758631,-0.00030052952979295333
149740000000.0,2,-0.0129840046,-0.02105487755,0.019809433,-0.037692,0.02509,0.008765,0.8415282498,-2.7537073199999997,-9.374372868,0.089528,0.28462,1.8887,-0.0004999999999999449,-0.00019999999999997797,0.00019999999999997797,-0.004095083408327371,-0.004945192764082895,-0.0024237270735676664
149740000000.0,2,-0.0156121868,0.0030596748,-0.0038638200999999996,-0.0281,0.021817,0.005586,0.8432542201999998,-2.7506672585,-9.375157399999999,0.089705,0.28431,1.8888,0.00013333333333331865,-9.999999999998899e-05,-0.0001666666666666483,0.0006226937563228452,0.00021643957856554152,0.00023330948416505626
149740000000.0,2,0.0144746154,0.02731152025,0.015357213899999998,-0.013154,0.021696,0.003477,0.8454901363999999,-2.748803995,-9.3754515995,0.089938,0.2841,1.8888,0.00013333333333331865,-9.999999999998899e-05,-0.00016666666666687036,0.0002618306182606833,7.94119505476143e-05,0.0003257297405081516
149740000000.0,2,0.00958109705,0.044836003799999996,0.032705177749999995,0.009242,0.022575,0.006716,0.847686826,-2.7486078619999996,-9.375353532999998,0.090172,0.28409,1.8889,0.00013333333333331865,-9.999999999998899e-05,-0.0001666666666666483,0.0034936916134198914,0.0038669664171246954,0.002233247287178164
149740000000.0,2,-0.00042168595,0.05641765745,0.0460324151,0.027299,0.016027,0.012096,0.84916763015,-2.750176926,-9.374765134,0.090334,0.28425,1.889,-9.999999999998899e-05,-4.999999999988347e-05,4.999999999988347e-05,-0.00010319764989058511,-0.0003579324806115558,-1.125915502761532e-05
149740000000.0,2,0.019377940399999998,0.04919015639999999,0.059222359349999996,0.035706,0.002102,0.015337,0.8497168025499999,-2.7530208544999994,-9.3738825355,0.0904,0.28455,1.8891,-0.00019999999999997797,-5.0000000000105516e-05,5.0000000000105516e-05,-0.0001542777842105103,0.0002099440510514583,0.00010009313287942523
149740000000.0,2,0.0346959277,0.03915795345,0.0510338066,0.035579,-0.011751,0.018563,0.84906956365,-2.7561589825,-9.372999937,0.09034,0.28488,1.8892,-0.00019999999999997797,-0.00019999999999997797,0.000600000000000156,-0.004533004044015243,-0.004274822124270994,-0.0019303907959842825
