Time,placement_label,user_acc_x(m/s^2),user_acc_y(m/s^2),user_acc_z(m/s^2),rotation_rate_x(rad/s),rotation_rate_y(rad/s),rotation_rate_z(rad/s),gravity_x(m/s^2),gravity_y(m/s^2),gravity_z(m/s^2),attitude_roll(rad),attitude_pitch(rad),attitude_yaw(rad),target_delta_x,target_delta_y,target_delta_z,target_delta_roll,target_delta_pitch,target_delta_yaw
149740000000.0,-1,0.32297221109999996,-0.042080335149999995,-0.26668204009999996,0.072522,-0.10601,-0.018276,0.47445553365,-2.7427238719999996,-9.403400551999999,0.050413,0.28346,3.0638,0.0,0.0,0.0,0.0,0.0,0.0
149740000000.0,-1,0.28019560379999997,-0.01360182355,-0.2240623392,0.10835,-0.14257,0.012806,0.46141268915,-2.752138256,-9.401243089,0.049041,0.28446,3.0638,0.00019999999999997797,-9.999999999998899e-05,0.00029999999999996696,0.001302142184358368,0.002862968893258877,0.00029298527054483214
149740000000.0,-1,0.16128016589999997,-0.03515684025,-0.12116116074999998,0.10739,-0.11914,0.028774,0.44849733109999995,-2.7626313715,-9.398791426499999,0.047682,0.28557,3.064,-9.999999999998899e-05,-9.999999999998899e-05,0.0004999999999999449,0.0009083718752229131,-0.0009525060581501155,-0.0009178632272890952
149740000000.0,-1,0.07063729995,-0.06889171625,-0.1397447625,0.0792,-0.042181,0.028589,0.44172093594999995,-2.7709670239999995,-9.3966339635,0.046974,0.28646,3.0643,0.00019999999999997797,-9.999999999998899e-05,9.999999999998899e-05,0.0005345631858651445,0.0008623307104325129,-7.396125122077768e-05
149740000000.0,-1,-0.0316362529,-0.10522535449999999,-0.1318406026,0.042671,0.051903,0.016619,0.44299580045,-2.7773413465,-9.394672633499999,0.047119,0.28714,3.0645,9.999999999998899e-05,-0.00010000000000021103,9.999999999998899e-05,-0.00010133607886103624,-0.0010627104141929244,0.0003669021289150476
149740000000.0,-1,-0.09466359245,-0.16085847995,-0.09506566509999999,0.0017,0.12258,0.004685,0.45290051695,-2.7785181445,-9.3938881015,0.048175,0.28726,3.0645,0.00029999999999996696,-9.999999999998899e-05,-9.999999999998899e-05,-0.001273079068483729,-0.002226175880747139,-0.0005659292696705842
149740000000.0,-1,-0.10595104659999999,-0.17047880359999998,-0.08020859035,-0.024685,0.15265,-0.00502,0.46703189959999997,-2.7764587479999996,-9.393790034999999,0.049676,0.28705,3.0645,9.999999999998899e-05,-9.999999999998899e-05,9.999999999998899e-05,0.0004913392247055115,-0.0016171197516545721,0.00030034198086564823
149740000000.0,-1,-0.07182390459999999,-0.14930624625,-0.062017254599999995,-0.024812,0.13347,-0.010323,0.48063372314999997,-2.773909019,-9.3938881015,0.05112,0.28677,3.0644,5.0000000000105516e-05,-9.999999999998899e-05,4.999999999988347e-05,0.0005725139402749102,-0.000511918498402153,0.0003850947464592025
149740000000.0,-1,0.010444082249999998,-0.106892485,-0.030557521399999996,-0.001782,0.078938,-0.008053,0.49008733374999996,-2.775085817,-9.393005503,0.052129,0.28691,3.0643,4.999999999988347e-05,-9.999999999998899e-05,5.0000000000105516e-05,-0.00045650163705174274,-0.00031093691219474806,-0.0002398641896562137
149740000000.0,-1,0.08940722805,-0.06196822135,0.0423843413,0.027529,0.010494,-0.004679,0.49283319575,-2.7769490804999997,-9.3923190375,0.052423,0.2871,3.0643,9.999999999998899e-05,-9.999999999998899e-05,9.999999999998899e-05,0.00043195340103396873,0.0013352893729370319,2.8093175219345845e-05
149740000000.0,-1,0.1315071765,-0.05071018715,0.06774433819999999,0.043136,-0.041844,-0.008829,0.49008733374999996,-2.7807736739999998,-9.3913383725,0.052138,0.2875,3.0642,9.999999999998899e-05,-9.999999999998899e-05,9.999999999998899e-05,-0.00013580940904173167,0.001291304335762078,0.0001252801587035557
149740000000.0,-1,0.147688149,-0.022310128749999998,0.0417959423,0.049415,-0.055751,-0.006659,0.48513497549999995,-2.7853827995,-9.390259640999998,0.051618,0.28799,3.0641,0.000300000000000189,-9.999999999998899e-05,-9.999999999998899e-05,0.0005196684018310971,0.0020089515115144785,0.0003310883479452076
149740000000.0,-1,0.11333545404999999,-0.01419022255,0.086690786,0.035718,-0.03113,-0.001391,0.48432102354999995,-2.7899919249999994,-9.38888671,0.051539,0.28849,3.0639,3.333333333332966e-05,-9.999999999998899e-05,0.00019999999999997797,-0.00019854116533896127,-0.0008783964939134137,-0.00023451113206146568
149740000000.0,-1,0.00748247395,-0.04149193615,0.08158152134999999,0.015825,0.016985,-0.000443,0.48467406295,-2.7920513215000002,-9.388298311,0.051579,0.2887,3.0639,3.333333333332966e-05,-1.999999999990898e-05,-4.999999999988347e-05,0.0007863735222596313,-0.00031582391942142074,0.00037838900537512377
149740000000.0,-1,-0.0395600261,-0.01685763135,0.04821929805,0.004417,0.061826,0.005863,0.4886261429,-2.793326186,-9.387709912,0.052002,0.28884,3.064,3.333333333332966e-05,-2.0000000000131024e-05,-5.0000000000105516e-05,0.00041529691773345423,0.00045555200847080535,0.0015575617033508626
149740000000.0,-1,-0.07081381965,0.026173948849999996,0.0889659288,0.001326,0.082085,0.016497,0.4941374802,-2.7937184520000002,-9.387317646,0.052591,0.28888,3.0642,-0.00019999999999997797,-1.999999999990898e-05,0.000500000000000167,-0.0001868583949425906,-0.002420162777801993,-0.0003894420179716418
149740000000.0,-1,-0.0615269221,0.03519606685,0.05495646659999999,0.013956,0.069177,0.030419,0.49892312539999994,-2.7945029839999997,-9.3868273135,0.053101,0.28897,3.0645,9.999999999998899e-05,-2.0000000000131024e-05,-9.999999999998899e-05,-0.0015656319711797595,0.0006302720262294503,0.0017078913281298735
149740000000.0,-1,-0.023339827,0.02240819525,0.05598616484999999,0.030698,0.0328,0.037984,0.5014336277999999,-2.7971507794999995,-9.385944714999999,0.053374,0.28924,3.0649,-3.333333333332966e-05,-1.999999999990898e-05,0.00019999999999997797,-0.0022212831691453827,-0.002162800149324795,-0.00040953243658070626
149740000000.0,-1,0.038755880799999996,-0.00967916355,0.07939463840000001,0.042175,-0.002453,0.033796,0.5018847337,-2.8018579715,-9.384473717499999,0.053429,0.28975,3.0652,-3.333333333332966e-05,0.00019999999999997797,-9.999999999998899e-05,-0.002697518706430091,-0.00013078830843360478,0.0007992956153880515
149740000000.0,-1,0.09719370814999999,-0.053152043,0.08081660265,0.036628,-0.035427,0.024236,0.50075696895,-2.8073496955,-9.382904653499999,0.053319,0.29033,3.0654,-3.333333333332966e-05,-5.0000000000105516e-05,5.0000000000105516e-05,-0.002217030283388599,-0.0005338449349387986,0.0005575124146877108
149740000000.0,-1,0.11533601065,-0.0915548844,0.05879086675,0.01637,-0.041636,0.012469,0.49907022514999994,-2.8117626879999995,-9.381629789,0.053147,0.2908,3.0655,5.0000000000105516e-05,-4.999999999988347e-05,4.999999999988347e-05,-0.00046592780357807007,-0.0006582254301179535,-5.098851270418647e-05
149740000000.0,-1,0.0827288994,-0.1245836816,0.033342609999999995,-0.004766,-0.024397,0.000659,0.49786400719999996,-2.8144104835,-9.3809433235,0.053023,0.29109,3.0655,4.999999999988347e-05,-0.00019999999999997797,9.999999999998899e-05,-9.022145080428423e-05,-0.0005639590168984299,-0.00015160556949922466
149740000000.0,-1,0.055289892699999996,-0.13123259029999998,0.03044964825,-0.023715,0.003473,-0.004761,0.498962352,-2.8153911485,-9.3805510575,0.053141,0.29119,3.0654,9.999999999998899e-05,-9.999999999998899e-05,-9.999999999998899e-05,0.0012724698320917271,0.0005806630141043101,0.0005214214428054254
149740000000.0,-1,0.01634768555,-0.09246690284999999,0.05803575469999999,-0.037477,0.018502,-0.001609,0.5009432953,-2.8144104835,-9.3807471905,0.053351,0.29108,3.0654,9.999999999998899e-05,-9.999999999998899e-05,4.999999999988347e-05,0.00015025115830530344,-0.0005739814728387138,0.00025506470352137933
149740000000.0,-1,-0.02939053005,-0.0358531124,-0.0036676871,-0.029958,0.025896,0.000526,0.50269868565,-2.8117626879999995,-9.381433656,0.053533,0.2908,3.0654,3.333333333332966e-05,-9.999999999998899e-05,5.0000000000105516e-05,0.0005441789163495581,-0.000352991091166599,0.0003021505311974759
149740000000.0,-1,-0.03667687099999999,0.04310022674999999,-0.06643024709999999,0.004227,0.036261,0.008039,0.505042475,-2.809997491,-9.381825921999999,0.05378,0.29062,3.0655,3.333333333332966e-05,-9.999999999998899e-05,9.999999999998899e-05,-0.00020426800155631808,-0.0003506743289511949,0.00019808388442582592
149740000000.0,-1,-0.0359315656,0.0867888525,0.03475476759999999,0.042605,0.038066,0.016642,0.5075922039999999,-2.8119588209999997,-9.3811394565,0.054055,0.29083,3.0656,3.333333333332966e-05,-9.999999999998899e-05,9.999999999998899e-05,-0.0013858460462755073,-0.0007664278924333079,0.000343923673897073
149740000000.0,-1,-0.02299659425,0.10892246155,0.06880345639999999,0.060637,0.027258,0.019895,0.5094750807999999,-2.815881481,-9.379864591999999,0.054262,0.29124,3.0658,9.999999999998899e-05,-2.4999999999941735e-05,9.999999999998899e-05,9.50698011372153e-05,0.001126892048735506,0.00044622070993310947
149740000000.0,-1,0.012042566199999999,0.1226811915,0.036333638249999994,0.058408,0.01662,0.020977,0.5109460782999999,-2.819608008,-9.378687794,0.054425,0.29164,3.066,9.999999999998899e-05,-2.500000000016378e-05,9.999999999998899e-05,-0.001039847189732268,-0.0001536552788363732,1.953844033375507e-05
149740000000.0,-1,0.014621715149999999,0.07986535759999999,0.0342252085,0.035986,0.01361,0.018808,0.5119561632499999,-2.8224519365,-9.377707129,0.054538,0.29194,3.0662,5.0000000000105516e-05,-2.4999999999941735e-05,9.999999999998899e-05,-0.0006985958608098919,-3.855747378267438e-05,0.0003221354650405628
149740000000.0,-1,0.023153500649999995,0.00018632635,0.07279476295,-0.00127,0.020319,0.012327,0.5138978799499999,-2.8237268009999994,-9.377216796499999,0.054748,0.29207,3.0663,4.999999999988347e-05,-2.4999999999941735e-05,-2.4999999999941735e-05,0.00047475538359437186,-6.8702370545903335e-06,-6.783487939204802e-05
149740000000.0,-1,0.04768973895,-0.04747399265,0.0772175621,-0.03647,0.021675,0.01333,0.5165947087,-2.8224519365,-9.377510996,0.055034,0.29194,3.0664,9.999999999998899e-05,-9.999999999998899e-05,-2.4999999999941735e-05,0.0009801693184150473,-0.0005061926138127948,0.00023282045911499072
149740000000.0,-1,0.03498032055,-0.0619388014,0.06359612525,-0.054638,0.017564,0.013306,0.5188306249,-2.8190196089999997,-9.3783935945,0.055265,0.29158,3.0666,5.0000000000105516e-05,-9.999999999998899e-05,-2.500000000016378e-05,0.00038659335657237337,-0.00012623040627945947,0.00012124815321684634
149740000000.0,-1,0.030734041099999998,-0.06290965975,0.06671463995,-0.053658,0.0069,0.014393,0.52023297585,-2.8153911485,-9.379374259499999,0.055408,0.29119,3.0667,4.999999999988347e-05,-9.999999999998899e-05,-2.4999999999941735e-05,0.0006180554012211736,0.0003719901071568277,5.7216469033116724e-05
149740000000.0,-1,0.05687856999999999,0.0021770762999999997,0.0769233626,-0.028284,-0.018886,0.019819,0.51982109655,-2.8123510869999997,-9.380354924499999,0.055359,0.29087,3.0669,9.999999999998899e-05,-1.1111111111183902e-05,9.999999999998899e-05,0.00033272253219884806,0.0011847811387999396,0.0003096587330055911
149740000000.0,-1,0.0404230113,0.08485694244999999,0.027488039949999998,0.018489,-0.035262,0.0274,0.5169771680499999,-2.8115665549999997,-9.3807471905,0.055054,0.29078,3.0671,9.999999999998899e-05,-1.1111111111183902e-05,4.999999999988347e-05,-0.000324085666657814,0.0008590856454770979,0.00010140444914591429
149740000000.0,-1,0.00130428445,0.12129845384999999,0.0580161414,0.054752,-0.03237,0.033862,0.51285837505,-2.814312417,-9.3801587915,0.05462,0.29107,3.0674,9.999999999998899e-05,-1.1111111110961858e-05,5.0000000000105516e-05,-0.00048801941310799846,0.000576047269973623,0.0001560011523092375
149740000000.0,-1,-0.040677984199999996,0.09074093245,0.10069468219999998,0.061282,-0.020696,0.026381,0.5090435882,-2.8194118749999997,-9.3787858605,0.054222,0.29161,3.0677,2.4999999999941735e-05,-1.1111111111183902e-05,9.999999999998899e-05,-0.0007475590400952692,-8.318293163211976e-05,0.0001667278844172948
149740000000.0,-1,-0.0318127726,0.032361944999999996,-0.0022555294999999998,0.046541,-0.001386,0.017783,0.50720974465,-2.8237268009999994,-9.3776090625,0.054035,0.29207,3.0679,2.500000000016378e-05,-1.1111111111183902e-05,9.999999999998899e-05,-0.00041888655883332016,-0.0006889804874303795,-4.49537107224951e-05
149740000000.0,-1,-0.018338435499999996,-0.0240066792,-0.06473369664999999,0.021129,0.020139,0.013431,0.5079452434,-2.82627653,-9.376824530499999,0.054118,0.29235,3.0681,2.4999999999941735e-05,-1.1111111111183902e-05,-2.4999999999941735e-05,-0.00037587407490186076,-0.0005986414008620766,0.00014709829608799962
149740000000.0,-1,-0.04559111585,-0.08418028359999999,-0.00224572285,-0.002245,0.032051,0.013371,0.50946527415,-2.8282378599999998,-9.376138065,0.054283,0.29255,3.0682,2.4999999999941735e-05,-1.1111111110961858e-05,-2.500000000016378e-05,0.00025308145411334637,5.296636541074484e-05,0.0001918720569722976
149740000000.0,-1,-0.03480380085,-0.1276041298,0.05910467955,-0.025769,0.021594,0.008012,0.5109460782999999,-2.8289243255,-9.375843865499998,0.054443,0.29263,3.0683,-1.6666666666775853e-05,-1.1111111111183902e-05,-2.4999999999941735e-05,8.308271690082858e-05,0.00023199221393066516,0.00017408323700507378
149740000000.0,-1,-0.020986230999999998,-0.12063160164999999,0.0840822171,-0.034427,0.000361,-0.000504,0.5112010511999999,-2.828433993,-9.375941932,0.054468,0.29258,3.0684,-1.666666666655381e-05,-1.1111111111183902e-05,-2.4999999999941735e-05,0.00032828191160316766,-0.00024252673027969074,-0.00011748245466247642
149740000000.0,-1,0.017298930599999998,-0.09025059994999998,0.1255447333,-0.031335,-0.0199,-0.01007,0.5104753591,-2.8275513944999995,-9.376334197999999,0.054389,0.29248,3.0683,-1.666666666655381e-05,-5.0000000000105516e-05,-3.333333333332966e-05,0.0003651308461072311,0.00018878316571657727,-0.0003376064503004539
149740000000.0,-1,0.0284196717,-0.07146105855,0.2089600982,-0.028239,-0.036968,-0.015372,0.5084846091499999,-2.8271591285,-9.376530331,0.054176,0.29244,3.0682,-1.6666666666775853e-05,-4.999999999988347e-05,-3.333333333332966e-05,0.00016348991552028735,3.857603989843028e-05,-0.0004402862230721283
149740000000.0,-1,0.031214566949999998,-0.05566254539999999,0.23739938319999998,-0.029347,-0.04335,-0.016431,0.50567990725,-2.826668796,-9.376824530499999,0.053877,0.29239,3.068,-1.6666666666775853e-05,-9.999999999998899e-05,-3.333333333332966e-05,0.00013004751923756386,0.00016358733798216285,-0.00031330583921401756
149740000000.0,-1,0.02939053005,-0.013915636349999998,0.23193707914999998,-0.041058,-0.037928,-0.012191,0.5030223051,-2.8244132664999997,-9.3776090625,0.053589,0.29215,3.0678,-1.666666666655381e-05,-9.999999999998899e-05,-9.999999999998899e-05,0.0001697566381226867,-8.640845289753507e-05,3.1853398874570615e-05
149740000000.0,-1,-0.00350097405,-0.026281822,0.17480353625,-0.063383,-0.022834,-0.003717,0.50060006255,-2.8202944735,-9.378981993499998,0.053324,0.29171,3.0678,9.999999999998899e-05,-9.999999999998899e-05,-0.00019999999999997797,0.0006818427290938289,-2.1294162607432554e-05,-9.034808196012323e-05
149740000000.0,-1,-0.0047464186,-0.0405603044,0.08732821824999999,-0.079254,-0.002464,0.002624,0.49974688399999995,-2.8142143505,-9.380845256999999,0.053223,0.29106,3.0679,9.999999999998899e-05,-9.999999999998899e-05,-0.00019999999999997797,0.00019582538541551564,0.0013653541344567088,0.0006792663728630854
149740000000.0,-1,-0.044737937299999996,-0.037196623449999994,0.02984163595,-0.080192,0.015656,0.005792,0.5006883223999999,-2.80666323,-9.3831007865,0.05331,0.29026,3.0679,-9.999999999998899e-05,-9.999999999998899e-05,-9.999999999998899e-05,0.0008603110873609543,-0.00020527969652328615,-0.00033408553264935303
149740000000.0,-1,-0.03403888215,-0.0385989744,0.00756092715,-0.068472,0.013427,0.005817,0.5013551746,-2.8004850405,-9.3848659835,0.053371,0.2896,3.0681,-4.999999999988347e-05,-5.0000000000105516e-05,-5.0000000000105516e-05,-0.0005621711024813014,-0.0006867560019252483,-0.0001269308552234727
149740000000.0,-1,-0.00965955025,-0.00440318585,0.0048837117,-0.047298,-0.009122,0.002692,0.5009236819999999,-2.7954836489999995,-9.3864350475,0.053316,0.28907,3.0681,-5.0000000000105516e-05,-4.999999999988347e-05,-4.999999999988347e-05,-6.462494746695135e-05,0.0002799764999563692,-0.0001386524733912875
149740000000.0,-1,0.0183188222,0.0226533615,-0.0017848103,-0.023037,-0.044485,0.001728,0.49778555399999996,-2.7923455209999997,-9.387513778999999,0.052976,0.28873,3.0682,3.333333333332966e-05,-9.999999999998899e-05,-3.333333333332966e-05,-0.0003306779099750412,-0.0003051060289596119,-0.00048671942620198694
149740000000.0,-1,0.03282285755,0.01587696635,-0.003138128,-0.001916,-0.072363,0.000746,0.49195059725,-2.791364856,-9.388102177999999,0.052354,0.28863,3.0682,3.333333333332966e-05,-3.333333333332966e-05,-3.333333333332966e-05,-0.00010507118885028088,0.0015195290683120977,-0.00013719971054504398
149740000000.0,-1,0.050465020900000004,0.022261095499999998,-0.0131212977,0.014011,-0.083146,-0.001343,0.48508594225,-2.7918551885,-9.388298311,0.051623,0.28869,3.0681,3.333333333332966e-05,-3.333333333332966e-05,-3.333333333332966e-05,-0.00020341176671540007,0.0010139436912248723,-6.428311594725011e-05
149740000000.0,-1,0.049327449499999995,0.022319935399999997,0.012729031699999999,0.01833,-0.074659,0.001851,0.47859393995,-2.793130053,-9.388298311,0.050934,0.28882,3.0681,2.4999999999941735e-05,-3.333333333332966e-05,-5.0000000000105516e-05,-0.0004649010656439523,0.0005897544634656526,-0.00013299345468414936
149740000000.0,-1,0.04423779815,-0.0136704701,0.0395600261,0.002518,-0.046828,0.008179,0.47410249424999995,-2.794306851,-9.3882002445,0.050457,0.28894,3.0681,2.4999999999941735e-05,-4.999999999988347e-05,-4.999999999988347e-05,-0.00024336635573951604,9.435313895900244e-05,0.00023870451161434048
149740000000.0,-1,-0.00854159215,-0.04855272415,0.03786347565,-0.022816,-0.010393,0.012341,0.47182735145,-2.7938165184999995,-9.3883963775,0.050214,0.28889,3.0683,2.500000000016378e-05,-5.0000000000105516e-05,-9.999999999998899e-05,5.084069535776781e-05,-0.0004315588249153013,0.00016638804931479179
149740000000.0,-1,-0.032685564449999996,-0.0636451585,0.034823414149999996,-0.050388,0.014335,0.018654,0.47157237854999995,-2.79097259,-9.389278975999998,0.050182,0.28859,3.0685,2.4999999999941735e-05,-9.999999999998899e-05,-9.999999999998899e-05,0.0018648964894465436,0.00045019830709414066,0.00031372362820769606
149740000000.0,-1,-0.0133174307,-0.057731748549999996,0.044316251349999995,-0.078094,0.020952,0.022864,0.47270994995,-2.785480866,-9.39084804,0.050294,0.28801,3.0688,9.999999999998899e-05,-0.00019999999999997797,-0.00010000000000021103,0.004038715119202729,0.001826536680749724,0.0004832375412202605
149740000000.0,-1,-0.008472945599999998,-0.0718631312,0.0183580488,-0.08785,0.000787,0.021816,0.4726413034,-2.7787142774999998,-9.39280937,0.050277,0.28729,3.069,0.000400000000000178,-0.00029999999999996696,-9.999999999998899e-05,0.002780851566840603,0.0015469912885843762,1.1540039939528235e-05
149740000000.0,-1,0.00914960445,-0.04542440279999999,-0.0275370732,-0.075213,-0.022756,0.01761,0.4707388133,-2.7718496225,-9.394966833,0.050064,0.28655,3.0693,-0.00010000000000021103,-5.0000000000105516e-05,-5.0000000000105516e-05,0.0013889004422684703,0.0011113950449703758,0.0005170190513946737
149740000000.0,-1,0.03283266419999999,0.007207887749999999,-0.048905763549999995,-0.041176,-0.039014,0.01236,0.46741435894999994,-2.766652098,-9.3966339635,0.049701,0.28601,3.0694,0.00020000000000020002,-4.999999999988347e-05,-4.999999999988347e-05,-0.0001921636320655895,0.0005631813383917272,-0.00031656635632543173
149740000000.0,-1,0.00306948145,0.0652926757,-0.05512317965,0.010089,-0.034105,0.009238,0.46364860534999996,-2.765083034,-9.397320428999999,0.049298,0.28583,3.0695,9.999999999998899e-05,-1.6666666666775853e-05,-9.999999999998899e-05,-0.0018851157811429764,-0.00044324056581546145,-0.0005519586930392006
149740000000.0,-1,-0.0233006004,0.08186591419999999,0.0037363336499999997,0.053984,-0.014222,0.010346,0.46099100319999997,-2.7678288959999997,-9.3966339635,0.04902,0.28613,3.0696,-1.999999999990898e-05,-1.666666666655381e-05,5.0000000000105516e-05,-0.0006041159327097589,-7.808450870872008e-05,0.0001611431620701098
149740000000.0,-1,-0.060830649949999996,0.0642335575,0.0372064301,0.06806,0.012299,0.011392,0.4600691780999999,-2.77332062,-9.3950648995,0.04893,0.28671,3.0698,-2.0000000000131024e-05,-1.666666666655381e-05,4.999999999988347e-05,-0.0006404642516676939,-0.00025585180822740305,0.0003255794691400804
149740000000.0,-1,-0.06582223479999999,0.008973084749999999,0.0038834333999999996,0.055459,0.036911,0.01026,0.4616186288,-2.7789104105,-9.393299702499998,0.049103,0.28731,3.0699,-1.999999999990898e-05,-1.6666666666775853e-05,-4.999999999988347e-05,-0.0003028535681641187,-0.0004193727476011766,0.00024281153363675534
149740000000.0,-1,-0.0202801522,-0.0532697228,0.0316362529,0.022493,0.048906,0.008048,0.46545302894999996,-2.7831272699999996,-9.3919267715,0.049518,0.28775,3.07,-2.0000000000131024e-05,-1.6666666666775853e-05,-5.0000000000105516e-05,7.599044421541246e-05,-0.0003581001335837275,0.00027095017197348303
149740000000.0,-1,0.02372228635,-0.11390423975,0.06375303165,-0.01811,0.037525,0.00266,0.46978756825,-2.7845982675,-9.391240306,0.049982,0.28791,3.07,-1.999999999990898e-05,-1.666666666655381e-05,-5.0000000000105516e-05,7.490382497549186e-05,-0.0007099278471009995,-3.389785790369748e-05
149740000000.0,-1,0.053044169849999996,-0.16483017319999999,0.05546641239999999,-0.05449,0.019718,-0.003777,0.47323950905,-2.7832253364999997,-9.3915345055,0.050347,0.28776,3.07,-2.4999999999941735e-05,-5.0000000000105516e-05,-4.999999999988347e-05,7.534632668926289e-05,-0.00031112743704753143,-0.00022664945324024632
149740000000.0,-1,0.08699479215,-0.16869399329999998,0.059889211549999995,-0.074876,0.000715,-0.010184,0.47549503854999997,-2.7794988095,-9.3925151705,0.050582,0.28737,3.0699,-2.4999999999941735e-05,-4.999999999988347e-05,-9.999999999998899e-05,0.0007971981742119216,0.00015483917021974491,-0.00021559356633255033
149740000000.0,-1,0.07644283674999999,-0.1355867429,0.061909381449999995,-0.072713,-0.000359,-0.016583,0.47736810869999996,-2.7748896839999997,-9.393790034999999,0.050774,0.28688,3.0697,-2.500000000016378e-05,-0.00010000000000021103,-9.999999999998899e-05,0.000564172735322277,0.00042412943070857523,3.9249716887068686e-05
149740000000.0,-1,0.0692937889,-0.07648206335,0.06733245889999999,-0.053469,0.004812,-0.015493,0.4794275052,-2.770770891,-9.3948687665,0.050987,0.28645,3.0695,-2.4999999999941735e-05,-4.999999999988347e-05,-4.999999999988347e-05,-3.895965851763439e-05,-0.0003664673145573616,-0.00021867803765451832
149740000000.0,-1,0.025232510450000002,-0.02021150565,0.13096781075,-0.030053,0.003545,-0.005844,0.48069256304999997,-2.768417295,-9.3954571655,0.051117,0.28619,3.0694,5.0000000000105516e-05,-5.0000000000105516e-05,-5.0000000000105516e-05,0.00012677256178877938,0.00022353127887386748,5.199300039054888e-05
149740000000.0,-1,0.0097085835,0.00226533615,0.09791940025,-0.01304,0.000202,0.000596,0.48110444234999994,-2.7672404969999995,-9.395751364999999,0.05116,0.28607,3.0694,4.999999999988347e-05,-5.0000000000105516e-05,-9.999999999998899e-05,0.00033306793818893565,0.0008956349627498028,0.0008647336421317431
149740000000.0,-1,0.01032640245,0.019466200249999996,0.013405690549999998,0.005118,0.005377,0.004888,0.48153593494999997,-2.7671424304999994,-9.3958494315,0.051205,0.28605,3.0695,-3.333333333332966e-05,-4.999999999988347e-05,2.4999999999941735e-05,-0.00027127635624002444,-9.240499226104149e-05,-4.5597713220768554e-06
149740000000.0,-1,0.0072373077,0.00021574629999999997,0.006148769549999999,0.011564,0.009588,0.002757,0.4823793068499999,-2.7682211619999997,-9.3954571655,0.051297,0.28617,3.0695,-3.333333333332966e-05,-2.4999999999941735e-05,2.4999999999941735e-05,-0.00018962236313413428,-0.00022429981273508481,9.306705279366057e-05
149740000000.0,-1,0.026850607699999997,-0.01022833595,-0.038687234249999994,0.011593,0.010659,-0.001515,0.483860111,-2.7692998934999995,-9.3950648995,0.051456,0.28628,3.0695,-3.333333333332966e-05,-2.4999999999941735e-05,2.500000000016378e-05,-0.0002037883277501984,3.6211803553509725e-06,-1.6340488508126416e-05
149740000000.0,-1,0.02023111895,-0.024085132399999997,-0.07824726035,0.007368,0.013895,-0.004731,0.48538994839999994,-2.7702805585,-9.394672633499999,0.051621,0.28639,3.0694,-2.500000000016378e-05,-2.500000000016378e-05,2.4999999999941735e-05,-1.0295353095268744e-05,-0.00018443476356333477,-0.00012116373195880659
149740000000.0,-1,-0.009561483749999999,-0.0612131093,-0.07697239585,0.002154,0.023537,-0.013296,0.48750818479999997,-2.7711631569999997,-9.394378434,0.051847,0.28648,3.0693,-2.4999999999941735e-05,-2.4999999999941735e-05,-9.999999999998899e-05,-0.00017520687395500278,-0.0003062946838277014,6.511273917819693e-07
149740000000.0,-1,-0.0046581587499999995,-0.05129858615,-0.0590948729,-0.004145,0.034248,-0.016528,0.49083263914999997,-2.7712612235,-9.3940842345,0.052201,0.2865,3.0692,-2.4999999999941735e-05,-3.333333333332966e-05,-9.999999999998899e-05,0.00012005565179568078,-0.00036620144431265267,8.592600178353171e-05
149740000000.0,-1,-0.000392266,-0.013925443,-0.039010853699999994,-0.009483,0.036419,-0.012271,0.49464742599999995,-2.770574758,-9.394182300999999,0.052606,0.28642,3.069,-2.500000000016378e-05,-3.333333333332966e-05,-9.999999999998899e-05,0.0002369849353580089,-0.00032912606163471025,1.6895061593358296e-05
149740000000.0,-1,-0.03894220715,-0.029057103949999996,-0.0184953419,-0.009496,0.035351,-0.011201,0.49772671409999997,-2.7698882924999997,-9.394182300999999,0.052934,0.28635,3.0689,-0.0007999999999999119,-3.333333333332966e-05,-9.999999999998899e-05,0.00015292761316104686,-5.934566324539148e-05,8.866025299630875e-05
149740000000.0,-1,-0.029694536199999996,-0.02756649315,-0.0232025339,-0.004184,0.033174,-0.01012,0.50075696895,-2.769594093,-9.3940842345,0.053255,0.28632,3.0688,-0.0007999999999999119,0.0037000000000000366,-9.999999999998899e-05,0.027622795032368558,0.01615632213118645,-0.026436581647782176
149740000000.0,-1,0.0002941995,-0.004059953099999999,0.018436501999999997,0.004295,0.02671,-0.009027,0.50383625705,-2.7698882924999997,-9.393790034999999,0.053583,0.28635,3.0687,-9.999999999998899e-05,-5.0000000000105516e-05,9.999999999998899e-05,-0.00015760608820905575,-4.263841556606529e-05,-3.7307991657686834e-05
149740000000.0,-1,0.0045502856,-0.023506540049999997,0.029949509099999997,0.014902,0.018099,-0.010061,0.5061604330999999,-2.7715554229999997,-9.393201636,0.053834,0.28653,3.0686,9.999999999998899e-05,-4.999999999988347e-05,0.00019999999999997797,-0.003073944130440154,-0.0009615187549720794,0.0010963311342661042
149740000000.0,-1,-0.0015396440499999998,-0.021231397249999995,0.03517645355,0.020204,0.010602,-0.015375,0.5077687236999999,-2.7738109525,-9.392417104,0.054008,0.28677,3.0684,-9.999999999998899e-05,-4.999999999988347e-05,2.4999999999941735e-05,0.0008951489473291441,4.047656765249208e-05,-0.00015537041076452152
149740000000.0,-1,0.025232510450000002,-0.012474058799999998,0.024712757999999998,0.025559,0.011626,-0.017503,0.50972024705,-2.7764587479999996,-9.391632571999999,0.054221,0.28705,3.0682,-9.999999999998899e-05,-5.0000000000105516e-05,2.500000000016378e-05,-0.0007459759380578634,-0.00042250304111335346,9.431341852123021e-05
149740000000.0,-1,0.014768814899999998,-0.014043122799999998,0.0355392996,0.026681,0.019076,-0.016447,0.5122503627499999,-2.779400743,-9.390553840499999,0.054496,0.28736,3.068,-5.0000000000105516e-05,-5.0000000000105516e-05,2.4999999999941735e-05,0.0006507900926110421,0.00038831107664716313,-7.748450459449385e-05
149740000000.0,-1,-0.020790097999999996,-0.012876131449999998,0.0703921337,0.013849,0.015983,-0.015396,0.5141430462,-2.7815582059999997,-9.389769308499998,0.054701,0.28759,3.0679,-4.999999999988347e-05,-4.999999999988347e-05,2.4999999999941735e-05,0.0015772684979016849,-0.00046645334119088666,8.776908604957168e-06
149740000000.0,-1,-0.010061622899999999,-0.022643554849999997,0.03539219984999999,-8.2e-05,0.007574,-0.016473,0.5153884907499999,-2.782342738,-9.3895731755,0.054834,0.28767,3.0677,-0.00010000000000021103,-1.999999999990898e-05,-1.2499999999970868e-05,-0.000607769217104509,8.031963161037048e-05,-6.564002876557895e-05
149740000000.0,-1,6.864654999999999e-05,0.0034911673999999996,-0.0443456713,0.003076,0.004348,-0.013259,0.5161828294,-2.782146605,-9.3895731755,0.054919,0.28765,3.0676,-3.333333333332966e-05,-2.0000000000131024e-05,-1.2499999999970868e-05,0.0009351550900598138,0.00028029491041081656,-0.00024473597072660613
149740000000.0,-1,-0.0011277647499999999,0.011454167199999999,0.05537815255,0.015809,-0.003218,-0.011089,0.5164770288999999,-2.783323403,-9.3891809095,0.054953,0.28778,3.0674,-3.333333333332966e-05,-1.999999999990898e-05,-1.2499999999970868e-05,0.00014673667463219187,8.648173688086125e-05,-0.00020030724230862829
149740000000.0,-1,0.00028439285,-0.0077374468499999995,0.12543686015,0.017885,-0.008566,-0.007874,0.51611418285,-2.785873132,-9.388494443999999,0.054918,0.28804,3.0673,-3.333333333332966e-05,-2.0000000000131024e-05,-1.2499999999970868e-05,-0.0010888712829633385,-0.00031738974840833656,0.0003798829551664995
149740000000.0,-1,0.03217561865,0.01862282835,0.11000119304999999,0.005104,-0.005264,-0.006835,0.5162416692999999,-2.7869518634999997,-9.388102177999999,0.054933,0.28816,3.0672,-2.4999999999941735e-05,-1.999999999990898e-05,-1.2500000000192912e-05,0.0008093178023468595,0.00030614500475523165,-0.00040992263172900945
149740000000.0,-1,0.023673253099999996,-0.02509521735,0.10464676214999999,-0.018252,0.007719,-0.009033,0.5172615609,-2.7865595975,-9.3882002445,0.055042,0.28812,3.0671,-2.500000000016378e-05,-2.4999999999941735e-05,-1.2499999999970868e-05,-0.00018583900648289076,-0.00035799236545797086,0.0002445901270905493
149740000000.0,-1,0.01397447625,-0.07930637855,0.08478829589999999,-0.046902,0.025009,-0.012316,0.5199289697,-2.784500201,-9.388690577,0.055322,0.2879,3.067,-2.4999999999941735e-05,-2.500000000016378e-05,-1.2499999999970868e-05,0.00039460775844171736,0.00010280693820075015,-0.000362664151187464
149740000000.0,-1,0.00224572285,-0.09123126495,0.043894565399999995,-0.062778,0.037931,-0.016636,0.52388104965,-2.7802833414999997,-9.389671241999999,0.055735,0.28746,3.0669,-2.4999999999941735e-05,-2.4999999999941735e-05,-1.2499999999970868e-05,-8.104315730744771e-05,-0.0005999095711441971,0.0003550777059546095
149740000000.0,-1,-0.013778343249999998,-0.06966644159999999,-0.0349705139,-0.048859,0.043146,-0.017688,0.52823520225,-2.7759684154999995,-9.3907499735,0.056191,0.287,3.0667,-2.4999999999941735e-05,-2.4999999999941735e-05,-2.4999999999941735e-05,-2.8493048340683114e-05,-0.000527990765433417,2.059408167270904e-05
149740000000.0,-1,-0.01670072495,-0.021966895999999996,-0.035264713399999995,-0.015839,0.037543,-0.015486,0.53205979575,-2.7737128859999998,-9.391142239499999,0.056595,0.28675,3.0666,-2.4999999999941735e-05,-3.333333333332966e-05,-2.500000000016378e-05,0.0005932107859497326,2.9678937337740408e-05,-0.0003546329866652709
149740000000.0,-1,-0.0033440676499999996,0.0126898051,0.0230456275,0.040656,0.029621,-0.017509,0.5367964077,-2.7764587479999996,-9.390063507999999,0.057105,0.28705,3.0664,-2.500000000016378e-05,-3.333333333332966e-05,-2.4999999999941735e-05,-0.0005893746502682873,-0.00014681074719669063,-6.22639707791306e-05
149740000000.0,-1,0.11916060415,0.10657867219999999,0.5274898968499999,0.01326,-0.052214,-0.003537,0.5364041417,-2.7795968760000003,-9.3891809095,0.057068,0.28737,3.0662,-2.4999999999941735e-05,-3.333333333332966e-05,-2.4999999999941735e-05,0.00144379879067974,0.0008846592115150376,-0.0005030981376526467
149740000000.0,-1,0.1560826414,-0.09650724265,0.1243875486,-0.029932,-0.11047,0.007163,0.5294120002499999,-2.7797930089999996,-9.389475109,0.056324,0.2874,3.0662,9.999999999998899e-05,-9.999999999998899e-05,-9.999999999998899e-05,-0.0012015917006031052,0.0006511243299578418,0.00012181259230797936
149740000000.0,-1,-0.005315204299999999,0.007021561399999999,-0.0068450417,-0.05623,-0.065497,0.003836,0.5215568736,-2.774693551,-9.391436439,0.055479,0.28686,3.0663,0.0003333333333332966,-0.0011333333333334306,-9.999999999998899e-05,1.3329520794219674e-05,0.00026823009785426066,-0.00013511245091746282
149740000000.0,-1,-0.042580474300000004,-0.026556408199999996,-0.0343625016,-0.050301,0.004789,-0.002682,0.5194778637999999,-2.769986359,-9.3929074365,0.055249,0.28636,3.0663,0.00033333333333351867,-0.0011333333333332085,0.00039999999999995595,-0.0010116736862550435,-0.000757192787545824,0.00013798932125680397
149740000000.0,-1,-0.08752435125000001,0.0197309798,-0.00291257505,-0.035064,0.043019,0.001552,0.5213215139999999,-2.7660636989999996,-9.393986168,0.055439,0.28594,3.0664,0.0003333333333332966,-0.0011333333333334306,0.00039999999999995595,-0.027795660701156022,-0.019685179060541236,0.02328981920015949
149740000000.0,-1,-0.1096775736,-0.01032640245,-0.1403920014,-0.021134,0.049296,-0.000569,0.52388104965,-2.7633178369999998,-9.394672633499999,0.055706,0.28565,3.0665,-1.666666666655381e-05,3.333333333332966e-05,4.999999999988347e-05,0.0009635961740262489,-0.000264307242180406,0.0001405618469712544
149740000000.0,-1,-0.062213387599999996,0.06402761785,-0.20972501689999998,0.007689,0.04587,-0.010119,0.5271368574499999,-2.761356507,-9.3950648995,0.056049,0.28544,3.0664,-1.6666666666775853e-05,3.333333333332966e-05,5.0000000000105516e-05,-0.0006988120980113144,-0.0007242982268129694,-0.00012172957889616809
149740000000.0,-1,0.01587696635,0.06292927305,-0.12403450919999999,0.042811,0.027479,-0.022834,0.53119681055,-2.7628275044999997,-9.394378434,0.056484,0.2856,3.0662,-1.6666666666775853e-05,3.333333333332966e-05,3.333333333332966e-05,-0.0006831194938132779,-8.100429392721153e-05,-1.8735548033776972e-05
149740000000.0,-1,0.057545422199999995,0.0016573238499999997,-0.04951377585,0.05436,0.00607,-0.019575,0.53382499275,-2.7674366299999997,-9.3929074365,0.056771,0.28608,3.0659,-1.666666666655381e-05,5.0000000000105516e-05,3.333333333332966e-05,0.00014698064018803247,0.0007038117897890661,0.00015228436746461682
149740000000.0,-1,0.042923707049999996,-0.01817172245,-0.04398282525,0.044553,-0.016231,-0.014216,0.5339328659,-2.771947689,-9.3915345055,0.056791,0.28657,3.0657,-1.666666666655381e-05,4.999999999988347e-05,3.333333333332966e-05,-0.0005507846576039421,0.00011008575201976178,-4.6432090135772874e-05
149740000000.0,-1,0.0327149844,-0.0739225277,-0.0704313603,0.024213,-0.020332,-0.006773,0.5326187748,-2.7755761495,-9.390553840499999,0.056658,0.28696,3.0656,-1.6666666666775853e-05,-2.4999999999941735e-05,9.999999999998899e-05,-0.00041681848551849976,3.599379439234163e-05,7.449752344718119e-05
149740000000.0,-1,0.03562755945,-0.088455983,-0.025173670549999996,0.000796,-0.008426,0.001705,0.53209902235,-2.7775374795,-9.390063507999999,0.056606,0.28716,3.0656,4.999999999988347e-05,-2.4999999999941735e-05,1.999999999990898e-05,0.0002386603539147325,0.00013957236809569729,4.478935139773377e-05
149740000000.0,-1,0.0063743225,-0.10202838659999999,0.031969678999999994,-0.019373,0.006655,0.005913,0.5323245753,-2.7780278119999995,-9.389867375,0.056631,0.28722,3.0656,5.0000000000105516e-05,-2.500000000016378e-05,2.0000000000131024e-05,0.0001784215824071067,0.0005356348266349897,0.00036645405956814425
149740000000.0,-1,-0.006462582349999999,-0.09736042119999999,0.0330484105,-0.021433,0.014133,0.003762,0.5331875604999999,-2.7777336125,-9.389867375,0.056722,0.28719,3.0657,9.999999999998899e-05,-2.4999999999941735e-05,1.999999999990898e-05,0.0005863219885156035,0.00048719519390427735,0.0004996729261688149
149740000000.0,-1,-0.00805125965,-0.059899018199999994,0.06456698359999999,-0.008546,0.018299,-0.00583,0.5347762377999999,-2.7777336125,-9.389867375,0.056892,0.28718,3.0657,-9.999999999998899e-05,5.0000000000105516e-05,2.0000000000131024e-05,0.00043016214420732446,-3.5769914656924584e-06,9.68683474444898e-05
149740000000.0,-1,-0.0156318001,-0.019417167,0.08306232549999999,0.007477,0.017107,-0.011137,0.53666892125,-2.7785181445,-9.389475109,0.057094,0.28726,3.0656,-9.999999999998899e-05,4.999999999988347e-05,1.999999999990898e-05,-0.0008185233985035789,-0.0006014496011172987,-0.0003826855060333201
149740000000.0,-1,-0.026389695149999996,0.0025889556,0.10853019555,0.027703,0.010547,-0.012157,0.5378457192499999,-2.78116594,-9.3885925105,0.057225,0.28755,3.0654,9.999999999998899e-05,-9.999999999998899e-05,5.0000000000105516e-05,0.00023916013729874397,0.00014470232057450794,0.00022369293026447412
149740000000.0,-1,-0.026654474699999996,0.008257199299999999,0.0500727549,0.035142,0.006224,-0.013204,0.53841450495,-2.784500201,-9.387611845499999,0.057291,0.2879,3.0653,-9.999999999998899e-05,3.333333333332966e-05,5.0000000000105516e-05,-0.0009196699857111357,-0.00025421969485961426,-0.00011623625158618811
149740000000.0,-1,-0.0160436794,0.00224572285,0.03896182045,0.037251,0.003009,-0.013194,0.5388754175,-2.788030595,-9.386533113999999,0.057346,0.28828,3.0651,-6.666666666665932e-05,3.333333333332966e-05,6.666666666665932e-05,0.0005522303254507643,0.00036998954437250653,0.00012819815081915875
149740000000.0,-1,0.004128599649999999,-0.0080218397,0.06489060305,0.032965,0.001977,-0.011065,0.5393559433499999,-2.7918551885,-9.385356316,0.057404,0.28868,3.065,-6.666666666665932e-05,3.333333333332966e-05,6.666666666665932e-05,-1.8151989213177622e-05,0.0002322078938863381,0.00011571113082620155
149740000000.0,-1,0.01711260425,-0.01632807225,0.09942962435,0.02219,-0.00753,-0.004663,0.53953246305,-2.7948952499999997,-9.384473717499999,0.057429,0.28901,3.0649,-6.666666666665932e-05,9.999999999998899e-05,6.666666666665932e-05,-0.0009570233970991882,-0.0006121776531304857,-0.0006046851712243062
149740000000.0,-1,0.0507199938,-0.0268309944,0.10765740369999999,0.006111,-0.013795,0.000657,0.5392971034499999,-2.7969546465,-9.383787252,0.057408,0.28923,3.0649,9.999999999998899e-05,-9.999999999998899e-05,-9.999999999998899e-05,0.0008624746433966712,0.00082121270174218,0.00043412192272945793
149740000000.0,-1,0.05278919694999999,-0.0321854253,0.1169541079,-0.010943,-0.012586,-0.000443,0.5390323239,-2.7974449789999998,-9.3836891855,0.05738,0.28928,3.0648,-0.00019999999999997797,9.999999999998899e-05,9.999999999998899e-05,-0.0006097776034434399,-0.00035250217350557556,-0.0004138473583647495
149740000000.0,-1,0.047071919999999996,-0.0609581364,0.12325978385,-0.027925,-0.003916,-0.00369,0.5393559433499999,-2.79685658,-9.383885318499999,0.057413,0.28921,3.0648,-5.0000000000105516e-05,-9.999999999998899e-05,-9.999999999998899e-05,0.00038028400455503153,-0.000292243158013461,-0.0001928059575467822
149740000000.0,-1,0.0452478831,-0.052367511,0.10943240735,-0.037429,0.004695,-0.009059,0.54059158125,-2.7947971835,-9.384375651,0.057541,0.289,3.0647,-4.999999999988347e-05,3.333333333332966e-05,-5.0000000000105516e-05,0.00036333379489283946,3.161990576838747e-05,-0.00013628285031441756
149740000000.0,-1,0.024389138549999998,-0.017681389949999998,0.0733733553,-0.036217,0.020673,-0.012288,0.5430334371,-2.791757122,-9.385160183,0.057796,0.28867,3.0646,-2.4999999999941735e-05,3.333333333332966e-05,-4.999999999988347e-05,0.0004527585183080052,-0.0001298028332454848,-7.315999685092445e-05
149740000000.0,-1,0.0168085981,0.00199074995,0.0814148083,-0.020137,0.030132,-0.012277,0.546426538,-2.7896977255,-9.385552449,0.058154,0.28846,3.0645,-2.4999999999941735e-05,3.333333333332966e-05,3.333333333332966e-05,-4.4229488033509234e-05,-0.00021749413448901578,-5.2112806904092146e-05
149740000000.0,-1,0.028811937699999998,0.027223260399999998,0.12788852265,1.5e-05,0.020368,-0.003686,0.5493881463,-2.789403526,-9.385552449,0.058469,0.28842,3.0644,-2.500000000016378e-05,3.333333333332966e-05,3.333333333332966e-05,-0.00011139010324345833,4.388243201414177e-05,1.4961362432730496e-05
149740000000.0,-1,0.0437572723,0.0369318439,0.0944772661,0.007268,-0.003139,0.001704,0.55045707115,-2.789795792,-9.385356316,0.058584,0.28847,3.0644,-2.4999999999941735e-05,3.333333333332966e-05,3.333333333332966e-05,0.0005676508300845318,0.00039171268036120033,0.0002909218898243249
149740000000.0,-1,0.0665871535,0.03325435015,0.0551329863,0.001767,-0.021211,0.005995,0.5499177054,-2.7898938585,-9.385356316,0.058526,0.28847,3.0644,-0.000300000000000189,3.333333333332966e-05,9.999999999998899e-05,-0.0009276082276203357,-0.0004375937923226658,0.0008480208533457323
149740000000.0,-1,0.0485429175,-0.00408937305,0.00930651085,-0.016444,-0.031713,0.003847,0.5479171488,-2.7889131934999996,-9.385748582,0.058311,0.28837,3.0644,-9.999999999998899e-05,9.999999999998899e-05,-0.00019999999999997797,-0.004889217298968296,-0.0027589381942410007,-0.000502557666704817
149740000000.0,-1,0.0373633365,-0.02586013605,-0.051053419899999994,-0.029161,-0.02627,-0.004724,0.54592639885,-2.786461531,-9.386631180499998,0.058094,0.28811,3.0644,1.999999999990898e-05,-3.333333333332966e-05,-0.00010000000000021103,0.00011165056592055134,-5.851482955954168e-05,-9.958161970902157e-05
149740000000.0,-1,-0.0084533323,-0.012464252149999999,-0.03727507665,-0.028935,-0.000693,-0.009039,0.54520070675,-2.7835195359999996,-9.387513778999999,0.058012,0.2878,3.0643,2.0000000000131024e-05,-3.333333333332966e-05,-2.4999999999941735e-05,0.0004637235299734255,-4.667220918053161e-05,-0.00012173036263846138
149740000000.0,-1,-0.053907155049999995,-0.00679600845,0.04359055925,-0.019107,0.024803,-0.013335,0.54651479785,-2.7815582059999997,-9.388004111499999,0.058149,0.28759,3.0642,1.999999999990898e-05,-3.333333333332966e-05,-2.4999999999941735e-05,0.0002798084386505528,2.1785059611811874e-05,0.00015509975029420753
149740000000.0,-1,-0.062105514449999996,0.015298373999999998,0.0481310382,-0.008338,0.038563,-0.011206,0.5493194997499999,-2.7802833414999997,-9.3882002445,0.058445,0.28745,3.0642,2.0000000000131024e-05,9.999999999998899e-05,-2.500000000016378e-05,-0.0002385527073002769,-0.00014678052682004505,0.0002592284935947764
149740000000.0,-1,-0.054005221549999996,0.021201977299999997,0.0325188514,0.006583,0.040563,-0.004778,0.5524478211,-2.7803814079999998,-9.388004111499999,0.058778,0.28746,3.0641,1.999999999990898e-05,3.333333333332966e-05,-2.4999999999941735e-05,0.0005799684160688878,-0.00010053101093410177,0.0001991221237327423
149740000000.0,-1,-0.01968194655,-0.00781590005,0.04630700129999999,0.009678,0.029876,-0.000484,0.5553898160999999,-2.781754339,-9.3874157125,0.059094,0.28761,3.0641,-1.0000000000065512e-05,3.333333333332966e-05,-9.090909090847532e-06,0.0002319101859949435,-3.710119230126985e-05,-4.0879561563123e-05
149740000000.0,-1,0.007374600799999999,-0.042953127,-0.00748247395,-6.9e-05,0.009714,-0.003668,0.5570569465999999,-2.7826369375,-9.387023446499999,0.059273,0.2877,3.0641,-9.999999999843467e-06,3.333333333332966e-05,-9.090909091069577e-06,0.00016121624133774715,-0.00011049789460892967,-9.806262413258882e-06
149740000000.0,-1,0.05020024135,-0.06489060305,-0.061703441799999995,-0.008722,-0.007259,-0.006855,0.5576257323,-2.782735004,-9.387023446499999,0.059334,0.28771,3.064,-1.0000000000065512e-05,1.999999999990898e-05,-9.090909090847532e-06,4.9526267793198464e-05,0.00034069058557206766,-0.00012626704475271477
149740000000.0,-1,0.06004611795,-0.06963702164999999,-0.0325973046,-0.014121,-0.016801,-0.008983,0.5575080524999999,-2.7824408044999998,-9.387121512999999,0.059322,0.28768,3.0639,-1.0000000000065512e-05,2.0000000000131024e-05,-9.090909090847532e-06,0.0002352738519204034,0.0004436152194977616,-0.00014614500848125767
149740000000.0,-1,0.0252227038,-0.06247816714999999,-0.022790654599999998,-0.014173,-0.024258,-0.010038,0.5561155082,-2.7819504719999997,-9.387317646,0.059172,0.28763,3.0637,-1.0000000000065512e-05,1.999999999990898e-05,-9.090909090847532e-06,0.00032189296637064047,-4.9814000965930916e-05,-0.0002429193572014432
149740000000.0,-1,-0.010855961549999998,-0.0020005566,-0.012091599449999999,-0.000278,-0.015857,-0.001489,0.55434050455,-2.7815582059999997,-9.387513778999999,0.058982,0.28759,3.0637,-9.999999999843467e-06,2.0000000000131024e-05,-9.090909091069577e-06,-0.00013567649957824113,-4.611466705939371e-05,0.00011364974604433087
149740000000.0,-1,-0.0753935252,0.021966895999999996,0.05887912659999999,0.017949,-3.3e-05,0.005987,0.5525851142,-2.782735004,-9.387317646,0.058797,0.28772,3.0638,-1.0000000000065512e-05,1.999999999990898e-05,-9.090909090847532e-06,-9.710862603401482e-05,0.00018446079829725903,0.00018022356401298234
149740000000.0,-1,-0.10261678559999998,0.052308671099999995,0.13090897085,0.024421,0.0095,0.00705,0.5513788962499999,-2.7847944005,-9.386729247,0.058673,0.28794,3.0639,-1.0000000000065512e-05,-1.666666666655381e-05,-9.090909090847532e-06,-0.0004521863030814699,-0.0002675114006758239,0.00022711524458202126
149740000000.0,-1,-0.09091745215,0.0476407057,0.10625505274999998,0.025622,0.024409,0.003825,0.5516534824499999,-2.7872460629999996,-9.3860427815,0.058706,0.28819,3.064,-9.999999999843467e-06,-1.6666666666775853e-05,-9.090909090847532e-06,-0.0002255681321591263,-0.00040724695078120376,0.00017722323775970494
149740000000.0,-1,-0.059653851949999996,-0.00516810455,0.1426279176,0.013978,0.033032,-0.000479,0.55375210555,-2.789795792,-9.385160183,0.058935,0.28846,3.064,-1.0000000000065512e-05,-1.6666666666775853e-05,-9.090909091069577e-06,0.0001352213058691265,-0.00017575650473000692,-5.115626635437964e-05
149740000000.0,-1,-0.036088471999999996,-0.10484289515,0.13257610135,-0.014822,0.027949,-0.009059,0.556233188,-2.791364856,-9.384473717499999,0.059202,0.28863,3.0639,-3.333333333332966e-05,-1.666666666655381e-05,-9.090909090847532e-06,0.0005632127549407562,0.00033378954155338647,-0.00012779007570018486
149740000000.0,-1,0.015288567349999999,-0.16213334445,0.0335583563,-0.045785,0.016497,-0.021901,0.55887117685,-2.7901880579999996,-9.3846698505,0.059481,0.28851,3.0637,-3.333333333332966e-05,-1.666666666655381e-05,-4.999999999988347e-05,0.0009060583667559463,0.0003463946484871805,-0.00013992955732633483
149740000000.0,-1,0.05737870915,-0.16369260179999998,0.040599530999999994,-0.063967,0.004936,-0.030452,0.5613718726,-2.7871479965,-9.385454382499999,0.059742,0.28818,3.0635,-3.333333333332966e-05,-1.6666666666775853e-05,-5.0000000000105516e-05,0.00028019796036082845,-0.00037475625169092197,-0.000651216195783566
149740000000.0,-1,0.04246279449999999,-0.14410872175,0.054348454299999994,-0.071548,-0.007791,-0.02724,0.56251925065,-2.7829311369999994,-9.386631180499998,0.059856,0.28774,3.0632,-5.0000000000105516e-05,1.999999999990898e-05,-9.999999999998899e-05,0.0002679164715677085,0.0002859565422193011,-0.00022180583491454575
149740000000.0,-1,0.0242028122,-0.09280032894999998,0.0074432473499999995,-0.061036,-0.023867,-0.02079,0.56163665215,-2.7783220115,-9.388102177999999,0.059753,0.28724,3.063,-4.999999999988347e-05,2.0000000000131024e-05,1.999999999990898e-05,0.0006347412397306185,0.0003661300054287331,-0.00018789526622031705
149740000000.0,-1,0.0045698989,-0.0059624432,-0.042080335149999995,-0.033368,-0.026237,-0.010063,0.5595576423499999,-2.7742032184999994,-9.3893770425,0.059524,0.2868,3.0629,-4.999999999988347e-05,1.999999999990898e-05,2.0000000000131024e-05,-0.00011980938359784643,7.555467451236808e-06,-0.00011895388772237281
149740000000.0,-1,-0.04061914429999999,0.05584887175,-0.01783829635,0.009348,-0.013815,0.001731,0.55716481975,-2.7731244869999996,-9.389867375,0.059268,0.28669,3.0629,-5.0000000000105516e-05,2.0000000000131024e-05,1.999999999990898e-05,-0.0005729097174016484,-0.0002564334552199732,-1.896693658487436e-05
149740000000.0,-1,-0.06351767205,0.08034588345,0.05424058115,0.042554,0.00615,0.007091,0.5562724146,-2.775478083,-9.389278975999998,0.059177,0.28694,3.0629,-2.4999999999941735e-05,1.999999999990898e-05,2.0000000000131024e-05,-0.0004348005114583331,-0.0001242477510499107,0.0001237167083568136
149740000000.0,-1,-0.0549368533,0.062233000899999995,0.08177765434999999,0.048988,0.010358,0.007095,0.5562233813499999,-2.7794988095,-9.388004111499999,0.059178,0.28737,3.063,-2.500000000016378e-05,1.2499999999970868e-05,1.999999999990898e-05,-0.000524704396711817,-0.0004208749229419606,4.486861732511116e-05
149740000000.0,-1,-0.0346174745,0.01817172245,0.028762904449999998,0.028672,0.006259,0.009202,0.5560958949,-2.782735004,-9.387121512999999,0.059172,0.28771,3.0631,-2.4999999999941735e-05,1.2499999999970868e-05,-5.0000000000105516e-05,5.893478410901043e-06,6.81827366859622e-05,2.855490416314721e-05
149740000000.0,-1,-0.0216334699,-0.05367179544999999,0.0214177236,-0.000147,0.001174,0.003825,0.5556840155999999,-2.784304068,-9.386631180499998,0.059131,0.28789,3.0631,-2.4999999999941735e-05,1.2499999999970868e-05,-4.999999999988347e-05,-0.00017540375645747064,-0.00017614592678749652,6.921763203832088e-05
149740000000.0,-1,0.018416888699999998,-0.12586835275,0.0335779696,-0.031061,-0.000694,-0.003697,0.556037055,-2.7841079349999998,-9.386729247,0.059168,0.28786,3.0631,-9.999999999998899e-05,1.2500000000192912e-05,-4.999999999988347e-05,0.00033316261697524663,-0.00024260469335080082,-0.00021792661280839454
149740000000.0,-1,0.0470523067,-0.12941836005,0.0665479269,-0.052469,-0.013298,-0.00905,0.5562822212499999,-2.7819504719999997,-9.387317646,0.05919,0.28763,3.063,-5.0000000000105516e-05,1.2499999999970868e-05,-5.0000000000105516e-05,0.00027975693577914074,4.663591503395459e-05,-0.00011568061733296942
149740000000.0,-1,0.0321854253,-0.11741502044999999,0.05057289405,-0.055768,-0.028185,-0.012232,0.5549975501,-2.7785181445,-9.3883963775,0.059046,0.28726,3.0629,-4.999999999988347e-05,1.2499999999970868e-05,-9.999999999998899e-05,1.823164429520796e-05,0.0002954514395747676,-0.0002631001724474058
149740000000.0,-1,0.017298930599999998,-0.0745109267,0.046002995149999996,-0.044114,-0.042127,-0.017524,0.5520751683999999,-2.7753800164999998,-9.3895731755,0.058729,0.28693,3.0628,-9.999999999998899e-05,1.2499999999970868e-05,1.6666666666775853e-05,0.00015382860634072237,-0.0001295239992245012,-0.0005399447720833006
149740000000.0,-1,0.049866815249999995,-0.0089240515,0.029851442599999996,-0.020761,-0.057236,-0.017457,0.548387868,-2.7730264205,-9.390455774,0.058332,0.28668,3.0626,-9.999999999998899e-05,1.2499999999970868e-05,1.666666666655381e-05,-0.00031436970241449647,0.00046810207112346625,0.00011816277633613925
149740000000.0,-1,0.0056976636499999995,0.030008348999999997,-0.044316251349999995,-0.002471,-0.039269,-0.019592,0.544661341,-2.7715554229999997,-9.391044173,0.057933,0.28652,3.0624,-9.999999999998899e-05,3.333333333332966e-05,1.666666666655381e-05,-0.0005841639963937162,-0.00024176614825144327,-0.00015250854596737806
149740000000.0,-1,-0.02138830365,0.033430869849999996,-0.03360738955,0.015919,-0.004262,-0.014285,0.5434649296999999,-2.771947689,-9.391044173,0.057807,0.28657,3.0622,-5.0000000000105516e-05,3.333333333355171e-05,1.6666666666775853e-05,5.082001018397175e-06,-0.00016666727084224675,0.00014528662921137192
149740000000.0,-1,-0.03125379355,0.03297976395,-0.0073157609,0.013964,0.025577,-0.002599,0.5449555405,-2.7728302874999997,-9.390651906999999,0.057967,0.28666,3.0622,-4.999999999988347e-05,3.333333333332966e-05,1.6666666666775853e-05,-0.0004680260130804914,-0.00030325608012060634,0.00027251085204682557
149740000000.0,-1,-0.07534449195,-0.009639936949999999,-0.07532487865,0.002308,0.041645,0.00696,0.5471522301,-2.7732225534999997,-9.390455774,0.058201,0.2867,3.0623,-9.999999999998899e-05,2.4999999999941735e-05,1.666666666655381e-05,-0.00045444463573535154,-0.0009872402885588993,5.289607437880539e-05
149740000000.0,-1,-0.024389138549999998,-0.031018433949999997,-0.09268264914999999,-0.004107,0.04063,0.008018,0.5503688112999999,-2.7730264205,-9.390259640999998,0.058544,0.28668,3.0624,9.999999999998899e-05,2.4999999999941735e-05,2.4999999999941735e-05,0.0009055524656024772,0.0004678198418535118,0.00012873500841376062
149740000000.0,-1,0.04288448045,-0.0244381718,0.0032361944999999997,0.001027,0.016079,0.009137,0.55312447995,-2.773516753,-9.3899654415,0.058837,0.28673,3.0625,-9.999999999998899e-05,2.500000000016378e-05,2.500000000016378e-05,-0.0002604424944185335,-0.0001776127314836451,0.0001509333115128908
149740000000.0,-1,0.0705882667,-0.059124292849999996,0.042756994,0.003919,-0.025496,0.004945,0.5528008605,-2.7749877505,-9.3895731755,0.058806,0.28689,3.0625,-5.0000000000105516e-05,2.4999999999941735e-05,2.4999999999941735e-05,-0.00014651531026710352,0.0006009054610620623,-0.00010596180954969281
149740000000.0,-1,0.10144979424999999,-0.0611346561,0.0060703163499999995,0.00904,-0.05643,-0.001397,0.5497706056499999,-2.7767529475,-9.389278975999998,0.058487,0.28708,3.0624,-4.999999999988347e-05,5.0000000000105516e-05,2.4999999999941735e-05,-0.00042265075093805837,4.087015767062496e-05,-0.00035657614189688047
149740000000.0,-1,0.08530804835,-0.04468890405,0.0037755602499999997,0.015484,-0.055408,-0.007793,0.5458675589499999,-2.7787142774999998,-9.38888671,0.058074,0.28728,3.0623,-4.999999999988347e-05,4.999999999988347e-05,4.999999999988347e-05,-0.00032379726752423954,0.00010412702060369483,-2.7609173817444432e-05
149740000000.0,-1,0.020299765499999997,-0.06260565359999999,0.0384616813,0.01471,-0.022362,-0.01319,0.54353357625,-2.7812640064999994,-9.388298311,0.05783,0.28756,3.0622,-5.0000000000105516e-05,4.166666666582941e-06,5.0000000000105516e-05,-0.0005829399486290687,-0.00043233517021135093,-0.00015999979792663543
149740000000.0,-1,-0.01258193195,-0.06198783465,0.0828465792,0.004375,0.020345,-0.011148,0.54469076095,-2.7832253364999997,-9.387611845499999,0.057958,0.28776,3.0621,-5.0000000000105516e-05,4.166666666804986e-06,-9.999999999998899e-05,0.0009095528313542989,2.2077495933636726e-05,0.00047144729364412274
149740000000.0,-1,-0.0595263655,-0.05854570049999999,0.07901217904999999,-0.009237,0.055615,-0.005895,0.54853496775,-2.7838137355,-9.3872195795,0.058368,0.28783,3.062,-4.999999999988347e-05,4.166666666582941e-06,9.999999999998899e-05,-1.4255192365753011e-05,-0.0006845406853481784,0.00016995679793441187
149740000000.0,-1,-0.0701960007,-0.07559946484999999,0.10125366125,-0.023075,0.063179,0.000473,0.5533696462,-2.7835195359999996,-9.387023446499999,0.058883,0.2878,3.0621,-3.333333333332966e-05,4.166666666804986e-06,-5.0000000000105516e-05,0.00023280091417465787,-0.00032075287785460205,0.00026319674386277025
149740000000.0,-1,-0.03496070725,-0.08352323805,0.0928297489,-0.032805,0.044082,-0.003779,0.5576453455999999,-2.782342738,-9.387121512999999,0.059335,0.28767,3.0621,-3.333333333332966e-05,4.166666666582941e-06,-4.999999999988347e-05,0.0003403092380374617,5.149820994376775e-05,2.8866464132193403e-05
149740000000.0,-1,0.03146953985,-0.0499158485,0.07567791805,-0.02556,0.007806,-0.016512,0.5601950746,-2.7806756075,-9.387513778999999,0.059604,0.28749,3.0619,-3.333333333332966e-05,4.166666666582941e-06,1.999999999990898e-05,-0.00017722146606974354,-0.0002640245241405381,-0.0003122879963545766
149740000000.0,-1,0.09935117114999999,-0.0233594403,0.07940444505,-0.001268,-0.028612,-0.024946,0.5607050203999999,-2.780577541,-9.3874157125,0.059658,0.28748,3.0617,-9.999999999998899e-05,4.166666666804986e-06,2.0000000000131024e-05,-9.700445883903397e-05,0.0005124863687295811,-0.000307883613797133
149740000000.0,-1,0.10399952324999999,0.0035990405499999995,0.10993254649999999,0.016592,-0.062855,-0.023789,0.5581454847499999,-2.7820485385,-9.387121512999999,0.059389,0.28764,3.0613,-1.6666666666775853e-05,4.166666666582941e-06,1.999999999990898e-05,-0.0005207061269303925,0.0007901627798609923,-3.310080256552217e-05
149740000000.0,-1,0.06079142334999999,0.034401728199999995,0.0302633219,0.018661,-0.068203,-0.019507,0.55332061295,-2.7832253364999997,-9.387121512999999,0.058877,0.28777,3.0611,-1.666666666655381e-05,4.166666666582941e-06,2.0000000000131024e-05,-0.00020508223917314883,0.0005188322967966119,-0.00022840171153881705
149740000000.0,-1,0.030528101449999998,0.03529413335,-0.031234180249999997,0.014571,-0.040471,-0.011025,0.5496235059,-2.7840098684999997,-9.387121512999999,0.058484,0.28785,3.0609,-1.666666666655381e-05,4.166666666804986e-06,1.999999999990898e-05,-0.00016797804756163437,-0.00010186625489372325,3.727789344065702e-05
149740000000.0,-1,-0.007855126649999999,0.011463973849999998,0.00038245935,0.003189,0.011823,0.001672,0.54939795295,-2.7844021345,-9.387023446499999,0.058461,0.28789,3.0609,-1.6666666666775853e-05,4.166666666582941e-06,1.666666666655381e-05,-0.00023200110075460856,-0.00035478620267315186,0.00019390661591012215
149740000000.0,-1,-0.0699998677,-0.02801759905,0.011052094549999999,-0.012495,0.057761,0.011172,0.55243801445,-2.7841079349999998,-9.38692538,0.058784,0.28786,3.061,-1.6666666666775853e-05,4.166666666582941e-06,1.6666666666775853e-05,0.0005514856413277314,-0.0006479315378917772,0.00036139318453659586
149740000000.0,-1,-0.04297274029999999,-0.0535246957,0.01587696635,-0.020884,0.079135,0.016457,0.55847891085,-2.783323403,-9.3868273135,0.059426,0.28777,3.0612,-1.666666666655381e-05,4.166666666804986e-06,1.6666666666775853e-05,9.450620141893129e-05,-0.0009595538184916652,6.017705881056212e-05
149740000000.0,-1,0.0028047019,-0.0460324151,0.05359334225,-0.016755,0.05886,0.012231,0.564470774,-2.782538871,-9.386631180499998,0.060063,0.2877,3.0613,9.999999999998899e-05,4.166666666582941e-06,1.666666666655381e-05,0.0002375919692508277,0.0002808302982737487,0.0003108427271393821
149740000000.0,-1,0.0633901856,-0.045581309199999996,0.0659791412,-0.002144,0.011865,0.002731,0.5677854216999999,-2.7830292034999995,-9.386336981,0.060417,0.28774,3.0614,1.4285714285744433e-05,4.166666666804986e-06,1.666666666655381e-05,-0.0002220192458098902,0.00022548257068621957,-6.810387102162974e-05
149740000000.0,-1,0.12151420014999999,-0.01803442935,0.06277236665,0.018817,-0.041573,-0.006746,0.56742257565,-2.7847944005,-9.385748582,0.060382,0.28794,3.0612,1.4285714285744433e-05,4.166666666582941e-06,1.6666666666775853e-05,-0.0003841328315667969,0.0004960661009023593,-0.00024103870594749388
149740000000.0,-1,0.13163466294999998,-0.0102969825,0.09040750634999999,0.027126,-0.074663,-0.014147,0.56357836885,-2.7877363955,-9.385160183,0.059978,0.28825,3.061,1.4285714285744433e-05,4.166666666582941e-06,-9.999999999998899e-05,-0.00023988074084485556,0.0007275390687628835,-0.00017241816409213628
149740000000.0,-1,0.09841953939999999,-0.00048052584999999995,0.050612120649999995,0.01646,-0.075635,-0.0163,0.5583416177499999,-2.789795792,-9.3848659835,0.059424,0.28847,3.0608,1.4285714285522388e-05,4.166666666804986e-06,9.999999999998899e-05,-0.0002509808883812692,0.0002129154848022896,-0.0004937786383779619
149740000000.0,-1,0.02299659425,-0.007678606949999999,0.0009610516999999999,-0.004531,-0.032836,-0.017479,0.55475238385,-2.7899919249999994,-9.3850621165,0.059042,0.28848,3.0606,1.4285714285744433e-05,4.166666666582941e-06,-4.999999999988347e-05,9.54696874534422e-05,3.799077924715455e-05,3.413000510976705e-05
149740000000.0,-1,-0.05767290864999999,-0.022064962499999997,0.013082071099999999,-0.024411,0.020598,-0.010135,0.55477199715,-2.7884228609999995,-9.385454382499999,0.05904,0.28832,3.0605,1.4285714285744433e-05,4.166666666804986e-06,-5.0000000000105516e-05,0.0004979588452871941,-0.0006619572210464497,5.6756171982697e-05
149740000000.0,-1,-0.10261678559999998,-0.0222807088,0.0372064301,-0.042319,0.055896,0.000447,0.5576649589,-2.7851866664999996,-9.3862389145,0.059343,0.28798,3.0606,1.4285714285744433e-05,4.166666666582941e-06,3.333333333332966e-05,0.0005347327234000443,-0.00017285994236715396,0.0003404725537873854
149740000000.0,-1,-0.09557561089999998,0.006688135299999999,-0.025830716099999998,-0.034797,0.068608,0.010045,0.56214659795,-2.7814601394999996,-9.387121512999999,0.059813,0.28757,3.0607,1.4285714285744433e-05,4.166666666582941e-06,3.333333333332966e-05,5.426667928504214e-05,-0.0004973694190135713,0.00030770643577798795
149740000000.0,-1,-0.0603893507,0.043767078949999996,0.02368305975,-0.007187,0.054523,0.013321,0.5664615239499999,-2.7795968760000003,-9.3874157125,0.06027,0.28738,3.0609,1.4285714285744433e-05,4.166666666804986e-06,3.333333333332966e-05,-0.000272245484442879,-0.00044988594376826896,-3.7143715226173324e-05
149740000000.0,-1,0.014386355549999999,0.05941849235,0.08026743025,0.019233,0.022339,0.012356,0.56934467905,-2.7804794745,-9.387023446499999,0.060579,0.28747,3.061,1.4285714285744433e-05,4.166666666582941e-06,2.4999999999941735e-05,-0.0006346713100791601,-0.0006346204902591968,-9.33770384334287e-05
149740000000.0,-1,0.07491299935,0.04265892749999999,0.05814362785,0.033787,-0.026794,0.010332,0.5689818329999999,-2.7829311369999994,-9.3862389145,0.060544,0.28774,3.0611,1.4285714285522388e-05,3.333333333332966e-05,2.4999999999941735e-05,0.00013725756624294316,0.0007820127402859978,6.0487859186553194e-05
149740000000.0,-1,0.0677639515,0.0108069283,0.027644946349999998,0.032528,-0.053416,0.006106,0.5653533725,-2.7861673314999997,-9.385552449,0.060164,0.28808,3.0611,1.4285714285744433e-05,3.333333333332966e-05,2.500000000016378e-05,-0.0006344739685096856,-9.845171707900668e-05,-0.00028257671226872283
149740000000.0,-1,0.046424681100000004,-0.026772154499999996,0.03531374665,0.016626,-0.041561,0.00499,0.5615483923,-2.788815127,-9.384964049999999,0.059764,0.28836,3.0611,1.4285714285744433e-05,3.333333333332966e-05,2.4999999999941735e-05,7.895389515077955e-05,3.959194736524729e-05,-0.00019134708470291972
149740000000.0,-1,-0.00053936575,-0.0669598062,0.0680189244,-0.010848,-0.009365,0.003818,0.5595870623,-2.7898938585,-9.384767917,0.059557,0.28848,3.0612,1.4285714285744433e-05,1.2499999999970868e-05,-9.999999999998899e-05,1.6130328373664682e-05,1.6196573974447404e-05,0.00016327759707135403
149740000000.0,-1,-0.07312818905,-0.08967200759999999,0.07381465455,-0.042565,0.029251,0.007966,0.56004797485,-2.7884228609999995,-9.385160183,0.059603,0.28832,3.0613,-4.999999999988347e-05,1.2499999999970868e-05,-3.333333333332966e-05,0.00029027627600453076,-0.0005436622352157361,0.00020829260915955494
149740000000.0,-1,-0.11524775079999999,-0.09323182155,0.08330749175,-0.066858,0.058221,0.00574,0.5629605499,-2.7845982675,-9.386140847999998,0.059906,0.28791,3.0614,-5.0000000000105516e-05,1.2499999999970868e-05,-3.333333333332966e-05,0.0008098781520056164,-0.0009215888700744301,-0.00016411831519269615
149740000000.0,-1,-0.0893974214,-0.0814344216,0.06589088135,-0.071102,0.056129,-0.001735,0.5668930165499999,-2.7794988095,-9.3874157125,0.060315,0.28737,3.0615,9.999999999998899e-05,1.2499999999970868e-05,-3.333333333332966e-05,0.0009260844725729189,0.00036299015353380426,-1.577318756940116e-06
149740000000.0,-1,-0.045375369549999996,-0.020927391099999998,0.00665871535,-0.045688,0.029283,-0.005912,0.56969771845,-2.7747916174999996,-9.3885925105,0.060606,0.28686,3.0615,-4.999999999988347e-05,1.2500000000192912e-05,-9.999999999998899e-05,-0.00021876411619131675,0.0007673900808391476,0.0005826167874692367
149740000000.0,-1,-0.02570322965,-0.004609125499999999,0.02278084795,-0.004372,-0.011544,-0.012173,0.56948197215,-2.7734186865,-9.389082843,0.06058,0.28672,3.0614,-5.0000000000105516e-05,1.2499999999970868e-05,9.999999999998899e-05,-0.0001722670242259028,-0.0009858931591815168,-0.0007724460492811724
149740000000.0,-1,0.040815277299999994,0.027076160649999997,0.0142000292,0.032682,-0.050207,-0.013104,0.5667164968499999,-2.7751838835,-9.388690577,0.060289,0.28691,3.0613,5.0000000000105516e-05,1.2499999999970868e-05,9.999999999998899e-05,-0.001118551284083058,-1.6497247567581752e-05,-0.0004293187666964404
149740000000.0,-1,0.06999006105,0.046248161399999994,-0.007698220249999999,0.059165,-0.071738,-0.009819,0.56177394525,-2.779400743,-9.387709912,0.05977,0.28736,3.0611,4.999999999988347e-05,1.2499999999970868e-05,-9.999999999998899e-05,0.00019581526493706036,0.0013015016518402867,-2.9282595549462442e-05
149740000000.0,-1,0.0355196863,0.0009218250999999998,0.0061389629,0.057012,-0.067468,0.000843,0.55569382225,-2.784892467,-9.3864350475,0.059133,0.28795,3.061,-9.999999999998899e-05,5.0000000000105516e-05,0.00019999999999997797,-0.0014628313881399069,-5.7955979265500446e-05,-0.0002108189855535847
149740000000.0,-1,-0.00446202575,-0.053897348399999996,-0.01862282835,0.032734,-0.031045,0.007141,0.5515358026499999,-2.7895015924999997,-9.385356316,0.058698,0.28843,3.0611,9.999999999998899e-05,4.999999999988347e-05,-9.999999999998899e-05,-0.0003809463092862009,-0.00030792645523991524,0.00013106726893452603
149740000000.0,-1,-0.027997985749999996,-0.10331305774999999,-0.0054132708,-0.001006,0.021443,0.011261,0.5515848359,-2.7918551885,-9.3846698505,0.058707,0.28869,3.0612,9.999999999998899e-05,-3.333333333332966e-05,-9.999999999998899e-05,0.0007511442079216613,0.0011701901135678927,0.0010844266437635142
149740000000.0,-1,-0.065704555,-0.1412942132,0.0365984178,-0.035877,0.06435,0.013261,0.5553211695499999,-2.791757122,-9.384473717499999,0.059106,0.28867,3.0614,-5.0000000000105516e-05,-3.333333333332966e-05,1.666666666655381e-05,0.0007228327973884396,-0.0005729579408964014,0.0003474760048384762
149740000000.0,-1,-0.0715100918,-0.1643398407,0.0532501095,-0.061295,0.083743,0.007847,0.5615680056,-2.7893054595,-9.384767917,0.059767,0.28842,3.0615,-4.999999999988347e-05,-3.333333333332966e-05,1.6666666666775853e-05,-0.00019352267011357727,-0.0013251535893858968,0.00011577642969534674
149740000000.0,-1,-0.032685564449999996,-0.14791370194999998,0.0524851908,-0.06775,0.071017,-0.000681,0.5680894278499999,-2.7855789325,-9.385552449,0.060455,0.28802,3.0616,-2.4999999999941735e-05,1.666666666655381e-05,1.6666666666775853e-05,0.0005474531895735546,-0.0004835073403954837,5.94067479474103e-05
149740000000.0,-1,0.0304398416,-0.1129529947,0.04605202839999999,-0.05308,0.030416,-0.011258,0.5727475865999999,-2.7820485385,-9.3862389145,0.060944,0.28764,3.0615,-2.4999999999941735e-05,1.6666666666775853e-05,1.666666666655381e-05,0.0003539107806633801,0.00036140477425594675,-4.065249287987793e-05
149740000000.0,-1,0.08267005949999999,-0.0608404566,0.0241635856,-0.017172,-0.017826,-0.014314,0.57393419125,-2.7804794745,-9.386729247,0.061068,0.28747,3.0614,-2.500000000016378e-05,1.6666666666775853e-05,1.666666666655381e-05,1.5881946237583655e-05,0.0004289031850825964,-0.0003248026337382415
149740000000.0,-1,0.08546495475,0.020878357849999998,0.0304398416,0.024119,-0.054399,-0.008842,0.5712962024,-2.7815582059999997,-9.386533113999999,0.060788,0.28759,3.0612,-2.4999999999941735e-05,1.666666666655381e-05,1.6666666666775853e-05,-0.0011725685881648351,0.0002738924176461932,-5.503690456432064e-05
149740000000.0,-1,0.05759445544999999,0.019436780299999998,0.053289336099999994,0.051706,-0.069549,-0.002364,0.5660986779,-2.7857750654999998,-9.385552449,0.060242,0.28804,3.0611,9.999999999998899e-05,1.666666666655381e-05,4.999999999988347e-05,0.00014535553506195287,0.0013459047874162522,0.0002554467212849132
149740000000.0,-1,0.01109132115,0.011885659799999998,0.00954187045,0.048652,-0.047153,0.003996,0.56112670635,-2.7904822575,-9.384473717499999,0.059722,0.28854,3.0611,1.4285714285744433e-05,1.6666666666775853e-05,5.0000000000105516e-05,-0.0006070599695380818,0.00021134074471795827,-0.00014033436533372745
149740000000.0,-1,-0.04786625864999999,-0.00122583125,-0.007904159899999999,0.028701,-0.00437,0.008156,0.5584298776,-2.7938165184999995,-9.3836891855,0.059441,0.2889,3.0612,1.4285714285744433e-05,-4.999999999988347e-05,5.0000000000105516e-05,-0.0001217240715012946,-0.00039472586742683724,0.0002201957975364599
149740000000.0,-1,-0.09402616019999999,-0.054770140249999995,-0.007825706699999999,-0.000808,0.041689,0.009092,0.5595478357,-2.7953855825000002,-9.3831007865,0.059563,0.28906,3.0613,1.4285714285744433e-05,-5.0000000000105516e-05,4.999999999988347e-05,0.00044316879036437884,-0.0009798404575471764,0.0001372071242318751
149740000000.0,-1,-0.1011261748,-0.07083343295,0.009532063799999999,-0.021899,0.071698,0.007937,0.56381372845,-2.7949933165,-9.383002719999999,0.060016,0.28902,3.0614,1.4285714285522388e-05,-3.333333333332966e-05,1.6666666666775853e-05,0.00047141035562459077,-0.0007688941585970444,0.00021492637333564435
149740000000.0,-1,-0.08962297435,-0.05782981505,0.0487978904,-0.024072,0.066385,0.007944,0.56875628005,-2.7938165184999995,-9.383002719999999,0.060542,0.28889,3.0616,1.4285714285744433e-05,-3.333333333332966e-05,1.666666666655381e-05,-0.00010087839302336254,-0.0003319088318938235,0.0005776034724547796
149740000000.0,-1,-0.0344605681,-0.06059529034999999,0.08547476139999999,-0.013665,0.033265,0.008021,0.57211015435,-2.7936203855,-9.382904653499999,0.060898,0.28887,3.0617,1.4285714285744433e-05,-3.333333333332966e-05,1.6666666666775853e-05,0.00014116528969987385,0.00017938097066583225,-8.161410159046589e-05
149740000000.0,-1,0.0248108245,-0.04364939915,0.1115408371,0.007304,-0.01592,0.003874,0.5722376408,-2.7949933165,-9.382512387499998,0.060915,0.28902,3.0617,1.4285714285744433e-05,-3.333333333332966e-05,1.6666666666775853e-05,-1.1349193482834696e-05,0.0010374039348650665,8.626057521049502e-05
149740000000.0,-1,0.0832584585,-0.031038047249999996,0.11211942945,0.020848,-0.059714,-0.000296,0.56901125295,-2.7977391784999996,-9.381825921999999,0.060576,0.28931,3.0617,-3.333333333332966e-05,-3.333333333332966e-05,1.666666666655381e-05,-0.0004053865548561131,0.0011099698647345502,-0.00011658331490416174
149740000000.0,-1,0.08719092514999999,-0.02982202265,0.09854702585,0.020767,-0.07143,-0.002411,0.56402947475,-2.800583107,-9.381335589499999,0.060051,0.28961,3.0616,-3.333333333332966e-05,-3.333333333332966e-05,1.6666666666775853e-05,0.0005227417765452658,0.0003747202748152212,-0.000592279561764053
149740000000.0,-1,0.0333622233,-0.04542440279999999,0.0650769294,0.003889,-0.048909,-0.004615,0.5594988024499999,-2.802348304,-9.38104139,0.059571,0.2898,3.0615,-3.333333333332966e-05,-5.0000000000105516e-05,-3.333333333332966e-05,-0.00037390808702686407,-0.00030156963308192175,-0.00040530501473001745
149740000000.0,-1,-0.02138830365,-0.0447967772,0.04608144835,-0.017051,0.001345,-0.003672,0.5581356781,-2.8020541045,-9.381237523,0.059425,0.28977,3.0615,-9.090909090847532e-06,-4.999999999988347e-05,-3.333333333355171e-05,0.000123319762098284,-3.2081250842752596e-05,0.00026837177675448354
149740000000.0,-1,-0.09355544099999999,-0.03803999535,0.056456884049999996,-0.034835,0.047306,-0.000581,0.56012642805,-2.799994708,-9.3817278555,0.059633,0.28955,3.0616,-9.090909091069577e-06,-3.333333333332966e-05,-3.333333333332966e-05,0.000508662143312355,-0.00035848312480224465,0.00020423289191873195
149740000000.0,-1,-0.11533601065,-0.026997707449999995,0.0718631312,-0.036796,0.070758,0.002578,0.5645492272,-2.7971507794999995,-9.3823162545,0.060099,0.28924,3.0617,-9.090909090847532e-06,-3.333333333332966e-05,-9.999999999998899e-05,0.0004849498770351235,0.0002093547372050697,0.0006589520933747983
149740000000.0,-1,-0.0731183824,0.02650737495,0.0823366334,-0.0209,0.059965,0.006896,0.5693152591,-2.7946010505,-9.382806587,0.060603,0.28898,3.0618,-9.090909090847532e-06,-3.333333333332966e-05,9.999999999998899e-05,0.0005222685532679794,-0.000528700953946748,-0.00018533724336911028
149740000000.0,-1,-0.038020382049999996,0.0400307453,0.09419287325,0.008647,0.022418,0.012351,0.5716296285,-2.7946010505,-9.382610454,0.060849,0.28897,3.0619,-9.090909090847532e-06,-3.333333333332966e-05,-9.999999999998899e-05,-0.0005014298031846831,0.00048664103800710734,0.0005389180202001187
149740000000.0,-1,0.010022396299999998,0.02680157445,0.1199941694,0.026447,-0.019287,0.013522,0.57071761005,-2.7970527129999994,-9.3819239885,0.060757,0.28924,3.062,-9.090909091069577e-06,-3.333333333332966e-05,9.999999999998899e-05,-0.0002703179695811575,-5.050887057600484e-05,-0.0003971298565889625
149740000000.0,-1,0.05394638164999999,0.0048640984,0.1152281375,0.023058,-0.044828,0.010358,0.5676481285999999,-2.8000927745,-9.381237523,0.060436,0.28956,3.0621,-9.090909090847532e-06,-3.333333333332966e-05,-4.999999999988347e-05,-0.00034515910130511473,0.0008829066486304438,-2.125540636160883e-05
149740000000.0,-1,0.049660875599999994,-0.0508965135,0.07089227285,-0.004657,-0.046721,0.002841,0.56385295505,-2.8014657054999996,-9.38104139,0.060033,0.28971,3.0621,-9.090909090847532e-06,-3.333333333332966e-05,-5.0000000000105516e-05,0.00026670506500320323,0.00034775997313940543,6.3721911875425086e-06
149740000000.0,-1,0.03360738955,-0.1002631896,0.02595820255,-0.042795,-0.016564,-0.002615,0.5620975646999999,-2.799994708,-9.381629789,0.059844,0.28955,3.0621,-9.090909090847532e-06,-3.333333333355171e-05,-9.999999999998899e-05,0.0005013569200787993,0.0004331458200066418,5.7022356884983694e-05
149740000000.0,-1,-0.019887886199999996,-0.11973919649999999,0.056780503499999996,-0.069126,0.026276,-0.001669,0.5633724292,-2.796268181,-9.382610454,0.059972,0.28915,3.0621,-9.090909091069577e-06,-3.333333333332966e-05,-9.999999999998899e-05,0.0002612293839783786,-0.00025244580514693915,0.00033596430709187386
149740000000.0,-1,-0.06341960555,-0.11282550824999998,0.09148623785,-0.081727,0.053014,0.001466,0.56695185645,-2.7910706564999996,-9.383983384999999,0.060344,0.2886,3.0622,-9.090909090847532e-06,-4.999999999988347e-05,-9.999999999998899e-05,0.0007456515757067184,-0.0003391880404586267,0.0003578816208594793
149740000000.0,-1,-0.07346161514999999,-0.06565552175,0.0816697812,-0.075374,0.046566,0.001489,0.57040379725,-2.7850885999999995,-9.385552449,0.0607,0.28796,3.0623,-5.0000000000105516e-05,-5.0000000000105516e-05,-9.999999999998899e-05,0.0006023280399254927,-0.0007657961612286268,-0.000322773743172855
149740000000.0,-1,-0.0346370878,0.02609549565,0.0315970263,-0.040426,0.015373,0.00374,0.5719924745499999,-2.779989142,-9.38692538,0.060859,0.28742,3.0624,-4.999999999988347e-05,-1.999999999990898e-05,-5.0000000000105516e-05,-0.00023580918515847538,0.00013836413316847818,0.00010184241420335693
149740000000.0,-1,-0.015367020549999999,0.06259584694999999,0.0787277862,0.004088,-0.022289,0.002816,0.57052147705,-2.778812344,-9.3874157125,0.060701,0.2873,3.0624,-0.00010000000000021103,-2.0000000000131024e-05,-4.999999999988347e-05,-0.00035131224765966307,9.606874968759449e-05,-0.0003254029140390968
149740000000.0,-1,0.02737036015,0.053161849649999995,0.07856107315000001,0.030525,-0.057661,-0.006683,0.5663928774,-2.7807736739999998,-9.387023446499999,0.060264,0.2875,3.0623,-9.999999999998899e-05,-1.999999999990898e-05,9.999999999998899e-05,-0.001088282857841072,-9.134747250727493e-05,-0.00017236869443132408
149740000000.0,-1,0.0744324735,0.06832293055,-0.022908334399999997,0.035808,-0.065159,-0.008796,0.5616758787499999,-2.782735004,-9.386729247,0.059766,0.28772,3.0622,0.00010000000000021103,-2.0000000000131024e-05,-9.999999999998899e-05,0.0006559449463001688,0.0013860990794460903,-0.0001516404012016359
149740000000.0,-1,0.02195708935,0.01215043935,-0.0595263655,0.025335,-0.038435,-0.005659,0.5577434121,-2.784892467,-9.386336981,0.059351,0.28795,3.0621,-3.333333333332966e-05,-1.999999999990898e-05,-3.333333333332966e-05,-0.0003284404993544876,0.00014336317758356643,-7.264924600142164e-05
149740000000.0,-1,-0.02566400305,-0.052102731449999995,-0.0400307453,0.002229,0.01183,0.001684,0.5573315327999999,-2.7863634645,-9.385944714999999,0.05931,0.2881,3.0621,-3.333333333355171e-05,-2.4999999999941735e-05,-3.333333333332966e-05,0.00023990513944111003,-0.00036395019837276443,0.0002689325668943643
149740000000.0,-1,-0.03978557905,-0.053181462949999994,-0.020888164499999997,-0.020972,0.053564,0.01438,0.56067560045,-2.7857750654999998,-9.385944714999999,0.059665,0.28803,3.0622,-3.333333333332966e-05,-2.4999999999941735e-05,-3.333333333332966e-05,-0.00044976069645069616,-0.0006926613700162232,0.00044419011137936115
149740000000.0,-1,-0.046973853499999996,-0.06918591575,0.0256149698,-0.037964,0.069676,0.024997,0.56577505845,-2.7838137355,-9.3862389145,0.060204,0.28783,3.0625,-5.0000000000105516e-05,-2.500000000016378e-05,-5.0000000000105516e-05,-0.00046544834256267986,-0.000297108720157091,0.00048645866192165155
149740000000.0,-1,-0.024389138549999998,-0.0842587368,0.07899256575,-0.043479,0.047342,0.026094,0.5698153982499999,-2.7815582059999997,-9.386631180499998,0.060631,0.28759,3.0628,-4.999999999988347e-05,-2.4999999999941735e-05,-4.999999999988347e-05,-0.00018501622221633873,0.00015296823686394845,0.0006124589363132316
149740000000.0,-1,0.033960428949999996,-0.05584887175,0.12225950555,-0.039589,-0.004895,0.018721,0.5707274166999999,-2.7793026765,-9.3872195795,0.060723,0.28735,3.0631,9.999999999998899e-05,-9.999999999998899e-05,-3.333333333332966e-05,0.0006841664183490082,0.0007262746687834998,-0.000272739428609059
149740000000.0,-1,0.07825706699999999,-0.04992565515,0.1091284012,-0.032547,-0.069933,0.000701,0.5668341766499999,-2.777439413,-9.388004111499999,0.060305,0.28715,3.0631,-9.999999999998899e-05,-9.999999999998899e-05,-3.333333333332966e-05,0.0006528999957704507,0.0005256020806310158,-0.0010604543498812236
149740000000.0,-1,0.06748936529999999,-0.04215878835,0.03874607415,-0.025238,-0.10407,-0.021642,0.55918498965,-2.775674216,-9.3889847765,0.059488,0.28696,3.0629,-9.999999999998899e-05,-9.999999999998899e-05,-3.333333333332966e-05,0.00011204726466923498,0.0006567104426762338,-0.0008871176397307612
149740000000.0,-1,0.042737380699999994,-0.0091397978,-0.0377752158,-0.013337,-0.091363,-0.034453,0.5516240625,-2.7738109525,-9.3899654415,0.058679,0.28676,3.0626,-9.999999999998899e-05,-9.999999999998899e-05,-9.999999999998899e-05,0.0007645531065242905,0.0011422724536007678,-0.000549789110869503
149740000000.0,-1,-0.0570550897,0.013003617899999998,-0.058153434500000004,-0.000133,-0.037135,-0.028121,0.54651479785,-2.772928354,-9.390553840499999,0.058133,0.28667,3.0623,-0.00019999999999997797,9.999999999998899e-05,-1.0000000000065512e-05,0.00010825489211485628,-0.0014732644999391198,-0.0005923749241512066
149740000000.0,-1,-0.1652812791,0.01862282835,-0.06758743179999999,0.003583,0.037404,-0.012233,0.5458185257,-2.7725360880000003,-9.3907499735,0.058057,0.28663,3.0622,-4.999999999988347e-05,-3.333333333332966e-05,-9.999999999843467e-06,0.0006100281464463952,-0.00011966454558254291,0.00025090044820441637
149740000000.0,-1,-0.1816387713,0.018377662099999997,-0.07055884675,0.0007,0.088552,0.005821,0.55004519185,-2.772143822,-9.390553840499999,0.058507,0.28659,3.0623,-5.0000000000105516e-05,-3.333333333332966e-05,-1.0000000000065512e-05,0.00019799305878082096,-0.0008734729907204919,0.00039520735917647487
149740000000.0,-1,-0.13957804945,0.03613750525,-0.0808656359,-0.007812,0.10245,0.022862,0.55677255375,-2.770770891,-9.390553840499999,0.059221,0.28644,3.0626,-5.0000000000105516e-05,-3.333333333332966e-05,-1.0000000000065512e-05,0.00021220528806747962,-0.0007157539374644806,0.0004363513641573724
149740000000.0,-1,-0.06878384309999999,-0.0145530686,-0.048493884249999994,-0.00592,0.076852,0.030383,0.56289190335,-2.7703786249999998,-9.3903577075,0.059872,0.2864,3.0629,-4.999999999988347e-05,-5.0000000000105516e-05,-9.999999999843467e-06,0.0001033601738875678,-0.0005502174411542438,0.0004383694319622933
149740000000.0,-1,0.01721067075,-0.07485415945,0.04390437205,-0.003146,0.020357,0.026217,0.5659221582,-2.7715554229999997,-9.389769308499998,0.060197,0.28652,3.0632,-4.999999999988347e-05,-4.999999999988347e-05,-1.0000000000065512e-05,8.33434029077762e-05,0.0001067791775524185,4.528213281801419e-05
149740000000.0,-1,0.1073239776,-0.10935395414999999,0.0801399438,-0.004677,-0.048872,0.009257,0.5645492272,-2.7732225534999997,-9.3893770425,0.060054,0.28671,3.0633,-5.0000000000105516e-05,-9.999999999998899e-05,-1.0000000000065512e-05,1.5507574371076416e-05,0.00045073847255361343,-0.00040652693876319645
149740000000.0,-1,0.15507255645,-0.11287454149999998,0.0763741902,-0.002861,-0.097885,-0.004532,0.5589986632999999,-2.7749877505,-9.3891809095,0.059466,0.28689,3.0632,-5.0000000000105516e-05,-9.999999999998899e-05,-1.0000000000065512e-05,3.245479013852526e-05,0.001205045676333949,-0.0004456252924125992
149740000000.0,-1,0.1166402951,-0.1267411446,0.1113839307,-0.002929,-0.11173,-0.011981,0.5508983703999999,-2.7771452135,-9.389082843,0.058607,0.28712,3.063,-4.999999999988347e-05,-9.999999999998899e-05,-9.999999999843467e-06,-7.98021482193434e-05,0.0008080196067909995,-0.000487013794604807
149740000000.0,-1,0.055897905,-0.1263292653,0.11280589494999999,-0.008082,-0.090368,-0.013095,0.54310208365,-2.7789104105,-9.3889847765,0.05778,0.2873,3.0628,-4.999999999988347e-05,-9.999999999998899e-05,-1.0000000000065512e-05,0.000335856954911562,0.0009516737515622431,-2.4785984530484306e-05
149740000000.0,-1,-0.0071000146,-0.061497502149999994,0.0812971285,-0.01945,-0.04339,-0.011063,0.53815953205,-2.7786162109999997,-9.3893770425,0.057254,0.28728,3.0627,-5.0000000000105516e-05,-9.999999999998899e-05,-3.333333333332966e-05,-3.409343640181639e-05,-0.0006446696059771995,-0.00020433218636939365
149740000000.0,-1,-0.07577598455,-0.02605626905,0.020947004399999997,-0.029717,0.012094,-0.002638,0.5369533140999999,-2.7765568144999997,-9.390063507999999,0.057121,0.28705,3.0627,-9.999999999998899e-05,-5.0000000000105516e-05,-3.333333333332966e-05,0.0004961998807152534,-0.00019511714030007177,0.0004681249129157017
149740000000.0,-1,-0.1105013322,-0.0157690932,-0.04404166515,-0.036883,0.052638,0.00155,0.5392186502499999,-2.7732225534999997,-9.3909461065,0.057356,0.2867,3.0628,-4.999999999988347e-05,-4.999999999988347e-05,-3.333333333332966e-05,0.0007464233888617722,-0.0002575236211812548,0.0007784646402975159
149740000000.0,-1,-0.0950264385,0.004707192,-0.09976305044999999,-0.033544,0.070721,0.002592,0.5439356489,-2.7693979599999996,-9.3917306385,0.057852,0.2863,3.0629,-5.0000000000105516e-05,-9.999999999998899e-05,3.333333333332966e-05,-4.7059579501240734e-05,-0.0008865800560384773,0.0004623137937302957
149740000000.0,-1,-0.020446865249999998,0.025310963649999997,-0.13944075635,-0.015523,0.055655,0.001583,0.54926065985,-2.7663578985,-9.3923190375,0.058414,0.28597,3.0629,-9.999999999998899e-05,-9.999999999998899e-05,3.333333333332966e-05,0.00018077789083587037,-0.000354406877933755,6.335602645285432e-05
149740000000.0,-1,0.04189400879999999,0.03668667765,-0.1060294998,0.008785,0.02243,-0.005789,0.55306564005,-2.7654752999999994,-9.392417104,0.058817,0.28588,3.0629,-9.999999999998899e-05,-1.6666666666775853e-05,3.333333333332966e-05,-0.0002179503698949703,0.00016943241804479037,0.000268301246853897
149740000000.0,-1,0.0857297343,0.028439284999999995,-0.0415409694,0.031907,-0.022511,-0.007806,0.5536638456999999,-2.7674366299999997,-9.3917306385,0.058884,0.28608,3.0628,-9.999999999998899e-05,-1.666666666655381e-05,0.00019999999999997797,-0.001761677807735229,-0.0003442387451086937,-0.00048051599711501636
149740000000.0,-1,0.1279571692,0.029949509099999997,0.007590347099999999,0.041247,-0.054552,-0.006667,0.5515456093,-2.7706728245,-9.3909461065,0.058664,0.28644,3.0626,-4.999999999988347e-05,-1.666666666655381e-05,5.0000000000105516e-05,-0.0001014968554582385,0.0007369603223357224,0.00019722647206210642
149740000000.0,-1,0.127094184,0.009002504699999999,0.0418351689,0.034706,-0.069417,-0.002385,0.54747584955,-2.7742032184999994,-9.390161574499999,0.058237,0.2868,3.0625,-5.0000000000105516e-05,-1.6666666666775853e-05,4.999999999988347e-05,-0.0007305017421707638,0.0003257231458508869,-5.130682152737487e-05
149740000000.0,-1,0.08237586,-0.028517738199999997,0.029184590399999998,0.010253,-0.055365,0.002884,0.54310208365,-2.776262615,-9.389769308499998,0.057776,0.28703,3.0624,-9.999999999998899e-05,-1.6666666666775853e-05,4.999999999988347e-05,-0.0008452085174883717,4.650595166388882e-05,-9.204681734753528e-05
149740000000.0,-1,0.0008433719,-0.069234949,0.0037363336499999997,-0.012838,-0.009352,0.000629,0.5409936539,-2.7767529475,-9.389769308499998,0.057552,0.28707,3.0624,-4.999999999988347e-05,-1.666666666655381e-05,5.0000000000105516e-05,0.0003574534218064307,-0.000328969868455653,0.00019956269689164197
149740000000.0,-1,-0.03631402495,-0.09378099395,0.023545766649999997,-0.018794,0.04398,-0.002677,0.54343550975,-2.7765568144999997,-9.389671241999999,0.057811,0.28706,3.0625,-5.0000000000105516e-05,-9.999999999998899e-05,5.0000000000105516e-05,0.00017012269393762436,-0.00018044510328718566,0.00016367924200538786
149740000000.0,-1,-0.0325973046,-0.0572512227,0.0476407057,-0.010059,0.070544,0.000494,0.54914298005,-2.7764587479999996,-9.3893770425,0.058419,0.28704,3.0625,-1.999999999990898e-05,-4.999999999988347e-05,4.999999999988347e-05,-8.755993805498186e-05,-0.0004858056549770229,0.00014554407767009003
149740000000.0,-1,-0.020309572149999996,-0.046336421249999996,0.056888376649999996,0.009021,0.058658,0.006952,0.5548112237499999,-2.7779297455000003,-9.3885925105,0.059026,0.2872,3.0625,-2.0000000000131024e-05,-5.0000000000105516e-05,4.999999999988347e-05,-7.321662450521238e-05,2.767161280226027e-05,0.0004708218309896761
149740000000.0,-1,0.02201592925,-0.041943042050000004,0.0610365896,0.027844,0.012679,0.010268,0.55738056605,-2.7810678735,-9.387513778999999,0.059306,0.28754,3.0626,-1.999999999990898e-05,-5.0000000000105516e-05,5.0000000000105516e-05,-0.000524686060005275,0.0008026387761372877,0.00021295644635982436
149740000000.0,-1,0.07987516424999999,-0.019829046299999997,0.0762172838,0.038065,-0.044942,0.008252,0.55563498235,-2.7852847329999997,-9.386336981,0.059127,0.28798,3.0626,-2.0000000000131024e-05,-5.0000000000105516e-05,9.999999999998899e-05,-0.00019722535610305902,0.0009589623331915931,-8.069212204225851e-05
149740000000.0,-1,0.11826819899999999,-0.024340105299999998,0.08879921575,0.039871,-0.090766,0.000862,0.54986867215,-2.7898938585,-9.385356316,0.058521,0.28847,3.0626,-1.999999999990898e-05,-9.999999999998899e-05,9.999999999998899e-05,-2.9867940730454734e-05,0.0009040439407617118,-0.0008319780546728328
149740000000.0,-1,0.08807352364999999,-0.024634304799999996,0.10838309579999998,0.024903,-0.10022,-0.007687,0.54204296545,-2.793522319,-9.384767917,0.057694,0.28886,3.0624,-5.0000000000105516e-05,-9.999999999998899e-05,1.4285714285744433e-05,-0.00026130825009734737,0.0006628958158989562,-0.0007173741276386703
149740000000.0,-1,0.0187895414,-0.03976596574999999,0.0808460226,-0.00254,-0.068018,-0.015264,0.53531560355,-2.7947971835,-9.3846698505,0.056979,0.289,3.0623,-5.0000000000105516e-05,-9.999999999998899e-05,1.4285714285744433e-05,0.0002740907888553745,0.000484706886592301,-0.00043836543855307886
149740000000.0,-1,-0.058094594599999994,-0.030939980749999995,0.0590948729,-0.027644,-0.008135,-0.019682,0.5327462612499999,-2.7934242525,-9.3852582495,0.056703,0.28885,3.0621,-4.999999999988347e-05,-9.999999999998899e-05,1.4285714285744433e-05,0.0005850822885410389,-6.898607363270415e-05,2.008085106364188e-05
149740000000.0,-1,-0.09159411099999999,0.00361865385,0.0316362529,-0.042125,0.049523,-0.01874,0.5352665702999999,-2.7896977255,-9.3862389145,0.056965,0.28846,3.062,-5.0000000000105516e-05,-5.0000000000105516e-05,1.4285714285522388e-05,0.0006826771531500131,-0.0007656661018089483,-0.00017856708097013785
149740000000.0,-1,-0.10580394685,0.0506807672,0.006501808949999999,-0.032253,0.088856,-0.010251,0.54155263295,-2.785480866,-9.387121512999999,0.057627,0.288,3.0619,-9.999999999998899e-05,-4.999999999988347e-05,1.4285714285744433e-05,-0.00010163991784278847,-0.0013661064075178864,1.5792308263373744e-05
149740000000.0,-1,-0.08258179965,0.06906823594999999,0.044914457,-0.001355,0.089655,-0.000592,0.54900568695,-2.7836176024999997,-9.3872195795,0.058418,0.28781,3.0619,-9.999999999998899e-05,-4.999999999988347e-05,1.4285714285744433e-05,-0.00020785923728178224,-0.0011366851704952552,0.00025137429745031303
149740000000.0,-1,-0.0038245934999999996,0.0550153065,0.0686661633,0.028182,0.051044,0.004865,0.5547916104499999,-2.7851866664999996,-9.3864350475,0.059037,0.28797,3.0619,-1.666666666655381e-05,-5.0000000000105516e-05,1.4285714285744433e-05,-0.0004309232484216441,-0.0002516674900234772,-1.8547879129249267e-06
149740000000.0,-1,0.07305954249999999,0.03904027365,0.059143906149999995,0.042666,-0.005549,0.004988,0.5567627471,-2.7886189939999997,-9.3852582495,0.059254,0.28834,3.0619,-1.6666666666775853e-05,-5.0000000000105516e-05,4.999999999988347e-05,-4.083988841252495e-05,0.000747954529251027,6.984383049091214e-05
149740000000.0,-1,0.12582912615,-0.0025105023999999997,0.037157396849999996,0.043368,-0.054563,-0.000263,0.5547229639,-2.7930319865,-9.3840814515,0.059044,0.28881,3.0619,-1.6666666666775853e-05,-4.999999999988347e-05,5.0000000000105516e-05,-0.0004409863858622076,0.00047345534281717505,-0.0004452169310066312
149740000000.0,-1,0.1360182355,-0.05546641239999999,0.07848261995,0.028262,-0.080001,-0.00665,0.55006480515,-2.7973469124999997,-9.3831007865,0.058556,0.28927,3.0617,-1.666666666655381e-05,-9.999999999998899e-05,-5.0000000000105516e-05,-0.00015861129318167633,0.0007743654572278658,-0.00046391825840069734
149740000000.0,-1,0.08882863569999999,-0.09687989535,0.10099868835,-0.005766,-0.069057,-0.010999,0.54488689395,-2.799602442,-9.3827085205,0.058008,0.28951,3.0616,-1.666666666655381e-05,-9.999999999998899e-05,-4.999999999988347e-05,0.0004251357311538251,0.00016845258165543164,-0.00021554726398992363
149740000000.0,-1,0.015651413399999998,-0.11721888744999999,0.04477716389999999,-0.038486,-0.027225,-0.014331,0.54174876595,-2.798621777,-9.383198853,0.057672,0.2894,3.0614,-1.6666666666775853e-05,-9.999999999998899e-05,-3.333333333332966e-05,0.0003388500661209992,-0.0006605125376930587,-0.0002692606084361282
149740000000.0,-1,-0.052387124300000004,-0.07851203989999998,0.0461500949,-0.051875,0.032557,-0.014459,0.542896144,-2.795287516,-9.384179518,0.057788,0.28905,3.0613,-9.999999999998899e-05,-9.999999999998899e-05,-3.333333333332966e-05,0.0003225844911903253,-0.001078388879766079,-9.287694511977973e-05
149740000000.0,-1,-0.09931194455,-0.04670907395,0.11582634315,-0.052606,0.074119,-0.014532,0.5479269554499999,-2.7914629225,-9.384964049999999,0.058317,0.28864,3.0612,9.999999999998899e-05,-9.999999999998899e-05,-3.333333333332966e-05,0.0010533242246109076,-0.00046590700400583884,0.0005354431090475176
149740000000.0,-1,-0.07573675795,0.00448163905,0.08650445965,-0.039785,0.07827,-0.011314,0.5547229639,-2.7875402625,-9.385748582,0.059034,0.28823,3.0612,-9.999999999998899e-05,-9.999999999998899e-05,-9.999999999998899e-05,0.00016564546388275758,-0.0008198231139842083,0.0004687127095267529
149740000000.0,-1,-0.0167301449,0.0655868752,0.0389912404,-0.012355,0.045001,-0.002669,0.5599106817499999,-2.7847944005,-9.3862389145,0.059582,0.28793,3.0611,3.333333333332966e-05,-9.999999999998899e-05,-1.6666666666775853e-05,-0.0001332982678472483,-0.00022310809105929863,0.00038081707713444324
149740000000.0,-1,0.0342055952,0.07065691325,0.0401876517,0.011784,-0.002087,0.001725,0.56149935905,-2.784500201,-9.3862389145,0.05975,0.2879,3.0611,3.333333333332966e-05,-5.0000000000105516e-05,-1.666666666655381e-05,1.4771197503815614e-05,0.0003633128875539793,-0.00021224787770512954
149740000000.0,-1,0.08369975774999999,0.03468612105,0.020780291349999997,0.018885,-0.047964,0.001817,0.5592928628,-2.7857750654999998,-9.3860427815,0.059518,0.28804,3.0611,3.333333333332966e-05,-4.999999999988347e-05,-1.666666666655381e-05,-6.0706723551240405e-05,0.0008253176427051034,-8.192056925321323e-05
149740000000.0,-1,0.09557561089999998,0.015808319799999998,-0.03611789195,0.014498,-0.066034,-0.003497,0.5548994836,-2.7867557304999995,-9.385944714999999,0.059051,0.28814,3.061,-9.999999999998899e-05,-4.999999999988347e-05,-1.6666666666775853e-05,-6.017912235783962e-05,3.2335701958041696e-05,-0.00047686810829455917
149740000000.0,-1,0.08443525649999999,-0.01917200075,-0.030537908099999997,0.00181,-0.051009,-0.002479,0.55092779035,-2.7874421959999998,-9.3860427815,0.05863,0.28821,3.0609,9.999999999998899e-05,-5.0000000000105516e-05,-1.6666666666775853e-05,-0.00022341223105803998,0.00047314716972768345,0.00019102204197507522
149740000000.0,-1,0.0051779112,-0.05565273875,-0.0011571847,-0.016035,-0.014632,-0.002574,0.548780134,-2.7871479965,-9.3862389145,0.058401,0.28818,3.0609,-9.090909090847532e-06,-5.0000000000105516e-05,-1.666666666655381e-05,-1.0152589314915694e-05,-0.000689777812025838,2.6893264846061804e-05
149740000000.0,-1,-0.05251461075,-0.0438357255,0.0033342610000000003,-0.033899,0.022804,0.002667,0.54916259335,-2.7850885999999995,-9.3868273135,0.058437,0.28796,3.061,-9.090909091069577e-06,-4.999999999988347e-05,-5.0000000000105516e-05,0.0007797211492410749,-0.00016523799192436073,0.00035611077287078796
149740000000.0,-1,-0.10539206755,-0.01779906975,0.03307783045,-0.042296,0.045239,0.011154,0.55116314995,-2.781754339,-9.387709912,0.058644,0.28761,3.0611,-9.090909090847532e-06,-4.999999999988347e-05,-4.999999999988347e-05,0.0004176695511928785,-0.0004434348954471812,0.00025518007947150645
149740000000.0,-1,-0.10329344445000001,-0.00271644205,0.0289100042,-0.039168,0.038811,0.015441,0.5529479602499999,-2.7783220115,-9.3885925105,0.058828,0.28724,3.0614,-9.090909090847532e-06,-5.0000000000105516e-05,-9.999999999998899e-05,-0.00019155892424599363,8.293603481379641e-05,0.0006672361449187592
149740000000.0,-1,-0.056388237499999994,0.04105063689999999,0.028576578099999996,-0.014856,0.009839,0.014468,0.55318331985,-2.7758703489999994,-9.389278975999998,0.058848,0.28698,3.0616,-9.090909090847532e-06,-9.999999999998899e-05,9.999999999998899e-05,-0.0012590067407647343,-0.0007899450315784762,-0.00032727236410579064
149740000000.0,-1,-0.026585828149999997,0.04734650619999999,0.0718631312,0.014755,-0.025566,0.010312,0.5509179837,-2.7761645484999997,-9.3893770425,0.058608,0.28701,3.0617,-9.090909091069577e-06,-3.333333333332966e-05,-4.0000000000040004e-05,0.000678245569087299,0.001445229629096767,0.00043866745143789077
149740000000.0,-1,-0.00093163175,0.0535246957,0.08246411984999999,0.035885,-0.055572,0.007203,0.54606369195,-2.7787142774999998,-9.38888671,0.058095,0.28729,3.0618,-9.090909090847532e-06,-3.333333333332966e-05,-4.0000000000040004e-05,-0.0016584623980567814,0.0005168609919015132,-0.00026225764898402115
149740000000.0,-1,-0.004609125499999999,0.02976318275,0.09134894475,0.034802,-0.060886,0.001874,0.54016008865,-2.782146605,-9.3882002445,0.057473,0.28766,3.0618,-9.090909090847532e-06,-3.333333333332966e-05,-3.999999999981796e-05,-0.0005610213672412878,0.000428131959780087,-0.00012869622005590164
149740000000.0,-1,-0.02862561135,-0.008433719,0.10896168814999999,0.013693,-0.033006,0.000721,0.5358941959,-2.784696334,-9.387709912,0.057023,0.28792,3.0618,-9.090909090847532e-06,-5.0000000000105516e-05,-4.0000000000040004e-05,3.236359925162802e-05,-4.609326924653878e-05,-0.00017761054914033902
149740000000.0,-1,-0.07512874565,-0.0578788483,0.10996196645,-0.028655,0.007833,0.000577,0.5343643585,-2.7845982675,-9.3878079785,0.05686,0.28791,3.0618,-9.090909091069577e-06,-5.0000000000105516e-05,-4.0000000000040004e-05,0.00023356902472937424,0.0002703967246990846,0.0005352191981078391
149740000000.0,-1,-0.09672298894999999,-0.10480366854999999,0.09760558744999999,-0.068942,0.041192,0.003652,0.5359138092,-2.7810678735,-9.3887886435,0.057018,0.28754,3.062,-9.090909090847532e-06,-9.999999999998899e-05,-9.999999999998899e-05,0.0012310866346286753,-0.00010826538014852005,-0.00017027756583354314
149740000000.0,-1,-0.12247525185,-0.12243602524999998,0.10147921419999999,-0.089075,0.060531,0.007855,0.5392186502499999,-2.775478083,-9.390259640999998,0.05736,0.28694,3.0621,-5.0000000000105516e-05,-9.999999999998899e-05,-9.999999999998899e-05,0.0008448071712909844,-0.0002893835165509451,0.00012492107378581085
149740000000.0,-1,-0.1043819826,-0.10532342099999999,0.1270157308,-0.08592,0.050916,0.002542,0.5426705910499999,-2.7693979599999996,-9.391828705,0.057717,0.28629,3.0623,-4.999999999988347e-05,-9.999999999998899e-05,-9.999999999998899e-05,0.00018164229013895028,-0.00025180593023788056,0.00010953716416339798
149740000000.0,-1,-0.026193562150000002,-0.0637628383,0.10012589649999999,-0.062679,0.015569,-0.006962,0.5448378607,-2.7642004355,-9.393201636,0.057939,0.28575,3.0623,-4.999999999988347e-05,-9.999999999998899e-05,-9.999999999998899e-05,0.00026915524643467137,0.00022967611892799056,4.807267355355638e-05
149740000000.0,-1,0.03064578125,-0.008786758399999999,0.06332153905,-0.024606,-0.032685,-0.016418,0.54396506885,-2.761356507,-9.3940842345,0.05784,0.28543,3.0622,-5.0000000000105516e-05,-5.0000000000105516e-05,-9.999999999998899e-05,-0.00012205054904668167,0.0005655229910381809,-0.00012479537423359943
149740000000.0,-1,0.060408963999999996,0.00832584585,0.06930359555,0.003864,-0.07554,-0.017361,0.5393461367,-2.7612584405,-9.394378434,0.057348,0.28542,3.0619,-5.0000000000105516e-05,-4.999999999988347e-05,-2.4999999999941735e-05,-0.0005667905053255429,0.0004643255136611568,-0.0006304686039713681
149740000000.0,-1,0.06016379775,0.00477583855,0.0,0.013355,-0.089469,-0.017321,0.5324030285,-2.762141039,-9.394574567,0.056611,0.28552,3.0617,-4.999999999988347e-05,-4.999999999988347e-05,-2.500000000016378e-05,-0.0004215043013571784,2.6571572841138646e-05,-0.0007539955977237667
149740000000.0,-1,0.0169655045,-0.002157463,-0.07866894629999999,0.006172,-0.054244,-0.018463,0.52682304465,-2.762533305,-9.394770699999999,0.056018,0.28557,3.0615,-9.999999999998899e-05,-5.0000000000105516e-05,-2.4999999999941735e-05,0.00011350115615049727,-5.1577477860886844e-05,-0.0002433076201399098
149740000000.0,-1,-0.0137096967,-0.024751984600000002,-0.0676854983,-0.009354,0.008749,-0.013264,0.5263621320999999,-2.7619449059999996,-9.394966833,0.055968,0.2855,3.0614,-9.999999999998899e-05,-5.0000000000105516e-05,-2.4999999999941735e-05,0.0001250835694949215,-2.1012791200369918e-05,0.0001872874811044145
149740000000.0,-1,-0.07401078755,-0.04594415524999999,-0.06886229629999999,-0.0292,0.068572,-0.002729,0.5304024719,-2.7600816424999994,-9.395261032499999,0.056394,0.2853,3.0614,-3.333333333332966e-05,-4.999999999988347e-05,-9.999999999998899e-05,0.0003100849681008655,-0.00018294234578175583,0.0004075353437777429
149740000000.0,-1,-0.1031071181,-0.056907989949999994,-0.046758107199999996,-0.038592,0.1006,0.006807,0.5375024865,-2.7573357804999996,-9.3956532985,0.057146,0.28501,3.0615,-3.333333333332966e-05,-9.999999999998899e-05,-5.0000000000105516e-05,0.0007954307256235471,-0.0005024915904092708,0.0002551666255931617
149740000000.0,-1,-0.05696682985,-0.055270279400000004,-0.0149649479,-0.03758,0.094199,0.007888,0.5455243261999999,-2.754491852,-9.3960455645,0.057994,0.28471,3.0616,-3.333333333332966e-05,-5.0000000000105516e-05,-4.999999999988347e-05,-2.319250351101587e-06,-0.0005992388062971976,0.00028999522760631
149740000000.0,-1,0.03533335995,-0.032254071849999996,0.0240655191,-0.017729,0.040758,0.006949,0.5510945034,-2.7529227880000002,-9.396143631,0.058584,0.28455,3.0617,-5.0000000000105516e-05,-4.999999999988347e-05,-9.999999999998899e-05,0.0005155738361890538,0.00042521250550842105,9.139486288245458e-05
149740000000.0,-1,0.08480790919999999,-0.060860069899999994,0.0539561883,-0.003275,-0.028608,-0.006781,0.5514573494499999,-2.7535111869999995,-9.395947498,0.058623,0.28461,3.0616,-4.999999999988347e-05,-9.999999999998899e-05,-9.999999999998899e-05,0.0007883898142713175,0.0010873408737104295,-0.0001298645356122563
149740000000.0,-1,0.14954160585,-0.07022542065,0.0321069721,0.017669,-0.086304,-0.019454,0.5474660429,-2.755864783,-9.395555232,0.058203,0.28485,3.0614,-4.999999999988347e-05,-5.0000000000105516e-05,3.333333333332966e-05,-0.00037438936420669533,0.0008279986052650568,-0.0005309173430983471
149740000000.0,-1,0.15292490009999998,-0.04927841625,0.037932122199999994,0.016551,-0.096939,-0.025844,0.5415428263,-2.7581203125,-9.395261032499999,0.057577,0.28509,3.0611,-5.0000000000105516e-05,-4.999999999988347e-05,3.333333333332966e-05,-8.534560851963802e-05,0.0009432539234375259,-0.0005078331976393069
149740000000.0,-1,0.0722357839,-0.06176228169999999,0.05071018715,0.00611,-0.06808,-0.024846,0.5361883954,-2.759983576,-9.394966833,0.05701,0.28529,3.0608,-9.999999999998899e-05,-9.999999999998899e-05,3.333333333332966e-05,-0.000585580134376984,-0.00012420070633512026,-0.0005485915514365503
149740000000.0,-1,-0.006629295399999999,-0.052759777,0.02299659425,-0.012708,-0.014654,-0.016433,0.5339524792,-2.759983576,-9.3950648995,0.056772,0.28529,3.0606,-4.999999999988347e-05,-9.999999999998899e-05,-9.999999999998899e-05,0.0006157932099323249,2.121206703153966e-05,-0.00019563773645003835
149740000000.0,-1,-0.0779236409,-0.0018240368999999999,-0.00652142225,-0.025163,0.040837,0.002661,0.5353646368,-2.757826113,-9.3956532985,0.056918,0.28506,3.0606,-5.0000000000105516e-05,-0.00019999999999997797,-1.999999999990898e-05,0.00014664789541191103,-0.0006562072339313385,0.0001002043223436444
149740000000.0,-1,-0.1074612707,0.0048444850999999995,0.0271448072,-0.022963,0.061042,0.021844,0.53857141135,-2.75566865,-9.396143631,0.057256,0.28483,3.0608,-5.0000000000105516e-05,-4.999999999988347e-05,-2.0000000000131024e-05,-0.00015760965638034197,-0.0010728273141817901,0.00042666463824914125
149740000000.0,-1,-0.08620045349999998,0.027752819499999998,0.052857843499999994,-0.012456,0.048153,0.033628,0.54139572655,-2.7541976525,-9.396339764,0.057554,0.28468,3.0612,-4.999999999988347e-05,-5.0000000000105516e-05,-1.999999999990898e-05,-0.0004509186304794133,-0.0005471636671279256,0.0003829619876266621
149740000000.0,-1,-0.03078307435,0.046875787,0.0774333084,0.003211,0.0054,0.032663,0.5416408928,-2.7540015195,-9.396437830499998,0.05758,0.28465,3.0616,-9.999999999998899e-05,-9.999999999998899e-05,-2.0000000000131024e-05,-0.00032223401057995815,-0.0002718571727566843,2.2727162743207963e-05
149740000000.0,-1,0.0244773984,0.039285439899999997,0.08619064685,0.018896,-0.04373,0.017833,0.5384635381999999,-2.7553744504999997,-9.396241697499999,0.057244,0.2848,3.0618,-5.0000000000105516e-05,-4.999999999988347e-05,-1.999999999990898e-05,-0.0011412884388957711,0.0003299862291759048,-2.5865736456576194e-06
149740000000.0,-1,0.0557998385,0.0052563644,0.0967916355,0.01457,-0.064981,-0.004553,0.5336190530999999,-2.7574338469999997,-9.3958494315,0.056732,0.28502,3.0617,-4.999999999988347e-05,-5.0000000000105516e-05,-5.0000000000105516e-05,-0.00043511577925331446,0.00018541435641528103,-0.00044959566436292286
149740000000.0,-1,0.06381187155,-0.041335029749999995,0.0828073526,-0.005536,-0.055205,-0.021684,0.52964735985,-2.7584145119999994,-9.3958494315,0.056311,0.28513,3.0615,-9.999999999998899e-05,-5.0000000000105516e-05,-5.0000000000105516e-05,-0.00014152501359870895,1.505130641410446e-05,-0.00018233103653225724
149740000000.0,-1,0.020397831999999998,-0.08018897705,0.05580964515,-0.037279,-0.02191,-0.020731,0.52772525645,-2.7569435144999996,-9.396339764,0.056104,0.28497,3.0613,-9.999999999998899e-05,-4.999999999988347e-05,-9.999999999998899e-05,-0.00010098620237730671,-0.0002997043452546144,0.00013710385220155885
149740000000.0,-1,-0.0553683459,-0.09557561089999998,0.01928968055,-0.066841,0.022013,-0.012319,0.5282253956,-2.752726655,-9.397516562,0.05615,0.28453,3.0612,-3.333333333332966e-05,-0.00020000000000020002,-9.999999999998899e-05,-0.00020958122961328707,-0.0007004165770256865,3.666253301976008e-05
149740000000.0,-1,-0.08755377119999999,-0.0736479415,0.012827098199999998,-0.077355,0.049787,0.001491,0.53107913075,-2.7467445985,-9.3991836925,0.056443,0.28389,3.0613,-3.333333333355171e-05,-9.999999999998899e-05,-9.999999999998899e-05,0.0018351389534598805,0.00014246903428039026,0.0004424698274555494
149740000000.0,-1,-0.08234644005,-0.00089240515,0.02113333075,-0.066739,0.049686,0.012185,0.5344035851,-2.740174143,-9.400850822999999,0.056785,0.28319,3.0615,-3.333333333332966e-05,-9.999999999998899e-05,-4.999999999988347e-05,0.0004882787096843755,-0.001034837682268197,1.352282706268415e-05
149740000000.0,-1,-0.061821121599999994,0.04918034975,0.0239478393,-0.038128,0.026004,0.013344,0.5360216823499999,-2.7353688845,-9.402223754,0.056948,0.28268,3.0617,-4.999999999988347e-05,-9.999999999998899e-05,-5.0000000000105516e-05,0.000697185397510236,0.00029071716365192124,0.0002047621460619653
149740000000.0,-1,-0.02842947835,0.0693134022,-0.00348136075,-0.005264,-0.007289,0.001719,0.5354038633999999,-2.7330152885,-9.402910219499999,0.056879,0.28243,3.0617,-5.0000000000105516e-05,-4.999999999988347e-05,-9.999999999998899e-05,8.001640491223094e-05,0.0003827450573865576,3.202169005761535e-05
149740000000.0,-1,0.0189856744,0.0723534637,-0.029439563299999996,0.020262,-0.0256,-0.012081,0.5337759595,-2.7330152885,-9.403008286,0.056706,0.28243,3.0616,-5.0000000000105516e-05,-5.0000000000105516e-05,-1.6666666666775853e-05,-0.0004806016831476745,0.0002116011621124958,-0.0002846491387058503
149740000000.0,-1,0.048052584999999995,0.03803999535,-0.027448813349999997,0.034136,-0.028902,-0.018456,0.5322461221,-2.735270818,-9.402419886999999,0.056547,0.28267,3.0614,-4.999999999988347e-05,-3.333333333332966e-05,-1.666666666655381e-05,-0.0007672733812577603,-0.00010572760890226185,0.00010426874580421464
149740000000.0,-1,0.0122386992,-0.029831829299999998,-0.0312636002,0.026785,-0.014987,-0.019561,0.5310889374,-2.7383108794999997,-9.401635355,0.05643,0.28299,3.0612,-9.999999999998899e-05,-3.333333333332966e-05,-1.666666666655381e-05,-0.0002340866548093401,0.0006922498410748545,1.2507755831614453e-06
149740000000.0,-1,-0.0033931009,-0.06808757095,-0.03692203725,0.002492,0.018242,-0.015392,0.53251090165,-2.7399780099999997,-9.401046956,0.056584,0.28317,3.061,-3.333333333332966e-05,-3.333333333332966e-05,-1.6666666666775853e-05,0.0002687632768112458,0.0003289626336198115,2.96570080586811e-05
149740000000.0,-1,0.00392266,-0.09360447424999999,-0.0373241099,-0.017577,0.047172,-0.009073,0.53657085475,-2.7400760765,-9.4007527565,0.057016,0.28318,3.0609,-3.333333333332966e-05,-9.999999999998899e-05,-1.6666666666775853e-05,-0.00022129872593912303,-0.0003550120618882602,0.00014325457933839214
149740000000.0,-1,0.00903192465,-0.1066767387,-0.00561921045,-0.038859,0.05906,-0.000592,0.5420919987,-2.7385070125,-9.400850822999999,0.0576,0.28302,3.0609,-3.333333333332966e-05,-9.999999999998899e-05,-1.666666666655381e-05,0.0005195015626844879,-0.000594393934655546,0.00022479076669074116
149740000000.0,-1,0.00601147645,-0.1177778665,0.009963556399999999,-0.048574,0.043159,-0.002715,0.5468972571999999,-2.7359572835,-9.401341155499999,0.058106,0.28274,3.0609,-4.999999999988347e-05,-9.999999999998899e-05,-0.00023333333333330764,0.00039349122236348455,-0.0007684656793496281,-7.396802677023251e-05
149740000000.0,-1,0.06537112889999999,-0.09780172044999999,0.0010983447999999999,-0.040241,0.01539,-0.005855,0.5503884245999999,-2.733309488,-9.401929554499999,0.058474,0.28247,3.0608,-5.0000000000105516e-05,-9.999999999998899e-05,-0.00023333333333330764,0.00020215362173953144,-0.0002069422429489265,-0.00018129334674882314
149740000000.0,-1,0.09833127954999998,-0.0379517355,0.060850263249999995,-0.015977,-0.019969,-0.006819,0.5512514098,-2.7320346234999997,-9.402223754,0.058562,0.28232,3.0607,9.999999999998899e-05,0.00019999999999997797,-0.00023333333333330764,0.006454432788439213,0.005275438251906461,0.000887053952804473
149740000000.0,-1,0.0900838869,0.00128467115,0.0837291777,0.018878,-0.059688,0.000782,0.54796618205,-2.7332114215,-9.4021256875,0.058216,0.28245,3.0606,-9.999999999998899e-05,-9.999999999998899e-05,0.00029999999999996696,-0.00020437221241770276,0.0002980779530590283,-0.0004624909503496144
149740000000.0,-1,0.0666067668,0.0383243882,0.0777275079,0.041162,-0.069469,0.009376,0.54241561815,-2.736447616,-9.4015372885,0.057631,0.28279,3.0607,5.0000000000105516e-05,-0.00029999999999996696,0.00029999999999996696,-0.006337525758342677,-0.0034096467519428852,-0.0004711989416509299
149740000000.0,-1,0.02003498595,0.04233530804999999,0.06130136914999999,0.045553,-0.049265,0.016819,0.53706118725,-2.7404683425,-9.40065469,0.057069,0.28322,3.0608,4.999999999988347e-05,-9.999999999998899e-05,-2.4999999999941735e-05,0.0009827562341271912,0.0007408376395927618,-1.1235855548352713e-05
149740000000.0,-1,-0.025987622499999998,0.0146119085,0.022329742049999997,0.029908,-0.004382,0.016713,0.5347566244999999,-2.7437045369999997,-9.3997720915,0.056829,0.28356,3.061,-9.999999999998899e-05,-9.999999999998899e-05,-2.4999999999941735e-05,-0.00041503826885769257,-0.0007306969703533284,0.0002664477724193537
149740000000.0,-1,-0.0589183532,-0.029253236949999997,0.0482879446,-0.001721,0.042763,0.016576,0.5364139483499999,-2.7451755345,-9.399281758999999,0.057008,0.28372,3.0612,-1.999999999990898e-05,-9.999999999998899e-05,-2.500000000016378e-05,-0.00025747501197848077,-0.0008464809323391886,0.0003986821364055926
149740000000.0,-1,-0.06215454769999999,-0.061693635149999995,0.047179793149999996,-0.033531,0.063276,0.010082,0.5406994543999999,-2.7439987365,-9.3993798255,0.057462,0.2836,3.0613,-2.0000000000131024e-05,-9.999999999998899e-05,-2.4999999999941735e-05,0.0004404578760990874,-0.0006072895714526183,0.00037547610611193827
149740000000.0,-1,-0.037686955949999996,-0.07914947215,0.01691647125,-0.053826,0.05599,0.003655,0.54555374615,-2.7406644754999996,-9.400066290999998,0.057972,0.28324,3.0614,-1.999999999990898e-05,-0.00019999999999997797,-9.999999999998899e-05,0.0012589866115302328,-8.367893124749948e-05,0.00023284641867915568
149740000000.0,-1,0.0084533323,-0.0720396509,0.027478233299999995,-0.053014,0.01976,-0.002684,0.54849574115,-2.7366437489999997,-9.401046956,0.058278,0.28282,3.0615,-2.0000000000131024e-05,-9.999999999998899e-05,1.999999999990898e-05,0.00041249060647563507,0.00033620517374766123,0.0002376967459564172
149740000000.0,-1,0.061468082199999996,-0.02260432825,0.028066632299999998,-0.027793,-0.030526,-0.005754,0.5480054086499999,-2.7337017539999997,-9.401929554499999,0.058221,0.2825,3.0614,-1.999999999990898e-05,-0.00010000000000021103,2.0000000000131024e-05,-0.0003857325144727697,0.0001306707181991662,-0.0002974054719295238
149740000000.0,-1,0.08946606794999999,0.036833777399999997,0.031116500449999997,0.003838,-0.075542,-0.002419,0.54349434965,-2.7328191554999997,-9.4025179535,0.057739,0.28241,3.0613,-4.999999999988347e-05,-9.999999999998899e-05,1.999999999990898e-05,-0.0004963655054049942,0.0004223932710611944,-0.00020899915120775603
149740000000.0,-1,0.09076054574999999,0.06818563744999999,0.00805125965,0.032511,-0.090695,-0.000209,0.5366787278999999,-2.734290153,-9.402419886999999,0.057016,0.28256,3.0613,-5.0000000000105516e-05,-9.999999999998899e-05,2.0000000000131024e-05,-0.00019619427549899537,-0.0001108204736377516,-0.0004918946423252413
149740000000.0,-1,0.0578200084,0.10523516114999999,-0.07142183195,0.047606,-0.068444,0.002979,0.53025537215,-2.7366437489999997,-9.4021256875,0.056337,0.28281,3.0612,1.999999999990898e-05,-2.4999999999941735e-05,1.999999999990898e-05,-0.0008736062889028173,8.355357357880955e-05,-0.0001824553096981263
149740000000.0,-1,0.025634583099999997,0.10741223744999999,-0.05800633475,0.050027,-0.027977,0.009315,0.5266759448999999,-2.7395857439999998,-9.4015372885,0.055962,0.28312,3.0613,2.0000000000131024e-05,-2.500000000016378e-05,5.0000000000105516e-05,-0.0005511784494279803,-0.00039712862314678077,0.00010151823868354004
149740000000.0,-1,0.00446202575,0.04959222905,-0.03756927615,0.033166,0.005185,0.019902,0.5260090927,-2.7424296725,-9.40065469,0.055896,0.28343,3.0614,1.999999999990898e-05,-2.4999999999941735e-05,4.999999999988347e-05,-0.0003825817966515155,-0.0004392225725853294,0.00028994546909943963
149740000000.0,-1,0.01460210185,0.018917027849999997,-0.08064008294999998,0.006559,0.020312,0.030503,0.5269309178,-2.7432142044999996,-9.400360490499999,0.055996,0.28351,3.0617,2.0000000000131024e-05,-2.4999999999941735e-05,3.333333333332966e-05,9.039279158418179e-05,0.00039323784725753264,0.0005014903406441729
149740000000.0,-1,-0.0011081514499999999,-0.01352337035,-0.1179739995,-0.00621,0.029998,0.039003,0.52843133525,-2.7426258054999995,-9.400458556999999,0.056154,0.28345,3.0621,1.999999999990898e-05,-9.999999999998899e-05,3.333333333332966e-05,-0.0006179761830255037,-0.0001823616634888392,0.0006899182647399638
149740000000.0,-1,0.010522535449999999,-0.02058415835,-0.012827098199999998,0.000185,0.033136,0.045413,0.5305691849499999,-2.7429200049999998,-9.400262424,0.056382,0.28348,3.0625,9.999999999998899e-05,-3.333333333332966e-05,3.333333333332966e-05,3.3453417390694185e-05,0.0004770606756616669,0.0005720339016245246
149740000000.0,-1,0.031116500449999997,-0.03211677875,0.12284790455,0.008591,0.01602,0.04439,0.53196172925,-2.7448813349999996,-9.399674025,0.056534,0.28369,3.063,9.999999999998899e-05,-3.333333333332966e-05,-6.666666666665932e-05,-0.00033407040498167895,0.0004973324602643991,0.0004977071954264112
149740000000.0,-1,0.0712747322,-0.0507788337,0.17193018779999997,0.01047,-0.022344,0.034853,0.53115758395,-2.7476271969999995,-9.398889493,0.056453,0.28398,3.0633,9.999999999998899e-05,-3.333333333332966e-05,-6.666666666665932e-05,0.000393536020722729,0.0008354142532960296,0.00013122338216225993
149740000000.0,-1,0.08242489324999999,-0.0463658412,0.16141745899999999,-0.001394,-0.046739,0.022066,0.52809790915,-2.7492943275,-9.3985952935,0.05613,0.28416,3.0635,9.999999999998899e-05,-4.999999999988347e-05,-6.666666666665932e-05,0.0004167037047486666,0.0018285507480222396,0.00025331686751972615
149740000000.0,-1,0.043237519849999996,-0.06177208835,0.14030374155,-0.012023,-0.048769,0.011377,0.52374375655,-2.7502749924999996,-9.398497227,0.055668,0.28426,3.0637,-1.0000000000065512e-05,-5.0000000000105516e-05,5.0000000000105516e-05,-0.00011282635439502364,7.822738221108239e-05,-0.00023529953921819224
149740000000.0,-1,-0.012905551399999998,-0.08719092514999999,0.1608094467,-0.024625,-0.031604,-0.000416,0.5200270361999999,-2.7503730589999997,-9.39869336,0.055273,0.28428,3.0637,-9.999999999843467e-06,-9.999999999998899e-05,4.999999999988347e-05,-0.0007073518768931364,-0.00014617959721974216,-0.0003583034777691618
149740000000.0,-1,-0.06481214985,-0.06032070415,0.07753137489999999,-0.036144,-0.004871,-0.000482,0.5177617000499999,-2.7485097955,-9.3993798255,0.055029,0.28408,3.0637,-1.0000000000065512e-05,-9.999999999998899e-05,-9.999999999998899e-05,0.00022218080030284026,2.14641875488919e-05,-4.793557488463884e-05
149740000000.0,-1,-0.11841529875,-0.0327345977,-0.0015592573499999998,-0.041242,0.023939,-0.001608,0.51734982075,-2.745273601,-9.400360490499999,0.05498,0.28373,3.0638,-1.0000000000065512e-05,-5.0000000000105516e-05,-9.999999999998899e-05,0.0010533683138688743,0.000563781066793112,0.0001365686598527316
149740000000.0,-1,-0.12407373579999999,-0.0195740734,-0.0185541818,-0.041091,0.044178,0.000493,0.518967918,-2.741743207,-9.401243089,0.055145,0.28335,3.0639,-9.999999999843467e-06,-4.999999999988347e-05,-4.999999999988347e-05,0.0002148801959393487,-0.0003186297959967277,0.00020382159354709328
149740000000.0,-1,-0.11469857839999999,-0.0035107806999999996,-0.06508673605,-0.033617,0.046241,0.002639,0.52140977385,-2.7381147465,-9.402223754,0.0554,0.28297,3.064,-1.0000000000065512e-05,-4.999999999988347e-05,-5.0000000000105516e-05,0.0010059637218203799,-4.4467082395582835e-05,0.0002961100659391036
149740000000.0,-1,-0.08291522575,0.0132389775,-0.09993957015,-0.020924,0.033345,0.003752,0.52344955705,-2.7351727515,-9.402910219499999,0.055611,0.28266,3.0641,-1.0000000000065512e-05,-5.0000000000105516e-05,5.0000000000105516e-05,-0.00028920759497913506,-0.0003585522059113,-0.00015701096021997207
149740000000.0,-1,-0.02746842665,0.009532063799999999,-0.0979292069,-0.00508,0.01084,-0.00045,0.5244204154,-2.7337017539999997,-9.4033024855,0.055712,0.2825,3.0641,-1.0000000000065512e-05,-1.666666666655381e-05,4.999999999988347e-05,-7.336747018488188e-05,-0.00018022638766734822,4.5123084459974816e-05
149740000000.0,-1,0.0207312581,0.0219276694,-0.08497462225,0.016115,-0.009576,-0.004647,0.5242438957,-2.7339959534999996,-9.403204419,0.055694,0.28253,3.0641,-9.999999999843467e-06,-1.6666666666775853e-05,4.999999999988347e-05,-0.0001501243213669623,0.00029972316978899016,-5.5768790449217676e-05
149740000000.0,-1,0.030233901949999996,0.016720338249999998,-0.0569177966,0.036405,-0.011865,-0.01208,0.5237241432499999,-2.7363495495,-9.4025179535,0.055643,0.28279,3.0639,-1.0000000000065512e-05,-1.6666666666775853e-05,5.0000000000105516e-05,-0.0007453964267890578,-0.00032132094835546354,-0.00017417216883441888
149740000000.0,-1,0.02048609185,-0.0012356379,-0.01256231865,0.040835,0.005154,-0.01744,0.52448906195,-2.740174143,-9.401439221999999,0.055731,0.28319,3.0637,-3.333333333332966e-05,-1.666666666655381e-05,9.999999999998899e-05,-0.00037861494134439067,-0.0001612083792836838,-0.0002592695074433715
149740000000.0,-1,0.006462582349999999,-0.015494507,0.0006472389,0.024994,0.023404,-0.020702,0.52699956435,-2.743116138,-9.400458556999999,0.056003,0.2835,3.0635,-3.333333333332966e-05,-1.666666666655381e-05,9.999999999998899e-05,-0.00035638341272098417,-0.0005677075875907267,-0.00010598503409525728
149740000000.0,-1,-0.0016279038999999999,-0.0360688587,-0.0384616813,0.00692,0.035267,-0.014349,0.5304416985,-2.744685202,-9.3997720915,0.056372,0.28367,3.0633,-3.333333333332966e-05,-1.6666666666775853e-05,5.0000000000105516e-05,0.00013458950466382902,-0.0005543392066993391,-9.350816819142516e-05
149740000000.0,-1,-0.0316950928,-0.0516810455,-0.015229727449999998,-0.009078,0.041782,-0.004781,0.53388383265,-2.7448813349999996,-9.399477892,0.056738,0.28369,3.0633,8.333333333387927e-06,-1.1111111111183902e-05,4.999999999988347e-05,8.230075203441434e-05,-0.0006383383658532527,5.907863758281007e-05
149740000000.0,-1,-0.028331411849999998,-0.049003830049999995,0.025369803549999997,-0.011346,0.030069,0.003775,0.5365022081999999,-2.744685202,-9.3993798255,0.057017,0.28367,3.0633,8.333333333387927e-06,-1.1111111110961858e-05,9.999999999998899e-05,7.821607469843395e-05,-0.0002290424487876308,4.92206675155038e-05
149740000000.0,-1,-0.01058137535,0.0016180972499999998,0.06970566819999999,-0.006184,0.009778,0.005955,0.53774765275,-2.7442929359999995,-9.399477892,0.057149,0.28363,3.0634,8.333333333165882e-06,-1.1111111111183902e-05,3.333333333332966e-05,0.00014544201092542286,-9.449290887530992e-06,-4.2679439408888076e-05
149740000000.0,-1,0.01893664115,0.024948117599999996,0.08409202375,0.010687,-0.015934,0.004962,0.53712002715,-2.7448813349999996,-9.3993798255,0.057082,0.28369,3.0634,8.333333333387927e-06,-1.1111111111183902e-05,3.333333333332966e-05,-0.00014852648289215287,0.00028144225015847013,-5.5130960317784083e-05
149740000000.0,-1,0.0326169179,0.0442868314,0.12233795874999999,0.029791,-0.033131,-0.002447,0.5351096639,-2.7470387979999997,-9.398791426499999,0.056872,0.28392,3.0634,8.333333333387927e-06,-1.1111111110961858e-05,3.333333333332966e-05,-0.00017826370492035615,0.0004879381268767524,-0.00018120113450026398
149740000000.0,-1,0.0502492746,0.0375986961,0.12969294625,0.031869,-0.042732,-0.006697,0.53213824895,-2.7500788595,-9.398104961,0.056561,0.28424,3.0633,8.333333333165882e-06,-1.1111111111183902e-05,-1.6666666666775853e-05,-0.0003893507396579565,0.00014656061484497052,-0.0002800689586625049
149740000000.0,-1,0.02382035285,0.0089240515,0.09332008139999999,0.021322,-0.030917,-0.012074,0.5295394867,-2.7526285885,-9.397516562,0.056289,0.28452,3.0631,8.333333333387927e-06,-1.1111111111183902e-05,-1.666666666655381e-05,0.00032050404975092484,0.00018654207978729964,-0.00036141187810379005
149740000000.0,-1,-0.0070804013,-0.01424906245,0.047621092399999995,-0.001864,0.000184,-0.01964,0.529166834,-2.7534131205,-9.397320428999999,0.056251,0.2846,3.063,8.333333333387927e-06,-1.1111111110961858e-05,-1.666666666655381e-05,-0.00011613471054283675,-0.0001219591790899699,-0.00020301362097996378
149740000000.0,-1,-0.0180834626,-0.01326839745,0.06220358094999999,-0.028288,0.029176,-0.022939,0.5316381098,-2.75174599,-9.3976146285,0.056512,0.28442,3.0627,8.333333333387927e-06,-1.1111111111183902e-05,-1.6666666666775853e-05,-5.5460879017088516e-05,-0.000791574480715429,-1.219170512656298e-06
149740000000.0,-1,-0.034950900599999994,0.010061622899999999,0.0187699281,-0.045274,0.043162,-0.017656,0.53549212325,-2.7475291305,-9.39869336,0.056914,0.28397,3.0626,8.333333333387927e-06,3.333333333332966e-05,-1.6666666666775853e-05,0.0005172388515141124,-0.0007161625741380906,0.0002811237276403311
