Time,placement_label,user_acc_x(m/s^2),user_acc_y(m/s^2),user_acc_z(m/s^2),rotation_rate_x(rad/s),rotation_rate_y(rad/s),rotation_rate_z(rad/s),gravity_x(m/s^2),gravity_y(m/s^2),gravity_z(m/s^2),attitude_roll(rad),attitude_pitch(rad),attitude_yaw(rad),target_delta_x,target_delta_y,target_delta_z,target_delta_roll,target_delta_pitch,target_delta_yaw
150000000000.0,1,-0.33012125894999994,-0.016082905999999998,-0.08952490784999999,0.21661,0.11839,-0.1374,-1.2820233545000002,-9.539026521499999,1.8797386719999998,-2.543,1.3366,0.56539,0.0,0.0,0.0,0.0,0.0,0.0
150000000000.0,1,-0.36136524584999996,-0.029194397049999998,-0.10932453419999999,0.2124,0.12056,-0.14487,-1.278983293,-9.5362806595,1.896017711,-2.5481,1.3354,0.5721,-0.00029999999999996696,-0.0005999999999999339,9.999999999998899e-05,-0.00157887015308944,-0.0004257304294967845,0.0021237884456992706
150000000000.0,1,-0.37638903365,-0.028870777599999998,-0.11825839234999999,0.20925,0.12273,-0.15234,-1.2753548325,-9.5335347975,1.9118064175,-2.5533,1.3343,0.57888,-0.000300000000000078,-0.0005999999999999339,0.000160000000000049,-0.005086858487422852,-0.0012049015237760585,0.0030110614319267537
150000000000.0,1,-0.3775756383,-0.034323275,-0.12461310155,0.20608,0.1217,-0.16087,-1.2708437735,-9.531083135,1.927006725,-2.5586,1.3332,0.58576,-0.0004899999999999904,-0.000700000000000145,0.00012000000000000899,-0.0017898073996001074,-0.0013791805495944054,0.0007701893577920504
150000000000.0,1,-0.37868378974999994,-0.028066632299999998,-0.11647358205,0.20287,0.11748,-0.16512,-1.265842382,-9.528729538999999,1.9422070324999998,-2.564,1.3321,0.59274,-0.00043999999999999595,-0.0005999999999999339,0.00015999999999993797,-0.002740556443995068,-0.001152523376874326,0.002095535632850476
150000000000.0,1,-0.3615123456,-0.023192727249999996,-0.12484846114999998,0.20178,0.11429,-0.16617,-1.260154525,-9.526375943,1.957211207,-2.5696,1.3311,0.59985,-0.00039000000000000146,-0.0007999999999999119,0.00017000000000000348,-0.002897962213369354,-0.0012803996709511711,0.001055756878844516
150000000000.0,1,-0.3405065013,-0.0204370586,-0.15040459104999998,0.2028,0.11109,-0.16295,-1.2540744019999999,-9.524218479999998,1.9716269825,-2.5751,1.3302,0.60691,-0.00041000000000002146,-0.000600000000000156,9.999999999998899e-05,-0.0019131012695341454,-0.0008065145056688205,0.0006095968192529888
150000000000.0,1,-0.31178282345,-0.0089240515,-0.1799520275,0.20274,0.10789,-0.15759,-1.2477000795,-9.522061016999999,1.9857485584999999,-2.5806,1.3293,0.61388,-0.00042999999999993044,-0.0006999999999999229,2.0000000000020002e-05,-0.002927466525449951,-0.0008079445382740413,0.000603881043728105
150000000000.0,1,-0.2860011406,0.02103526425,-0.2197081866,0.20478,0.10254,-0.14796,-1.2418160894999999,-9.5200016205,1.999379802,-2.5858,1.3284,0.6205,-0.00034000000000000696,-0.0008000000000001339,7.00000000000145e-05,0.001046613370374594,-0.0011341341442030473,0.0020532537383441962
150000000000.0,1,-0.25308021654999996,0.0612327226,-0.2591701462,0.20041,0.099369,-0.13408,-1.236422432,-9.5180402905,2.0122265135,-2.5906,1.3276,0.62667,-0.00034999999999996145,-0.0006999999999999229,9.99999999995449e-06,-0.002310039019416621,-0.002277281412615073,0.0008926945134739572
150000000000.0,1,-0.22691607435,0.07256921,-0.2775478083,0.19607,0.099393,-0.11913,-1.231911373,-9.5160789605,2.024288693,-2.5949,1.3267,0.63229,-0.0003500000000000725,-0.0007999999999999119,-2.999999999997449e-05,-0.002807468725962714,0.001181126057432591,0.001973980491550398
150000000000.0,1,-0.21452046874999997,0.0814344216,-0.2738997345,0.18636,0.099457,-0.099926,-1.2288713115,-9.514019564,2.0357624734999997,-2.5985,1.3259,0.63719,-0.00043999999999999595,-0.0008000000000001339,-9.99999999995449e-06,0.00016015354559062445,-0.0008483281983322488,0.000662641500847938
150000000000.0,1,-0.1868362958,0.10321499124999998,-0.26574060169999997,0.17238,0.097427,-0.08286,-1.2269099815,-9.5119601675,2.046255589,-2.6015,1.325,0.64145,-0.00026999999999999247,-0.0007999999999999119,1.999999999990898e-05,0.003144862328387177,-0.0005124473674429364,0.0023772198827565205
150000000000.0,1,-0.1699492445,0.1624177373,-0.2673096657,0.16166,0.1007,-0.067933,-1.2263215824999998,-9.5099988375,2.0559641725,-2.6038,1.3242,0.645,-0.00041000000000002146,-0.0007999999999999119,4.0000000000040004e-05,-0.001168042052751339,0.0002669343469932084,0.0003239744283078938
150000000000.0,1,-0.16958639844999998,0.21043109570000001,-0.27824408045,0.15196,0.096508,-0.055126,-1.227008048,-9.5080375075,2.0645940245,-2.6054,1.3234,0.64782,-0.00047999999999992493,-0.000700000000000145,-5.999999999994898e-05,-0.004748772725592154,-0.00027475202567339707,-0.0009525317301306568
150000000000.0,1,-0.1755586483,0.2233562604,-0.29189493725,0.14334,0.091248,-0.048719,-1.2286751785,-9.5060761775,2.0722432115,-2.6064,1.3226,0.65001,-0.00036000000000002697,-0.0005999999999999339,-3.0000000000085514e-05,-0.00010472511354109315,0.0008155857798333166,0.0004453598604834408
150000000000.0,1,-0.19299487199999998,0.1821291038,-0.31166514365,0.13471,0.082794,-0.04444,-1.2308326415,-9.504409047,2.0789117335,-2.607,1.3219,0.6517,-0.00041000000000002146,-0.0006999999999999229,0.0001100000000000545,-0.0017795976210512876,-0.0004443782809901986,0.0014064360081071925
150000000000.0,1,-0.2349281074,0.10029260955,-0.3180296595,0.125,0.070092,-0.045492,-1.233284304,-9.502938049499999,2.0842073245,-2.6073,1.3213,0.65289,-0.00036999999999998145,-0.000500000000000167,0.00017000000000000348,0.0016689569943286742,-0.0006375486141265707,0.0008799174240681218
150000000000.0,1,-0.28701122554999997,-0.017524483549999997,-0.28890390899999996,0.11003,0.062769,-0.052966,-1.2357359665,-9.501663185,2.088424184,-2.6073,1.3208,0.65381,0.00012000000000000899,-0.00039999999999995595,9.00000000000345e-05,-0.010102362997700176,-0.0024101828056171115,0.005209293694779404
150000000000.0,1,-0.3349167108,-0.1268195978,-0.23402589559999998,0.090777,0.050155,-0.063639,-1.2375011635,-9.50068252,2.091758445,-2.6074,1.3204,0.65464,-0.0005399999999999849,-0.0005999999999999339,9.999999999998899e-05,0.0010074714110182015,-0.00018215843154489875,-0.0005336501037818131
150000000000.0,1,-0.37675187969999996,-0.22766137974999998,-0.17845161005000001,0.071555,0.038612,-0.079651,-1.2379914959999998,-9.500094121,2.094112041,-2.6077,1.3201,0.6556,-0.00042000000000008697,-0.0004999999999999449,9.999999999998899e-05,0.0001711094885541442,-0.0010481723493369621,-0.0005022189449410686
150000000000.0,1,-0.41774367669999996,-0.28251977985,-0.14191203214999998,0.051272,0.027078,-0.096731,-1.2372069639999999,-9.499996054499999,2.0949946395,-2.6081,1.3201,0.6566,-0.00023999999999990695,-0.000600000000000156,7.00000000000145e-05,-0.0016216332839942282,-0.003048129638665964,0.0022929156221209723
150000000000.0,1,-0.42860944489999997,-0.26606422114999995,-0.12825136869999998,0.031014,0.016613,-0.11701,-1.234657235,-9.500486386999999,2.094504307,-2.609,1.3203,0.65787,-0.0006800000000000139,-0.0005999999999999339,0.00018999999999991246,0.0008137214529924108,-0.0035540006780534483,-0.00035130641047365074
150000000000.0,1,-0.42029340569999996,-0.1729696927,-0.13991147555,0.009651,0.004021,-0.13303,-1.2302442425,-9.5015651185,2.0922487775,-2.6101,1.3207,0.6593,-0.000520000000000076,-0.0004999999999999449,0.00019000000000002348,0.001116721016513722,-0.0015115863834263,-3.691104495073816e-05
150000000000.0,1,-0.38285161599999995,-0.053573728949999996,-0.15968168195,-0.006403,-0.009683,-0.14583,-1.2236737869999998,-9.503232249,2.0887183835,-2.6116,1.3214,0.66109,-0.0005199999999999649,-0.00039999999999995595,0.00024000000000001798,0.0022550124266169647,-0.0017962938844531262,-0.0014449790422950137
150000000000.0,1,-0.33645635485,-0.0022359162,-0.1853849116,-0.022447,-0.020194,-0.15543,-1.2151420015,-9.505389712,2.0834227925,-2.6136,1.3223,0.6631,-0.0005199999999999649,-0.000500000000000167,0.00017999999999995797,-0.0031749499468780584,-0.0011657815392540627,-0.0011793806903339643
150000000000.0,1,-0.33645635485,-0.0022359162,-0.1853849116,-0.022447,-0.020194,-0.15543,-1.2151420015,-9.505389712,2.0834227925,-2.6136,1.3223,0.6631,-0.00045000000000006146,-0.00039999999999995595,0.00021999999999999797,0.001417605093221752,-0.0018558128365007143,-0.0007077110034294787
150000000000.0,1,-0.30440822264999995,-0.0275370732,-0.19089624889999998,-0.034268,-0.032877,-0.15969,-1.2051392184999998,-9.508135573999999,2.0769504035,-2.6158,1.3234,0.66527,-0.00045999999999990493,-0.00019999999999997797,0.0002300000000000635,0.0003334123924210175,-0.0003948754763443141,0.00040740437783060024
150000000000.0,1,-0.3086545021,-0.09232960974999999,-0.17066512994999997,-0.049286,-0.044468,-0.16289,-1.19444997,-9.511077569,2.069399283,-2.6181,1.3247,0.66737,-0.00047000000000008146,-0.0004999999999999449,0.00014999999999998348,-0.002138061935478497,-0.0022135169685382206,-0.0005349485753296523
150000000000.0,1,-0.32239361875,-0.1430005703,-0.1459425653,-0.061083,-0.052891,-0.16502,-1.1833684555,-9.514313763499999,2.060965564,-2.6204,1.326,0.66934,-0.00025999999999992696,-0.00029999999999996696,0.0001100000000000545,2.6129571864430545e-05,-0.0008928747952008376,0.000267264325910066
150000000000.0,1,-0.33433811844999994,-0.15234630775,-0.13491008405,-0.070758,-0.063462,-0.1682,-1.1720908079999999,-9.5176480245,2.051943446,-2.6226,1.3274,0.6712,-0.00043000000000004146,-0.000300000000000189,6.999999999990347e-05,0.0034972706864744296,-0.001304597687675324,-0.001213659982595816
150000000000.0,1,-0.3499208853,-0.1038328102,-0.1270549574,-0.079371,-0.07617,-0.17352,-1.160322828,-9.5211784185,2.0424309955,-2.6249,1.3289,0.67301,-0.0005899999999999794,-0.00029999999999996696,0.000140000000000029,0.002655038370088292,-0.0015234307254876622,-0.003209917031649301
150000000000.0,1,-0.36240475075,0.0003726527,-0.14383413555,-0.081569,-0.085737,-0.1767,-1.1486529145,-9.524708812499998,2.0327224119999996,-2.6272,1.3304,0.67473,-0.00038000000000004697,-0.00019999999999997797,9.00000000000345e-05,0.00039359518973913765,-0.002362329972664279,-0.0012206539168331254
150000000000.0,1,-0.3713778355,0.09578155055,-0.15614148129999997,-0.079529,-0.098536,-0.1788,-1.136786868,-9.5280430735,2.023504161,-2.6297,1.3319,0.67649,-0.00021999999999999797,-0.00029999999999996696,7.00000000000145e-05,-0.0007771043512247999,-0.0035116445006491137,0.0003115952654670906
150000000000.0,1,-0.36136524584999996,0.13848951129999998,-0.16823308074999999,-0.075375,-0.11242,-0.17875,-1.1247246885,-9.531377334499998,2.0144820429999997,-2.6324,1.3333,0.67831,-0.00042999999999993044,-0.00029999999999996696,8.999999999992347e-05,-0.0002855726676891379,-0.0021786023886121164,-0.0024308608943666155
150000000000.0,1,-0.35744258585,0.15461164389999998,-0.183384355,-0.070111,-0.11886,-0.17552,-1.112466376,-9.534613529,2.005852191,-2.6352,1.3347,0.6802,-0.00041000000000002146,-0.00019999999999997797,7.00000000000145e-05,0.0013060492485532649,-0.0014824990781794334,-0.0012344646977116014
150000000000.0,1,-0.35201950839999996,0.16624233079999998,-0.20322320794999998,-0.063845,-0.13064,-0.168,-1.1005022629999999,-9.537751657,1.9977126715,-2.6381,1.3361,0.682,-0.000300000000000078,-0.00029999999999996696,0.0001300000000000745,-0.0010435019948147328,-0.0006642291407996659,-0.0007372839461043945
150000000000.0,1,-0.34738096295,0.1640260279,-0.19794723025,-0.060725,-0.13493,-0.15944,-1.089126549,-9.5405955855,1.990161551,-2.6409,1.3373,0.68367,-0.00028999999999990145,-0.000400000000000178,5.999999999994898e-05,-0.0003359925117738527,-0.0007408486376856427,-0.0008808879066855013
150000000000.0,1,-0.34498814034999997,0.12996753244999998,-0.17986376764999998,-0.055497,-0.13925,-0.14553,-1.0788295664999998,-9.543243381,1.983296896,-2.6434,1.3385,0.68503,-0.00031000000000003247,-0.00019999999999997797,-9.99999999995449e-06,-0.0006697392370291766,-0.00021014773813399223,-0.0009657374768237137
150000000000.0,1,-0.3367407477,0.08167958784999999,-0.14587391875,-0.054546,-0.14141,-0.1263,-1.0698074485,-9.5454989105,1.9771187065,-2.6456,1.3395,0.686,-0.00038000000000004697,-0.00029999999999996696,-1.0000000000065512e-05,-0.0016276298018720325,0.0005814397743575395,-0.001742580101068203
150000000000.0,1,-0.32820896219999995,0.055623318799999995,-0.136508568,-0.053591,-0.1425,-0.10601,-1.0625505275,-9.547558307,1.9710385835,-2.6472,1.3404,0.68632,-0.00030999999999992145,-0.00029999999999996696,7.999999999996898e-05,0.002817396671400907,-0.0008310555947321774,-0.0007005597881803993
150000000000.0,1,-0.31616639599999996,0.023222147199999998,-0.1127176351,-0.050519,-0.14361,-0.082504,-1.0570588035,-9.549323503999998,1.965644926,-2.6482,1.3412,0.68602,-0.000200000000000089,-0.00029999999999996696,2.0000000000020002e-05,-0.0007578889555421853,0.000546211661509588,-0.0008468928845439816
150000000000.0,1,-0.32500218764999994,0.00581534345,-0.10600007984999998,-0.050621,-0.1415,-0.059015,-1.0539206755,-9.5507945015,1.9603493349999999,-2.6483,1.3418,0.68482,-0.00030999999999992145,-9.999999999998899e-05,4.0000000000040004e-05,0.0027719037895197474,0.0005916731584281187,-0.0011700876128899473
150000000000.0,1,-0.32724791049999996,-0.007639380349999999,-0.10858903544999998,-0.049651,-0.1394,-0.03659,-1.0531361435,-9.551971299499998,1.9548576109999998,-2.6474,1.3424,0.68264,-0.00040000000000006697,-0.00029999999999996696,2.0000000000020002e-05,0.0006265681066501827,0.0009126795409020172,-0.0024865313603330552
150000000000.0,1,-0.321854253,0.00675678185,-0.08945626129999999,-0.054031,-0.13726,-0.010973,-1.0547052075,-9.552853897999999,1.9494639534999998,-2.6457,1.3428,0.67956,-0.0004899999999999904,-9.999999999998899e-05,4.999999999999449e-05,0.0029855577449229287,0.000987005209322156,-0.0024623086490977997
150000000000.0,1,-0.31162591705,0.02352615335,-0.07426576045,-0.053066,-0.13516,0.012518,-1.0584317344999998,-9.553442297,1.944462562,-2.6431,1.3431,0.67565,-0.00026999999999999247,-0.00019999999999997797,0.00010999999999994348,0.0010980209857764933,0.0005495666386325926,-0.00045644180067783147
150000000000.0,1,-0.29909301834999996,0.028733484499999996,-0.05930081255,-0.059554,-0.13193,0.034927,-1.064217658,-9.5539326295,1.939166971,-2.6397,1.3433,0.6709,-0.00031000000000003247,-0.000300000000000189,7.00000000000145e-05,-0.00013567851875251336,0.0008509839797243846,-0.0016042142704368878
150000000000.0,1,-0.29552339774999997,0.0122386992,-0.0459735752,-0.064975,-0.12871,0.057337,-1.0721610444999998,-9.554226829,1.9334791139999998,-2.6353,1.3434,0.66522,-0.00036999999999998145,-0.00029999999999996696,4.0000000000040004e-05,-0.0012861023014467676,0.0004871767488012768,-0.001585934965152358
150000000000.0,1,-0.29742588784999996,-0.025350190249999998,-0.0274390067,-0.071432,-0.12229,0.078672,-1.082065761,-9.554324895499999,1.9273989909999998,-2.63,1.3434,0.65866,-0.00036000000000002697,-0.00019999999999997797,0.00012000000000000899,0.0001286194446281641,0.0017664530159693381,-0.0011861295374431258
150000000000.0,1,-0.30238805274999997,-0.08393511735,-0.0092574776,-0.072553,-0.1191,0.094685,-1.0937356745,-9.554226829,1.9212208014999999,-2.6241,1.3434,0.6514,-0.00024999999999997247,-9.999999999998899e-05,8.999999999992347e-05,0.0006706511804610571,0.0009530709497809209,7.496081213487216e-05
150000000000.0,1,-0.30050517595,-0.1393524965,0.004716998649999999,-0.075822,-0.11696,0.11176,-1.1068765855,-9.554030696,1.914650346,-2.6174,1.3433,0.64352,-0.00032999999999994145,-9.999999999998899e-05,0.00010000000000010001,-0.0008513860692440645,0.0017357606651704494,-0.001677118688725443
150000000000.0,1,-0.31530341079999996,-0.2044686525,0.010983447999999998,-0.081207,-0.11586,0.1235,-1.1213904275,-9.5537364965,1.9077856909999997,-2.6102,1.3432,0.635,-0.00041000000000002146,-0.00029999999999996696,5.999999999994898e-05,-0.0018336060650350205,0.0015935086427034673,-0.0022642981907579074
150000000000.0,1,-0.31514650439999997,-0.22005141935,0.01877973475,-0.082331,-0.11374,0.13845,-1.1372772005,-9.553246163999999,1.9007249029999997,-2.6024,1.343,0.62594,-0.000260000000000038,-5.0000000000105516e-05,5.999999999994898e-05,0.004044593956640696,0.0006637035791410284,-0.0011914247358952856
150000000000.0,1,-0.27270332319999996,-0.17721597214999998,0.0254384501,-0.085561,-0.10946,0.15125,-1.153654306,-9.552657765,1.8936641149999998,-2.5944,1.3427,0.61667,-0.00032999999999994145,-4.999999999988347e-05,3.0000000000085514e-05,0.0010269405503313678,0.0019322632943585827,-0.0014732586537411496
150000000000.0,1,-0.24103765035,-0.10584317345,0.03631402495,-0.08347,-0.11161,0.15661,-1.170521744,-9.551873233,1.8870936594999999,-2.5864,1.3424,0.60738,-0.00017000000000000348,-9.999999999998899e-05,-1.5000000000098268e-05,0.0006554160203284809,0.0021817301162649905,-0.0007902920592064433
150000000000.0,1,-0.22936773684999998,-0.0263798885,0.03466650775,-0.073888,-0.10957,0.1641,-1.187977581,-9.550892568,1.8814058024999998,-2.5784,1.3419,0.59808,-0.00026999999999999247,-3.333333333332966e-05,-1.4999999999987246e-05,0.0009097854758364221,0.0016836712387586772,-0.0016508577289093829
150000000000.0,1,-0.19231821315,0.05900661305,0.004903325,-0.066451,-0.10964,0.17052,-1.2057276175,-9.5496177035,1.8765024774999999,-2.5705,1.3413,0.58889,-0.00041000000000002146,-3.333333333332966e-05,-3.999999999992898e-05,0.0006658524873746074,0.001737057091666383,-0.0021179238648123544
150000000000.0,1,-0.15860295045,0.1430594102,-0.03415656195,-0.057968,-0.11291,0.17589,-1.2235757205,-9.5482447725,1.8719914185,-2.5627,1.3407,0.5798,-0.00026999999999999247,-3.333333333332966e-05,-9.00000000000345e-05,-0.0013120503030910058,0.002798828004597409,-0.0019962186510276148
150000000000.0,1,-0.11932731719999999,0.19355385105,-0.06409626439999999,-0.045201,-0.11409,0.18125,-1.2415218899999998,-9.546675708499999,1.8682648915,-2.5551,1.34,0.57091,-0.0003300000000000525,-9.999999999998899e-05,-4.999999999999449e-05,0.0005799786772122673,0.0015565622442430538,-0.001139473573112948
150000000000.0,1,-0.08401357055,0.1980551034,-0.057427742399999995,-0.038832,-0.11414,0.18767,-1.2592719264999999,-9.5449105115,1.8655190295,-2.5478,1.3392,0.56231,-0.00027999999999994696,-9.999999999998899e-05,-9.99999999995449e-06,0.0014382817434661632,0.0007131989191442312,0.00011090079263120778
150000000000.0,1,-0.06681270645,0.2049001451,-0.0365395779,-0.034529,-0.10779,0.19087,-1.277218096,-9.542851115,1.8634596329999997,-2.5407,1.3383,0.55393,-0.00014999999999998348,-9.999999999998899e-05,-0.0001100000000000545,-0.0012688208246309784,0.002210825455801091,-0.00037700455344902295
150000000000.0,1,-0.0513280061,0.18492399904999998,-0.01925045395,-0.029219,-0.1089,0.19409,-1.295066199,-9.540693652,1.8621847685,-2.5339,1.3374,0.54582,-0.000280000000000058,5.0000000000105516e-05,-0.00012999999999996348,-0.0006325692681583561,0.00235298036530307,-0.0017369337171169175
150000000000.0,1,-0.050278694549999996,0.1323701617,0.0012356379,-0.028157,-0.10891,0.19516,-1.3131104349999998,-9.538438122499999,1.8613021699999999,-2.5272,1.3364,0.53784,-0.00026999999999999247,4.999999999988347e-05,-0.00012000000000000899,0.00024722162730217434,0.0029944963629946475,-0.002267547648144408
150000000000.0,1,-0.0547995602,0.07934560514999998,0.0077080269,-0.030252,-0.10357,0.19622,-1.331154671,-9.536182593,1.8602234384999998,-2.5205,1.3354,0.52986,-0.00027999999999994696,9.999999999998899e-05,-4.999999999999449e-05,0.0009018711045998273,0.0019496472695887945,-0.0017737815459786255
150000000000.0,1,-0.0318323859,0.0667636732,0.0129643913,-0.029145,-0.099314,0.19515,-1.3487085745,-9.533828997,1.8591447069999998,-2.514,1.3344,0.52217,-0.00021999999999999797,5.0000000000105516e-05,-9.00000000000345e-05,-0.0009776606300944124,0.0019738751797491183,-0.0005508516187655577
150000000000.0,1,-0.0077472535,0.05730025595,0.012415218899999999,-0.024849,-0.097216,0.19302,-1.3657721455,-9.5315734675,1.8583601749999998,-2.5078,1.3334,0.5148,-0.00043000000000004146,4.999999999988347e-05,-5.999999999994898e-05,0.002663611461950488,0.001011962608048922,-0.0019392425102100486
150000000000.0,1,-0.0026576021499999996,0.031724512749999996,0.02115294405,-0.018423,-0.0962,0.18982,-1.3824434505,-9.529219871499999,1.8582621084999997,-2.502,1.3324,0.50783,-7.00000000000145e-05,4.999999999988347e-05,-0.0001300000000000745,-0.0018610821662852217,0.0011203837665092475,-0.00023994372560354194
150000000000.0,1,-0.0097281968,0.009237864299999999,0.01034601575,-0.009835,-0.093069,0.1845,-1.3986244229999998,-9.526768209,1.8586543745,-2.4965,1.3313,0.50118,-0.00043999999999999595,5.0000000000105516e-05,-0.00012000000000000899,-0.0005118619227824084,0.0013878442158452575,-0.0030784759161157638
150000000000.0,1,-0.0049229383,-0.00675678185,-0.018691474899999998,-0.001256,-0.094194,0.17384,-1.413922797,-9.524414613,1.8592427735,-2.4914,1.3303,0.495,-0.00022999999999995246,-3.333333333332966e-05,4.0000000000040004e-05,0.0006659098992756185,0.00039946291115344756,0.0007243968005703483
150000000000.0,1,0.006766588499999999,-0.01925045395,-0.037932122199999994,0.006253,-0.094246,0.16531,-1.4281424395,-9.522061016999999,1.8602234384999998,-2.4868,1.3293,0.48932,-0.000260000000000038,-3.333333333332966e-05,-2.0000000000020002e-05,-0.0014460307304142717,-0.00043770262318543196,-0.000474794955322988
150000000000.0,1,0.0150434011,-0.0409721837,-0.030371195049999997,0.007361,-0.094246,0.15678,-1.4413814169999999,-9.5198054875,1.8615963695,-2.4827,1.3283,0.48415,-0.00022999999999995246,-3.333333333332966e-05,1.0000000000065512e-05,-0.0008026564981289397,-0.000579865674681157,0.000752839907842251
150000000000.0,1,0.02662505475,-0.057947494849999996,-0.008600432049999999,0.006373,-0.091029,0.1461,-1.4534435965,-9.5176480245,1.8633615665,-2.4792,1.3274,0.47952,-0.0001500000000000945,9.999999999998899e-05,-1.0000000000065512e-05,0.0003966716641272683,0.00022295011423190125,4.04815100119027e-05
150000000000.0,1,0.032048132199999996,-0.06817583079999999,0.00195152335,0.005429,-0.083549,0.13327,-1.4642309114999998,-9.5156866945,1.8650286969999998,-2.476,1.3266,0.47537,-0.00025999999999992696,9.999999999998899e-05,4.0000000000040004e-05,-0.000169947475769483,0.0012672683955265995,-0.0006550730625010104
150000000000.0,1,0.029027683999999998,-0.06835235049999999,0.0187895414,0.00233,-0.078183,0.12151,-1.4740375614999999,-9.513823430999999,1.866597761,-2.4732,1.3258,0.4716,-0.0002300000000000635,0.00019999999999997797,-7.999999999996898e-05,-0.0007874158271299336,0.0006261146223658365,-0.0009877191823768339
150000000000.0,1,0.03219523195,-0.1032836378,0.022712201399999996,0.000289,-0.073892,0.10976,-1.4826674134999998,-9.512254366999999,1.867774559,-2.4707,1.3252,0.46821,-0.00014999999999998348,9.999999999998899e-05,-6.0000000000060005e-05,-0.004044638480318774,0.00040309480149103294,-0.0005036532648952097
150000000000.0,1,0.026693701299999997,-0.12319113729999999,0.01685763135,0.000364,-0.071749,0.098012,-1.4901204675,-9.510881436,1.868755224,-2.4684,1.3246,0.46515,-0.00027999999999994696,9.999999999998899e-05,-5.999999999994898e-05,0.0001924341795147555,5.7136631676169e-05,-0.0014460768114286093
150000000000.0,1,0.04062895095,-0.09950807754999999,0.0009120184499999999,0.003662,-0.0675,0.0852,-1.4962986569999999,-9.509802704499998,1.8697358889999998,-2.4667,1.3241,0.46263,-0.00017000000000000348,9.999999999998899e-05,-6.0000000000060005e-05,-0.00038579259761650775,0.0005242217255394532,-0.000833242004207424
150000000000.0,1,0.047817225399999996,-0.07124531225,-0.02176095635,0.012268,-0.066492,0.072402,-1.5013000484999999,-9.508723973,1.87110882,-2.4654,1.3237,0.46065,-0.00014999999999998348,0.00019999999999997797,3.0000000000085514e-05,0.0016938420835872492,9.397843539038497e-05,-0.0007565103105582338
150000000000.0,1,0.05920274605,-0.02960627635,-0.047395539449999996,0.021947,-0.063363,0.061738,-1.505124642,-9.507743308,1.8731682165,-2.4647,1.3232,0.45921,-4.0000000000040004e-05,0.00019999999999997797,-1.0000000000065512e-05,-0.0003772666567511962,0.0015806713408701434,-6.43145989880356e-05
150000000000.0,1,0.08840694975,0.0196329133,-0.07453053999999999,0.029492,-0.060216,0.051069,-1.5076743709999998,-9.506762642999998,1.875619879,-2.4645,1.3229,0.45837,7.999999999996898e-05,9.999999999998899e-05,-5.999999999994898e-05,-0.002758445425984135,-0.0004965464404820263,0.0011270650673940175
150000000000.0,1,0.09923349135,0.051269166199999994,-0.0987529655,0.039162,-0.058152,0.040405,-1.509243435,-9.505978111,1.878561874,-2.4648,1.3225,0.45803,-0.00012000000000000899,0.00019999999999997797,1.999999999990898e-05,6.445969359436532e-05,0.0002183800555413118,-0.0009801811732066401
150000000000.0,1,0.09736042119999999,0.06147788885,-0.09974343714999999,0.047767,-0.055015,0.030805,-1.5099299005,-9.505095512499999,1.8823864675,-2.4655,1.3222,0.45825,-4.999999999999449e-05,0.00020000000000020002,-8.999999999992347e-05,-0.003224368675270206,-0.00013755121550262928,9.494824411948599e-05
150000000000.0,1,0.07463841315,0.036412091449999996,-0.09388886709999998,0.051036,-0.052899,0.02013,-1.5099299005,-9.5043109805,1.8865052605000001,-2.4666,1.3218,0.4588,-9.999999999998899e-05,9.999999999998899e-05,-6.0000000000060005e-05,-0.0016199433895369708,-0.0004705897048276064,-0.00013462642784367596
150000000000.0,1,0.0564078508,-0.01568083335,-0.07882585269999999,0.055407,-0.047593,0.007318,-1.5090473019999997,-9.503526448499999,1.891114386,-2.4681,1.3215,0.4598,-9.999999999998899e-05,0.00019999999999997797,-0.00010999999999994348,-0.0036337020927508235,0.00021616694996451358,-0.0011577633102997087
150000000000.0,1,0.033872169099999995,-0.0442476048,-0.0675678185,0.059762,-0.044418,-0.00549,-1.5073801715000001,-9.5027419165,1.8961157775,-2.4699,1.3212,0.46126,-7.00000000000145e-05,0.00019999999999997797,-7.999999999996898e-05,-0.0013228768650126455,-0.0007873035478342949,2.0980175086338093e-05
150000000000.0,1,0.0245362383,-0.03733391655,-0.0676854983,0.067293,-0.042337,-0.015089,-1.5047323759999998,-9.502055451,1.9018036344999998,-2.4722,1.3209,0.46319,4.0000000000040004e-05,0.00019999999999997797,-6.0000000000060005e-05,0.0002630936367111758,-0.0005666869262928032,0.000717181655986554
150000000000.0,1,0.020976424349999998,-0.02091758445,-0.08568070104999999,0.073772,-0.040245,-0.027891,-1.5012019819999998,-9.501467051999999,1.9077856909999997,-2.4749,1.3206,0.46557,-1.0000000000065512e-05,9.999999999998899e-05,-7.999999999996898e-05,-0.0012852358777983852,-0.000740110791130455,-0.00012151302219876037
150000000000.0,1,0.02942975665,0.010198915999999999,-0.10932453419999999,0.083444,-0.037117,-0.037487,-1.4965928565,-9.5007805865,1.914454213,-2.4781,1.3204,0.46844,-3.999999999992898e-05,0.00019999999999997797,-1.0000000000065512e-05,0.0009235004613739051,-0.000910278966357092,-0.0005963666822685898
150000000000.0,1,0.028959037449999996,0.042619700899999995,-0.1282121421,0.092061,-0.03185,-0.046021,-1.4914933984999998,-9.5001921875,1.9216130675,-2.4815,1.3201,0.47172,9.99999999995449e-06,0.00019999999999997797,-1.999999999990898e-05,-0.0003537612497792608,-0.0006622247191796493,0.0001311831844983402
150000000000.0,1,0.02656621485,0.02609549565,-0.14920817974999998,0.10168,-0.032987,-0.051341,-1.4858055415,-9.499505721999999,1.9292622544999998,-2.4853,1.3199,0.4753,1.0000000000065512e-05,0.00019999999999997797,-7.00000000000145e-05,-0.0014709060812228003,-0.00016454171703639275,-0.0005856727861319744
150000000000.0,1,0.0187895414,-0.011856239849999999,-0.15150293585,0.10706,-0.028763,-0.055609,-1.479823485,-9.4988192565,1.9373037075,-2.4893,1.3196,0.4791,3.999999999992898e-05,0.00019999999999997797,-6.0000000000060005e-05,-0.0007742639814036778,-0.000755785196939085,0.00031327843753614637
150000000000.0,1,0.0137096967,-0.0389912404,-0.1497279322,0.10712,-0.022366,-0.057756,-1.473547229,-9.498132791,1.945247094,-2.4933,1.3193,0.48303,-7.00000000000145e-05,0.00019999999999997797,-9.999999999998899e-05,-0.0005997802292707632,0.00033992458851139773,-0.000753963006293823
150000000000.0,1,0.006943108199999999,-0.05035714775,-0.14878649379999997,0.10075,-0.016985,-0.056709,-1.4675651725,-9.497544392,1.9527001479999997,-2.4971,1.3191,0.48681,0.00024000000000001798,9.999999999998899e-05,-9.99999999995449e-06,-0.0010408256507385971,-0.0013562738491361692,0.0018288883158499303
150000000000.0,1,0.00756092715,-0.053711022049999994,-0.12689805099999998,0.091225,-0.00625,-0.055678,-1.461779249,-9.4970540595,1.9594667364999998,-2.5007,1.3189,0.49044,9.00000000000345e-05,0.00010000000000021103,-3.0000000000085514e-05,0.0003577246403647649,-0.0005799048569521403,0.0005803744168375591
150000000000.0,1,0.0134154972,-0.06953895515,-0.09712506159999999,0.079572,0.006632,-0.052519,-1.4563855915,-9.4966617935,1.9654487929999997,-2.5039,1.3187,0.49383,2.999999999997449e-05,9.999999999998899e-05,-9.99999999995449e-06,2.385504836954766e-05,-0.0004011249195794431,-0.0003916697839918548
150000000000.0,1,0.008600432049999999,-0.09811553325,-0.09644840275,0.071084,0.016288,-0.047215,-1.4516783994999998,-9.496367593999999,1.9703521179999997,-2.5066,1.3186,0.49678,9.999999999998899e-05,9.999999999998899e-05,9.99999999995449e-06,0.0018321895831974189,-0.00020420959433131713,0.001029289602626271
150000000000.0,1,0.012954584649999998,-0.12284790455,-0.10600007984999998,0.066859,0.024844,-0.042969,-1.4475596064999998,-9.496171461,1.9743728445,-2.509,1.3185,0.49946,0.000180000000000069,0.00019999999999997797,-3.999999999992898e-05,0.0010534019730146227,0.000343953896607907,0.0018261978530367262
150000000000.0,1,0.009483030549999999,-0.13222306195,-0.13267416785,0.061536,0.032345,-0.034452,-1.4442253455,-9.4960733945,1.9772167729999999,-2.5107,1.3184,0.50165,0.00018999999999991246,0.00019999999999997797,-2.0000000000020002e-05,3.0452542036485397e-05,0.00027502970412807137,0.0006955139311788372
150000000000.0,1,0.01311149105,-0.12492691435,-0.14393220205,0.061565,0.041928,-0.025931,-1.4418717495,-9.495877261499999,1.9798645684999998,-2.5121,1.3184,0.50354,0.0001300000000000745,9.999999999998899e-05,-2.0000000000020002e-05,0.001365442788571869,0.0008804373674187183,0.0005543363000295454
150000000000.0,1,0.01723028405,-0.12418160895,-0.15901482975,0.064761,0.047223,-0.017397,-1.440400752,-9.495583062,1.9823162309999998,-2.5132,1.3182,0.50516,0.00017999999999995797,3.333333333332966e-05,-9.99999999995449e-06,0.0006080785093045549,0.00031000926484736624,0.0009883644822310522
150000000000.0,1,0.03013583545,-0.11943519035,-0.1807953994,0.063685,0.053616,-0.006737,-1.4399104194999999,-9.495190796,1.9843756275,-2.5139,1.3181,0.50643,0.000280000000000058,3.333333333332966e-05,-6.0000000000060005e-05,-0.0007539858664040722,0.0009052343512367944,0.001946799449055403
150000000000.0,1,0.03639247815,-0.1104817189,-0.1969959852,0.057289,0.061121,0.002843,-1.4403026854999998,-9.4948965965,1.9856504919999998,-2.514,1.318,0.50724,0.00026999999999999247,3.333333333332966e-05,-2.999999999997449e-05,0.0012080461082089045,0.001005736446965777,0.0014191080530425726
150000000000.0,1,0.0412663832,-0.0795123182,-0.18675784259999997,0.047687,0.066522,0.010287,-1.4415775499999999,-9.494602397,1.9861408244999998,-2.5138,1.3179,0.50764,0.00014999999999998348,0.00019999999999997797,-4.0000000000040004e-05,0.0016343197781356622,0.00021543391733658268,0.0006785114231531164
150000000000.0,1,0.030685007849999998,-0.05727083599999999,-0.1663011707,0.038099,0.07299,0.016663,-1.4438330794999998,-9.494210130999999,1.9861408244999998,-2.513,1.3177,0.50764,0.00027999999999994696,-3.333333333332966e-05,-2.999999999997449e-05,-0.0011715169801753689,0.0011706823833350644,0.0016151591647644015
150000000000.0,1,0.03651015795,-0.03529413335,-0.1310952972,0.026361,0.077344,0.023038,-1.446873141,-9.4939159315,1.9855524254999999,-2.5119,1.3176,0.5073,0.00019999999999997797,-3.333333333332966e-05,-7.999999999996898e-05,0.0004505666855756374,0.0004655710230767607,0.00032071969429670055
150000000000.0,1,0.048062391649999994,-0.02211399575,-0.12734915689999998,0.012566,0.089177,0.026193,-1.450207402,-9.493817864999999,1.9837872284999998,-2.5103,1.3175,0.50662,0.00029000000000001247,-3.333333333332966e-05,-7.999999999996898e-05,-0.0029599438487650787,0.0002335547181604447,0.0013483925413015907
150000000000.0,1,0.05314223635,0.00842391235,-0.1449815136,-0.00236,0.092496,0.028295,-1.453933929,-9.4939159315,1.9802568344999998,-2.5083,1.3176,0.50546,0.000180000000000069,-9.999999999998899e-05,-3.0000000000085514e-05,-0.003028867126740664,-0.0003839765218482949,0.00032661807535805387
150000000000.0,1,0.06847983695,0.04870963055,-0.14700168349999998,-0.009809,0.096819,0.030407,-1.4577585225,-9.494308197499999,1.9758438419999997,-2.506,1.3177,0.50408,0.00015999999999993797,3.333333333332966e-05,1.0000000000065512e-05,0.002387564508987694,-0.00012011288310831425,0.0005489587799587525
150000000000.0,1,0.0647435033,0.05800633475,-0.14146092625,-0.018327,0.10009,0.031452,-1.461779249,-9.494798529999999,1.9706463174999997,-2.5034,1.3179,0.50244,0.0003300000000000525,3.333333333332966e-05,-9.00000000000345e-05,0.0016940256114947871,0.00040185871799036654,0.0017859886727855656
150000000000.0,1,0.058055367999999996,0.030586941349999997,-0.12339707695,-0.024708,0.10121,0.028235,-1.465701909,-9.4952888625,1.9649584605,-2.5007,1.3181,0.50076,0.00012000000000000899,3.333333333332966e-05,-2.999999999997449e-05,0.0033438556632852112,3.254485069437152e-06,0.00042593062530693615
150000000000.0,1,0.04554208259999999,-0.0058055367999999994,-0.10311692474999999,-0.033207,0.10342,0.023946,-1.4693303694999997,-9.4960733945,1.958780271,-2.498,1.3184,0.49903,0.00031999999999998696,-0.00019999999999997797,-4.999999999999449e-05,0.00013176494996702814,0.0006810702721642414,0.0010802876159117236
150000000000.0,1,0.01303303785,-0.04455161095,-0.09156469105,-0.043856,0.10244,0.017524,-1.4728607634999997,-9.496955992999998,1.951719483,-2.4951,1.3188,0.49711,0.00026999999999999247,3.333333333332966e-05,-4.999999999999449e-05,0.001094070297989802,0.0005736006004830596,0.0005760150416367349
150000000000.0,1,0.016720338249999998,-0.047856451999999994,-0.06561629514999999,-0.050235,0.10357,0.014308,-1.4759988915,-9.497936658,1.9443644955,-2.4923,1.3192,0.49527,0.00034000000000000696,3.333333333332966e-05,-6.0000000000060005e-05,0.0006901478023317864,0.00014726428319766782,0.001659025581522533
150000000000.0,1,0.027223260399999998,-0.0414625162,-0.0408348906,-0.057685,0.1047,0.012157,-1.4787447535,-9.499113455999998,1.9366172419999998,-2.4895,1.3197,0.49345,0.00024000000000001798,3.333333333332966e-05,-2.999999999997449e-05,0.0006285101562184536,0.0010480148747866735,0.0005475770236902378
150000000000.0,1,0.0433061664,-0.04417895825,-0.026674088000000002,-0.067278,0.10478,0.010004,-1.4810002829999998,-9.500486386999999,1.9282815894999998,-2.4866,1.3202,0.4916,0.00017999999999995797,4.999999999988347e-05,2.0000000000020002e-05,0.003285390484204065,-0.0008272879036976821,0.0008983162351809959
150000000000.0,1,0.0497981687,-0.035343166599999996,-0.0023241760499999996,-0.076861,0.10593,0.007849,-1.4830596795,-9.501957384499999,1.9193575379999999,-2.4837,1.3209,0.48969,0.0002300000000000635,5.0000000000105516e-05,-4.0000000000040004e-05,0.0015738166302901035,0.001493707936580435,0.0004233636837420729
150000000000.0,1,0.04682675374999999,-0.040403398,0.0071000146,-0.088543,0.11135,0.005683,-1.4848248764999998,-9.503624514999998,1.9096489544999997,-2.4807,1.3216,0.48765,0.00019999999999997797,2.4999999999941735e-05,-5.999999999994898e-05,0.0011085769863052874,-0.00047544085399775504,0.001437079163121746
150000000000.0,1,0.042600087599999996,-0.0476407057,0.032607111249999994,-0.091741,0.11032,0.003542,-1.4864920069999998,-9.505389712,1.8996461715,-2.4776,1.3223,0.48561,0.00032999999999994145,2.500000000016378e-05,-6.0000000000060005e-05,0.0011644265906980422,0.00014286889506909262,0.0021716440129693204
150000000000.0,1,0.0323423317,-0.04635603455,0.0628802398,-0.095997,0.11035,0.001399,-1.488061071,-9.507056842499999,1.889741455,-2.4746,1.323,0.48358,0.0003300000000000525,2.4999999999941735e-05,-7.999999999996898e-05,0.0004964345752984656,-8.184673295952294e-05,0.0013322999268972069
150000000000.0,1,0.043041386849999995,-0.04155077605,0.07169641815,-0.10026,0.11039,0.000322,-1.4893359355,-9.508920106,1.8795425389999998,-2.4715,1.3238,0.48155,0.00029999999999996696,2.4999999999941735e-05,-0.000140000000000029,5.844206653105033e-05,0.0015736115616484803,0.0001173970061012497
150000000000.0,1,0.051779111999999995,-0.01264077185,0.08242489324999999,-0.10241,0.10827,0.000321,-1.490414667,-9.510783369499999,1.8694416895,-2.4685,1.3245,0.47955,0.00038000000000004697,-9.999999999998899e-05,-0.00012999999999996348,-0.0006899831526885336,0.0008282200092393222,0.0005918213436089115
150000000000.0,1,0.0686661633,0.0382067084,0.08601412715,-0.09918,0.11038,-0.000747,-1.4912972655,-9.5125485665,1.859733106,-2.4657,1.3253,0.47771,0.00020999999999993246,-9.999999999998899e-05,-0.00012000000000000899,0.0007187002617996541,0.00019007991072395036,0.0004630742940916477
150000000000.0,1,0.07316741565,0.08621026015,0.08880902239999999,-0.090669,0.10498,-0.003927,-1.4918856644999998,-9.5141176305,1.8509071209999999,-2.4632,1.3259,0.47617,0.00024000000000001798,-9.999999999998899e-05,-0.00015999999999993797,-0.0008723750982309042,-0.001278020277914127,0.0007017825956194823
150000000000.0,1,0.08150306815,0.1313502701,0.07489338605,-0.080049,0.098502,-0.003899,-1.4922779305,-9.515588628,1.8431598675,-2.461,1.3265,0.47489,0.00043000000000004146,-9.999999999998899e-05,-0.0001300000000000745,0.0013327630614945463,-0.0005094407255379352,0.002260901158988027
150000000000.0,1,0.08286619249999999,0.15875985684999996,0.0663910205,-0.066234,0.089865,-0.005997,-1.4924740634999998,-9.516765426,1.8366874785,-2.4592,1.3271,0.47398,0.00029999999999996696,-9.999999999998899e-05,-0.00012999999999996348,-0.0013226050983528026,-0.0001396921900349568,-4.606277555785354e-05
150000000000.0,1,0.08322903855,0.1622608309,0.061046396249999996,-0.050294,0.082273,-0.004891,-1.4924740634999998,-9.517746091,1.831686087,-2.4579,1.3275,0.47341,0.000260000000000038,-9.999999999998899e-05,-0.000160000000000049,0.0012359085019388871,-0.0010532036108734655,-0.0004734211125621002
150000000000.0,1,0.08243469989999999,0.1399605088,0.0471111466,-0.036507,0.071503,-0.00485,-1.492375997,-9.518530623,1.82795956,-2.457,1.3278,0.47319,0.00018999999999991246,-9.999999999998899e-05,-0.00012000000000000899,0.002178967378693386,-0.00032300099370075053,-0.0009149602208471386
150000000000.0,1,0.06467485675,0.09895890514999998,0.07628593035,-0.025887,0.065021,-0.004822,-1.492179864,-9.518922888999999,1.825802097,-2.4564,1.328,0.47325,0.00045000000000006146,-0.00019999999999997797,-0.00020999999999993246,-0.0021543431913446653,0.0021281473049314936,0.0002802624131066356
150000000000.0,1,0.05667263035,0.0449929102,0.09317298165,-0.017416,0.058553,-0.001595,-1.492179864,-9.519119022,1.8247233655,-2.4561,1.3281,0.47358,0.00017999999999995797,-0.00020000000000020002,-0.00019999999999997797,-0.0019629873880973037,0.0011913362150948181,-0.0012712539150812052
150000000000.0,1,0.06965663494999999,-0.0012944778,0.12967333295,-0.008916,0.056347,0.002691,-1.4920817975,-9.519119022,1.8250175649999998,-2.4562,1.328,0.4742,0.000520000000000076,-0.00039999999999995595,-9.999999999998899e-05,0.001336097120487878,-6.075063088140098e-06,0.0023192051131901703
150000000000.0,1,0.08307213214999999,-0.017857909649999996,0.14265733754999999,-0.003674,0.048836,0.010182,-1.492375997,-9.5188248225,1.8260962964999998,-2.4564,1.3279,0.47486,0.00019999999999997797,-0.00019999999999997797,-0.0001500000000000945,0.001218884342906179,0.0017818416876878018,0.00030784979023001924
150000000000.0,1,0.09075073909999999,-0.0216138566,0.14068620089999997,0.000515,0.044528,0.0198,-1.4932585954999997,-9.518432556499999,1.8277634269999998,-2.4566,1.3277,0.4754,0.00041999999999997595,-0.00019999999999997797,-0.00017999999999995797,0.001108942500617438,0.0009795280334499168,0.001645941427181441
150000000000.0,1,0.10761817709999999,-0.00887501825,0.13249764815,0.010014,0.039107,0.032631,-1.4950237924999998,-9.5176480245,1.830117023,-2.4566,1.3274,0.4758,0.00038000000000004697,-0.00019999999999997797,-0.00017999999999995797,0.0004578578283780388,0.0005030851715681628,0.0007552001357267191
150000000000.0,1,0.12904570735,-0.00102969825,0.1255643466,0.016319,0.035842,0.047587,-1.4977696544999999,-9.5166673595,1.833059018,-2.4565,1.327,0.47598,0.00032999999999994145,-0.0004999999999999449,-0.0002500000000000835,-0.0020352479311993577,0.001398755547021624,-0.0016638870559098073
150000000000.0,1,0.14344186955,0.01473939495,0.11851336525,0.022612,0.030447,0.061479,-1.501594248,-9.515392495,1.8366874785,-2.4562,1.3265,0.47596,0.00040000000000006697,-0.000500000000000167,-0.00026999999999999247,-0.0018513823370529536,0.0011286198488864585,0.0005685430733279873
150000000000.0,1,0.16492823969999998,0.036304218299999996,0.1136983001,0.033135,0.01969,0.07432,-1.506105307,-9.513725364499999,1.841296604,-2.456,1.3258,0.47585,0.00028999999999990145,-0.00039999999999995595,-0.00022999999999995246,-0.0007350870363520556,0.0016489685183322944,-0.0013352125749275245
150000000000.0,1,0.16933142555,0.04669926729999999,0.09332008139999999,0.038386,0.0175,0.088204,-1.5118912304999998,-9.511862101,1.8462979954999998,-2.4554,1.325,0.4754,0.000260000000000038,-0.00029999999999996696,-0.00021000000000004349,2.2981362305607433e-05,0.0025679045575948134,-0.0008786142813552722
150000000000.0,1,0.17309717915,0.04361997919999999,0.08584741409999999,0.045755,0.012098,0.099962,-1.518657819,-9.509704638,1.8519858524999997,-2.4548,1.3241,0.47476,0.00017999999999995797,-0.0004999999999999449,-0.00017999999999995797,-0.00012868336209592712,0.001576813329693616,-0.0001897511259871809
150000000000.0,1,0.16420254759999997,0.027272293649999998,0.08644561975,0.050976,0.003519,0.10959,-1.5264050725,-9.5072529755,1.8580659755,-2.4539,1.3231,0.47386,0.00017000000000000348,-0.0004999999999999449,-0.0002300000000000635,0.0005259344246484332,0.0010615588940023901,-0.0016071833993935858
150000000000.0,1,0.16578141824999998,0.029920089149999995,0.08928954825,0.057273,-0.004002,0.11921,-1.5348387915,-9.504507113499999,1.8651267635,-2.453,1.3219,0.47287,0.00026999999999999247,-0.000700000000000145,-0.00016999999999989246,-0.0036935882363735573,0.00041828328164772444,0.000676385092364562
150000000000.0,1,0.17712771230000002,0.012572125299999999,0.08978968739999998,0.059325,-0.012548,0.12243,-1.5432725105,-9.501663185,1.8725798175,-2.4523,1.3208,0.47191,0.00040000000000006697,-0.0006999999999999229,-0.000220000000000109,-0.0012630741005761337,0.0003988772956411424,-0.0004101112019263553
150000000000.0,1,0.1613390058,-0.0306163613,0.0870438254,0.059258,-0.017882,0.12777,-1.5523926949999998,-9.49872119,1.879934805,-2.4513,1.3196,0.47071,0.00021999999999999797,-0.0004999999999999449,-9.99999999995449e-06,0.0023513501893059896,0.0011343481016943269,-0.0017434486128524718
150000000000.0,1,0.15333677939999998,-0.07740388845,0.08818139679999999,0.05814,-0.023204,0.1299,-1.5616109459999998,-9.495779195,1.887191726,-2.4503,1.3183,0.46936,0.00031999999999998696,-0.000400000000000178,-9.00000000000345e-05,0.002512896220022931,0.0017870171974592175,-9.18814446571048e-06
150000000000.0,1,0.15318967965,-0.12985965929999999,0.11007964625,0.051683,-0.028483,0.1331,-1.570829197,-9.4929352665,1.8941544474999998,-2.4492,1.3172,0.46787,0.00022999999999995246,-0.0007999999999999119,-8.999999999992347e-05,-0.0019147425931516082,0.0004729560930754051,-0.00042739529308422064
150000000000.0,1,0.15823029775,-0.2127454651,0.13337043999999998,0.044162,-0.032689,0.13736,-1.580047448,-9.490091338,1.9006268365,-2.448,1.316,0.46623,0.00024000000000001798,-0.0007999999999999119,-3.0000000000085514e-05,-0.0013906552026243801,0.0027339605849703297,-0.0005553048781270498
150000000000.0,1,0.1502574913,-0.2986124925,0.15318967965,0.034554,-0.033676,0.13734,-1.5893637655,-9.487345476,1.9063146935,-2.4466,1.3149,0.46433,0.00014999999999998348,-0.000700000000000145,-9.99999999995449e-06,0.0017754243268699454,-0.0008961949579637807,0.0002483664923067508
150000000000.0,1,0.14330457644999997,-0.34595899869999996,0.14809022165,0.028135,-0.03682,0.13626,-1.5983858834999998,-9.4848938135,1.910923819,-2.445,1.3139,0.46223,0.00021000000000004349,-0.0005999999999999339,-5.999999999994898e-05,0.0007579162166075903,0.00026305818886562804,-0.0014342118912651358
150000000000.0,1,0.14079407405,-0.35620694794999996,0.15705349975,0.017468,-0.038861,0.13303,-1.6072118685,-9.482638284,1.9149445454999998,-2.4433,1.313,0.45999,0.00026999999999999247,-0.0005999999999999339,-0.00012000000000000899,-0.000385903522955644,-0.0005220936752274863,-0.0005428402988947312
150000000000.0,1,0.1446284742,-0.31229276925,0.13198770234999999,0.009989,-0.043058,0.12875,-1.6157436539999999,-9.4805788875,1.9178865404999998,-2.4415,1.3122,0.45759,0.00034000000000000696,-0.0008000000000001339,2.999999999997449e-05,-0.0014626879634001,0.0008148901636066963,-0.0004231989509484446
150000000000.0,1,0.16747796869999998,-0.23399647564999998,0.11879775809999998,0.002523,-0.048317,0.1202,-1.6231967079999998,-9.478813690499999,1.9203382029999998,-2.4399,1.3115,0.45531,0.00017000000000000348,-0.0006999999999999229,-0.0001100000000000545,-0.0019982551707391494,0.002966268000665906,-0.0007682451467843077
150000000000.0,1,0.1664384638,-0.1454914594,0.10150863415,0.001469,-0.053626,0.10953,-1.6297671635,-9.4772446265,1.9224956659999999,-2.4384,1.3109,0.45322,0.00036999999999998145,-0.0005999999999999339,-6.999999999990347e-05,0.0012183254566142665,-0.0016334105242314934,0.0010873305968750469
150000000000.0,1,0.17346002519999998,-0.054309227700000004,0.08073814945,-0.001679,-0.057846,0.092447,-1.6348666214999998,-9.475969762,1.9245550624999999,-2.4374,1.3104,0.4515,0.00019999999999997797,-0.0008000000000001339,-7.00000000000145e-05,-0.0006589473128943979,-8.405044279968799e-05,-0.0007073967240758261
150000000000.0,1,0.17156734175,0.03384274915,0.047209213099999994,0.000462,-0.068501,0.074318,-1.6382989489999997,-9.474891030499998,1.9267125255,-2.4369,1.31,0.45022,9.00000000000345e-05,-0.0005999999999999339,-0.00014999999999998348,-0.002880506082232337,-0.0016205838109906168,-0.0020373406805511696
150000000000.0,1,0.16368279515,0.11872911154999999,0.01615155255,0.000501,-0.077005,0.05298,-1.6399660794999997,-9.474204564999999,1.9286738555,-2.4369,1.3097,0.4494,0.000260000000000038,-0.0006999999999999229,-7.00000000000145e-05,-0.0009257162957423404,-0.002190722967773562,-0.0004082290694595869
150000000000.0,1,0.14229449149999998,0.1723420671,-0.00928689755,0.005859,-0.090875,0.026324,-1.6395738135,-9.473812299,1.931125518,-2.4377,1.3095,0.44922,3.999999999992898e-05,-0.000500000000000167,-0.00012000000000000899,-0.00010583315516843328,-0.000551732958952833,-0.0029513336644195753
150000000000.0,1,0.11451225204999999,0.20679282855,-0.0142000292,0.005936,-0.097243,0.000715,-1.637122151,-9.473714232499999,1.9337733135,-2.4391,1.3095,0.44967,0.00034000000000000696,-0.00039999999999995595,4.999999999999449e-05,0.0035338718003963265,-0.0005710594874135388,0.0011578668532963299
150000000000.0,1,0.09096648539999999,0.20971521025,-0.02011343915,0.009157,-0.11216,-0.027007,-1.6321207594999998,-9.4739103655,1.936813375,-2.4414,1.3096,0.45089,0.00019000000000002348,-0.0006999999999999229,1.4999999999987246e-05,0.0010121567926795194,-0.0001794616544426031,9.496088298432959e-05
150000000000.0,1,0.051582978999999994,0.19196517374999997,-0.015808319799999998,0.006029,-0.12169,-0.056884,-1.6246677055,-9.474596831,1.9398534365,-2.4444,1.3098,0.45275,-7.999999999996898e-05,-0.0005999999999999339,1.4999999999987246e-05,0.0013088499297282397,-0.0034326719270256767,-0.002907322096314502
150000000000.0,1,0.007992419749999998,0.12527995374999998,0.021682503149999997,-0.00457,-0.12904,-0.082507,-1.6150571885,-9.4756755625,1.942501232,-2.448,1.3103,0.45514,2.0000000000020002e-05,-0.000700000000000145,-4.0000000000040004e-05,-0.0006137849279275187,-0.002238839183178465,-0.0011825610858120505
150000000000.0,1,-0.0259287826,0.0383243882,0.06751878524999999,-0.016196,-0.13424,-0.1124,-1.6028969425,-9.477342692999999,1.944658695,-2.4522,1.3109,0.45817,0.00012999999999996348,-0.0005999999999999339,9.999999999998899e-05,0.00040829027739519574,-0.0011278393778673124,-0.0008694470820580502
150000000000.0,1,-0.05099458,-0.07038232705,0.1006554556,-0.029996,-0.13837,-0.1327,-1.5885792335,-9.479500156,1.945835493,-2.4569,1.3118,0.46157,5.999999999994898e-05,-0.0005999999999999339,9.00000000000345e-05,-0.001541631729155668,-0.0014366283110782696,-0.002896220524331472
150000000000.0,1,-0.07930637855,-0.18965080434999998,0.12673133795,-0.042724,-0.13931,-0.14873,-1.5726924605000001,-9.4821479515,1.9456393599999997,-2.4618,1.3128,0.46515,3.0000000000085514e-05,-0.000700000000000145,0.00019000000000002348,0.0029442732844895403,-0.0031300517713441778,0.0006901944371771052
150000000000.0,1,-0.08442544985,-0.26816284425,0.141608026,-0.054396,-0.14027,-0.16262,-1.5553346899999998,-9.485384146,1.9440702959999998,-2.4668,1.3141,0.46891,1.999999999990898e-05,-0.0006999999999999229,0.00010999999999994348,-6.46953813214779e-05,-0.0008294444880228014,-0.0004667188934750488
150000000000.0,1,-0.0941046134,-0.29107117865,0.1354102232,-0.07142,-0.13799,-0.16799,-1.5373885204999997,-9.48891454,1.9408341015,-2.4717,1.3156,0.47248,0.00046000000000001595,-0.0004999999999999449,0.000140000000000029,-0.0053745271107619175,-0.00046494066238778053,0.0013669650443424164
150000000000.0,1,-0.0822974068,-0.28020541044999997,0.1243287087,-0.083128,-0.1347,-0.16802,-1.519246218,-9.492739133499999,1.9363230424999998,-2.4763,1.3171,0.47587,0.000140000000000029,-0.000600000000000156,0.00014999999999998348,0.0011979655596272565,0.0006931259096487619,-0.0007223269846690084
150000000000.0,1,-0.059624432,-0.26557388865,0.12552512,-0.093781,-0.12822,-0.16058,-1.501398115,-9.49675986,1.9306351854999997,-2.4806,1.3187,0.47897,-9.00000000000345e-05,-0.0007999999999999119,4.0000000000040004e-05,0.00277597239349614,-0.0026557629912555836,-0.0005507386527086044
150000000000.0,1,-0.0326561445,-0.2268278145,0.12777084285,-0.10445,-0.12282,-0.151,-1.4842364775,-9.5007805865,1.92406473,-2.4845,1.3204,0.48171,-5.999999999994898e-05,-0.0009999999999998899,5.999999999994898e-05,0.0005481433651501888,-0.0015213627984904665,-9.496359104477214e-05
150000000000.0,1,-0.0269290609,-0.1774807517,0.1227204181,-0.11406,-0.11529,-0.13715,-1.4684477710000001,-9.504801313,1.916415543,-2.4878,1.3221,0.48383,4.999999999999449e-05,-0.0009000000000001229,9.00000000000345e-05,0.00265417934049772,2.9107782199666588e-05,0.00015680934663686585
150000000000.0,1,-0.0185149552,-0.11545369045,0.1224654452,-0.11836,-0.10888,-0.12116,-1.4542281285,-9.508625906499999,1.9082760235,-2.4904,1.3236,0.48539,9.99999999995449e-06,-0.0008999999999999009,2.999999999997449e-05,0.0007497486843677237,-0.00033274948598349674,-0.0007106083853500866
150000000000.0,1,-0.0027654753,-0.0530735898,0.11358062029999999,-0.11944,-0.10143,-0.1041,-1.4416756165,-9.512254366999999,1.8999403709999998,-2.4925,1.3251,0.48641,-0.00014999999999998348,-0.0008000000000001339,3.0000000000085514e-05,-0.0022342848234488955,-0.0015070045272755905,-0.0024668652011632375
150000000000.0,1,-0.01189546645,0.00512887795,0.09697796185,-0.11948,-0.095055,-0.087029,-1.4311825009999999,-9.5154905615,1.8914085855,-2.4938,1.3265,0.48679,1.0000000000065512e-05,-0.0005999999999999339,0.00012000000000000899,0.002964493018890124,0.0011730020015099374,-0.00040166844410483016
150000000000.0,1,0.0010395049,0.07603095745,0.0725888233,-0.11524,-0.088714,-0.069954,-1.4224545825000001,-9.518432556499999,1.8830729329999998,-2.4946,1.3278,0.48668,0.00012999999999996348,-0.001100000000000101,-0.00010000000000010001,-0.002269709006561982,-0.0009123746353907336,-0.00032766728714661575
150000000000.0,1,0.0011571847,0.11634609559999999,0.06020302435,-0.10887,-0.08239,-0.053942,-1.4154918609999998,-9.521080351999998,1.87503148,-2.4949,1.3289,0.48611,7.999999999996898e-05,-0.0010999999999998789,3.0000000000085514e-05,0.0006465456678288461,-0.000258233185829404,-0.00046770115939809287
150000000000.0,1,-0.00795319315,0.1281140756,0.06679309315,-0.10037,-0.079277,-0.040056,-1.4102943364999998,-9.523237815,1.8678726255,-2.4949,1.3298,0.48519,-0.00010999999999994348,-0.0008000000000001339,3.999999999992898e-05,0.00022298619194760505,0.00022547298974884278,-0.0001132083105270798
150000000000.0,1,-0.03464689445,0.1183466522,0.0755504316,-0.090802,-0.077236,-0.029367,-1.406665876,-9.525003011999999,1.861694436,-2.4945,1.3306,0.48401,-9.00000000000345e-05,-0.0009999999999998899,4.999999999999449e-05,0.0012778363060919062,-0.00013376517973129332,-0.00118734877154969
150000000000.0,1,-0.05586848504999999,0.0981449532,0.08770087095,-0.080153,-0.074137,-0.019745,-1.4043122799999999,-9.526375943,1.8565949779999997,-2.494,1.3311,0.48271,9.999999999998899e-05,-0.0007999999999999119,-1.999999999990898e-05,0.0004734590685284701,-0.0009770654779155397,-0.0006250454854432874
150000000000.0,1,-0.07050000684999999,0.06862693669999999,0.10522535449999999,-0.070548,-0.071024,-0.014394,-1.4028412825,-9.527356608,1.852476185,-2.4935,1.3316,0.48141,2.0000000000020002e-05,-0.0008000000000001339,3.999999999992898e-05,-0.0005462632308077531,-8.80178881510485e-05,-0.002032365125625546
150000000000.0,1,-0.0934769878,0.052328284399999994,0.1136983001,-0.055638,-0.072217,-0.010093,-1.4021548169999998,-9.527945007,1.8498283894999998,-2.493,1.3318,0.4802,-9.999999999998899e-05,-0.0008999999999999009,9.00000000000345e-05,0.0012051591272230766,0.00023408718108242077,-0.0011775530809126078
150000000000.0,1,-0.1061864062,0.023124080699999997,0.11427689245,-0.038589,-0.073426,-0.006855,-1.4018606175,-9.528239206499999,1.8486515915,-2.4928,1.3319,0.47925,-4.999999999999449e-05,-0.001000000000000112,0.00015999999999993797,-0.0020147858452341794,-0.001146922758773039,-0.0009545717506613816
150000000000.0,1,-0.1262704254,-0.0244185585,0.11918021745,-0.019402,-0.074651,-0.00468,-1.401958684,-9.528141139999999,1.849141924,-2.4929,1.3319,0.47859,0.00017999999999995797,-0.0007999999999999119,4.0000000000040004e-05,-0.0011989906691143304,0.0020917936527280467,0.0012624455291445624
150000000000.0,1,-0.143765489,-0.055064339749999996,0.10865768199999999,-0.002344,-0.077986,-0.006775,-1.4021548169999998,-9.527748873999998,1.851103254,-2.4933,1.3317,0.47829,-3.999999999992898e-05,-0.001000000000000112,7.00000000000145e-05,-0.0017309770544047254,-0.002072376668235787,-0.0002602483633127317
150000000000.0,1,-0.1453737796,-0.09236883635,0.0972035148,0.015786,-0.081328,-0.009935,-1.4018606175,-9.527062408499999,1.854633648,-2.4943,1.3314,0.47853,0.00015999999999993797,-0.0007999999999999119,0.00012999999999996348,-0.0023921963261743784,-0.0013968591634967442,-6.468060055753178e-05
150000000000.0,1,-0.16389854145,-0.1372931,0.10291098509999999,0.031782,-0.084653,-0.013099,-1.4014683515,-9.52617981,1.859733106,-2.4958,1.331,0.47918,-2.999999999997449e-05,-0.0009000000000001229,8.000000000008001e-05,0.00025153893159046703,-0.0005631792066262964,-0.0018561669998540253
150000000000.0,1,-0.18920950509999998,-0.18778754085,0.12735896354999998,0.047795,-0.085846,-0.016266,-1.4009780189999999,-9.5249049455,1.866597761,-2.4977,1.3305,0.48031,2.999999999997449e-05,-0.0007999999999999119,0.00013999999999991797,0.00035517004723395473,0.0003444968505821322,-0.00021220600254623356
150000000000.0,1,-0.20463536554999998,-0.19559363425,0.11921944404999998,0.056378,-0.084843,-0.023718,-1.4000954205,-9.5235320145,1.874246948,-2.5,1.3299,0.48182,-4.0000000000040004e-05,-0.0009999999999998899,9.00000000000345e-05,0.0003143583685822904,0.0006617263332939771,-0.000519603376490263
150000000000.0,1,-0.2022327363,-0.1967410123,0.1192292507,0.061726,-0.084884,-0.025838,-1.3989186224999999,-9.522061016999999,1.8824845339999998,-2.5025,1.3293,0.48357,5.0000000000105516e-05,-0.0008000000000001339,9.00000000000345e-05,0.0008905424312075638,0.001606431937401176,0.0004820418292155182
150000000000.0,1,-0.17767688469999998,-0.15807339135,0.1056764604,0.061757,-0.080622,-0.024773,-1.3974476249999999,-9.520688086,1.8908201865,-2.5051,1.3287,0.48545,2.999999999997449e-05,-0.0007999999999999119,-6.0000000000060005e-05,-0.0024597561567958337,-0.0018490060375653261,9.86120728070361e-05
150000000000.0,1,-0.13812666525,-0.08041453,0.07346161514999999,0.06288,-0.073173,-0.023712,-1.3957804945,-9.519315155,1.8987635729999996,-2.5077,1.3281,0.48734,-4.999999999999449e-05,-0.001000000000000112,-0.00012999999999996348,-0.003310134304092216,-0.0012025339455699058,-0.0005065989405534932
150000000000.0,1,-0.08909341524999999,0.01264077185,0.06312540605,0.063968,-0.066794,-0.017314,-1.394113364,-9.517942223999999,1.9069030925,-2.5103,1.3275,0.48933,-0.000180000000000069,-0.0008999999999999009,-0.000180000000000069,-0.0026123879083232993,-0.0025256143814111898,-0.002565248822008037
150000000000.0,1,-0.0534070159,0.13286049419999998,0.0322246519,0.069345,-0.060447,-0.015178,-1.392740433,-9.5164712265,1.915042612,-2.5128,1.3269,0.49131,0.000180000000000069,-0.0008000000000001339,-0.00019999999999997797,0.0006824977387793751,0.001329664785566953,0.0007023042530946988
150000000000.0,1,-0.02933169015,0.24951059595,-0.023231953849999997,0.073656,-0.055154,-0.015178,-1.391367502,-9.5150982955,1.9229859984999997,-2.5153,1.3263,0.49328,0.00010999999999994348,-0.0007999999999999119,-0.00015999999999993797,-0.0006725521331940598,0.00010960692829131702,0.0003793923121162557
150000000000.0,1,-0.0265760215,0.35622656125,-0.0843764166,0.08436,-0.052043,-0.017297,-1.389994571,-9.513627298,1.9312235844999999,-2.5177,1.3257,0.49531,0.000160000000000049,-0.0004999999999999449,-0.00021000000000004349,-0.00011745143362773547,-2.372230130065489e-05,0.0007329866229162096
150000000000.0,1,-0.04245298785,0.43842590154999994,-0.1450599668,0.090844,-0.048886,-0.029029,-1.388425507,-9.5121563005,1.939559237,-2.5203,1.3251,0.49753,-0.00012000000000000899,-0.000700000000000145,-0.00046999999999997044,-0.00035068538815696826,-0.0015127337274434272,-0.0025979050897504408
150000000000.0,1,-0.06528286905,0.5138194267499999,-0.18596350395,0.10263,-0.050035,-0.040743,-1.3863661104999998,-9.5105872365,1.9483852219999998,-2.5232,1.3245,0.50003,5.999999999994898e-05,-0.0006999999999999229,-0.00045000000000006146,-0.0017375609065366504,-0.0032142762408093883,0.00031852791360154065
150000000000.0,1,-0.10117520804999999,0.58223061715,-0.19687830539999998,0.10697,-0.051119,-0.057811,-1.3802859874999998,-9.509312372,1.959172537,-2.5279,1.3239,0.50435,0.000280000000000058,-0.0006999999999999229,-0.00031999999999998696,0.0003562923819879771,-0.000716988048421463,0.0031414532353661873
150000000000.0,1,-0.12915358049999998,0.63459812815,-0.2051158914,0.11238,-0.05434,-0.07701,-1.372342601,-9.508135573999999,1.9705482509999999,-2.5333,1.3234,0.50939,0.00027999999999994696,-0.000700000000000145,-0.00046999999999997044,-0.005825601454120033,3.4774319790598085e-05,0.0030679653112979377
150000000000.0,1,-0.14354974269999998,0.63451967495,-0.20996037649999996,0.11142,-0.053245,-0.097294,-1.362535951,-9.507154908999999,1.9820220315,-2.5393,1.323,0.51507,9.00000000000345e-05,-0.0004999999999999449,-0.0005399999999999849,-0.0013943538411727019,0.00028248864097935034,0.0010276604620709229
150000000000.0,1,-0.1685763135,0.5975191845,-0.18616944359999998,0.10724,-0.052121,-0.1133,-1.3557693625,-9.5060761775,1.9918286815,-2.544,1.3226,0.51944,7.999999999996898e-05,-0.0006999999999999229,-0.0006099999999999994,0.002382608291836341,-0.000874635306372662,0.0013913466772506045
150000000000.0,1,-0.1950738818,0.5152315843499999,-0.16676208324999997,0.093496,-0.044534,-0.12722,-1.3430207174999997,-9.505781978,2.001733398,-2.5506,1.3224,0.52585,-7.999999999996898e-05,-0.0008000000000001339,-0.00043000000000004146,0.0006458073153279287,-0.000354143563806808,0.0001723388300221007
150000000000.0,1,-0.20077154545,0.41049656235,-0.15036536444999998,0.077588,-0.035873,-0.1326,-1.3296836734999997,-9.5058800445,2.0098729174999996,-2.5571,1.3225,0.53214,9.99999999995449e-06,-0.0009999999999998899,-0.0005800000000000249,-0.001371584091193867,0.0003531129756733087,0.0016955246723802109
150000000000.0,1,-0.1699100179,0.28635417999999996,-0.11916060415,0.053143,-0.020759,-0.12733,-1.316836962,-9.5064684435,2.0159530405,-2.5629,1.3227,0.53789,-7.999999999996898e-05,-0.0007999999999999119,-0.00028999999999990145,0.0019566440096348003,0.000634542458826326,0.0013297713476434492
150000000000.0,1,-0.1157773099,0.19198478705,-0.09548735105,0.029743,-0.0014,-0.11139,-1.3083051765,-9.507056842499999,2.0185027695,-2.5665,1.323,0.54156,-7.999999999996898e-05,-0.000700000000000145,-0.0002500000000000835,0.0018807967712621831,1.8818745939119808e-05,-0.0005146147341243967
150000000000.0,1,-0.04982758864999999,0.10893226819999999,-0.06925456229999999,0.002075,0.022246,-0.087994,-1.299577258,-9.508135573999999,2.019189235,-2.5697,1.3234,0.54503,-0.000160000000000049,-0.0007999999999999119,-0.00036999999999998145,7.060950206749794e-07,-1.4677000451435163e-05,6.152325080965859e-05
150000000000.0,1,0.0115914603,0.008825985,-0.03843226135,-0.022465,0.039469,-0.060314,-1.293889401,-9.509312372,2.017227905,-2.5713,1.3239,0.54704,4.0000000000040004e-05,-0.001100000000000101,-0.0005899999999999794,-0.0010152449259752672,-0.0007434535669512687,0.0032643856662046833
150000000000.0,1,0.01028717585,-0.08947587459999999,-0.01077750835,-0.045879,0.062014,-0.035845,-1.2910454724999998,-9.510685302999999,2.0126187795,-2.5712,1.3245,0.54758,-0.000160000000000049,-0.0008999999999999009,-0.0001100000000000545,0.0004818557563321946,0.0018448466051199652,0.0017133668431341675
150000000000.0,1,-0.0284196717,-0.20409599979999998,0.027929339199999997,-0.062875,0.083447,-0.016699,-1.2906532065,-9.5121563005,2.0057541244999997,-2.5698,1.3251,0.54694,-0.0014799999999999258,-0.0014000000000000679,8.000000000008001e-05,0.02486921101175188,-0.0007572554166017653,-0.009866351403780449
150000000000.0,1,-0.07104917925,-0.27683192284999997,0.04093295709999999,-0.069221,0.10372,0.004603,-1.2926145365000001,-9.5135292315,1.9982030039999998,-2.5674,1.3257,0.54546,-4.0000000000040004e-05,-0.0006999999999999229,-0.00021999999999999797,0.003094031735392022,0.003404970207973479,0.0006318244898162462
150000000000.0,1,-0.08348401144999999,-0.32278588475,0.04102121695,-0.072391,0.11759,0.020584,-1.29643913,-9.5147060295,1.9899654179999997,-2.5642,1.3262,0.5433,-0.00017999999999995797,-0.001100000000000101,-0.00029000000000001247,-0.001775256646832979,-0.000543146651400539,0.002517257976889953
150000000000.0,1,-0.07698220249999999,-0.33854517129999995,0.051573172349999995,-0.071313,0.12822,0.035511,-1.302126987,-9.5156866945,1.9815316989999998,-2.5602,1.3266,0.54054,-4.999999999999449e-05,-0.0011999999999998678,-0.00046000000000001595,-0.0021189156908718587,0.001190985817645318,0.003947075831801428
150000000000.0,1,-0.06696961285,-0.3227172382,0.051249552899999995,-0.074478,0.14208,0.050425,-1.3098742405,-9.516569292999998,1.9723134479999997,-2.5554,1.327,0.53695,-0.00019000000000002348,-0.001000000000000112,-0.0003300000000000525,0.002930639135687585,0.0018288743463230617,0.0014123444991303025
150000000000.0,1,-0.05511337299999999,-0.29105156535,0.07089227285,-0.075521,0.1538,0.064279,-1.3186021589999999,-9.5172557585,1.963095197,-2.5501,1.3272,0.53312,-0.00031000000000003247,-0.0011999999999998678,-0.00019999999999997797,0.00447750495485888,0.0031711534822445042,0.00014821885823712577
150000000000.0,1,-0.024183198899999998,-0.2740566409,0.10440159589999999,-0.081873,0.17194,0.083449,-1.3292914075,-9.517746091,1.9532885469999999,-2.544,1.3275,0.52857,-7.00000000000145e-05,-0.0014000000000000679,-0.00046999999999997044,0.0035280709203302507,0.0023705419894322066,0.004120787450787589
150000000000.0,1,0.01415099595,-0.23996872549999998,0.1344491715,-0.089292,0.1901,0.10262,-1.342138119,-9.5182364235,1.9424031654999998,-2.5369,1.3277,0.52316,-0.000140000000000029,-0.001100000000000101,-0.0006199999999999539,-0.0022629863287608742,0.002734201078355536,0.0013713897440708056
150000000000.0,1,0.0717454514,-0.13853854455,0.13003617899999997,-0.099898,0.21148,0.12497,-1.3557693625,-9.518334489999999,1.932302316,-2.5298,1.3277,0.51783,0.0013200000000000989,-0.0009999999999998899,-0.0009900000000000464,-0.022740886861192244,0.0039782423965164515,0.013537451347752194
150000000000.0,1,0.15516081629999998,0.0212412039,0.11639512884999999,-0.10094,0.23064,0.15162,-1.3740097315,-9.518334489999999,1.9195536709999999,-2.5204,1.3277,0.51047,-0.000160000000000049,-0.0016000000000000458,-0.0006300000000000194,0.0012175768518041252,0.002185211498373585,0.0016290337748796624
150000000000.0,1,0.23389840915,0.1975255443,0.09664453574999998,-0.090282,0.24651,0.1783,-1.394897896,-9.517746091,1.9072953584999999,-2.5101,1.3274,0.50243,0.0001100000000000545,-0.0013000000000000789,-0.0011900000000000244,-0.0013058178423293043,0.0052746584765435145,0.002307629034127512
150000000000.0,1,0.29729840139999997,0.33688784745,0.06339999225,-0.075373,0.26021,0.20605,-1.418826122,-9.51637316,1.8961157775,-2.4992,1.3269,0.4938,-0.001080000000000081,-0.0019000000000000128,-0.0009000000000000119,0.022111597882161327,0.0015631691673232417,-0.005157712495877709
150000000000.0,1,0.36807299444999997,0.54239600485,-0.010493115499999999,-0.046585,0.27273,0.23062,-1.43961622,-9.5147060295,1.889153056,-2.4904,1.3262,0.48743,0.0014399999999999968,-0.0010999999999998789,-0.0018099999999999783,-0.026069948642823526,0.007509555634257259,0.009955293600228732
150000000000.0,1,0.43860242125,0.7625749106499999,-0.10919704775,-0.012517,0.27882,0.25522,-1.4685458374999998,-9.511469835,1.8831709994999999,-2.4793,1.3248,0.47878,0.0002500000000000835,-0.0019000000000000128,-0.0020399999999999308,0.0015143590362320936,0.004726349288481035,0.004229999267213236
150000000000.0,1,0.48724340525,1.0215587305,-0.20842073245,0.030111,0.2859,0.27663,-1.4997309845,-9.507056842499999,1.8808174034999998,-2.4684,1.323,0.47057,-0.0012900000000000134,-0.0022999999999999687,-0.0017000000000000348,0.0186550367315661,-0.0016553468647126923,-0.008228134617537908
150000000000.0,1,0.5650003331,1.342922651,-0.30687949845,0.078019,0.28762,0.30019,-1.533171661,-9.5013689855,1.882680667,-2.4582,1.3206,0.46293,0.00020999999999993246,-0.0018000000000000238,-0.0022400000000000198,-0.003028877756922288,0.007816104858684003,0.0011173799323596079
150000000000.0,1,0.7044901227,1.7315601905,-0.41727295749999993,0.12169,0.29362,0.32481,-1.5689659335,-9.494308197499999,1.8886627235,-2.4484,1.3177,0.45587,0.00036999999999998145,-0.0018000000000000238,-0.0025199999999999667,-0.0022555102598342813,0.0064672691059242116,0.001321617327239455
150000000000.0,1,0.84263640125,2.0804807975,-0.5312360371499999,0.16216,0.30391,0.35581,-1.6076041344999998,-9.4858744785,1.898371307,-2.4389,1.3143,0.4492,0.00043000000000004146,-0.0022999999999999687,-0.00277000000000005,-0.004767556174491316,0.0015017706792885832,0.0038291800706728996
150000000000.0,1,1.002043497,2.3397686235,-0.63132270705,0.20257,0.30887,0.3911,-1.6496746629999999,-9.475969762,1.9116102844999998,-2.4296,1.3104,0.44274,0.00021999999999999797,-0.0017000000000000348,-0.0025999999999999357,0.003966615865008016,0.005701381428991015,0.0025458073016824123
150000000000.0,1,1.1068765855,2.4352853944999997,-0.69928279155,0.23657,0.30963,0.41997,-1.6947852529999998,-9.4646921145,1.9280854564999999,-2.4205,1.3059,0.43653,-4.999999999999449e-05,-0.0017000000000000348,-0.0023900000000000032,0.003957153775447031,0.005876976664702438,0.0024847096347062614
150000000000.0,1,1.0454869565,2.3779164919999998,-0.7068829452999998,0.25141,0.31055,0.44242,-1.742249439,-9.4523357355,1.9463258255,-2.4115,1.3012,0.43037,-0.00022999999999995246,-0.0020999999999999908,-0.0023600000000000287,0.001281467624102861,0.0029608133714318363,0.002196952909637284
150000000000.0,1,0.9046242358999999,2.1127446759999997,-0.59158616125,0.23432,0.32026,0.46051,-1.7918710879999997,-9.439489023999998,1.9635855294999998,-2.4019,1.2963,0.42374,0.0005499999999999394,-0.0016000000000000458,-0.0020099999999999563,-0.013427620649217209,0.005906019424397391,0.011658410671147257
150000000000.0,1,0.77159702865,1.8114843879999998,-0.44681058729999995,0.18328,0.33242,0.44546,-1.8406101384999998,-9.4274268445,1.976432241,-2.3918,1.2918,0.41661,-0.0005100000000000104,-0.0017000000000000348,-0.0017300000000000093,0.005174953040599561,0.004104582886676145,0.002817726141595145
150000000000.0,1,0.49495143215,1.1427689245,-0.24599981524999998,0.10457,0.35758,0.43781,-1.889153056,-9.416737595999999,1.9816297655,-2.3801,1.2879,0.40814,-0.0005999999999999339,-0.0021999999999999797,-0.0012699999999999934,0.0052471206653337266,0.004435751603102389,0.004670999930920017
150000000000.0,1,0.07146105855,0.08475887594999999,0.0539169617,-0.00837,0.3628,0.41412,-1.9359307765,-9.408205810499998,1.976824507,-2.3666,1.2848,0.39788,-0.0008500000000000174,-0.0018000000000000238,-0.0012699999999999934,0.005200936679305768,0.004258511338244064,0.00175661186479803
150000000000.0,1,-0.22942657674999997,-0.83230019215,0.33238659509999996,-0.15531,0.38003,0.38181,-1.979962635,-9.402910219499999,1.9583880049999998,-2.3507,1.2829,0.38519,-0.0004899999999999904,-0.0020999999999999908,-0.0007600000000000939,0.005356062746121104,0.004517112633158682,0.0033014450849893073
150000000000.0,1,-0.44747743949999996,-1.7445049684999998,0.6924867830999999,-0.30544,0.40899,0.36549,-2.0224254294999997,-9.4007527565,1.9249473284999998,-2.3315,1.2821,0.36935,-0.00036999999999998145,-0.0015999999999998238,-0.0005399999999999849,0.0033297111152876813,0.00425099763461767,0.0008233050592127977
150000000000.0,1,-0.6292142772999999,-2.4851031765,1.030875048,-0.41711,0.44615,0.35456,-2.0643978915,-9.400948889499999,1.879150273,-2.3092,1.2821,0.3507,-8.000000000008001e-05,-0.0021999999999999797,-0.0007699999999999374,0.001007633731833879,0.0028154171949543727,0.003864940043608156
150000000000.0,1,-0.6696176752999999,-2.9464079924999997,1.215043935,-0.47127,0.47218,0.34481,-2.1055858215,-9.4023218205,1.8259001634999998,-2.2852,1.2826,0.33047,2.999999999997449e-05,-0.0020000000000000018,-0.0005700000000000705,-0.002096818652686405,0.0042061669751478625,0.00023279082967730957
150000000000.0,1,-0.6877109445499999,-3.0453570909999996,1.103444258,-0.46478,0.47214,0.32774,-2.1454008205,-9.4036947515,1.771473256,-2.261,1.2831,0.31025,0.0002700000000001035,-0.0020000000000000018,-0.0005999999999999339,9.359899916838721e-05,0.0028103119888014394,0.0031844965285012794
150000000000.0,1,-0.50607217325,-2.6726063245,0.65048490115,-0.4181,0.42702,0.30762,-2.1824699575,-9.404479283499999,1.721067075,-2.2386,1.2834,0.29142,-0.0005500000000000504,-0.0023000000000001908,-0.00043999999999999595,0.01739691728952386,0.004636944486115846,-0.004702411949015994
150000000000.0,1,-0.3989541353,-2.244546052,0.10935395414999999,-0.32661,0.38473,0.29398,-2.2171854985,-9.403988950999999,1.679094613,-2.219,1.2832,0.27513,0.0008500000000000174,-0.0021999999999999797,-0.00038000000000004697,-0.0025558889212877745,0.00185041486584403,0.002795080269880401
150000000000.0,1,-0.2550709665,-1.8076597945,-0.2227090215,-0.19255,0.33248,0.2847,-2.250037776,-9.401341155499999,1.6499688625,-2.2035,1.2823,0.26264,0.0005300000000000304,-0.0023999999999999577,-0.0007300000000000084,-0.002717183094652853,0.006890588964786337,0.00013266782962961798
150000000000.0,1,0.01630845895,-1.314483366,-0.45511681984999997,-0.0405,0.27049,0.29041,-2.281811322,-9.396143631,1.6360434195,-2.1928,1.2804,0.25447,0.0005499999999999394,-0.0027999999999999137,-0.0009399999999999409,-0.006780573048748018,0.004887260457803189,0.00010034167738925959
150000000000.0,1,0.24005698535,-0.9566092875499999,-0.6078357803,0.10192,0.216,0.3142,-2.2993652255,-9.39084804,1.641829343,-2.1909,1.2785,0.25443,0.0007900000000000684,-0.0026000000000001577,-0.0010000000000000009,0.00016095405607208235,0.004839271584635263,0.00036260681986233223
150000000000.0,1,0.48206549405,-0.6218789030999999,-0.6377362561500001,0.21771,0.17665,0.3529,-2.3345710989999997,-9.3797665255,1.6554605864999998,-2.1876,1.2747,0.25295,0.00030999999999992145,-0.0029999999999998916,-0.0007400000000000739,0.0009835042301604702,0.00983336274398039,-0.001974850566715869
150000000000.0,1,0.75433732465,-0.34936190624999997,-0.6478272989999999,0.29715,0.13758,0.40647,-2.3736996324999997,-9.3658410825,1.6782120145,-2.1862,1.2698,0.25304,0.000520000000000076,-0.0033000000000000806,-0.0011099999999999444,-0.005796404673069855,0.005329242769933851,0.0025012703956370785
150000000000.0,1,0.9890006524999999,-0.2252587505,-0.5754051887499999,0.32651,0.10957,0.46635,-2.417927624,-9.349562043499999,1.7055725679999998,-2.1851,1.2643,0.25314,0.00035999999999991594,-0.0029999999999998916,-0.0012199999999999989,0.0019740739091644866,0.0048993676577031575,-0.00017164462102869926
150000000000.0,1,1.109132115,-0.054456327449999994,-0.39930717469999993,0.30802,0.10433,0.52715,-2.460880751,-9.3334791375,1.7321485895,-2.1841,1.2589,0.25305,-2.0000000000020002e-05,-0.0034000000000000696,-0.0015000000000000568,0.0008204354659888669,0.008155710983339448,6.378859001920922e-05
150000000000.0,1,1.2004320265,0.1581420379,-0.16878225315,0.25764,0.10895,0.58256,-2.5156999245,-9.314650369499999,1.7548019509999997,-2.1799,1.2527,0.2497,0.00036000000000002697,-0.0035000000000000586,-0.0016899999999999693,0.002953750029981883,0.005767305795507216,-0.00035160418694779594
150000000000.0,1,1.2948700659999999,0.38986337074999994,0.010924608099999998,0.18489,0.11482,0.63153,-2.575422423,-9.295233202499999,1.7707867904999999,-2.1731,1.2464,0.24381,-0.00017999999999995797,-0.0036999999999998145,-0.0020400000000000418,-0.00048051775440294264,0.010247712969535083,-0.0014717569123838814
150000000000.0,1,1.3436091165,0.65152440605,0.1113054775,0.10361,0.11758,0.67301,-2.639165648,-9.275717969,1.7792205095,-2.164,1.2402,0.23536,9.999999999998899e-05,-0.0038000000000000256,-0.0019099999999999673,0.0011628044213150002,0.006612599708185174,0.0009903155285517773
150000000000.0,1,1.3933288320000001,0.9674260225,0.11647358205,0.017037,0.11613,0.70168,-2.7058508679999997,-9.256496935,1.7796127754999997,-2.1526,1.2342,0.22454,2.0000000000020002e-05,-0.0036000000000000476,-0.0025100000000000122,0.0020975476034659213,0.007631735287519259,-0.0027180592969189288
150000000000.0,1,1.4705071674999999,1.2961449305000001,0.06816602414999999,-0.062041,0.1125,0.72077,-2.7742032184999994,-9.2375701005,1.7723558545,-2.1393,1.2285,0.21169,-0.00021999999999999797,-0.0040999999999999925,-0.00270999999999999,0.005243172325004819,0.0025061760625686436,-0.00037253958132521525
150000000000.0,1,1.5495487665,1.5805377805,0.0026870221,-0.13045,0.10346,0.73134,-2.8433401009999995,-9.2191335985,1.7588226775,-2.1248,1.2229,0.19736,0.00012999999999996348,-0.0037000000000000366,-0.0021799999999999597,0.002042972676883803,0.01009043859643799,-0.00043490005634883033
150000000000.0,1,1.6056428044999997,1.7144966195,-0.05388754175,-0.18288,0.085778,0.73235,-2.9124769834999995,-9.200991296,1.7405823085,-2.1095,1.2175,0.18203,9.99999999995449e-06,-0.0040000000000000036,-0.0023400000000000087,-0.0011772628778863314,0.004040792704370411,-0.004345684512658821
150000000000.0,1,1.6400641459999998,1.7575478129999997,-0.12014126915,-0.22034,0.063721,0.72164,-2.980437068,-9.183241259499999,1.7190076785,-2.094,1.2123,0.16622,0.0002500000000000835,-0.0039000000000000146,-0.0023499999999999632,0.004523080055540918,0.004960719272265823,-0.0014859447147499427
150000000000.0,1,1.6829192065,1.7195960774999999,-0.16118209939999997,-0.24401,0.026641,0.70139,-3.04594549,-9.1659815555,1.6960601174999999,-2.0789,1.2073,0.15045,0.00034999999999996145,-0.0040999999999999925,-0.0025800000000000267,-0.0037515152100966453,0.0026808833464693205,-0.0033907312108070187
150000000000.0,1,1.6423196755,1.4836480785,-0.1919749804,-0.25696,-0.012644,0.66728,-3.1080215845,-9.149408316999999,1.6729164234999998,-2.0646,1.2026,0.13514,-0.00019999999999997797,-0.0041999999999999815,-0.0023300000000000542,0.001150119708689168,0.0019304216111346584,-0.004205684135636822
150000000000.0,1,1.5275818705,1.163264823,-0.1742641705,-0.26443,-0.048754,0.61076,-3.164409822,-9.1342080095,1.6501649955,-2.0515,1.1983,0.12064,0.00029999999999996696,-0.0042999999999999705,-0.0019799999999999818,0.00444100300806749,0.004626190740747882,-0.0017757908674900236
150000000000.0,1,1.3853854455,0.6562610179999999,-0.09617381654999999,-0.26125,-0.090272,0.54679,-3.2147179364999996,-9.1204786995,1.6285903654999998,-2.0397,1.1945,0.10717,6.0000000000060005e-05,-0.0044999999999999485,-0.0019500000000000073,0.0027538769059658463,0.0008059156827162628,0.0002709032148660029
150000000000.0,1,1.2336765699999999,0.045306723,-0.01707337765,-0.24625,-0.12975,0.47214,-3.243255288,-9.1136140445,1.61025193,-2.0316,1.1926,0.09689,2.999999999997449e-05,-0.0046000000000001595,-0.0015999999999999348,0.00010422483561844942,-0.0013218994852606247,-0.0044733241235883625
150000000000.0,1,1.124038223,-0.5936161378,0.05792788155,-0.21956,-0.17252,0.39861,-3.2788534274999996,-9.1036112615,1.5948554894999998,-2.0235,1.1899,0.08641,0.00019999999999997797,-0.0045999999999999375,-0.0012300000000000644,0.0021002607079443347,0.0028571167400934794,-0.000841569522048724
150000000000.0,1,1.0197935335,-1.2045508194999999,0.10519593455,-0.19714,-0.21844,0.32294,-3.3067043134999996,-9.0955698085,1.583185576,-2.0173,1.1877,0.077511,0.0002300000000000635,-0.004999999999999893,-0.0010700000000000154,-0.0011577656026049432,-0.0007189108229810337,-0.004206702892473935
150000000000.0,1,0.9777426183,-1.6052505385,0.11095243809999998,-0.17464,-0.25159,0.25046,-3.327200212,-9.089587752,1.5748499235,-2.0129,1.186,0.070091,0.00025999999999992696,-0.0052000000000000934,-0.0007499999999999174,-0.005628931653679725,-0.0013767856508890564,-0.0066822584818835296
150000000000.0,1,0.9684459140999999,-1.907981824,0.13847970464999998,-0.15747,-0.28043,0.18436,-3.341125655,-9.0853708925,1.5693581994999999,-2.0099,1.1849,0.06392,0.00019000000000002348,-0.0052000000000000934,-0.0007099999999999884,0.00013018425962219027,-0.0025745802172234544,-0.004423466259109166
150000000000.0,1,0.9998860339999999,-2.2579811625,0.20640056254999997,-0.13289,-0.31041,0.12788,-3.3491671079999996,-9.08291923,1.5666123374999998,-2.0083,1.1842,0.05894,0.0005600000000000049,-0.005499999999999838,-0.00031000000000003247,-0.0018885004952102769,-0.0008995209987685548,-0.004784388846631682
150000000000.0,1,1.003024162,-2.58111028,0.29827906639999996,-0.11154,-0.33505,0.087401,-3.3528936349999996,-9.0814482325,1.5670046034999998,-2.008,1.1838,0.055009,0.00041000000000002146,-0.005630000000000024,7.500000000004725e-05,0.001234308966543196,0.0012126716328066944,-0.00657711066851574
150000000000.0,1,1.0057700239999998,-2.8449091650000002,0.38195921084999995,-0.092379,-0.36075,0.054391,-3.3529917014999997,-9.0809579,1.5700446649999997,-2.0087,1.1837,0.051994,5.999999999994898e-05,-0.006020000000000025,7.499999999993623e-05,-8.145543950521805e-05,-0.0021565772984386555,-0.0020931998393549645
150000000000.0,1,1.0160670065,-3.0091705525,0.4699935079,-0.079574,-0.37788,0.02669,-3.3500497065,-9.0810559665,1.5752421895,-2.0103,1.1837,0.049673,0.00019000000000002348,-0.006229999999999958,0.0007000000000000339,0.0018728316076677132,0.0008274524644504844,-0.0005825600918418772
150000000000.0,1,0.997924704,-3.13420534,0.5629115166499999,-0.07104,-0.38859,0.009646,-3.3451463815,-9.081840498499998,1.5815184455,-2.0124,1.1839,0.047773,0.00010999999999994348,-0.006530000000000036,0.0005399999999999849,-0.006790337571475291,-0.0038892812346638106,-0.00881858185063411
150000000000.0,1,0.9815475985,-3.202459624,0.6489158371499999,-0.061415,-0.39185,6.2e-05,-3.3390662585,-9.082821163499998,1.5887753664999997,-2.0149,1.1842,0.046205,0.00017000000000000348,-0.006500000000000061,0.0011099999999999444,0.0012292105445301793,0.0003300954383900212,-0.0023245935417559593
150000000000.0,1,1.0048874255,-3.1623504254999997,0.69249658975,-0.045444,-0.40263,-0.010566,-3.3320054705,-9.083801828499999,1.5976013514999998,-2.0179,1.1845,0.045105,0.0006099999999999994,-0.006929999999999992,0.0016300000000000203,-0.004984600529988503,0.0011487214737149198,-0.009351449691131775
150000000000.0,1,1.0423488285,-3.1243986899999996,0.70481374215,-0.019881,-0.41136,-0.015843,-3.323865951,-9.0847824935,1.6087809325,-2.0216,1.1847,0.044659,1.0000000000065512e-05,-0.006989999999999941,0.0015100000000000113,0.00025372360627495816,-0.0009218940362960559,-0.000184852227487875
150000000000.0,1,1.0358764395,-3.250904475,0.7641145547,-0.001871,-0.42536,-0.012585,-3.3159225644999997,-9.0853708925,1.6223141094999998,-2.0258,1.1849,0.044691,-7.00000000000145e-05,-0.007460000000000022,0.0018599999999999728,0.00026027666464112365,-0.0008441309226816518,-0.002613469110309685
150000000000.0,1,1.04735022,-3.3318093374999997,0.82478829825,0.00871,-0.43504,-0.010415,-3.3078811115,-9.0855670255,1.6373182839999998,-2.0304,1.1849,0.04499,0.00031000000000003247,-0.007489999999999997,0.0022100000000000453,0.00039481944263508595,-0.0003586071092822607,-0.006293756184522437
150000000000.0,1,1.0264620555,-3.3090579095,0.89880889245,0.011901,-0.43294,-0.005076,-3.3002319245,-9.0855670255,1.652812791,-2.0351,1.1849,0.045365,-2.0000000000020002e-05,-0.007669999999999955,0.00264999999999993,-0.0038124155693652906,0.0008661009247341589,-0.0012800651971114352
150000000000.0,1,1.017341871,-3.3136670349999995,1.0119482135,0.007658,-0.42652,0.000242,-3.292876937,-9.085468958999998,1.6677188989999998,-2.0396,1.1849,0.045607,0.00015999999999993797,-0.007929999999999993,0.002930000000000099,0.0017729084770707892,0.0009731969092263704,-0.007269751918094425
150000000000.0,1,1.0107714154999998,-3.3043507175,1.093049209,-0.005081,-0.41576,0.004471,-3.286208415,-9.0853708925,1.6814482089999998,-2.0437,1.1849,0.045534,-0.00034999999999996145,-0.008180000000000076,0.002789999999999959,-0.004741246265008714,-0.0019118487038567444,0.0016114187811153702
150000000000.0,1,0.9823321304999999,-3.2706158414999997,1.1431611904999999,-0.019918,-0.40392,0.003357,-3.2796379595,-9.0855670255,1.693216189,-2.0474,1.1849,0.045078,4.999999999999449e-05,-0.008529999999999927,0.0033799999999999386,-0.00017761634434521056,-0.0008233286970402709,-0.0067458098029709035
150000000000.0,1,0.92148186725,-3.2835606194999998,1.160126695,-0.022992,-0.39004,0.000125,-3.2730675039999997,-9.085861224999999,1.7041015705,-2.0508,1.185,0.044538,0.00021999999999999797,-0.008420000000000094,0.003110000000000057,-0.006402196030520058,-0.0025197132632370778,-0.004921423922786827
150000000000.0,1,0.84508806375,-3.2833644864999996,1.1478683825,-0.015428,-0.37944,-0.002015,-3.2663989819999997,-9.086253490999999,1.7148888855,-2.0543,1.1851,0.044117,-0.0007399999999999629,-0.008849999999999913,0.003290000000000015,0.002252313174911702,-0.0002660976911594837,0.0005033718581497482
150000000000.0,1,0.82002226635,-3.1759816689999996,1.088734283,-0.002544,-0.37208,-0.006276,-3.259534327,-9.0865476905,1.7265587989999998,-2.0579,1.1852,0.044033,0.00041999999999997595,-0.008740000000000081,0.003410000000000024,-0.007025558784870434,-0.0005732606499457837,-0.0051130220358439615
150000000000.0,1,0.8644856174499999,-2.9017877349999996,1.000082167,0.016804,-0.35945,-0.014804,-3.252081273,-9.086743823499999,1.739503577,-2.0619,1.1852,0.04446,0.00022999999999995246,-0.008660000000000001,0.003209999999999935,0.00915304964010688,0.00018528662722139266,-0.012317447736915677
150000000000.0,1,0.8968769823999999,-2.6300454634999997,0.9062619464499999,0.047884,-0.34478,-0.019045,-3.244432086,-9.086645757,1.7543116184999998,-2.0665,1.1852,0.045595,-6.999999999990347e-05,-0.009199999999999986,0.003369999999999984,-0.004236283879528235,-0.00041725362780420383,-0.0013839796161303486
150000000000.0,1,0.9442234885999999,-2.2966193635,0.7856107314999999,0.084207,-0.34081,-0.022191,-3.2363906329999996,-9.085959291499998,1.772257788,-2.0718,1.185,0.047639,-4.0000000000040004e-05,-0.009159999999999946,0.00279000000000007,-0.0007702635273703073,0.0002867372751178543,-0.0031641468132028727
150000000000.0,1,1.0669635199999998,-1.774807517,0.62253594865,0.12372,-0.33794,-0.024263,-3.2281530469999997,-9.084684427,1.793636285,-2.078,1.1847,0.050612,-2.0000000000020002e-05,-0.00945000000000007,0.002589999999999981,-0.005560834976135132,-0.0005735905309007805,-0.001330579017679634
150000000000.0,1,1.1724830739999998,-1.162480291,0.50654289245,0.15153,-0.32645,-0.019965,-3.220307727,-9.082821163499998,1.8174664445,-2.0846,1.1842,0.054255,-0.000260000000000038,-0.009599999999999942,0.0019500000000000073,-0.0035286322365286615,-0.0011093476679011616,-0.0032629372453731875
150000000000.0,1,1.26701918,-0.4634818923,0.37560450165,0.17509,-0.31708,-0.017909,-3.164409822,-9.094491076999999,1.8566930444999998,-2.1014,1.1873,0.067427,9.00000000000345e-05,-0.009830000000000005,0.0023900000000000032,-0.007150595891336264,0.0007332024789306057,-0.0007618392089312476
150000000000.0,1,1.4351051609999999,0.24356776605,0.25258988405,0.19003,-0.30763,-0.002956,-3.1580354994999995,-9.091156816,1.883465199,-2.1086,1.1864,0.071815,-0.00017000000000000348,-0.009489999999999998,0.0011700000000000044,0.0036867111740210845,0.0012195926202569485,-0.002315978245840178
150000000000.0,1,1.6233928409999998,1.0649041235,0.07366755479999999,0.20292,-0.29814,-0.006152,-3.1517592435,-9.087626422,1.911119952,-2.1159,1.1855,0.076442,-0.0006300000000000194,-0.010190000000000032,0.0012799999999999478,-0.01657030079245203,-0.005089162504126721,0.0007449401605388317
150000000000.0,1,1.8649306305,1.73969971,-0.08196398070000001,0.22646,-0.28023,0.0088,-3.146757852,-9.083213429499999,1.9401476359999998,-2.1233,1.1843,0.081382,0.00012000000000000899,-0.00988,0.0012300000000000644,-0.002989268455721561,-0.00020400362478634193,-0.003553846772607283
150000000000.0,1,1.867578426,2.1554036035,-0.22500377759999998,0.24987,-0.28044,0.022718,-3.143031325,-9.077819772,1.97113665,-2.1309,1.1828,0.086593,-0.00012000000000000899,-0.009780000000000011,0.0006299999999999084,-0.002190883275238642,-0.000884853375769934,0.00043425468840596615
150000000000.0,1,1.9758438419999997,2.6008216465,-0.44057355789999997,0.26265,-0.28268,0.022744,-3.1395009309999997,-9.071935781999999,2.003498595,-2.1388,1.1812,0.092062,-0.00034000000000000696,-0.010319999999999996,0.0007600000000000939,-0.0037671124888463137,-0.001630493625623064,-0.00459620953536688
150000000000.0,1,2.050570515,2.928069557,-0.6122487728,0.27332,-0.28383,0.021697,-3.1357744039999997,-9.065757592499999,2.0371354045,-2.1469,1.1796,0.097761,-0.00017000000000000348,-0.009689999999999976,0.0009099999999999664,0.00043567767456909046,-0.0008891648456961221,-0.0009690642344788447
150000000000.0,1,1.9992817354999999,2.9545475119999995,-0.6365398448499999,0.28396,-0.29137,0.015324,-3.1313614114999995,-9.05938327,2.071752879,-2.1553,1.1779,0.1037,-0.00023999999999990695,-0.010299999999999976,0.0006399999999999739,-0.003783002561290605,-0.004425075289059777,-0.0031563470312101494
150000000000.0,1,1.8317841535,2.6505413620000002,-0.5756699683,0.27445,-0.29765,-0.013501,-3.124594823,-9.0537934795,2.1061742205,-2.1639,1.1764,0.10979,-0.000540000000000096,-0.010020000000000029,0.0009600000000000719,0.002801482151181256,-0.004411179874440174,-0.0040485206993914336
150000000000.0,1,1.6261387029999999,2.1795279625,-0.4371314237499999,0.24897,-0.30912,-0.057288,-3.1141017074999997,-9.0496746865,2.1391245645,-2.1727,1.1753,0.11598,-0.0005899999999999794,-0.010000000000000009,0.0011099999999999444,-0.0020724519298835897,-0.004925331914615416,-0.001402184118145522
150000000000.0,1,1.3743039309999998,1.536309789,-0.2599939048,0.20335,-0.31082,-0.11287,-3.0984110675,-9.0481056225,2.1683483815,-2.1814,1.1749,0.12207,-0.0009199999999999209,-0.010059999999999958,0.0012600000000000389,0.004170445577898141,-0.0047049585781269165,-0.002438167765302479
150000000000.0,1,1.0976583345,0.8252688241,-0.040795663999999995,0.14285,-0.31345,-0.17915,-3.0770325704999997,-9.0496746865,2.1922766074999998,-2.1898,1.1753,0.12783,-0.0008200000000000429,-0.010460000000000025,0.0012699999999999934,0.001451060277891214,-0.006335991817927322,-0.003052195156658888
150000000000.0,1,0.84200877565,0.23109370724999997,0.13381173924999998,0.077035,-0.32028,-0.25824,-3.0483971524999998,-9.054872211,2.2104189099999996,-2.1982,1.1767,0.13341,-0.0009900000000000464,-0.010059999999999958,0.0013699999999999823,0.0025794048913914125,-0.007711626479800948,-0.0014774988415524604
150000000000.0,1,0.6325681516,-0.25383532859999997,0.29071813925,0.002782,-0.32065,-0.34589,-3.0119164145,-9.064286595,2.2221868899999997,-2.2064,1.1792,0.13886,-0.0010299999999999754,-0.010260000000000047,0.0013499999999999623,0.0026747485377749403,-0.00624322164723945,-0.00245698942320538
150000000000.0,1,0.41781232324999995,-0.7387937844,0.43707258385,-0.084302,-0.31878,-0.42402,-2.9441524629999996,-9.0851747595,2.2273844145,-2.2185,1.1848,0.14778,-0.0013499999999999623,-0.010199999999999987,0.0013900000000000023,0.004675121330016685,-0.007153868224911486,-0.0011257960732169447
150000000000.0,1,0.25898381984999996,-1.0666693205,0.5384831514999999,-0.17879,-0.30727,-0.49892,-2.8935501489999997,-9.1026305965,2.2224810895,-2.2258,1.1896,0.15229,-0.0012300000000000644,-0.010280000000000067,0.0010799999999999699,0.005013510482611894,-0.006332465333956483,0.0008963942235113986
150000000000.0,1,0.2120786129,-1.0913820785,0.59421434345,-0.27752,-0.28827,-0.56957,-2.8365735125,-9.12410716,2.207869181,-2.2322,1.1955,0.15603,-0.0012599999999999278,-0.010479999999999934,0.0009000000000000119,0.00022185059170554133,-0.008953200098073877,-0.0037157444409510187
150000000000.0,1,0.27418412735,-0.81158854735,0.58923256525,-0.36132,-0.26301,-0.6274,-2.7744974179999997,-9.1489179845,2.184137088,-2.2377,1.2025,0.15904,-0.0010999999999999899,-0.010360000000000036,0.0008100000000000884,0.004976868436581405,-0.005752149756432567,0.0013049900845860662
150000000000.0,1,0.37732066540000003,-0.2959058571,0.49379424745,-0.41542,-0.24867,-0.66702,-2.7086947965,-9.175690139,2.1540306725,-2.2426,1.2101,0.16162,-0.0012500000000000844,-0.010359999999999925,0.00030999999999992145,0.002352180791993508,-0.009446761679596127,-0.0016447717418945906
150000000000.0,1,0.52619541905,0.30076014884999996,0.3088898617,-0.43978,-0.24525,-0.69589,-2.638969515,-9.2036390915,2.121374528,-2.2479,1.2183,0.16458,-0.0008199999999999319,-0.010630000000000028,0.000260000000000038,-2.2670126471613372e-05,-0.007599608849841344,0.0011460767402047267
150000000000.0,1,0.685484835,0.8684671173499999,0.0776882813,-0.45033,-0.24194,-0.71512,-2.5682635685,-9.231588043999999,2.0863647875,-2.253,1.2266,0.16746,-0.001060000000000061,-0.01053000000000004,-6.0000000000060005e-05,0.00562281893845773,-0.006943035343319526,-0.0012207360074816265
150000000000.0,1,0.75268980745,1.3376270599999998,-0.13161504965,-0.44493,-0.23984,-0.72579,-2.4962827575,-9.2591447305,2.051158914,-2.2586,1.2351,0.17082,-0.0012099999999999334,-0.010639999999999983,-0.00024999999999997247,-0.0022575152325441383,-0.010101194331475272,-0.002002628147067531
150000000000.0,1,0.78283544955,1.7127314224999999,-0.29850461935,-0.42458,-0.23574,-0.7343,-2.423419348,-9.285916884999999,2.0171298385,-2.2649,1.2435,0.17499,-0.0009400000000000519,-0.010700000000000043,-0.00046999999999997044,0.002876278046419989,-0.006187752741596331,0.0005165207336939037
150000000000.0,1,0.7849144593499999,1.9989875359999998,-0.40061145914999996,-0.3872,-0.23391,-0.73958,-2.3501636725,-9.3115122415,1.9857485584999999,-2.2723,1.2517,0.18033,-0.0005899999999999794,-0.010660000000000003,-0.0005899999999999794,0.0014943307975880948,-0.00842142473066998,-0.0017691730283080354
150000000000.0,1,0.7695180188499999,2.1459892194999997,-0.47103301279999993,-0.33705,-0.2322,-0.73736,-2.2767118639999997,-9.335538534,1.9583880049999998,-2.2812,1.2596,0.18718,-0.0006300000000000194,-0.010679999999999912,-0.0006900000000000794,0.0016760979863801317,-0.005735780117581246,-0.0008666448242560243
150000000000.0,1,0.7285850617499999,2.1401052295,-0.5146137654,-0.27418,-0.23805,-0.73084,-2.203554255,-9.3576034965,1.9365191755,-2.2918,1.267,0.1958,-0.0008899999999999464,-0.010770000000000057,-0.0009799999999999809,-0.0012417578514307692,-0.007608156569659741,-0.0014576704485933512
150000000000.0,1,0.6594579858999999,2.0259558235,-0.52827442885,-0.20921,-0.24818,-0.72323,-2.1308869785,-9.377707129,1.9206324025,-2.3044,1.2739,0.2064,-0.0006599999999999939,-0.010630000000000028,-0.0010199999999999099,-0.00013188393063989778,-0.007078057548314032,-0.0004886361346385648
150000000000.0,1,0.54088578075,1.8541433154999998,-0.49429438659999997,-0.15381,-0.25291,-0.71459,-2.0587100345,-9.395947498,1.91033542,-2.3188,1.2803,0.21887,-0.0009400000000000519,-0.010949999999999904,-0.0010100000000000664,0.0036204588869275245,-0.005416257109506661,-0.0022811130962268056
150000000000.0,1,0.41163413374999996,1.6304536289999998,-0.4257655164,-0.10802,-0.25649,-0.70276,-1.9873176224999998,-9.41242267,1.9043533634999998,-2.3349,1.2863,0.23292,-0.00046999999999997044,-0.010870000000000046,-0.0011099999999999444,-0.004733847575745909,-0.008337222621055407,-0.0015118472603492528
150000000000.0,1,0.2603469442,1.4257888435,-0.3123810291,-0.073884,-0.25252,-0.69524,-1.9167097425,-9.4276229775,1.901705568,-2.3523,1.2919,0.24838,-0.0005100000000000104,-0.010750000000000037,-0.0012699999999999934,-0.001810451125771273,-0.006610428260773515,0.002123526079799376
150000000000.0,1,0.15682794679999998,1.281729155,-0.2085286056,-0.044014,-0.24638,-0.68452,-1.846984461,-9.4415484205,1.9015094349999997,-2.3707,1.2971,0.26501,-0.0007800000000000029,-0.010869999999999935,-0.0014000000000000679,-0.0026721572068133526,-0.00658559900136324,-0.0009601055448196227
150000000000.0,1,0.05141626595,1.0901072139999999,-0.11714043425,-0.019491,-0.23914,-0.66955,-1.7787301770000001,-9.454297065499999,1.9034707649999998,-2.3901,1.3019,0.28258,-0.0007899999999999574,-0.010850000000000026,-0.0014899999999999913,-0.000747408045108422,-0.005528538199371713,-0.000438526439170861
150000000000.0,1,-0.05451516734999999,0.87901907275,-0.0750012592,0.001846,-0.22868,-0.65245,-1.7121430235,-9.4658689125,1.9071972919999998,-2.41,1.3064,0.30087,-0.00031000000000003247,-0.011110000000000009,-0.0013600000000000279,-0.003965842092798821,-0.003097838584121826,0.0011157051784611571
150000000000.0,1,-0.13505718379999998,0.7430890970999999,-0.06991160785,0.025325,-0.21717,-0.63536,-1.6473210669999998,-9.476263961499999,1.9125909495,-2.4306,1.3105,0.31986,-0.00041999999999997595,-0.010709999999999997,-0.0018899999999999473,0.002424354779589688,-0.007317780218911496,-0.002123709624882064
150000000000.0,1,-0.2080186598,0.6954680046999999,-0.06338037895,0.052002,-0.20143,-0.61079,-1.5847546399999999,-9.4852860795,1.9202401365,-2.4516,1.3141,0.3395,-0.0006300000000000194,-0.01100000000000001,-0.0017500000000000293,-0.0027016290511969743,-0.004612259161551835,-3.0307882333158176e-05
150000000000.0,1,-0.21541287389999997,0.7275161368999999,-0.10542148749999998,0.08397,-0.18787,-0.58086,-1.5278760699999998,-9.4925430005,1.9307332519999998,-2.4721,1.317,0.35879,-0.00024000000000001798,-0.011369999999999991,-0.0020700000000000163,-0.006562912425468692,-0.003634117135571824,-0.0005062824800177168
150000000000.0,1,-0.20914642455,0.8187866284499999,-0.17184192795,0.12337,-0.17545,-0.54452,-1.4716839655,-9.4986231235,1.9441683625,-2.4936,1.3195,0.37912,-0.00021999999999999797,-0.010929999999999995,-0.0022900000000000142,-0.0009558670450338091,-0.0024369035791804716,-0.0013051722755128559
150000000000.0,1,-0.1930733252,0.93964378305,-0.2539333951,0.16595,-0.16305,-0.50604,-1.419414521,-9.503134182499998,1.96133,-2.5151,1.3213,0.39959,-0.00019000000000002348,-0.011089999999999989,-0.0023099999999999232,-0.00384142064755455,-0.0037061431020881663,0.0010491241830470344
150000000000.0,1,-0.17693157929999997,1.057941402,-0.34426244824999996,0.21274,-0.15389,-0.46115,-1.3713619359999998,-9.5056839115,1.9826104304999999,-2.5365,1.3224,0.42,-0.00010999999999994348,-0.011170000000000013,-0.0024500000000000632,-0.004831340123509831,-0.0016082851215644123,0.0019125091067662137
150000000000.0,1,-0.1741072641,1.1423766585,-0.39576697404999994,0.26385,-0.13944,-0.41626,-1.3279184765,-9.5064684435,2.00840192,-2.5574,1.3227,0.44011,0.00015999999999993797,-0.011220000000000008,-0.002549999999999941,-0.007969580814344734,-0.0017261955680967223,-0.00016200510983299665
150000000000.0,1,-0.17688254605,1.2539763355,-0.4765247368,0.3149,-0.13032,-0.36815,-1.2890841425000001,-9.505389712,2.0389006015,-2.5778,1.3223,0.45978,-0.00017000000000000348,-0.011069999999999969,-0.002690000000000081,-0.0037705857151650868,-0.002740831960205581,-0.0008044500615635997
150000000000.0,1,-0.17949111494999997,1.359397823,-0.55220265485,0.36279,-0.11691,-0.32326,-1.2547608675,-9.5023496505,2.073910342,-2.5975,1.321,0.47885,-4.999999999999449e-05,-0.011220000000000008,-0.0026999999999999247,-0.0034509436967480323,-0.0008658905963012664,0.0013429304239604978
150000000000.0,1,-0.18945467135,1.3757749284999998,-0.60133397135,0.40531,-0.10878,-0.27837,-1.2249486514999999,-9.4976424585,2.1128427425,-2.6162,1.3191,0.49703,0.000180000000000069,-0.011319999999999997,-0.0024399999999999977,-0.009606924393427141,-0.0008931326186920607,0.0006626767002881895
150000000000.0,1,-0.2423419348,1.2751586995,-0.61229780605,0.43934,-0.099511,-0.2399,-1.198961029,-9.491464269,2.1552074704999997,-2.6339,1.3166,0.51427,-0.000140000000000029,-0.01100000000000001,-0.0024500000000000632,0.0037605625804590925,-0.0007151087981283055,-0.001357989295110107
150000000000.0,1,-0.33793715899999993,1.0111636814999998,-0.5746304634,0.46593,-0.083788,-0.19932,-1.1771902659999998,-9.4839131485,2.199827728,-2.6503,1.3136,0.53024,-9.00000000000345e-05,-0.011360000000000037,-0.0023099999999999232,-0.005125033778651922,7.814264223382494e-05,0.0001808220289412077
150000000000.0,1,-0.42523595729999997,0.64283571415,-0.5051601548,0.48188,-0.069038,-0.16409,-1.1591460299999998,-9.475381362999999,2.2460170495,-2.6652,1.3101,0.54493,0.00045000000000006146,-0.01154999999999995,-0.0018400000000000638,-0.008374268865471102,0.002253516912462672,0.003291088856506086
150000000000.0,1,-0.51146583075,0.15318967965,-0.41165374704999996,0.49141,-0.049982,-0.11928,-1.1455147865,-9.465770846,2.2930889695,-2.6783,1.3063,0.55798,-0.0001100000000000545,-0.010770000000000002,-0.0016699999999999493,0.001225541974936517,-0.00014015304405479156,-0.00020324350622602516
150000000000.0,1,-0.5738067048,-0.37401582434999997,-0.30227037295,0.48492,-0.028657,-0.072332,-1.1545369045,-9.456258395499999,2.327314178,-2.6811,1.3027,0.56111,1.0000000000065512e-05,-0.011140000000000039,-0.0016399999999999748,-0.0019525452551500955,-0.001225582877806719,6.243580752052225e-05
150000000000.0,1,-0.61129752775,-0.8389785208,-0.20065386564999999,0.46787,0.001274,-0.027583,-1.150712311,-9.445569147,2.372032502,-2.6899,1.2986,0.57021,0.00030999999999992145,-0.011179999999999968,-0.0007700000000000484,-0.00803653728830489,0.0014556573455297706,0.0033933391652747336
150000000000.0,1,-0.65866364725,-1.3167388955,-0.08569050769999999,0.44654,0.032302,0.020358,-1.1520852419999998,-9.434683765499999,2.4144952965,-2.6964,1.2945,0.57717,0.00019000000000002348,-0.010660000000000003,-0.0006599999999999939,-0.0021922556190725473,-0.0025702883326954584,0.0016524500695673794
150000000000.0,1,-0.74386382245,-1.8309996214999997,0.02701732075,0.43375,0.063263,0.06618,-1.1587537639999999,-9.4233080515,2.455192894,-2.7006,1.2903,0.58217,-0.00012000000000000899,-0.010860000000000036,-0.00024000000000001798,0.000685542242455206,0.00392969039225588,0.0013182214510640833
150000000000.0,1,-0.8390765872999999,-2.2901469745,0.0953598646,0.41565,0.085759,0.094929,-1.1692468795,-9.4119323375,2.493831095,-2.7032,1.2861,0.58567,-2.0000000000020002e-05,-0.01096999999999998,0.00024999999999997247,0.0002857069107273791,-0.001713870755732927,0.001764822510841535
150000000000.0,1,-0.9742514509,-2.7094793284999996,0.1262311988,0.38908,0.10728,0.10872,-1.181701325,-9.4007527565,2.5298215004999998,-2.7046,1.2821,0.58822,0.000140000000000029,-0.010649999999999993,0.0010200000000000209,-0.004650766127699324,-0.0019865214821637167,0.0025927118823467765
150000000000.0,1,-1.166795217,-3.1848076539999997,0.1821291038,0.34973,0.12146,0.10543,-1.194842236,-9.390259640999998,2.5623795785,-2.7053,1.2783,0.59015,-0.00017000000000000348,-0.010419999999999985,0.0013400000000000079,0.003280539068957644,0.0019082420731606486,0.001596830843215713
150000000000.0,1,-1.3837183149999999,-3.6285585664999997,0.2781950472,0.29341,0.1358,0.083955,-1.2067082825,-9.381237523,2.5897401319999998,-2.7056,1.2752,0.59181,-0.00032999999999994145,-0.010480000000000045,0.0017000000000000348,0.001644525599854063,-0.0016203374644288004,0.0045861938481257525
150000000000.0,1,-1.5738692584999998,-3.9296227215,0.4158215733,0.21266,0.15462,0.045355,-1.2159265335,-9.3744709345,2.6098437644999994,-2.7056,1.2728,0.59341,-0.00036000000000002697,-0.01046999999999998,0.0019399999999999418,0.0036681415776511628,0.0016981506385538303,0.002082898202292238
150000000000.0,1,-1.7127314224999999,-4.1531162749999995,0.5949694555,0.11604,0.1821,-0.003961,-1.221320191,-9.370646340999999,2.6210233455,-2.7055,1.2715,0.5952,-0.00026999999999999247,-0.009959999999999997,0.0023400000000000087,0.004750122259113976,0.001675014714386025,0.006053661884942052
150000000000.0,1,-1.8247233655,-4.3701374395,0.7903669567499999,0.006561,0.21607,-0.034098,-1.2239679865,-9.370057941999999,2.6218078774999998,-2.7048,1.2713,0.5966,-0.0005100000000000104,-0.010660000000000003,0.0019000000000000128,0.005345381770020641,0.0007985666371268518,0.0027017038107470803
150000000000.0,1,-1.9494639534999998,-4.48752304,0.9539222654499999,-0.11358,0.25651,-0.054658,-1.22583125,-9.372803804,2.6110205625,-2.7027,1.2722,0.59692,-0.0001100000000000545,-0.010280000000000011,0.0020999999999999908,-0.0015761162223610903,-0.001636349887655264,0.005117903943075763
150000000000.0,1,-1.8782676745,-4.201561126,1.0239123264999999,-0.22931,0.31502,-0.073108,-1.2272041809999998,-9.378981993499998,2.588367201,-2.6989,1.2744,0.59609,-0.00039999999999995595,-0.01060999999999998,0.0014199999999999768,0.004592421322439533,0.0008922188912126039,0.00397193827417186
150000000000.0,1,-1.5610225469999999,-3.3318093374999997,0.92813077595,-0.29401,0.36032,-0.078637,-1.228773245,-9.3872195795,2.5575743199999996,-2.6937,1.2773,0.59435,7.00000000000145e-05,-0.010310000000000014,0.0017500000000000293,0.0050918231385894686,0.0017724226593056613,0.0021976486784951454
150000000000.0,1,-1.2069044155,-2.208261447,0.6417667893,-0.32042,0.39676,-0.072343,-1.2316171735,-9.396143631,2.523054912,-2.6875,1.2804,0.59191,0.00010999999999994348,-0.010449999999999987,0.0014500000000000624,0.0017200974109257139,0.0031895125954894965,0.002322170195132589
150000000000.0,1,-0.8064400560999999,-1.0913820785,0.22581772954999998,-0.33313,0.42029,-0.053193,-1.2365204985,-9.405165749,2.48696644,-2.6802,1.2836,0.58862,0.00021999999999999797,-0.010319999999999996,0.0004999999999999449,0.0008589903027296231,0.001215070312202693,0.005154819257622734
150000000000.0,1,-0.45177275219999996,-0.0030400615,-0.22367987984999999,-0.32778,0.43939,-0.026532,-1.2441696855,-9.413697534499999,2.4505837685,-2.6718,1.2867,0.58442,0.000520000000000076,-0.010470000000000007,0.0006700000000000594,-0.004810494458402204,-0.0006432645798366554,0.004237438577742392
150000000000.0,1,-0.18963119104999998,0.996944039,-0.6070120217,-0.30427,0.45836,-0.003042,-1.2545647344999997,-9.421346721499999,2.415574028,-2.6626,1.2895,0.57956,0.00040999999999991044,-0.010349999999999998,0.00023999999999990695,0.0005798038078272949,0.0010516076802360441,0.004530791916989463
150000000000.0,1,0.051023999949999996,1.8837593985,-0.8973967348499999,-0.2584,0.46968,0.016231,-1.266823047,-9.427721044,2.3838985485,-2.6531,1.2919,0.5746,0.0006700000000000594,-0.010200000000000015,-0.00023499999999998522,0.001333777851646678,0.002223937054708802,0.002993491504867718
150000000000.0,1,0.2016443373,2.5697345659999997,-1.096187337,-0.18701,0.46695,0.031303,-1.2806504235,-9.432330169499998,2.3584012585,-2.6441,1.2936,0.57012,0.0010499999999999954,-0.009639999999999982,-0.00023499999999998522,0.006766928913040315,0.00909688991081814,0.008903599658024008
150000000000.0,1,0.268898343,2.9588624379999997,-1.240933491,-0.092246,0.45017,0.043238,-1.295066199,-9.434585699,2.341435754,-2.6363,1.2944,0.56678,0.0010299999999999754,-0.010110000000000008,0.00021999999999999797,-0.0032163147741111064,-0.0003517279418689956,0.0013089408400739355
150000000000.0,1,0.23601664555000001,3.0121125474999997,-1.3342927989999998,0.013197,0.42267,0.035998,-1.3087955089999999,-9.434389566,2.3344730325,-2.6306,1.2944,0.56533,0.0006399999999999739,-0.010289999999999994,-0.00036000000000002697,-0.0044160828056099,-0.0022083800314658397,0.005698416861354083
150000000000.0,1,0.04327674645,2.7065373335,-1.3544944979999998,0.11542,0.38242,0.012763,-1.3198770234999997,-9.4319379035,2.3379053599999997,-2.6277,1.2935,0.56633,0.0007300000000000084,-0.009771000000000002,0.0009000000000000119,-0.002595766880023609,-0.0024462856003593103,-0.0015353850180737094
150000000000.0,1,-0.2205711718,2.058808101,-1.2500536755,0.19209,0.34134,-0.023324,-1.326839745,-9.428015243499999,2.349869473,-2.6276,1.292,0.56989,0.00040000000000006697,-0.00969600000000001,0.0009700000000000264,0.001843424282916839,-0.0018996240150856991,0.0018598036215595748
150000000000.0,1,-0.45388118194999993,1.2864363469999998,-1.0037106274999998,0.23045,0.31016,-0.062696,-1.329389474,-9.423504184499999,2.366736911,-2.6298,1.2903,0.57554,0.00029000000000001247,-0.009798000000000001,0.0006899999999999684,0.0019506172054355453,-0.0017659477758136255,0.0022470242423200393
150000000000.0,1,-0.7341552389499999,0.48947932144999995,-0.63147961345,0.23586,0.29098,-0.10855,-1.3272320109999998,-9.419091192,2.3852714795,-2.6338,1.2887,0.58277,-4.999999999999449e-05,-0.009804999999999994,0.0015500000000000513,-0.0007922966462610148,-0.00931921662658719,0.005571552966746163
150000000000.0,1,-0.9547558306999999,-0.24713738664999998,-0.23749744969999997,0.20508,0.28169,-0.15555,-1.3204654224999999,-9.415854997499999,2.4017466515,-2.6389,1.2875,0.59101,0.00045999999999990493,-0.009677999999999999,0.0011700000000000044,-0.0017480797837476914,-0.0006178577314914779,0.0048404651635507445
150000000000.0,1,-1.1075630509999999,-0.9020745068999999,0.08860308274999999,0.14442,0.2801,-0.18981,-1.309972307,-9.414383999999998,2.4132204319999997,-2.6443,1.287,0.59951,0.00021999999999999797,-0.009746999999999999,0.0015899999999999803,0.002861390837354705,-0.0015260216148111905,-4.7788294556871946e-05
150000000000.0,1,-1.212690339,-1.4968870559999998,0.3952472216,0.06138,0.2872,-0.21559,-1.2971255954999998,-9.415168532,2.4172411584999995,-2.6491,1.2873,0.6075,4.0000000000040004e-05,-0.009585000000000003,0.0012600000000000389,0.0037037019071419763,0.00027981690712253204,0.0054949826876293795
150000000000.0,1,-1.2303423089999999,-1.8999403709999998,0.62153567035,-0.029099,0.30607,-0.22752,-1.283102086,-9.4182085935,2.412632033,-2.6528,1.2884,0.61453,0.0001100000000000545,-0.009561999999999998,0.0013900000000000023,0.006059729206041808,-0.001804982438780689,0.0017529891544485476
150000000000.0,1,-1.2049430854999998,-2.032134013,0.7381857720999999,-0.11215,0.32488,-0.23197,-1.2690785764999999,-9.423406117999999,2.3998833879999997,-2.6552,1.2903,0.62033,0.00020999999999993246,-0.009646000000000002,0.0012299999999999534,-0.00033742737875819273,-0.0004441717418000035,0.0058259216483971255
150000000000.0,1,-1.0947163395,-1.835020348,0.7608489402499999,-0.18556,0.35425,-0.22574,-1.2557415324999999,-9.430270773,2.3795836224999998,-2.656,1.2929,0.62481,0.00012000000000000899,-0.009815999999999998,0.0011999999999999789,0.00409301388936445,-0.0015226548504145843,0.0029857425223409617
150000000000.0,1,-0.94187969925,-1.387052576,0.64556196285,-0.2293,0.36631,-0.20876,-1.2443658185,-9.4382141595,2.3541843989999998,-2.6554,1.2958,0.62794,6.0000000000060005e-05,-0.009733,0.0007900000000000684,0.0015849825616705004,-0.0005347604215537594,0.003836395907422352
150000000000.0,1,-0.7895530047999999,-0.8013994379999999,0.3780267442,-0.24327,0.36854,-0.1853,-1.234853368,-9.4462556125,2.3268238455,-2.6537,1.2988,0.63001,0.00043999999999999595,-0.0099019,0.0008999999999999009,0.002024196889260921,0.00170531490223369,-0.0009032278030374208
150000000000.0,1,-0.5862219236999999,-0.20449807244999998,0.09755655419999999,-0.23282,0.36096,-0.15218,-1.227988713,-9.453708666499999,2.2999536244999996,-2.6512,1.3017,0.63119,0.00042999999999993044,-0.0097741,0.00036000000000002697,0.0011652795484335954,0.001964753198041569,0.005747879022541591
150000000000.0,1,-0.4174494772,0.38207689065,-0.1274472234,-0.21598,0.35651,-0.11265,-1.2245563855,-9.460279122,2.274554401,-2.6477,1.3042,0.63135,4.0000000000040004e-05,-0.010353999999999999,-5.999999999994898e-05,-0.002622648646237735,0.0006605270159198984,0.007333188171035454
150000000000.0,1,-0.2116863469,0.91328350785,-0.2937483941,-0.19597,0.3531,-0.065645,-1.2251447844999999,-9.4658689125,2.2511165075,-2.6432,1.3064,0.6303,0.0006500000000000394,-0.010009,0.00019999999999997797,0.0042736743262121735,0.0037965016969017107,-0.004207421254319721
150000000000.0,1,-0.039932678799999996,1.340176789,-0.40837832594999995,-0.17172,0.34965,-0.014362,-1.2303423089999999,-9.4701838385,2.2299341435,-2.6374,1.3081,0.62795,0.00027999999999994696,-0.010084000000000003,-0.000140000000000029,0.0020907245726942136,0.004227989489808959,0.0028404598748432708
150000000000.0,1,0.10084178195,1.6505572614999997,-0.45386156865,-0.14534,0.34725,0.04226,-1.2406392915,-9.473223899999999,2.211203442,-2.6303,1.3093,0.62418,0.00034000000000000696,-0.010086999999999999,-0.0004899999999999904,0.00015901445919563884,0.002479005491174302,0.002993246612891909
150000000000.0,1,0.19729018469999998,1.8683629579999999,-0.49868776579999996,-0.1169,0.3363,0.097834,-1.2561337985,-9.474891030499998,2.195120536,-2.6218,1.3099,0.61894,0.00039999999999995595,-0.009673999999999995,-0.0007899999999999574,-0.0008541311544494334,0.0004397407831009392,0.004417980807872368
150000000000.0,1,0.28188234759999997,2.018404703,-0.5232043907999999,-0.089489,0.32856,0.15127,-1.2765316305,-9.475283296499999,2.181783492,-2.6122,1.3101,0.61242,0.0004899999999999904,-0.011174000000000003,-0.000300000000000078,0.00036224459705636036,0.006925271820869439,-0.002293254834215386
150000000000.0,1,0.317539327,2.01428591,-0.5315792698999999,-0.068487,0.31768,0.20149,-1.3014405214999998,-9.4744987645,2.170603911,-2.6015,1.3098,0.60464,0.000260000000000038,-0.008069999999999994,-0.0012199999999999989,0.0005036736636006012,-0.0019866968053090517,0.0018718429232815748
150000000000.0,1,0.26993784789999997,1.8925853835,-0.49583403065,-0.051731,0.30364,0.2421,-1.330174006,-9.4725374345,2.1612875935,-2.5899,1.309,0.59584,0.0008900000000000574,-0.010734000000000007,-0.0006699999999999484,-0.0032281893735923717,0.0029654408004349264,0.00173120502691404
150000000000.0,1,0.2051943446,1.7947150164999999,-0.41933235399999996,-0.038098,0.29391,0.27417,-1.3618494854999998,-9.469889639,2.153344207,-2.5776,1.308,0.58624,0.00043999999999999595,-0.008801000000000003,-0.0014600000000000168,0.007444312178565227,0.015545500628353803,-5.718007533905833e-06
150000000000.0,1,0.16287864984999997,1.7217535405,-0.338329425,-0.030787,0.28956,0.29874,-1.395878561,-9.466555377999999,2.146283419,-2.5649,1.3067,0.5761,0.0008799999999999919,-0.009840000000000002,-0.0010499999999999954,-0.00210780943608313,0.0031107296868035927,-0.000378822769561582
150000000000.0,1,0.14827654799999998,1.6500669289999998,-0.2585425206,-0.024539,0.28097,0.31584,-1.4315747669999999,-9.4627307845,2.1398110299999997,-2.552,1.3052,0.56557,-2.0000000000020002e-05,-0.010649999999999993,-0.0020700000000000163,-0.004324693989959272,0.006241797041145913,0.004306620519203719
150000000000.0,1,0.1436870358,1.6569315839999998,-0.23884096075,-0.018324,0.26492,0.32762,-1.4681535715,-9.458415858499999,2.1338289735,-2.539,1.3035,0.55488,-0.000260000000000038,-0.010069999999999996,-0.0020799999999999708,0.006252603680708013,-0.002913068272912378,0.004223510877294334
150000000000.0,1,0.14854132755,1.699884711,-0.26784903145,-0.015304,0.24571,0.333,-1.5048304424999999,-9.453806732999999,2.1287295155,-2.5262,1.3017,0.54427,0.0005300000000000304,-0.009770000000000001,-0.0017200000000000548,-0.0027759621715803817,0.005572332452600026,0.0020480074163169437
150000000000.0,1,0.16784081474999998,1.7811818395,-0.31183185669999997,-0.013296,0.22864,0.3309,-1.5412131139999998,-9.4490014745,2.1239242569999996,-2.5139,1.2999,0.53386,0.00031999999999998696,-0.010480000000000017,-0.0017099999999999893,0.004884718993468873,0.0046576145220400544,-0.003759427679435934
150000000000.0,1,0.19100412205,1.8543394485,-0.33959448285,-0.013398,0.21054,0.32239,-1.5765170539999998,-9.444196216,2.1194131979999997,-2.502,1.2981,0.52381,-5.999999999994898e-05,-0.00952,-0.0022499999999999742,-0.00343797744385288,-0.0015445875835049527,0.005591137443801797
150000000000.0,1,0.17382287125,1.8344319489999998,-0.33843729814999995,-0.015642,0.18607,0.30535,-1.6098596639999998,-9.4395870905,2.114902139,-2.491,1.2963,0.51431,0.0005999999999999339,-0.009749999999999981,-0.0018000000000000238,0.0014416907253780309,0.002764106165233926,-0.0008606709924623424
150000000000.0,1,0.1100894529,1.7137120874999998,-0.2790384191,-0.023175,0.16271,0.28083,-1.6405544785,-9.435370231,2.110194947,-2.4807,1.2947,0.50544,-0.0005999999999999339,-0.010190000000000005,-0.0021599999999999397,-6.469433423639259e-06,0.0017245446480109727,0.0016566401151525412
150000000000.0,1,0.034499794699999996,1.5244437425,-0.21630527905,-0.033832,0.14365,0.24775,-1.667915032,-9.4317417705,2.104703223,-2.4715,1.2934,0.49735,0.00029999999999996696,-0.009720000000000006,-0.0017800000000000038,0.0005468186273054343,-0.00332010020062401,0.002279128138017228
150000000000.0,1,-0.0429923536,1.2418160894999999,-0.1398232157,-0.043423,0.12246,0.21148,-1.6914509919999998,-9.428897842,2.0987211665,-2.4632,1.2923,0.49014,-2.999999999997449e-05,-0.009809999999999985,-0.0017599999999999838,-0.0005710151990188095,0.003064139362410012,0.002238291235113099
150000000000.0,1,-0.1188369847,0.86554473565,-0.0554860257,-0.059413,0.10238,0.17627,-1.7112604249999999,-9.426936512,2.091758445,-2.4559,1.2916,0.48364,0.00020999999999993246,-0.00964000000000001,-0.0014300000000000423,0.006587769968013024,0.0041597452089949805,-0.010895752514023194
150000000000.0,1,-0.19249473285,0.4563818777,0.032165811999999995,-0.074341,0.080162,0.13892,-1.7270491314999998,-9.4258577805,2.083716992,-2.4495,1.2912,0.47787,-0.00043999999999999595,-0.009839999999999988,-0.0013499999999999623,0.001447884537902011,-0.004059942032221153,0.006417632486442892
150000000000.0,1,-0.27134019885,0.04668946064999999,0.1276041298,-0.093555,0.059041,0.1069,-1.7392093775,-9.425661647499998,2.0742045415,-2.4438,1.2911,0.47262,-0.00029000000000001247,-0.009570000000000023,-0.0011600000000000499,0.0011640594125792436,-0.0022255599421034944,0.001066696531906386
150000000000.0,1,-0.33868246439999994,-0.35118594315,0.24354815274999997,-0.11374,0.047523,0.073833,-1.7643144014999999,-9.421542854499998,2.0719490119999997,-2.4362,1.2896,0.46543,8.000000000008001e-05,-0.00986999999999999,-0.0006499999999999284,0.0002581944403232672,0.0012220424322317847,-0.0015751391440625984
150000000000.0,1,-0.42202918274999995,-0.7156108637999999,0.35871745034999997,-0.13607,0.032827,0.036461,-1.7694138595,-9.423406117999999,2.059004234,-2.4317,1.2903,0.4611,-0.0003700000000000925,-0.009410000000000002,-0.0005700000000000705,0.006594527937145989,0.002569062138112921,-0.006115482589261978
150000000000.0,1,-0.51581998335,-1.075201106,0.45715660304999994,-0.16055,0.019211,0.002285,-1.7709829234999999,-9.426348113,2.0440000595,-2.4277,1.2914,0.45714,-0.00022999999999995246,-0.009960000000000024,-2.999999999997449e-05,-0.00218863660012536,-0.00448375571507631,0.0022336744785182994
150000000000.0,1,-0.63393127595,-1.4167667254999998,0.5560566683,-0.1893,0.004566,-0.032963,-1.7688254605,-9.430466906,2.0266422889999998,-2.424,1.2929,0.45346,-0.0008200000000000429,-0.009199999999999986,-9.999999999998899e-05,0.007738830523121409,7.603873592176846e-05,0.0009172093248797086
150000000000.0,1,-0.7464037447999999,-1.7431320375,0.67007858785,-0.22016,-0.006865,-0.067153,-1.7631376035,-9.435860563499999,2.0066367229999997,-2.4207,1.2949,0.44993,-0.0010399999999999299,-0.009500000000000008,0.00012999999999996348,0.0011180672288870763,-0.003988902360995805,0.00035169342058316566
150000000000.0,1,-0.8210519646000001,-2.014874309,0.79646669305,-0.25636,-0.013999,-0.093888,-1.7547038845,-9.4423329525,1.983493029,-2.4173,1.2974,0.44631,-0.0007300000000000084,-0.009699999999999986,0.0007700000000000484,0.008428089431701924,0.0014740920510591948,-0.00475147335127124
150000000000.0,1,-0.8654270558499999,-2.192570807,0.9087430288999999,-0.28935,-0.017964,-0.11849,-1.74362237,-9.449786006499998,1.9573092734999997,-2.4138,1.3002,0.44251,-0.0008299999999999974,-0.009330000000000005,0.0014699999999999713,-0.0004498819266012255,-0.004559198789176655,-0.00030834515663702433
150000000000.0,1,-0.8818924211999999,-2.3332962344999997,1.0018473639999999,-0.32237,-0.025129,-0.13988,-1.730481459,-9.458317791999999,1.9278893234999999,-2.4101,1.3035,0.43839,-0.0006399999999999739,-0.00939000000000001,0.0018599999999999728,0.004486078975775243,-0.002671661652313917,-0.0007769382933004998
150000000000.0,1,-0.90949814095,-2.5127579294999998,1.064806057,-0.349,-0.032346,-0.16126,-1.7151830849999998,-9.467536042999999,1.8959196445,-2.4062,1.3071,0.43403,-0.0009100000000000774,-0.009719999999999951,0.0025200000000000777,0.004334955982448152,-0.004378674108161729,-0.0016987010204674302
150000000000.0,1,-0.9948846425,-2.814312417,1.1333545405,-0.36608,-0.047102,-0.18261,-1.6975311149999999,-9.477342692999999,1.862282835,-2.4024,1.3109,0.42967,-0.0008500000000000174,-0.008880000000000055,0.0030199999999999116,0.0056880234482736824,0.004343945494781343,-0.00769919229262328
150000000000.0,1,-1.1037384575,-3.2588478614999996,1.207590881,-0.36827,-0.067303,-0.20393,-1.6776236155,-9.487541608999999,1.8282537595,-2.3992,1.315,0.42564,-0.0016899999999999693,-0.009399999999999964,0.0030400000000000427,0.001131022261839254,-0.009138838823978368,0.006616728866939203
150000000000.0,1,-1.2695689089999997,-3.8109622565,1.3273300774999999,-0.36192,-0.087579,-0.22523,-1.6552644534999998,-9.497838591499999,1.7951072824999998,-2.3967,1.3192,0.42227,-0.0011700000000000044,-0.00939000000000001,0.0037800000000000056,-0.00089899789770298,-0.0002691098674707515,-0.0001512118780220284
150000000000.0,1,-1.4346148285,-4.352779668999999,1.4593275865,-0.35238,-0.11001,-0.24973,-1.6301594294999997,-9.508135573999999,1.7630395369999998,-2.3953,1.3234,0.41977,-0.0010499999999999954,-0.009419999999999984,0.003920000000000035,0.003973444704749696,-0.00228898960659607,-0.0022332924086496675
150000000000.0,1,-1.5735750589999997,-4.8406605065,1.5949535559999999,-0.33215,-0.13253,-0.27634,-1.6023085435,-9.518432556499999,1.7328350549999998,-2.3953,1.3277,0.4184,-0.0010299999999999754,-0.009240000000000026,0.0040999999999999925,0.0018729033849911314,0.004102310044809432,-0.004208175756071908
150000000000.0,1,-1.660854244,-5.156238503499999,1.7512715569999997,-0.31399,-0.1231,-0.26565,-1.5744576575,-9.528141139999999,1.70439577,-2.3958,1.3319,0.41766,-0.0012199999999999989,-0.009679999999999966,0.003849999999999909,0.00870138916695673,0.0013787634146984473,-0.004645607872060253
150000000000.0,1,-1.7322466559999998,-5.245184818999999,1.8253117644999999,-0.3076,-0.097619,-0.22298,-1.5505294315,-9.5370651915,1.6766429505,-2.3953,1.3358,0.41604,-0.0014699999999999713,-0.009750000000000036,0.0032600000000000406,-0.005465778479756711,-0.002104724688632098,0.005400140444391521
