Time,placement_label,user_acc_x(m/s^2),user_acc_y(m/s^2),user_acc_z(m/s^2),rotation_rate_x(rad/s),rotation_rate_y(rad/s),rotation_rate_z(rad/s),gravity_x(m/s^2),gravity_y(m/s^2),gravity_z(m/s^2),attitude_roll(rad),attitude_pitch(rad),attitude_yaw(rad),target_delta_x,target_delta_y,target_delta_z,target_delta_roll,target_delta_pitch,target_delta_yaw
150000000000.0,-1,0.33737817995,-0.09409480674999998,0.30704621149999994,0.061107,-0.36129,-0.097577,-1.7281278629999999,-9.629345768,0.6778748746,-1.9446,1.3804,3.0526,0.0,0.0,0.0,0.0,0.0,0.0
150000000000.0,-1,0.32040286879999996,-0.04076624405,0.2560908581,0.070562,-0.388,-0.10821,-1.708710696,-9.631503231,0.6962035034499999,-1.9577,1.3815,3.0619,-0.0006800000000000139,-0.000600000000000378,-4.0000000000040004e-05,-0.0013758369712166818,-0.0008023605207456708,-0.003390209718710402
150000000000.0,-1,0.28960998779999997,-0.00118660465,0.19476987564999998,0.081114,-0.41258,-0.12204,-1.6887051299999998,-9.633660694,0.7147282653,-1.9712,1.3827,3.0713,-0.0007300000000000084,-0.00039999999999995595,-9.99999999995449e-06,-0.0024042426237560477,-0.0021160996047422387,-0.004019458071294224
150000000000.0,-1,0.25027551465,0.0012650578499999998,0.15863237039999997,0.098023,-0.44254,-0.13584,-1.667915032,-9.635818157,0.7342631121,-1.9855,1.3839,3.0814,-0.00031000000000003247,-0.0013999999999998458,0.0005899999999999794,0.009837443384703937,-0.012510383258155455,0.005594690572137129
150000000000.0,-1,0.18721875515,-0.040373978049999995,0.1254662801,0.11391,-0.46717,-0.14966,-1.6466346015,-9.6378775535,0.75500417685,-2.0007,1.385,3.0921,-0.0009000000000000119,-0.000500000000000167,-0.00010999999999994348,-0.0010605662471721011,-0.001601644447178252,-0.004579134440740873
150000000000.0,-1,0.12189665949999999,-0.10405836315,0.08464119614999999,0.13088,-0.48967,-0.16561,-1.6246677055,-9.6398388835,0.77667687335,-2.0167,1.3861,3.1034,-0.0012799999999999478,0.00019999999999997797,-0.0006200000000000649,-0.013614725083406443,0.008755948853127693,-0.012836801565208944
150000000000.0,-1,0.06941146869999999,-0.20190911685,0.04630700129999999,0.14569,-0.51536,-0.18048,-1.6020143439999999,-9.64189828,0.7991537151499999,-2.0335,1.3872,3.1153,-0.0007900000000000684,-0.00039999999999995595,-4.999999999921734e-06,-0.003542784137401167,-0.0006243184294218995,-0.003988860568950425
150000000000.0,-1,0.0144746154,-0.29234604315,0.019122967499999997,0.1584,-0.53463,-0.19217,-1.578674517,-9.6437615435,0.8225916086499999,-2.0512,1.3883,3.1278,-0.0007899999999999574,-0.0006999999999997009,-5.000000000032756e-06,-0.0019937409583328236,-0.0021942754001451625,-0.004179870700137478
150000000000.0,-1,-0.022702394749999997,-0.36171828525,-0.01736757715,0.16468,-0.55598,-0.2028,-1.5543540249999999,-9.645624806999999,0.8466571277499999,-2.0696,1.3893,3.141,-0.0008799999999999919,-0.000600000000000378,-4.0000000000040004e-05,-0.0011450361447915558,-0.002033737755934961,-0.005150076871340392
150000000000.0,-1,-0.04135464305,-0.40894711165,-0.06414529765,0.16672,-0.57091,-0.20811,-1.529249001,-9.6474880705,0.8709972330499999,-2.0885,1.3904,-3.1287,-0.0007800000000000029,-0.0005999999999999339,2.0000000000020002e-05,-0.0027082562763882656,-0.002405361699040709,-0.0061462778622853875
150000000000.0,-1,-0.05182814524999999,-0.39728700479999995,-0.0753542986,0.16553,-0.58688,-0.21021,-1.5036536445,-9.649253267499999,0.89537656495,-2.1079,1.3914,-3.115,-0.0006800000000000139,-0.0005999999999999339,9.999999999998899e-05,-0.0019293887358411421,-0.0028878435772541344,-0.005283123234774756
150000000000.0,-1,-0.042609894249999995,-0.36468970019999997,-0.0743540203,0.15371,-0.59638,-0.20915,-1.477862155,-9.651018464499998,0.9189125249499999,-2.1271,1.3924,-3.1015,-0.0007399999999999629,-0.0004999999999997229,0.000160000000000049,-0.0028271357973195244,-0.0029752093344963537,-0.005375672786332331
150000000000.0,-1,-0.031616639599999996,-0.32308008425,-0.0860239338,0.14087,-0.6016,-0.20916,-1.4518745324999998,-9.6527836615,0.94105594065,-2.1459,1.3934,-3.0885,-0.0007800000000000029,-0.000400000000000178,0.00027999999999994696,-0.002547669806748365,-0.0026331393391461066,-0.005046709902772228
150000000000.0,-1,-0.05665301705,-0.28181370105,-0.1071866845,0.12379,-0.60465,-0.21239,-1.4257888435,-9.6547449915,0.9611693798,-2.1639,1.3945,-3.0763,-0.00048000000000003595,-0.0015000000000000568,0.0008799999999999919,0.007605452819392067,-0.013008069830712232,0.002651398438449082
150000000000.0,-1,-0.10201857995000001,-0.21783511644999998,-0.146315218,0.10886,-0.60665,-0.21882,-1.399408955,-9.6567063215,0.9793509088999999,-2.1814,1.3957,-3.0647,-0.0007000000000000339,-0.0005999999999999339,0.000260000000000038,-0.0015039008912778318,-0.002020091677710889,-0.004641851573110145
150000000000.0,-1,-0.1668699564,-0.15385653185,-0.17370519145,0.093981,-0.60652,-0.23058,-1.372734867,-9.658961850999999,0.9954730414999999,-2.1982,1.397,-3.0537,-0.0014099999999999113,9.999999999998899e-05,-0.00046000000000001595,-0.013617716842703853,0.007565534007843544,-0.01594346413973602
150000000000.0,-1,-0.2256314032,-0.0727457297,-0.2083128593,0.075929,-0.60422,-0.24555,-1.3458646459999999,-9.661315446999998,1.0089081519999998,-2.214,1.3984,-3.0437,-0.0009000000000000119,-0.0008000000000001339,0.00017999999999995797,-0.0018042946235874435,-0.0026679115758205807,-0.005375673788495128
150000000000.0,-1,-0.27423316059999997,0.007168661149999999,-0.23591857904999997,0.060023,-0.59981,-0.26052,-1.3198770234999997,-9.663865176,1.0187148019999999,-2.2281,1.4,-3.0354,-0.0008299999999999974,-0.0005999999999999339,0.000280000000000058,-0.001569791432924461,-0.0032490411389349827,-0.005949898449639335
150000000000.0,-1,-0.3183042457,0.07722736875,-0.2535411291,0.037723,-0.59534,-0.27657,-1.2919280709999998,-9.666807170999999,1.027148521,-2.2425,1.4017,-3.0268,-0.0007400000000000739,-0.00039999999999995595,0.00026999999999999247,-0.0006707549729305651,-0.0019906097789901267,-0.005133438354174125
150000000000.0,-1,-0.3566874738,0.1326447479,-0.25867000705,0.015426,-0.58875,-0.28941,-1.2622139215,-9.669945299,1.0341112424999999,-2.2572,1.4036,-3.0178,-0.0008299999999999974,-0.0005999999999999339,0.00034999999999996145,-0.0013080044456219575,-0.0040028098259143885,-0.006146066409537632
150000000000.0,-1,-0.38325368865,0.181815291,-0.27906783905,-0.007951,-0.58322,-0.3012,-1.2310287745,-9.673475692999999,1.0386223015,-2.2716,1.4058,-3.009,-0.0007599999999999829,-0.000500000000000167,0.000280000000000058,-0.000895726243233641,-0.0033298984894549744,-0.005450275897076029
150000000000.0,-1,-0.42395128614999994,0.23096622079999998,-0.28630514674999996,-0.032393,-0.57555,-0.30978,-1.1988629624999998,-9.6773002865,1.0407797644999999,-2.2857,1.4082,-3.0005,-0.0007199999999999429,-0.00039999999999995595,0.00025999999999992696,-0.0029436023804563227,-0.004290019315492444,-0.006695613129492184
150000000000.0,-1,-0.45927483944999997,0.22358181335,-0.27649849675,-0.057907,-0.56574,-0.3141,-1.1666971505,-9.6812229465,1.0402894319999998,-2.299,1.4107,-2.9928,-0.00012000000000000899,-0.0011999999999998678,0.0008700000000000374,0.011881718471586478,-0.013104056963668897,0.004086768262141938
150000000000.0,-1,-0.48194781425,0.1783633502,-0.25575743199999995,-0.082372,-0.55275,-0.30989,-1.1361004024999999,-9.685243673,1.0367590379999998,-2.3105,1.4133,-2.9866,-0.0011999999999999789,0.00039999999999995595,-0.00046000000000001595,-0.010937108295003828,0.0073449055283099085,-0.015347255551129813
150000000000.0,-1,-0.4911954852,0.11447302544999999,-0.26082747004999995,-0.10683,-0.53657,-0.30247,-1.10815145,-9.689362466,1.0292079175,-2.3193,1.416,-2.9831,-0.0006700000000000594,-0.00029999999999996696,0.00024999999999997247,0.0007630107722151891,-0.003956798898712588,-0.004726885873000075
150000000000.0,-1,-0.49822685325,0.02923362365,-0.27210511755,-0.12814,-0.52042,-0.2865,-1.0840270909999998,-9.693285126,1.0176360705,-2.3246,1.4186,-2.9829,-0.00019000000000002348,-0.001100000000000101,0.0009299999999999864,0.01053701878594726,-0.01654682545992614,0.004402745226780969
150000000000.0,-1,-0.48743953824999997,-0.028184312099999997,-0.264583417,-0.14408,-0.49687,-0.26306,-1.0605891975,-9.697207786,1.0048874255,-2.3292,1.4213,-2.9831,-0.0005799999999999139,-0.00019999999999997797,0.000140000000000029,-0.0009261949299312899,-0.0015885133281980934,-0.005859760586333973
150000000000.0,-1,-0.48302654575,-0.0685288702,-0.2805682565,-0.15794,-0.47653,-0.23642,-1.0394068335,-9.701032379499999,0.9901774505,-2.3319,1.4239,-2.9851,-0.0011500000000000954,0.0005999999999999339,-0.00042999999999993044,-0.01080232740533571,0.008338462475771635,-0.014853169138367317
150000000000.0,-1,-0.45739196265,-0.08697517885,-0.29619024995,-0.16542,-0.45626,-0.20336,-1.021656797,-9.7045627735,0.9737513117499998,-2.3322,1.4264,-2.9894,-0.0008499999999999064,-0.0004999999999999449,5.999999999994898e-05,0.005659830668209187,-0.0024000566110031762,-0.006124303455413038
150000000000.0,-1,-0.4241179992,-0.0633901856,-0.29554301104999997,-0.17074,-0.43173,-0.17031,-1.0074371545,-9.707798968,0.95604050185,-2.33,1.4287,-2.9959,-0.0006099999999999994,-0.00039999999999995595,0.000160000000000049,0.002057575734893069,-0.0022336281237946842,-0.003941205099043277
150000000000.0,-1,-0.4131541645,-0.02848831825,-0.31348918055,-0.16866,-0.4158,-0.13722,-0.997140172,-9.7106428965,0.9374765133999999,-2.3253,1.4308,-3.0047,-0.000520000000000076,-0.00019999999999997797,0.00022999999999995246,0.0014847392761965228,-0.0014227852074388814,-0.004094714487913542
150000000000.0,-1,-0.4339834891,-0.010061622899999999,-0.30018155649999995,-0.16975,-0.39557,-0.10522,-0.9910600489999999,-9.713094559,0.9187850384999999,-2.3184,1.4326,-3.0156,-0.0006300000000000194,-0.00019999999999997797,0.00021999999999999797,0.0022373448897943238,-0.00099367291158714,-0.00564646022121984
150000000000.0,-1,-0.428942871,-0.00530539765,-0.27828330705,-0.1697,-0.37215,-0.079621,-0.9876277214999999,-9.7151539555,0.9003289231999999,-2.31,1.4341,-3.0278,-0.00045999999999990493,-0.000400000000000178,0.00022999999999995246,0.0015571742441242709,-0.0024290407646714307,-0.004909258729525856
150000000000.0,-1,-0.46011821135,-0.00901231135,-0.26007235799999995,-0.16755,-0.35301,-0.057213,-0.9875296549999999,-9.716821086,0.8822650739,-2.3,1.4354,-3.0414,-0.00038000000000004697,-0.00029999999999996696,0.000260000000000038,0.0014794126502302163,-0.0017270998180221042,-0.004342196451891489
150000000000.0,-1,-0.48572337449999997,0.00220649625,-0.22852436495,-0.16857,-0.33383,-0.038012,-0.9899813175,-9.718194016999998,0.8644758107999999,-2.2886,1.4364,-3.0561,-0.00038000000000004697,-0.00029999999999996696,0.00029999999999996696,0.0020082559389977828,-0.0014655472497062672,-0.003292547891228015
150000000000.0,-1,-0.47853510005,0.04159000265,-0.19910441495,-0.16959,-0.31573,-0.020943,-0.9944923765,-9.7192727485,0.84702978045,-2.2763,1.4372,-3.0717,-0.00031999999999998696,-0.00029999999999996696,0.000140000000000029,0.00021155836397657168,-0.0009057624429951172,-0.0031303199409240534
150000000000.0,-1,-0.48355610484999995,0.1032051846,-0.17558806825,-0.17377,-0.29546,-0.008152,-1.000670566,-9.720155346999999,0.8296523966499999,-2.263,1.4379,-3.088,-0.00039000000000000146,-0.00039999999999995595,0.00017000000000000348,0.002696549164241002,-0.00090055757024321,-0.0046087246612716015
150000000000.0,-1,-0.4847230962,0.14636425125,-0.16664440345,-0.17158,-0.27843,0.004655,-1.0084178195,-9.720743746,0.8124809524999999,-2.249,1.4384,-3.1048,-0.00025999999999992696,-0.00039999999999995595,0.00021999999999999797,0.0008323004036603354,-0.0007517093694511257,-0.002894682581062291
150000000000.0,-1,-0.47500470605,0.16166262525,-0.15830875095,-0.1715,-0.26033,0.015322,-1.017145738,-9.7212340785,0.79546641475,-2.2345,1.4387,-3.1221,-0.000180000000000069,-0.000300000000000189,0.000140000000000029,0.0011771483359457324,-0.0007071614352371913,-0.003301330759879484
150000000000.0,-1,-0.46918936259999994,0.14736452954999998,-0.14459905425,-0.17351,-0.239,0.023844,-1.0268543215,-9.7216263445,0.7783145839,-2.2194,1.439,-3.1397,-0.00012000000000000899,-9.999999999998899e-05,0.00021000000000004349,0.0006364014533497553,0.0004203816398304916,-0.0027965140259942345
150000000000.0,-1,-0.44948780275,0.09809591994999999,-0.1275256766,-0.17233,-0.21771,0.033438,-1.037151304,-9.721920544,0.7612412062499999,-2.204,1.4392,3.1258,-0.00012999999999996348,-0.00019999999999997797,0.00012999999999996348,0.0006704804539470199,0.0011538314960464202,-0.00243210847307207
150000000000.0,-1,-0.4232157874,0.05928119925,-0.10766721034999999,-0.16903,-0.1943,0.0473,-1.048330885,-9.7220186105,0.7446777743999999,-2.1884,1.4393,3.1082,-0.00012999999999996348,-0.00029999999999996696,5.999999999994898e-05,0.0014094365105443707,0.00030574869351895906,-0.0022955649801756906
150000000000.0,-1,-0.36622934425000003,0.0580749813,-0.09764481405,-0.16683,-0.17728,0.060102,-1.0598046655,-9.7220186105,0.72836931545,-2.1729,1.4393,3.0908,3.999999999992898e-05,-0.00019999999999997797,9.00000000000345e-05,0.000982215000353781,-0.00044382737157611096,-0.0024568607597093006
150000000000.0,-1,-0.31602910289999997,0.09915503815,-0.1155419503,-0.16463,-0.16239,0.069702,-1.0715726455,-9.721920544,0.7118451102,-2.1572,1.4392,3.0733,4.0000000000040004e-05,-9.999999999998899e-05,0.00014999999999998348,0.0018045207260140028,-0.00018080718926460904,-0.0015127942984225484
150000000000.0,-1,-0.29637657629999997,0.11483587149999999,-0.09928252459999999,-0.16773,-0.14319,0.079284,-1.0840270909999998,-9.721724411,0.695291485,-2.1411,1.4391,3.0556,0.0001100000000000545,-0.00019999999999997797,7.999999999996898e-05,0.0011232870900403924,-9.445820032194518e-05,-0.002183169536730034
150000000000.0,-1,-0.28328469855,0.10568626704999999,-0.0392266,-0.17932,-0.1186,0.088842,-1.0972660685,-9.7214302115,0.6787770864,-2.1248,1.4388,3.0379,0.00012999999999996348,-0.00019999999999997797,7.00000000000145e-05,0.001502560206475767,-9.173012452512452e-05,-0.0021080098427677108
150000000000.0,-1,-0.274193934,0.09535005795,0.0205743517,-0.19201,-0.098254,0.098406,-1.1114857109999998,-9.720939879,0.66207636145,-2.108,1.4385,3.02,0.00020999999999993246,-9.999999999998899e-05,0.0001100000000000545,0.001969683957663948,0.00041060262945125103,-0.0013920408136276485
150000000000.0,-1,-0.23789952234999998,0.0848471358,0.0609581364,-0.20361,-0.074725,0.10796,-1.1259014864999999,-9.7204495465,0.6444243914499999,-2.0907,1.4381,3.0017,5.0000000000105516e-05,-9.999999999998899e-05,-4.999999999999449e-05,0.0018868834116498867,0.0006591862707290286,-0.0015003851340384955
150000000000.0,-1,-0.2173742039,0.09984150365,0.08542572814999999,-0.21518,-0.047999,0.11751,-1.1411998605,-9.7198611475,0.62594866285,-2.0725,1.4377,2.9828,0.00020999999999993246,-3.333333333332966e-05,0.00012999999999996348,0.0020940135344704736,0.00048374948977913945,-0.0006950117315764892
150000000000.0,-1,-0.183384355,0.11921944404999998,0.09281994225,-0.21398,-0.025641,0.1271,-1.1568905005,-9.719174681999998,0.60717873475,-2.0541,1.4372,2.964,0.000260000000000038,-3.333333333332966e-05,0.0001100000000000545,0.0019727572577910024,0.0010041074605189326,-0.0006080171175804061
150000000000.0,-1,-0.1520226883,0.15375846534999998,0.07354987499999999,-0.20745,-0.004392,0.13562,-1.1731695395,-9.718488216499999,0.58815383375,-2.0355,1.4366,2.9451,5.999999999994898e-05,-3.333333333332966e-05,-0.00017000000000000348,0.0020604310163061523,0.001211808471175857,-0.0011824059662948194
150000000000.0,-1,-0.12428948209999999,0.16539895889999998,0.052338091049999994,-0.19451,0.016806,0.14308,-1.1898408445,-9.717507551499999,0.5697075251,-2.0174,1.4359,2.9269,0.000260000000000038,9.999999999998899e-05,5.999999999994898e-05,0.0022177890216650287,0.0009941143623386495,-0.0008818743927845318
150000000000.0,-1,-0.10173418709999998,0.1643202274,0.03380352255,-0.17518,0.034758,0.14736,-1.2067082825,-9.716428819999999,0.55247724105,-2.0002,1.435,2.9099,0.00027999999999994696,9.999999999998899e-05,-9.99999999995449e-06,0.0009585290435969451,0.0014192161587140983,0.00018675805821644076
150000000000.0,-1,-0.09754674755,0.15436647765,0.024349911949999997,-0.15051,0.052669,0.14844,-1.2237718535,-9.7151539555,0.5370906071999999,-1.9844,1.4341,2.8944,0.00040000000000006697,-0.000700000000000145,0.00029999999999996696,0.014362117067632019,-0.007893996650533586,0.006432247450923523
150000000000.0,-1,-0.09599729685,0.14465789415,0.034391921549999996,-0.12584,0.070578,0.15166,-1.2410315575,-9.713682958,0.5240575693499999,-1.9704,1.433,2.881,0.00025999999999992696,-9.999999999998899e-05,-9.999999999998899e-05,0.0019480018341315741,0.0009498032260764067,0.0005124970870484802
150000000000.0,-1,-0.07810996725,0.14002915535,0.058251501,-0.10115,0.08849,0.15061,-1.257997062,-9.712015827499998,0.51366252035,-1.9585,1.4318,2.8698,0.000300000000000078,-0.00029999999999996696,-4.999999999999449e-05,0.006966614072358546,-0.0027416019057329155,0.003368721519230178
150000000000.0,-1,-0.048042778349999996,0.1613586191,0.06255662035,-0.075433,0.10107,0.14957,-1.2744722339999999,-9.710348696999999,0.5056112607,-1.9485,1.4305,2.8607,0.00034999999999996145,0.00039999999999995595,-0.00012000000000000899,-0.0016774031471153972,0.003492517099218828,-0.00027492084450386756
150000000000.0,-1,-0.02358499325,0.16700724949999998,0.0820424339,-0.055009,0.11901,0.14851,-1.29055514,-9.7084854335,0.4999037904,-1.9404,1.4292,2.8536,0.00017999999999995797,-9.999999999998899e-05,-0.00031999999999998696,0.0030571315662608622,0.002951581292696792,0.0005738313504020098
150000000000.0,-1,-0.008208166049999998,0.12949681324999998,0.11246266220000001,-0.040988,0.13595,0.14637,-1.30624578,-9.70662217,0.49610861685,-1.9338,1.4278,2.8483,0.00044000000000010697,9.999999999998899e-05,-0.00012000000000000899,0.001461700161759838,0.0021457386412395696,-3.063765973365662e-06
150000000000.0,-1,-0.00244185585,0.05886931994999999,0.1443735013,-0.030197,0.14971,0.1453,-1.3214460875,-9.704660839999999,0.49383347404999994,-1.9284,1.4264,2.8443,0.0005199999999999649,5.0000000000105516e-05,-0.000140000000000029,0.0019496623769295063,0.002293144707518513,0.00024302082238669698
150000000000.0,-1,0.00583495675,-0.024173392250000002,0.16368279515,-0.024706,0.16778,0.14421,-1.3362541289999998,-9.702699509999999,0.49202905045,-1.9236,1.4251,2.841,0.0006099999999999994,5.0000000000105516e-05,1.0000000000065512e-05,0.001991230615704831,0.0007254069636843941,0.0011388135175449676
150000000000.0,-1,0.009973363049999998,-0.07955154479999998,0.20126187794999997,-0.022417,0.18481,0.14205,-1.350767971,-9.700738179999998,0.49096993224999996,-1.9194,1.4237,2.8386,0.0007199999999999429,0.00019999999999997797,4.999999999999449e-05,0.0010075390065504841,0.0007691365763933256,0.0018340726694798803
150000000000.0,-1,0.020329185450000002,-0.11618918919999999,0.235163467,-0.020138,0.19972,0.13883,-1.364693414,-9.6988749165,0.49043056649999994,-1.9158,1.4224,2.8368,0.000260000000000038,0.0011999999999998678,-0.0006000000000000449,-0.01716791017078667,0.01290366622994421,-0.007160144443666638
150000000000.0,-1,0.0510926465,-0.1127960883,0.25417856135,-0.016786,0.21461,0.13453,-1.3777362585,-9.697011653,0.49027366009999995,-1.9127,1.4211,2.8357,0.00017000000000000348,5.0000000000105516e-05,-0.0007899999999999574,-0.00179140773017461,0.0036856232685658075,0.0011544460682406665
150000000000.0,-1,0.07902198569999999,-0.06669502664999999,0.25301156999999996,-0.013479,0.22524,0.13238,-1.3902887705,-9.695246456,0.49023443349999996,-1.9098,1.4199,2.835,0.00043000000000004146,4.999999999988347e-05,-0.0002300000000000635,0.0013210346469272327,0.0026790157541749515,0.0015754630397952774
150000000000.0,-1,0.11162909695,-0.00973800345,0.2465980209,-0.004821,0.23582,0.12704,-1.401958684,-9.693481259,0.4906659261,-1.9075,1.4187,2.8349,0.0009699999999999154,-0.0005999999999999339,0.0006000000000000449,0.013123266601705597,-0.010138520980123467,0.011499896843940594
150000000000.0,-1,0.13785207905,0.04800355175,0.23111332055,0.004901,0.24747,0.12383,-1.4130401984999998,-9.691814128499999,0.4916367844499999,-1.9056,1.4176,2.8355,0.00031999999999998696,9.999999999998899e-05,-0.00021000000000004349,0.0010952770372152365,0.0007422540153469992,0.00012402465939231888
150000000000.0,-1,0.15283664025,0.07736466185,0.2314565533,0.014593,0.25272,0.11636,-1.4234352474999998,-9.6902450645,0.49353927454999996,-1.9046,1.4166,2.8369,0.00010000000000010001,0.0007999999999999119,-0.0008699999999999264,-0.011269716499754834,0.01144831374551325,-0.006718122784156844
150000000000.0,-1,0.16499688624999997,0.08199340064999999,0.22171854985,0.021127,0.26333,0.10887,-1.4328496314999999,-9.688774066999999,0.4957948040499999,-1.9039,1.4156,2.8388,0.0006299999999999084,0.000300000000000189,-9.00000000000345e-05,0.1232321851823801,0.4516454434218531,-0.3912872032726793
150000000000.0,-1,0.1621823777,0.058290727599999995,0.2287303046,0.025504,0.26969,0.099254,-1.4414794835,-9.687303069499999,0.4985112460999999,-1.9038,1.4146,2.8413,0.0002500000000000835,9.999999999998899e-05,-0.000280000000000058,-0.11916493981221143,-0.4480608666102939,0.39298865415555184
150000000000.0,-1,0.1631042028,0.0352843267,0.23957645949999998,0.029919,0.28138,0.090695,-1.4491286705,-9.686028205,0.5017376339499999,-1.9041,1.4138,2.8444,0.0020399999999999308,-0.000500000000000167,0.001060000000000061,0.002481415481514926,-0.018030498434680853,0.02005234231041797
150000000000.0,-1,0.16219218435000002,0.026468148349999998,0.2540314616,0.036459,0.28986,0.078943,-1.4556991259999998,-9.684851407,0.5055328075,-1.905,1.413,2.8481,0.0005600000000000049,0.000500000000000167,-0.000160000000000049,-0.0010924802172889159,0.0026702899646491307,0.0004586059429296796
150000000000.0,-1,0.16406525449999998,0.0135724036,0.25419817465,0.044054,0.29833,0.069328,-1.4612889165,-9.683772675499998,0.5098477335,-1.9065,1.4123,2.8525,0.0005800000000000249,0.00024999999999986144,-7.999999999996898e-05,0.004160857181627842,-0.0017935458581284092,0.006028463784861771
150000000000.0,-1,0.1816779979,0.033734876,0.23449661479999998,0.051644,0.3068,0.060779,-1.4658980419999998,-9.682792010499998,0.5144372456999999,-1.9083,1.4117,2.8574,-0.00041999999999997595,0.0002500000000000835,-0.0005800000000000249,0.014103717361436008,0.009555478959083263,-0.004347353717744085
150000000000.0,-1,0.20569448375,0.053573728949999996,0.22003180604999997,0.058158,0.31634,0.055428,-1.4695265025,-9.6820074785,0.5193307640499999,-1.9105,1.4112,2.8627,0.0006599999999999939,0.0004999999999999449,-0.00014999999999998348,-0.008383538444092231,-0.00047360433464294083,0.0034649333177059205
150000000000.0,-1,0.21887462134999996,0.059251779299999995,0.21819796249999998,0.065757,0.328,0.050074,-1.4725665639999999,-9.6812229465,0.5247538415,-1.9131,1.4107,2.8685,0.0012499999999999734,-0.0006999999999999229,0.00039999999999995595,-0.03744668319564126,-0.0016442935060485553,0.016022876520987772
150000000000.0,-1,0.23190765919999998,0.0696076017,0.21532461405,0.07541,0.33112,0.046873,-1.475116293,-9.680536480999999,0.5309222243499999,-1.9163,1.4102,2.875,0.00039000000000000146,0.00029999999999996696,-0.00029999999999996696,-0.003100312489541235,0.0017539746468619999,0.002671793506216602
150000000000.0,-1,0.24448959114999996,0.0933396947,0.2025269358,0.080849,0.3396,0.04152,-1.477077623,-9.6798500155,0.5372867402,-1.9197,1.4098,2.8818,-0.00032999999999994145,0.0020000000000000018,-0.0011700000000000044,0.018382853427806545,0.010745876335878313,-0.013638319658895615
150000000000.0,-1,0.23625200515,0.0078649333,0.22165970995,0.089458,0.34486,0.037245,-1.4785486204999998,-9.6792616165,0.54463192105,-1.9237,1.4094,2.8893,0.00042999999999993044,0.00029999999999996696,-0.00029999999999996696,-0.000509340964290228,8.14879537280877e-05,0.003142608327538543
150000000000.0,-1,0.22116937744999998,-0.06461601685,0.22788693270000002,0.094881,0.35334,0.035094,-1.4799215514999997,-9.678575151,0.55232033465,-1.928,1.409,2.8971,0.00048000000000003595,0.0004999999999999449,-0.0002300000000000635,-0.0004018364935343133,0.00047325243084617163,0.002930366780693028
150000000000.0,-1,0.21877655484999997,-0.08724976505,0.2043901993,0.10134,0.35755,0.031885,-1.4810983494999999,-9.677986751999999,0.56026372115,-1.9324,1.4086,2.9051,0.0013199999999999878,-0.0013999999999998458,0.000980000000000092,-0.012154919074465198,-0.010496396592967194,0.022428186860324217
150000000000.0,-1,0.2405963511,-0.0863769732,0.18823864675,0.1142,0.36277,0.03082,-1.4818828814999998,-9.6773002865,0.5690798994999999,-1.9375,1.4082,2.9138,-0.00041000000000002146,0.0021999999999999797,-0.0014000000000000679,0.01088281043683037,0.010591228209177794,-0.01468503122590592
150000000000.0,-1,0.23932148659999997,-0.10341112425,0.19017055679999997,0.12598,0.368,0.031887,-1.4827654799999999,-9.676613820999998,0.5788179029499999,-1.943,1.4078,2.923,0.00041000000000002146,0.0004999999999999449,-0.00022999999999995246,-0.0011648582419701015,0.000987818787926864,0.0031136170674401775
150000000000.0,-1,0.25849348735,-0.1056764604,0.1938970838,0.13667,0.3711,0.034022,-1.4835500119999998,-9.675829289,0.58960521795,-1.9491,1.4073,2.9329,0.00041999999999997595,0.00039999999999995595,-0.00019999999999997797,-0.0015915836785860282,0.0006511507771826963,0.0037506230111494787
150000000000.0,-1,0.26904544275,-0.09078015904999999,0.17143004865,0.14525,0.37636,0.035083,-1.4844326104999999,-9.675044757,0.6008436388499999,-1.9554,1.4068,2.9431,0.00045000000000006146,0.00029999999999996696,-0.0001300000000000745,-0.0013170024157618254,0.0004457781193671906,0.0037930402120642803
150000000000.0,-1,0.28491260245,-0.054250387799999994,0.12943797334999999,0.157,0.37839,0.038288,-1.485315209,-9.6741621585,0.6126116188499999,-1.962,1.4062,2.9535,0.00043999999999999595,0.00029999999999996696,-0.00017999999999995797,-0.0005865185262483585,0.00020898061772012255,0.003261820479943278
150000000000.0,-1,0.31092964489999997,-0.01171894675,0.12600564585,0.17404,0.37824,0.043641,-1.4862958739999999,-9.673083427,0.6259192428999999,-1.9694,1.4056,2.9648,0.00026999999999999247,0.00020000000000020002,-0.00024000000000001798,0.0006278658422322891,0.00039569896448643505,0.0041956083304253156
150000000000.0,-1,0.32845412845,0.012748645,0.11023655264999999,0.18899,0.38024,0.045783,-1.4875707384999999,-9.6720046955,0.6401977253000001,-1.9772,1.4049,2.9765,0.00034999999999996145,0.00029999999999996696,-0.000260000000000038,-0.001581331900495142,0.0004484601099434826,0.004338137110754037
150000000000.0,-1,0.32079513479999994,0.00324600115,0.08779893744999999,0.20182,0.38439,0.047918,-1.4891398025,-9.670729831,0.6554568726999999,-1.9854,1.4041,2.9887,0.00024999999999997247,0.00039999999999995595,-0.00018999999999991246,-0.0016331061775463063,0.0005940120604461807,0.005230357653867035
150000000000.0,-1,0.33070965795,-0.013503757049999999,0.06581242814999999,0.21567,0.38001,0.046868,-1.4907088665,-9.669356899999999,0.6715986186,-1.9941,1.4033,3.0012,0.00039000000000000146,0.00029999999999996696,-0.00017000000000000348,-0.002391246071354658,0.0006490550673645679,0.0037022836820073124
150000000000.0,-1,0.3221288392,-0.021231397249999995,0.040687790849999995,0.22631,0.37673,0.047944,-1.4922779305,-9.667983969,0.68849547655,-2.0031,1.4024,3.0141,0.000280000000000058,0.00029999999999996696,-0.00019000000000002348,-0.00041735148127730604,-0.00014613906930249776,0.0040894974632808
150000000000.0,-1,0.3164017556,-0.03398004225,0.036519964599999996,0.23377,0.3756,0.046877,-1.4940431275000001,-9.666414905,0.7059807334999999,-2.0122,1.4015,3.0272,0.00034999999999996145,0.00029999999999996696,-0.00014999999999998348,-0.00017396870165486966,0.0005475484456884949,0.004187705769135075
150000000000.0,-1,0.31137094415,-0.047219019749999994,0.02942975665,0.237,0.37557,0.042599,-1.4956121915,-9.664845841,0.7238484498,-2.0216,1.4005,3.0404,0.00034999999999996145,0.00019999999999997797,-0.0002500000000000835,-0.0024386685786843554,0.0006442919957070359,0.003307877513182955
150000000000.0,-1,0.3116357237,-0.06586146139999999,0.0374025631,0.23807,0.3745,0.040453,-1.4968870559999998,-9.663276777,0.7420593988499999,-2.031,1.3996,3.0538,0.0003700000000000925,0.000300000000000189,-0.00018999999999991246,-0.002519362493506261,0.001170701562996035,0.005145369244164755
150000000000.0,-1,0.3085760489,-0.09557561089999998,0.025556129899999995,0.23912,0.37023,0.036179,-1.498063854,-9.661707712999998,0.7601918947,-2.0404,1.3986,3.067,0.00021999999999999797,0.00019999999999997797,-0.0002300000000000635,-0.0038522873741535513,0.0005770627512484694,0.004170708324686245
150000000000.0,-1,0.3003973028,-0.14471673405,0.013425303849999999,0.2359,0.36493,0.032967,-1.4989464525,-9.660138649,0.777863478,-2.0495,1.3977,3.0799,0.00020999999999993246,0.00019999999999997797,-0.00021999999999999797,-0.0015755183918910731,0.0008961594998784239,0.003009144901607197
150000000000.0,-1,0.3012995146,-0.1906216627,0.0187110882,0.23056,0.36072,0.027614,-1.4994367849999999,-9.658667651499998,0.7950153088499999,-2.0583,1.3969,3.0925,0.0006900000000000794,-0.000700000000000145,0.00040000000000006697,0.008631874874340806,-0.01004126086101631,0.01381885483851475
150000000000.0,-1,0.28800169719999996,-0.20942101074999997,0.022418001899999998,0.22095,0.35867,0.025453,-1.4999271175,-9.657196654,0.81151009415,-2.0667,1.396,3.1046,-0.000280000000000058,0.0009000000000001229,-0.0008700000000000374,-0.011593381763923327,0.011346564805180037,-0.005887995775782251
150000000000.0,-1,0.28034270355,-0.22018871245,0.010914801449999999,0.20814,0.35558,0.022221,-1.500221317,-9.655921789499999,0.8267594349,-2.0745,1.3952,3.1161,0.0008099999999999774,-0.0008000000000001339,0.00046999999999997044,0.012477241975811237,-0.011679851326888091,0.013217517856833005
150000000000.0,-1,0.30052478925,-0.19049417625,-0.0097870367,0.19955,0.34713,0.019005,-1.4997309845,-9.6547449915,0.8407241044999999,-2.0817,1.3946,3.1269,0.00014999999999998348,0.00010000000000021103,-0.00014999999999998348,-0.0006090824498252712,0.0002981650620303977,0.0040157771516273755
150000000000.0,-1,0.31311652785,-0.11608131605,-0.019966339399999998,0.18882,0.33869,0.01792,-1.498848386,-9.6537643265,0.8537473356999999,-2.0886,1.394,3.1373,0.00017000000000000348,0.00029999999999996696,-0.00012999999999996348,-0.003606254357438665,0.0012345303692813392,0.003925305295919834
150000000000.0,-1,0.32088339465,-0.0763938035,-0.0225160684,0.17598,0.3324,0.013624,-1.497475455,-9.652881727999999,0.8657212553499999,-2.095,1.3935,-3.136,0.00017000000000000348,0.00019999999999997797,-9.00000000000345e-05,-0.0035418599869847522,5.537433494251509e-05,0.003545970500459905
150000000000.0,-1,0.29562146425,-0.07506990575,-0.024516625,0.16201,0.31654,0.009345,-1.4962005905,-9.652097196,0.8765576036,-2.1008,1.393,-3.1269,4.999999999999449e-05,0.00019999999999997797,-0.00014999999999998348,-0.0025580347848011,0.0010586601908046944,0.0033632888289312213
150000000000.0,-1,0.2851577687,-0.09383983384999998,-0.036549384549999994,0.13958,0.31033,0.003966,-1.4943373269999998,-9.6516068635,0.8852953287499999,-2.1056,1.3927,-3.1188,-0.00044999999999995044,0.0007999999999999119,-0.0007599999999999829,-0.010897976547826538,0.009944972999390123,-0.005657624633134795
150000000000.0,-1,0.27354669509999996,-0.1405096812,-0.024232232149999998,0.1182,0.30199,-0.002473,-1.4920817975,-9.651312664,0.8922776635499999,-2.1098,1.3926,-3.1116,0.00021000000000004349,0.00019999999999997797,-0.00012000000000000899,-0.0004901561623240624,-8.676731366397128e-05,0.002952982537750337
150000000000.0,-1,0.2593466659,-0.16842921374999997,0.0022751428,0.093618,0.29473,-0.005718,-1.4895320685,-9.6512145975,0.8973378949499999,-2.113,1.3925,-3.1053,2.999999999997449e-05,9.999999999998899e-05,-0.00014999999999998348,-0.0007145548225566678,-1.9770882395686584e-06,0.0034877939447128803
150000000000.0,-1,0.25965067205,-0.15417034464999999,0.017524483549999997,0.066894,0.28643,-0.008964,-1.4864920069999998,-9.651410730499999,0.9002112434,-2.1153,1.3926,-3.1001,-2.0000000000020002e-05,9.999999999998899e-05,-0.0001100000000000545,-0.0017416563178072053,0.0002458215990110979,0.00324049768799739
150000000000.0,-1,0.25651254404999996,-0.139842829,0.023987065899999997,0.04123,0.27918,-0.009008,-1.4835500119999998,-9.651802996499999,0.9007702224499999,-2.1165,1.3929,-3.0961,-9.00000000000345e-05,0.00010000000000021103,-0.00012000000000000899,-0.00022574391968732677,0.0002994777631852852,0.0032970866203023697
150000000000.0,-1,0.26663300685,-0.1116781302,0.0152395341,0.017655,0.26765,-0.006907,-1.4805099505,-9.652489462,0.8990442520499999,-2.1165,1.3932,-3.0933,-6.499999999998174e-05,4.999999999988347e-05,-7.999999999996898e-05,-0.000764657939999358,-0.00026599856184139625,0.00329459192504844
150000000000.0,-1,0.28920791515,-0.06905842929999999,0.0068450417,-0.003751,0.2593,-0.006942,-1.477077623,-9.653372060499999,0.8953275317,-2.1157,1.3937,-3.0915,-6.499999999998174e-05,5.0000000000105516e-05,-7.00000000000145e-05,-0.0001817740491196762,0.0006210992725139697,0.0032246445254693334
150000000000.0,-1,0.28216674045,-0.07032348715,0.02272200805,-0.020919,0.24772,-0.005897,-1.4737433619999998,-9.654352725499999,0.89021826705,-2.1142,1.3943,-3.0906,-0.000260000000000038,9.999999999998899e-05,-7.00000000000145e-05,0.0008857710572316435,0.0004454853182158658,0.00295064271090828
150000000000.0,-1,0.2603273309,-0.11523794414999998,0.0475622525,-0.038115,0.234,-0.002713,-1.4707033004999999,-9.6553333905,0.8840793041499999,-2.112,1.3949,-3.0904,-7.999999999996898e-05,9.999999999998899e-05,-5.999999999994898e-05,0.0001297945950238244,-0.0005045554760518822,0.001806649839236396
150000000000.0,-1,0.25686558345,-0.19339694464999999,0.07018619405,-0.059575,0.21926,-0.00167,-1.4677613054999998,-9.656510188499999,0.8764203105,-2.1091,1.3956,-3.0912,-0.000160000000000049,-5.0000000000105516e-05,-2.999999999997449e-05,0.0013322575969498818,0.0001663984325392942,0.0017084412859049714
150000000000.0,-1,0.23631084505,-0.25859155385,0.09089783885,-0.080998,0.20984,0.000432,-1.46511351,-9.657785053,0.8670843797,-2.1052,1.3963,-3.093,-0.00039999999999995595,-4.999999999988347e-05,-5.0000000000105516e-05,0.0008340412712743994,-4.911261717377435e-05,0.002710081148376453
150000000000.0,-1,0.2256314032,-0.30050517595,0.1276237431,-0.10348,0.2015,0.003598,-1.4626618475,-9.659059917499999,0.85624803145,-2.1004,1.3971,-3.0959,-0.00034000000000000696,4.999999999988347e-05,-9.99999999995449e-06,0.0011795016462057273,0.00044021448395059615,0.002351724616369122
150000000000.0,-1,0.22202255599999998,-0.32016750920000003,0.1682036608,-0.12169,0.19099,0.002505,-1.4601121185,-9.660530914999999,0.8443917916,-2.0951,1.3979,-3.0994,-0.00037999999999993594,5.0000000000105516e-05,6.0000000000060005e-05,0.0019102993580122352,9.27194557183153e-05,0.0019316800679258783
150000000000.0,-1,0.20606713645,-0.30162313404999996,0.18189374419999998,-0.13674,0.17726,0.003559,-1.4577585225,-9.6620019125,0.8313097205,-2.0891,1.3988,-3.1038,-0.00034000000000000696,3.333333333332966e-05,4.999999999999449e-05,0.0016126701891339135,-0.0003995056957821763,0.0010241483270307938
150000000000.0,-1,0.20268384219999996,-0.24516625,0.18098172575,-0.14755,0.15923,0.003561,-1.4554049264999998,-9.663570976499999,0.8174038907999999,-2.0825,1.3997,-3.1088,-0.00046000000000001595,3.333333333332966e-05,5.999999999994898e-05,0.0011166978445991127,0.00017784424018363332,0.0006947535047157061
150000000000.0,-1,0.2091366179,-0.1459425653,0.18424734019999997,-0.14662,0.14004,0.00145,-1.4529532639999998,-9.665041974,0.8039589736499999,-2.0762,1.4007,-3.1138,-0.00046000000000001595,3.333333333332966e-05,6.0000000000060005e-05,0.0015637357278386332,0.0005861787428429466,0.0014695041515078167
150000000000.0,-1,0.21949244029999998,-0.028351025149999997,0.16093693315,-0.14034,0.12294,0.000413,-1.4503054684999999,-9.6665129715,0.7909063224999999,-2.0701,1.4015,-3.1188,-0.0006399999999999739,-9.999999999998899e-05,6.999999999990347e-05,0.0014365880808517861,0.0005685360110951887,0.0023434545221858727
150000000000.0,-1,0.24342066629999998,0.0809244758,0.12653520494999998,-0.1213,0.10147,0.000473,-1.4472654069999997,-9.6678859025,0.7793737021,-2.0648,1.4024,-3.1232,-0.000520000000000076,5.0000000000105516e-05,0.0001100000000000545,0.0010226179419854375,0.00037248294412761673,0.0016212218600832884
150000000000.0,-1,0.24825534475,0.16327091585,0.09184908389999999,-0.096953,0.076761,-0.000519,-1.4440292124999998,-9.669160767,0.7699102848499999,-2.0606,1.4031,-3.1266,-0.0004999999999999449,4.999999999988347e-05,0.00019999999999997797,0.0027434005018762697,0.0008132396781814766,0.0014345855476234348
150000000000.0,-1,0.24192024885,0.19893770189999999,0.04796432515,-0.070459,0.052035,-0.003642,-1.4404988184999998,-9.670239498499999,0.7626239439,-2.0577,1.4038,-3.129,-0.00048000000000003595,-4.999999999988347e-05,4.0000000000040004e-05,0.0015180486628565415,-5.302855926214711e-05,0.0010261614251576567
150000000000.0,-1,0.20023217969999998,0.18808174035,0.019348520449999997,-0.043924,0.027319,-0.015302,-1.4365761585,-9.6712201635,0.75786771865,-2.0563,1.4044,-3.1302,-0.0005399999999999849,-5.0000000000105516e-05,2.999999999997449e-05,0.000509220678207134,0.00019147443364397887,0.0003719071594501244
150000000000.0,-1,0.13170330949999998,0.12495633429999999,0.028537351499999995,-0.022699,0.006907,-0.024841,-1.4324573655,-9.6720046955,0.75571025565,-2.0562,1.4049,-3.1301,-0.0007199999999999429,-0.00019999999999997797,-0.00014999999999998348,0.001329197061581855,4.652076279687556e-05,0.0017976934630525854
150000000000.0,-1,0.08622987345,-0.0099047165,0.0542896144,-0.008933,-0.012377,-0.034394,-1.4277501735,-9.672691161,0.7555435426,-2.0575,1.4053,-3.1289,-0.00043999999999999595,-9.999999999998899e-05,9.99999999995449e-06,-0.0010628778772610037,-0.0008947387264346407,-0.0003120246607450916
150000000000.0,-1,0.06793066454999999,-0.15211094815,0.1092264677,-0.001535,-0.026284,-0.041833,-1.422160383,-9.673377626499999,0.75718125315,-2.06,1.4058,-3.1266,-0.0005900000000000905,-0.00020000000000020002,-9.99999999995449e-06,0.0006749905730216721,-0.0006030949385986695,2.4896065363932962e-05
150000000000.0,-1,0.02874329115,-0.2925519828,0.14359877594999998,-0.001616,-0.039068,-0.045017,-1.4163744594999998,-9.674064092,0.7596133023499999,-2.0631,1.4062,-3.1239,-0.0005100000000000104,-0.00019999999999997797,9.99999999995449e-06,-0.0003254639962952943,-0.00039570691037327244,-0.0006911714314297157
150000000000.0,-1,0.01787752295,-0.3682593208,0.1339784523,-0.008031,-0.043275,-0.048227,-1.4100982035,-9.674848624,0.7614569525499999,-2.0659,1.4066,-3.1215,-0.0005199999999999649,-9.999999999998899e-05,4.999999999999449e-05,0.0009823264620103522,-0.0007797128325570668,-0.0008699999881836007
150000000000.0,-1,0.006894074949999999,-0.3795369683,0.12157304005,-0.017664,-0.047458,-0.048239,-1.403920014,-9.675633155999998,0.76218264465,-2.0682,1.4072,-3.1198,-0.00017999999999995797,-0.0009999999999998899,0.0006599999999999939,0.008957110615059882,-0.012266004116400442,0.007434556804772452
150000000000.0,-1,0.0116503002,-0.33841768484999996,0.13240938829999999,-0.031519,-0.044151,-0.04507,-1.3980360239999998,-9.676515754499999,0.761976705,-2.0698,1.4077,-3.1186,-0.0005399999999999849,-0.00019999999999997797,0.00031000000000003247,0.000546679283041529,-0.0021437663814913854,0.0015106162427014347
150000000000.0,-1,0.0322442652,-0.2564242842,0.1271334106,-0.042209,-0.041941,-0.036557,-1.392740433,-9.677398353,0.7603684143999999,-2.0705,1.4083,-3.1183,-0.0006200000000000649,-9.999999999998899e-05,0.00021999999999999797,0.0004884888642817664,0.0009321409871800856,0.0002481951152772943
150000000000.0,-1,0.06830331725,-0.16082906,0.11869969159999999,-0.053969,-0.03866,-0.025913,-1.3881313075,-9.6782809515,0.75773042555,-2.0705,1.4088,-3.1188,-0.0006300000000000194,0.00039999999999995595,0.000140000000000029,-0.000731415582406747,0.0014556089453889864,-0.0017230293706380628
150000000000.0,-1,0.1141690193,-0.07483454614999999,0.1096971869,-0.062538,-0.035406,-0.013131,-1.3841105809999998,-9.67916355,0.7541608049499999,-2.0697,1.4094,-3.1201,-0.0011700000000000044,0.00039999999999995595,-0.00036999999999998145,-0.010316775381964627,0.00983662497301574,-0.010345291562913417
150000000000.0,-1,0.1381953118,-0.034391921549999996,0.08908360859999999,-0.069995,-0.02577,0.000708,-1.3812666525,-9.679948082,0.74933593315,-2.0679,1.4099,-3.1222,-0.0007099999999999884,-9.999999999998899e-05,0.00013999999999991797,0.0004551550080262867,0.00041464773026800295,-9.53877203087039e-05
150000000000.0,-1,0.13591036234999998,-0.033548549649999995,0.06891132955,-0.076427,-0.022533,0.012426,-1.3795014554999998,-9.680634547499999,0.74347155645,-2.0651,1.4103,-3.1253,-0.0007800000000000029,-9.999999999998899e-05,0.00017000000000000348,0.0006888048051758577,-7.625944216682612e-05,-0.0007537894822844393
150000000000.0,-1,0.13164446959999998,-0.05839860075,0.05004333495,-0.080712,-0.018247,0.023079,-1.379011123,-9.6812229465,0.7367540012,-2.0615,1.4107,-3.1292,-0.0008699999999999264,-0.00039999999999995595,9.999999999998899e-05,0.0026274605535610007,-0.00023344844408224041,0.0015109958985957128
150000000000.0,-1,0.08967200759999999,-0.11581653649999998,0.06622430745,-0.080737,-0.015062,0.033743,-1.3801879209999999,-9.681517146,0.7301443191,-2.0574,1.4109,-3.1335,-0.0008299999999999974,-0.00019999999999997797,0.000140000000000029,0.0014791131369475963,-0.00018765517266472465,-0.0010544131363485754
150000000000.0,-1,0.05620191115,-0.19786877705,0.1108935982,-0.080759,-0.01294,0.042274,-1.3826395835,-9.681615212499999,0.7240838094,-2.0532,1.411,-3.1379,-0.0009400000000000519,-0.000300000000000189,0.000160000000000049,0.0015148014803927357,-0.0010616334322390841,-0.0013512714866434905
150000000000.0,-1,0.03735352985,-0.2778223945,0.15035555779999998,-0.086102,-0.008645,0.05186,-1.386071911,-9.681615212499999,0.7181409795,-2.0488,1.4109,3.1407,-0.0008299999999999974,-0.00019999999999997797,0.00019999999999997797,-0.0009544394103349063,8.320314860643663e-05,-0.0004520865757817738
150000000000.0,-1,0.028615804699999997,-0.3684554538,0.16305516955,-0.099946,-1.6e-05,0.061424,-1.3904849035,-9.681517146,0.7109821249999999,-2.0435,1.4109,3.1352,-0.0008899999999999464,-9.999999999998899e-05,0.000260000000000038,0.0007942439585097993,0.0008038926080340403,0.0008089765312484509
150000000000.0,-1,0.02697809415,-0.42342172705,0.18311957545,-0.11701,0.009698,0.076316,-1.3961727604999998,-9.681321013,0.70244053285,-2.0369,1.4107,3.1286,-0.0009100000000000774,-0.00029999999999996696,0.00031999999999998696,0.0004123143850385258,0.0003955549812701964,-0.0008251420636962159
150000000000.0,-1,0.06461601685,-0.39843438284999994,0.19265163924999998,-0.12876,0.019365,0.095487,-1.403135482,-9.681026813499999,0.6926044628999999,-2.0293,1.4106,3.121,-0.0008799999999999919,-0.00029999999999996696,0.00031999999999998696,0.0016577821976910823,0.0011521749919054525,-9.91212929295493e-05
150000000000.0,-1,0.1272314771,-0.24523489655,0.19397553699999998,-0.13093,0.025754,0.11575,-1.4114711345,-9.680536480999999,0.6824545801499999,-2.0212,1.4102,3.1129,-0.0010799999999999699,-0.00029999999999996696,0.00039000000000000146,0.00013423030288528537,0.0017662898684127626,0.0011498039224622225
150000000000.0,-1,0.2036056673,0.007992419749999998,0.16533031234999998,-0.12461,0.02781,0.13602,-1.4208855184999998,-9.6798500155,0.6726381235,-2.0129,1.4098,3.1048,-0.00041000000000002146,-0.0013000000000000789,0.0010799999999999699,0.015894225070868018,-0.015331633245050602,0.01191359776725287
150000000000.0,-1,0.26371062515,0.2754687985,0.1177778665,-0.10441,0.027626,0.15206,-1.4316728335,-9.6788693505,0.6639298183,-2.005,1.4092,3.097,-0.0011499999999999844,0.00029999999999996696,0.00012999999999996348,-0.0017911399779246828,0.007357798951542316,-0.005255691623095693
150000000000.0,-1,0.30376098375,0.48706688555,0.06863674335,-0.080006,0.019951,0.16599,-1.4475596064999998,-9.677104153499998,0.6553097729499999,-1.9959,1.408,3.088,-0.0018299999999999983,9.999999999998899e-05,-0.00026999999999999247,-0.007970394672559111,0.010615918074051711,-0.007784343604608779
150000000000.0,-1,0.3452529199,0.6270568142999999,0.0125328987,-0.049179,0.012227,0.17673,-1.464525111,-9.674848624,0.6496121092999999,-1.9883,1.4067,3.0804,-0.0011200000000000099,-0.0004999999999999449,0.00019000000000002348,-0.00045447734375270166,0.00025905155993033446,0.0007265618652927408
150000000000.0,-1,0.34044766139999993,0.62141799055,-0.015425860449999999,-0.008715,0.002303,0.17682,-1.481784815,-9.6723969615,0.6477880724,-1.9829,1.4051,3.075,-0.0009700000000000264,-0.00039999999999995595,0.000160000000000049,0.000656177332024166,0.00261352472983134,-0.00048136321450487074
150000000000.0,-1,0.29232642984999996,0.49536331145,-0.01207198615,0.032828,-0.01082,0.16943,-1.49453346,-9.670239498499999,0.6505829676499999,-1.9814,1.4038,3.0733,-0.0011599999999999389,-0.0004999999999999449,6.999999999990347e-05,-0.0011185844666912192,0.0010766783690756565,0.0011234340619270533
150000000000.0,-1,0.2201789058,0.28140182174999995,-0.0076295737,0.071202,-0.023909,0.15565,-1.5099299005,-9.66739557,0.6569082569,-1.9812,1.4021,3.0729,-0.0011499999999999844,-0.000600000000000156,7.00000000000145e-05,-0.0003564132957747379,0.001934876795941065,-0.0008842449067523184
150000000000.0,-1,0.12109251419999999,0.07334393535,-0.020593965,0.1043,-0.034815,0.13437,-1.5231688780000001,-9.664649707999999,0.6667247135500001,-1.9834,1.4004,3.0748,-0.0011500000000000954,-0.0004999999999999449,9.00000000000345e-05,0.0019842103930287625,0.002809962202726002,-0.0012528456675791055
150000000000.0,-1,0.0535246957,-0.10752991725,-0.023330020349999998,0.13095,-0.050995,0.11203,-1.5343484589999998,-9.6620019125,0.6794831652,-1.9877,1.3988,3.0787,-0.0011899999999999133,-0.0004999999999999449,-5.999999999994898e-05,-0.000709074550195643,0.0019937018080058433,-0.0003842432350773528
150000000000.0,-1,0.01968194655,-0.22804383909999998,-0.0018142302499999999,0.14807,-0.058572,0.08966,-1.542193779,-9.659746383,0.6941931402,-1.9937,1.3975,3.0843,-0.0010200000000000209,-0.0004999999999999449,-6.0000000000060005e-05,-0.0017691795428744772,0.0007838076468604793,-0.00020556958634498912
150000000000.0,-1,0.01083634825,-0.30909580135,0.01876012145,0.15773,-0.068216,0.064075,-1.548666168,-9.6574908535,0.7102760462000001,-2.0008,1.3962,3.0908,-0.0009299999999999864,-0.000600000000000156,2.999999999997449e-05,-0.000815355892699765,0.0006246110133363292,-0.0007851993999250517
150000000000.0,-1,0.013876409749999999,-0.31181224339999997,-0.00010787314999999999,0.15351,-0.077745,0.038467,-1.5524907614999999,-9.6557256565,0.72644721205,-2.0085,1.3951,3.0978,-0.0005500000000000504,-0.0014999999999998348,0.0007400000000000739,0.009236506988680171,-0.01282826585387542,0.009494051075561227
150000000000.0,-1,0.00381478685,-0.24290091384999998,-0.03272479105,0.14925,-0.091537,0.013934,-1.553765626,-9.654254659,0.7423045651,-2.0165,1.3943,3.105,-0.0010299999999999754,-0.000500000000000167,8.999999999992347e-05,-0.0047470229337032155,0.00166390381920678,-0.0006820642856810721
150000000000.0,-1,0.01648497865,-0.12943797334999999,-0.04822910469999999,0.15139,-0.10645,-0.010588,-1.5518042959999998,-9.653470127,0.7575048725999999,-2.0249,1.3938,3.1126,-0.0012999999999999678,0.000400000000000178,-0.00039999999999995595,-0.011231749264507096,0.012149778317951387,-0.010095249720733168
150000000000.0,-1,-0.005491723999999999,-0.0282235387,-0.07228481715,0.14926,-0.12026,-0.03405,-1.5480777689999998,-9.652685595,0.7737839115999999,-2.0343,1.3934,3.1209,-0.0011400000000000299,-0.000600000000000156,0.00012000000000000899,-0.0013404217118164752,0.0006378251763556886,-0.00018297587249804792
150000000000.0,-1,-0.0271448072,-0.0030792880999999995,-0.11184484324999999,0.14179,-0.13615,-0.059653,-1.5418015129999998,-9.652489462,0.7897099112,-2.0442,1.3932,3.1296,-0.0011499999999999844,-0.0005999999999999339,0.000140000000000029,-0.0028728441387189108,-0.00014800826370242604,-0.0008742673771817699
150000000000.0,-1,-0.08073814945,-0.07967903125,-0.18431598675,0.13005,-0.15308,-0.085261,-1.5329755279999997,-9.6525875285,0.8048611854499998,-2.0543,1.3933,3.1383,-0.0003300000000000525,-0.0012000000000000899,0.0007599999999999829,0.010942125056925711,-0.01168443655293494,0.006398614095248334
150000000000.0,-1,-0.15170887549999998,-0.23777203589999998,-0.24789249869999996,0.12147,-0.17216,-0.10979,-1.5237572769999999,-9.653273994,0.8141186630499999,-2.0615,1.3937,-3.1391,-0.0014699999999999713,0.000400000000000178,-0.00041000000000002146,-0.011128672908093273,0.009222393658650407,-0.009753124964904103
150000000000.0,-1,-0.1918573006,-0.3498228188,-0.29446427955,0.11927,-0.19344,-0.13003,-1.5101260334999997,-9.6541565925,0.8285246319,-2.0726,1.3942,-3.1298,-0.0009799999999999809,-0.00019999999999997797,0.00031000000000003247,-0.0016916350306921402,-0.0010034024635992012,-0.0006150517583116688
150000000000.0,-1,-0.223395487,-0.34745941615,-0.33270040789999994,0.1181,-0.21685,-0.14814,-1.4944353934999999,-9.6553333905,0.8431169270999999,-2.0844,1.3949,-3.1199,-0.0009299999999999864,-0.000400000000000178,0.00020999999999993246,-0.0013448598021130742,-0.0011263798322869167,-0.0003548041571930227
150000000000.0,-1,-0.22415059904999998,-0.22976000284999998,-0.40618163634999993,0.10944,-0.2434,-0.16412,-1.47688149,-9.656804388,0.85748366935,-2.0968,1.3958,-3.1097,-0.0009100000000000774,-0.00029999999999996696,0.0003700000000000925,-0.00459192723581503,-0.0008878460647738784,-0.0023494137569999296
150000000000.0,-1,-0.23280006434999997,-0.10572549365,-0.4965106895,0.097576,-0.26247,-0.17477,-1.4624657145,-9.658765718,0.8605727640999999,-2.1027,1.3969,-3.1062,-0.0007399999999999629,-0.00029999999999996696,0.00034999999999996145,-0.0031107917669304097,-0.0009893031969867572,-0.001846793243768019
150000000000.0,-1,-0.27141865205,-0.005236751099999999,-0.5656671852999999,0.082472,-0.28791,-0.18222,-1.442558215,-9.6606289815,0.87301740295,-2.115,1.398,-3.0965,-0.0008099999999999774,-0.00029999999999996696,0.00024999999999997247,-0.0013878169861856193,-0.0011669054694176673,-0.0025005879056583247
150000000000.0,-1,-0.2821373205,0.1189938911,-0.6319503326499999,0.068368,-0.31657,-0.18113,-1.4222584495,-9.662590311499999,0.8843833103,-2.1271,1.3992,-3.0874,-0.0008500000000000174,-0.0004999999999999449,0.00034000000000000696,0.0005587777306883535,-0.0031115168558928374,-0.0020218077750748797
150000000000.0,-1,-0.302829352,0.1814818649,-0.6606740105,0.051137,-0.33455,-0.17792,-1.401958684,-9.664649707999999,0.8944057065999999,-2.1387,1.4004,-3.079,-0.00041999999999997595,-0.0015000000000000568,0.0009700000000000264,0.011612876194194932,-0.016034689757473908,0.006507215259031085
150000000000.0,-1,-0.28926675505,0.20240925599999998,-0.6673425325,0.042403,-0.35259,-0.17362,-1.388425507,-9.667003304,0.8898554209999999,-2.1407,1.4018,-3.0802,-0.0007900000000000684,-0.00019999999999997797,0.00034000000000000696,-0.0025912676485786434,0.0001670275037592983,-0.004634145510349796
150000000000.0,-1,-0.2933561281,0.15808319799999998,-0.6915257314,0.025114,-0.3759,-0.1672,-1.368812207,-9.6690627005,0.8978772607,-2.1513,1.4031,-3.0732,-0.00045999999999990493,-0.00029999999999996696,0.00036000000000002697,0.0002914328092797902,-0.002757963424643517,-0.0017914123669755533
150000000000.0,-1,-0.3517645355,0.13112471715,-0.7536410525,0.011105,-0.38858,-0.15973,-1.3495911729999999,-9.671122097,0.9046242358999999,-2.1613,1.4044,-3.067,-0.0011400000000000299,0.0006999999999999229,-0.00048000000000003595,-0.01283020588463657,0.010351575696080584,-0.012714806777529564
150000000000.0,-1,-0.40571091714999996,0.10157728069999998,-0.7402843952,-0.001836,-0.39914,-0.14906,-1.3312527375,-9.6731814935,0.91012576655,-2.1705,1.4056,-3.0617,-9.00000000000345e-05,-0.001000000000000112,0.0008299999999999974,0.007186438117841254,-0.011705453563014112,0.004130772737718225
150000000000.0,-1,-0.42470639819999995,0.05790826824999999,-0.6982138667,-0.018026,-0.40967,-0.13624,-1.3237016169999998,-9.67524089,0.8985833395,-2.1672,1.4069,-3.0689,-0.0009399999999999409,0.000300000000000189,-0.00034999999999996145,-0.010271651885250144,0.006571127452712711,-0.011609846356575915
150000000000.0,-1,-0.41139877415,0.09161372429999999,-0.6406096045999999,-0.022334,-0.40539,-0.12131,-1.3079129104999998,-9.677104153499998,0.9018783739,-2.1745,1.4081,-3.0657,9.99999999995449e-06,-0.001000000000000112,0.0008299999999999974,0.008310665444287713,-0.010990104076942453,0.0032252907956547006
150000000000.0,-1,-0.40796644665,0.053161849649999995,-0.5586554305499999,-0.029889,-0.40428,-0.10211,-1.293889401,-9.678771284,0.9044673295,-2.1809,1.4091,-3.0633,-0.0008200000000000429,0.00039999999999995595,-0.00034000000000000696,-0.008707440310749881,0.007409910451994239,-0.012543105024731549
150000000000.0,-1,-0.43114936724999997,0.04765051234999999,-0.5461617584499999,-0.041691,-0.40313,-0.087189,-1.2814349555,-9.6802422815,0.9058892937499999,-2.1862,1.4101,-3.062,-0.00027999999999994696,-0.00019999999999997797,0.00031999999999998696,0.00041843357539250725,-0.000717418902674849,-0.004262942241903378
150000000000.0,-1,-0.39451172284999997,0.06651850695,-0.5001685699499999,-0.051325,-0.39028,-0.065856,-1.2802581574999998,-9.681517146,0.89461164625,-2.1807,1.4109,-3.0713,-0.0003300000000000525,-0.00029999999999996696,0.00022999999999995246,0.00032780638838736387,-0.001077536251536504,-0.00392174058930328
150000000000.0,-1,-0.3830281357,0.06859751675,-0.4019157436,-0.060922,-0.37743,-0.050928,-1.2804542904999998,-9.6823997445,0.8846480898499999,-2.1754,1.4114,-3.0803,0.00043000000000004146,-0.0020999999999999908,0.0012499999999999734,-0.017276840211549738,-0.010907835834148338,0.013496951512939948
150000000000.0,-1,-0.38060589315,0.12696669755,-0.33645635485,-0.070464,-0.35818,-0.036011,-1.2823175539999998,-9.6829881435,0.8753023524,-2.1697,1.4118,-3.0895,-0.00027999999999994696,-0.00019999999999997797,0.0001100000000000545,-0.0020428638744429684,-0.0010489739216776872,-0.0042535775491492345
150000000000.0,-1,-0.33567182285,0.18498283895,-0.324207849,-0.078949,-0.34107,-0.022159,-1.2847692164999998,-9.683576542499999,0.8654466691499999,-2.1636,1.4122,-3.0991,-0.00036000000000002697,9.999999999998899e-05,-0.00017000000000000348,-0.009602680088373061,0.004931156663002811,-0.007749046092791367
150000000000.0,-1,-0.31148862395,0.22844591174999998,-0.32588478614999994,-0.085353,-0.3325,-0.011492,-1.288005411,-9.684066875,0.8548554871499999,-2.1568,1.4125,-3.1093,-0.000180000000000069,-0.00029999999999996696,0.00017999999999995797,0.0019319478963157888,-0.0011942836015101932,-0.004591436485208877
150000000000.0,-1,-0.2985536526,0.29826925975,-0.3063989726,-0.09381,-0.31539,-0.002978,-1.2922222705,-9.684459141,0.84389165245,-2.1493,1.4128,-3.1199,-0.00047999999999992493,0.0008999999999999009,-0.0006199999999999539,0.02774679650520273,0.0029815548894605026,-0.014511519782053117
150000000000.0,-1,-0.3120672163,0.34155581285,-0.26487761649999997,-0.096912,-0.29725,0.003409,-1.2977139945,-9.684655273999999,0.8332024039499999,-2.1416,1.4129,-3.1307,-9.00000000000345e-05,-0.00019999999999997797,0.000140000000000029,-8.590689655485484e-05,0.0006216471556299563,-0.0032919368419186412
150000000000.0,-1,-0.2967296157,0.34875389394999995,-0.23889980065,-0.10433,-0.28547,0.008732,-1.303499918,-9.684753340499999,0.8221895359999999,-2.1335,1.413,3.1416,-0.000140000000000029,-0.00029999999999996696,0.00015999999999993797,-0.00012507549636775472,0.00023841990867001783,-0.0032040329726403805
150000000000.0,-1,-0.2831964387,0.34355636945,-0.242616521,-0.11169,-0.26836,0.01191,-1.3095800409999998,-9.6849494735,0.8103332961499999,-2.1249,1.4131,3.1302,-4.999999999999449e-05,-0.00029999999999996696,-2.0000000000020002e-05,0.0007125878115885609,-0.0003824800801106587,-0.002631640288829118
150000000000.0,-1,-0.2952586182,0.3184415388,-0.2295736765,-0.12117,-0.25123,0.012949,-1.31605243,-9.685145606499999,0.7975944577999999,-2.1157,1.4132,3.1184,0.0001100000000000545,-0.00019999999999997797,-2.999999999997449e-05,0.0008953539640357278,-0.0006845284312841926,-0.0036650396699373644
150000000000.0,-1,-0.3083799159,0.27173246484999997,-0.20545912415,-0.1296,-0.23411,0.017193,-1.323113218,-9.685243673,0.7842574137999999,-2.1059,1.4133,3.1062,4.999999999999449e-05,-0.00019999999999997797,-9.00000000000345e-05,0.00034404187952175036,-0.0006884664467463608,-0.0033291607035463855
150000000000.0,-1,-0.2469706736,0.24034137819999998,-0.16798791449999997,-0.13598,-0.22448,0.02572,-1.329585607,-9.685439806,0.7708811431999999,-2.0962,1.4134,3.0942,0.00022999999999995246,-9.999999999998899e-05,-5.999999999994898e-05,0.0004675074079254493,-0.0006476238670660717,-0.0028722471081574774
150000000000.0,-1,-0.18887607899999997,0.2086462854,-0.12014126915,-0.14551,-0.20736,0.037427,-1.3359599294999998,-9.685635938999999,0.7575931324499999,-2.0867,1.4135,3.0825,9.00000000000345e-05,-0.00019999999999997797,-0.000140000000000029,0.0016480709690942508,-0.00024882582902185924,-0.0020980173298434934
150000000000.0,-1,-0.14279463064999998,0.1613782324,-0.0675678185,-0.15715,-0.18916,0.048058,-1.342334252,-9.685832072,0.7439324689999999,-2.0769,1.4137,3.0706,0.00014999999999998348,-0.00010000000000021103,-7.999999999996898e-05,0.0016280830343726738,0.00036199661148161866,-0.002206883958183692
150000000000.0,-1,-0.10634331259999999,0.11495355129999998,-0.045149816599999996,-0.16243,-0.17314,0.061903,-1.3492969734999998,-9.6859301385,0.7297422464500001,-2.0666,1.4137,3.0584,4.999999999999449e-05,-0.00019999999999997797,-9.999999999998899e-05,0.0013053268449274569,0.0006527931771980189,-0.0015683785496789504
150000000000.0,-1,-0.0906526726,0.021839409549999998,-0.029194397049999998,-0.16667,-0.15821,0.078953,-1.3574364929999998,-9.6859301385,0.7151401446,-2.0557,1.4137,3.0458,0.000260000000000038,-9.999999999998899e-05,-9.00000000000345e-05,0.00091546749624416,0.00022379712771325444,-0.002383765223560985
150000000000.0,-1,-0.052406737599999996,-0.05184775855,-0.0197113665,-0.16983,-0.14647,0.089603,-1.365674079,-9.685832072,0.7001163568,-2.0445,1.4137,3.033,0.0005300000000000304,-0.0010999999999998789,0.00043000000000004146,0.011317698678782406,-0.01048778053785715,0.005544334694530306
150000000000.0,-1,-0.024026292499999997,-0.07255940335,1.9613299999999997e-05,-0.16977,-0.13156,0.10025,-1.3745981305,-9.685635938999999,0.68531812195,-2.0333,1.4135,3.0203,0.00017000000000000348,-5.0000000000105516e-05,-0.00014999999999998348,0.0023331612965586945,0.0008102426001124208,-0.0014605760338382012
150000000000.0,-1,-0.029272850249999996,-0.09275129569999999,0.03631402495,-0.16546,-0.12095,0.10985,-1.3846989799999998,-9.685145606499999,0.6713240323999999,-2.0222,1.4132,3.0078,0.00015999999999993797,-4.999999999988347e-05,-0.0001300000000000745,0.002607627374126009,0.0008104573328473474,-0.0010441621731378525
150000000000.0,-1,-0.007511893899999999,-0.08927974159999999,0.047101339949999994,-0.15794,-0.1125,0.11412,-1.394897896,-9.6845572075,0.6581438948,-2.0117,1.4129,2.9959,0.00017999999999995797,-0.00019999999999997797,-0.00017000000000000348,0.001031070431048775,0.0008891823514787234,-0.0013358141418904346
150000000000.0,-1,0.025310963649999997,-0.051582978999999994,0.041658649199999995,-0.14829,-0.10405,0.11732,-1.4049987455,-9.6839688085,0.6456306094,-2.0015,1.4125,2.9846,0.0001500000000000945,-9.999999999998899e-05,-0.00012000000000000899,0.0026117424540894607,0.002129615310863864,-0.0019166831703119058
150000000000.0,-1,0.035882532349999996,-0.04449277105,0.0430315802,-0.13858,-0.091345,0.11624,-1.4149034619999998,-9.683282342999998,0.6340783756999999,-1.9921,1.412,2.9741,0.00025999999999992696,-0.00020000000000020002,-7.999999999996898e-05,0.002351859264151379,0.0016640160576970597,-0.0016473086544350757
150000000000.0,-1,0.0374025631,-0.0521321514,0.06553784195,-0.1268,-0.089307,0.11199,-1.4245139789999999,-9.682595877499999,0.6239971395,-1.9836,1.4115,2.9646,0.00021000000000004349,-9.999999999998899e-05,-0.00017999999999995797,0.00111415349462618,0.0014360319263015953,-0.002556766402796118
150000000000.0,-1,0.029920089149999995,-0.08628871334999999,0.08038511004999999,-0.11819,-0.084045,0.10666,-1.4338302965,-9.681713279,0.6149750214999999,-1.976,1.411,2.9559,-0.000160000000000049,0.000700000000000145,-0.0007099999999999884,-0.010614495171704874,0.011714133588891285,-0.01099460355866455
150000000000.0,-1,0.01399408955,-0.10972660684999999,0.10056719574999999,-0.10639,-0.079874,0.10026,-1.442754348,-9.680928747,0.6073748677499999,-1.9693,1.4105,2.9482,0.000280000000000058,-9.999999999998899e-05,-0.0001300000000000745,0.0005945665687017154,0.0011059717111165934,-0.0012798745703008763
150000000000.0,-1,0.037794829099999996,-0.0942419065,0.12430909539999999,-0.096703,-0.072492,0.097063,-1.4507958009999997,-9.680046148499999,0.6011280317,-1.9636,1.41,2.9417,0.00017999999999995797,-0.00029999999999996696,-0.00014999999999998348,-0.0006148745641332276,0.0007247862692738583,-0.0005967939415336687
150000000000.0,-1,0.07116685905,-0.068058151,0.1432751565,-0.085959,-0.067249,0.091732,-1.4578565889999997,-9.679359683,0.59623451335,-1.959,1.4095,2.9363,0.0011100000000000554,-0.0018000000000000238,0.0010499999999999954,-0.012693808991570465,-0.007483009920816963,0.016111629499483193
150000000000.0,-1,0.11108973119999999,-0.021456950199999998,0.1431967033,-0.075242,-0.064138,0.088537,-1.463936712,-9.6786732175,0.5924197265,-1.9553,1.409,2.9318,-0.00019000000000002348,0.0004999999999999449,-0.0006199999999999539,-0.013310199176079562,0.0065396424813817244,-0.006019130400933825
150000000000.0,-1,0.1497279322,0.029851442599999996,0.12806504235,-0.066685,-0.064207,0.085343,-1.469232303,-9.6780848185,0.5893012118,-1.9522,1.4087,2.928,0.00027999999999994696,-0.00019999999999997797,-9.999999999998899e-05,0.0023926248715488985,0.000678698009425327,-0.0010327907366809441
150000000000.0,-1,0.16823308074999999,0.04531652965,0.1157969232,-0.059183,-0.062136,0.08321,-1.4739394949999998,-9.677496419499999,0.5865945764,-1.9496,1.4083,2.9246,0.0007400000000000739,-0.0013000000000000789,0.00043999999999999595,0.010428561687859217,-0.009614111771891976,0.007800557292167998
150000000000.0,-1,0.17438185029999997,0.004716998649999999,0.14302999025,-0.055904,-0.057895,0.075728,-1.477862155,-9.677006086999999,0.58495686585,-1.9477,1.408,2.922,0.00021999999999999797,9.999999999998899e-05,-0.00017000000000000348,0.0016692612585136324,0.0016326494448153372,-0.0024574418016314326
150000000000.0,-1,0.15411150475,-0.0798065177,0.1786183231,-0.057961,-0.054674,0.067172,-1.4812944824999998,-9.676613820999998,0.58348586835,-1.946,1.4077,2.9197,0.00020999999999993246,-9.999999999998899e-05,-2.999999999997449e-05,0.0040306562737748575,-0.001050621481067715,-0.0008831401168736264
150000000000.0,-1,0.13677334754999998,-0.17574497465,0.20396851335,-0.063181,-0.0461,0.059668,-1.483942278,-9.676221555,0.58177951125,-1.9444,1.4075,2.9175,1.0000000000065512e-05,0.000600000000000156,-0.0004900000000001015,0.024497409130504577,-0.0008791118649875695,-0.009009797832626898
150000000000.0,-1,0.1319190558,-0.2639557914,0.23984123905,-0.060993,-0.043983,0.054324,-1.4860016745,-9.676025421999999,0.5803183204,-1.9431,1.4074,2.9157,0.00029999999999996696,-0.00010000000000021103,-0.00011999999999989797,-0.0015022741552062069,-0.0004193765574684871,0.0008646655993134189
150000000000.0,-1,0.13359599295,-0.2957489507,0.25643409084999996,-0.067273,-0.0354,0.04575,-1.4870804059999998,-9.6759273555,0.5788473229,-1.942,1.4073,2.9141,0.00024999999999997247,-9.999999999998899e-05,-3.0000000000085514e-05,-0.00013161199058897566,0.0003777109408402701,8.143641454383399e-05
150000000000.0,-1,0.15220901465,-0.25274679045,0.22781828615,-0.065063,-0.031151,0.039333,-1.487472672,-9.676025421999999,0.5769252195,-1.9408,1.4074,2.9125,0.00038000000000004697,-0.0006999999999999229,8.000000000008001e-05,-0.02307840737074396,0.005071682609748773,0.0045426515679602986
150000000000.0,-1,0.18825826005,-0.13951920955,0.18423753355,-0.059649,-0.026928,0.031854,-1.48668814,-9.676221555,0.57471872325,-1.9397,1.4075,2.911,0.00027999999999994696,-9.999999999998899e-05,2.999999999997449e-05,0.0013395386535854925,0.00039182831133932616,-0.000248198293035351
150000000000.0,-1,0.21593262635,0.0031185146999999996,0.15819107114999997,-0.055319,-0.022698,0.027574,-1.485315209,-9.676613820999998,0.57263971345,-1.9388,1.4077,2.9097,-3.999999999992898e-05,0.0008999999999999009,-0.0002300000000000635,0.021346246439989836,-0.0012121188803153604,-0.0070549768330003815
150000000000.0,-1,0.23093680084999998,0.11300202795,0.1450599668,-0.043529,-0.019596,0.023309,-1.4835500119999998,-9.676908020499999,0.5712569757999999,-1.9384,1.408,2.909,0.00012000000000000899,-0.00029999999999996696,-9.99999999995449e-06,0.0018643468658212647,0.0006249128148207994,-0.0010321782854805228
150000000000.0,-1,0.24076306414999998,0.17433281705,0.13802859875,-0.037055,-0.01751,0.0137,-1.4810002829999998,-9.677398353,0.57065877015,-1.9386,1.4082,2.909,0.00030999999999992145,0.00029999999999996696,7.00000000000145e-05,-0.00036763093348435305,-0.00041859995685111784,-0.000623996694399942
150000000000.0,-1,0.22638651525,0.16614426429999998,0.12892802755,-0.028457,-0.016507,0.004097,-1.4777640884999999,-9.6778886855,0.5706293501999999,-1.9393,1.4085,2.9095,-0.00039999999999995595,0.000300000000000189,-0.0007599999999999829,-0.006703270792527416,0.011752182328967908,-0.009799539555926273
150000000000.0,-1,0.1982512364,0.13659682785,0.13980360239999998,-0.018781,-0.01551,-0.007638,-1.4739394949999998,-9.678379018,0.5715707886,-1.9407,1.4089,2.9108,0.00019000000000002348,-9.999999999998899e-05,-2.999999999997449e-05,0.0002968119350110765,0.0002700218020548206,-0.0003606381788530122
150000000000.0,-1,0.15779880515,0.0839841506,0.14128440655,-0.017581,-0.009113,-0.022598,-1.469232303,-9.6790654835,0.5726299067999999,-1.9424,1.4093,2.9123,0.0006499999999999284,-0.001100000000000101,0.0007799999999998919,0.011852080829498401,-0.013225217617262919,0.010217989260324245
150000000000.0,-1,0.12060218169999999,0.03988364555,0.1547293237,-0.016383,-0.004843,-0.040755,-1.4634463795,-9.6798500155,0.5740028377999999,-1.9446,1.4098,2.9144,8.000000000008001e-05,-0.00019999999999997797,-0.00017999999999995797,-0.000829046160461866,0.0026252849202150763,-0.002358930597729181
150000000000.0,-1,0.0991060049,0.0188091547,0.18795425389999998,-0.014135,-0.001649,-0.056772,-1.456483658,-9.680732614,0.57609165425,-1.9475,1.4104,2.9172,0.00014999999999998348,-0.00019999999999997797,1.0000000000065512e-05,0.002936558261238842,-0.003105766026130219,0.001704950899035662
150000000000.0,-1,0.10419565625,0.02397725925,0.1939951503,-0.013997,0.005822,-0.070666,-1.4480499390000001,-9.681909412,0.5782785372,-1.9507,1.4111,2.9205,0.00017999999999995797,-9.999999999998899e-05,-2.0000000000020002e-05,-3.096578250483262e-05,-0.0004816192371976946,0.00022343019983406265
150000000000.0,-1,0.09826263299999999,0.010463695549999999,0.1918573006,-0.013891,0.010095,-0.083487,-1.4385374884999997,-9.683184276499999,0.5802790938,-1.9542,1.412,2.9241,7.00000000000145e-05,-0.00019999999999997797,-2.0000000000020002e-05,0.00116132291300719,-0.0015755351833635078,0.00017655887951706362
150000000000.0,-1,0.0878283574,-0.01581812645,0.19410302345,-0.00955,0.012199,-0.093094,-1.4281424395,-9.6845572075,0.58266210975,-1.9582,1.4129,2.9281,0.0001100000000000545,-4.999999999988347e-05,-9.999999999998899e-05,-1.6378785733461854e-05,-0.0006502233925080869,-0.00015040965182322452
150000000000.0,-1,0.07802170739999999,-0.05215176469999999,0.19839833614999997,-0.010517,0.017544,-0.10272,-1.416864792,-9.6861262715,0.58495686585,-1.9623,1.4138,2.9325,-5.0000000000105516e-05,-5.0000000000105516e-05,-0.00012000000000000899,-1.0422953052432824,0.7535829239828715,0.19995194960899632
150000000000.0,-1,0.05661379045,-0.09095667874999999,0.20126187794999997,-0.007204,0.02392,-0.1134,-1.4048026124999997,-9.687695335499999,0.5873300751499999,-1.9668,1.4149,2.9371,9.00000000000345e-05,-9.999999999998899e-05,-9.00000000000345e-05,1.0437562534793978,-0.7548705015931523,-0.19980310732306084
150000000000.0,-1,0.028507931549999997,-0.12866324799999998,0.2028407486,-0.002869,0.026023,-0.12194,-1.392348167,-9.689362466,0.59009555045,-1.9717,1.416,2.9422,0.000140000000000029,9.999999999998899e-05,2.999999999997449e-05,-0.0013956367916705403,-0.002188677760396107,0.0007623558325766666
150000000000.0,-1,0.01005181625,-0.1331350804,0.19155329444999997,0.003612,0.030239,-0.12941,-1.379403389,-9.6910295965,0.5931454186,-1.9769,1.4171,2.9478,4.999999999999449e-05,9.999999999998899e-05,-4.999999999999449e-05,-0.00039430183038224875,-0.00042979713557134147,-7.086804536005076e-05
150000000000.0,-1,-0.00401091985,-0.13865622435,0.17567632809999997,0.016518,0.037599,-0.13687,-1.366066345,-9.692696727,0.5967542658,-1.9827,1.4182,2.9539,-2.0000000000020002e-05,4.999999999988347e-05,-2.999999999997449e-05,6.455368157420871e-05,-0.00038868955760618107,9.290281434459757e-05
150000000000.0,-1,-0.00734518085,-0.14422640155,0.15038497774999998,0.028287,0.039634,-0.13899,-1.352533168,-9.694265791,0.6012457115,-1.9891,1.4193,2.9608,4.0000000000040004e-05,5.0000000000105516e-05,-4.999999999999449e-05,-2.979034011252324e-05,-0.0012223283911023675,0.0002881687314912895
150000000000.0,-1,-0.0065704555,-0.14195125875,0.12428948209999999,0.045385,0.043753,-0.13683,-1.3390980575,-9.695834855,0.60668840225,-1.9962,1.4203,2.9684,8.999999999992347e-05,0.0003333333333332966,2.0000000000020002e-05,0.0007640652910612111,-0.0018134338911133252,0.0006148871126239186
150000000000.0,-1,-0.0069234948999999995,-0.1374107798,0.1019107068,0.061407,0.046815,-0.13468,-1.3258590799999999,-9.697207786,0.61335692425,-2.0041,1.4213,2.9768,-8.999999999992347e-05,0.0003333333333332966,9.99999999995449e-06,-0.0017953528609926384,-0.0014576135912107713,0.0005474374889633538
150000000000.0,-1,-0.012346572349999998,-0.13546906309999998,0.08652407294999999,0.078491,0.051995,-0.12825,-1.3134046345,-9.698384584,0.6212708908,-2.0126,1.4221,2.986,-0.0005600000000000049,0.0003333333333332966,-0.0008099999999999774,-0.012160079098560539,0.012553759054541702,-0.01003392454311669
150000000000.0,-1,-0.0163967188,-0.10991293319999998,0.06339999225,0.094504,0.05612,-0.12289,-1.3016366544999998,-9.6994633155,0.63032242875,-2.0218,1.4228,2.9958,3.999999999992898e-05,9.999999999998899e-05,7.999999999996898e-05,-4.665896210087617e-05,-0.0013463002229807675,0.0010804740996932516
150000000000.0,-1,-0.01599464615,-0.08487655574999999,0.0489155702,0.11154,0.054907,-0.11646,-1.2904570735,-9.7002478475,0.6407665109999999,-2.0317,1.4233,3.0063,0.0006900000000000794,-0.0017000000000000348,0.0011100000000000554,-0.01453300942554292,-0.012299421955952683,0.016574025625406552
150000000000.0,-1,-0.03347009644999999,-0.0563293976,0.04189400879999999,0.12649,0.061171,-0.11004,-1.280356224,-9.7008362465,0.6525737176,-2.0422,1.4237,3.0175,-0.000180000000000069,0.001000000000000112,-0.00031000000000003247,0.021346594715614176,-0.0006186671719863313,-0.007146199079260285
150000000000.0,-1,-0.04576763555,-0.015288567349999999,0.020348798749999997,0.13502,0.06429,-0.10255,-1.271334106,-9.701130445999999,0.66499874315,-2.0527,1.424,3.0289,0.000160000000000049,-0.001000000000000112,0.00038000000000004697,-0.02643998062958941,0.0006430698383139699,0.007995606597035021
150000000000.0,-1,-0.05783962169999999,0.023290793749999997,0.0033440676499999996,0.1446,0.067399,-0.094002,-1.263488786,-9.701228512499998,0.6781102341999999,-2.0634,1.4241,3.0403,-0.0005399999999999849,0.0017000000000000348,-0.0008900000000000574,0.015794033573397037,0.007600119814897388,-0.014240577953871014
150000000000.0,-1,-0.0571727695,0.057967108149999995,-0.015288567349999999,0.15206,0.070528,-0.087587,-1.2563299315,-9.701228512499998,0.6916434112,-2.074,1.424,3.0518,-2.0000000000020002e-05,-0.0001166666666665428,-9.99999999995449e-06,-0.0015827264075605196,-0.0008625936826767155,0.0005005161797186908
150000000000.0,-1,-0.0637824516,0.10994235315,-0.025144250599999998,0.15734,0.070474,-0.076901,-1.2504459415,-9.700934313,0.70569634065,-2.0846,1.4239,3.0632,5.999999999994898e-05,-0.00011666666666676484,5.999999999994898e-05,-0.0013118186878902094,-0.0008429433146011078,0.0009360272140273018
150000000000.0,-1,-0.06707748599999999,0.1315071765,-0.03254827135,0.16159,0.072563,-0.069422,-1.2455426165,-9.700542046999999,0.7201317294499999,-2.095,1.4236,3.0745,9.00000000000345e-05,-0.00011666666666676484,4.0000000000040004e-05,-0.0016249699620243252,-0.0009769485004502698,0.0011046322256502705
150000000000.0,-1,-0.0714512519,0.1225635117,-0.04353171935,0.16261,0.07361,-0.058744,-1.2416199565,-9.699953648,0.7344102118499999,-2.1049,1.4232,3.0853,1.0000000000065512e-05,-0.0001166666666665428,2.0000000000020002e-05,-0.0013882067832571288,-0.0004449988329604526,0.0010622384778460336
150000000000.0,-1,-0.08651426629999999,0.10166554054999999,-0.0587222202,0.16044,0.07575,-0.04914,-1.2387760279999998,-9.6992671825,0.748247395,-2.1142,1.4227,3.0954,0.00013999999999991797,-0.0001166666666665428,2.999999999997449e-05,-0.002174720567892585,-0.0009793857814961449,0.0013802659384043459
150000000000.0,-1,-0.08851482289999998,0.08036549674999999,-0.0571139296,0.15829,0.077893,-0.042739,-1.236814698,-9.698482650499999,0.7617609586999999,-2.1228,1.4221,3.105,0.00038000000000004697,-0.00011666666666676484,0.00048000000000003595,0.00782339911793195,-0.009680063432649488,0.007753147080507894
150000000000.0,-1,-0.09264342254999999,0.07839436009999999,-0.05139665265,0.15183,0.076872,-0.033137,-1.235834033,-9.697501985499999,0.77504896945,-2.1309,1.4215,3.114,2.999999999997449e-05,-5.0000000000105516e-05,-2.0000000000020002e-05,-0.0016754814346466862,-0.00012573867504461766,0.0011433002541680892
150000000000.0,-1,-0.10557839389999998,0.06752859189999999,-0.06406684445,0.14544,0.082246,-0.025681,-1.2357359665,-9.6965213205,0.7874151551,-2.1381,1.4208,3.1221,4.0000000000040004e-05,-4.999999999988347e-05,-6.0000000000060005e-05,-0.0017973564296343003,-0.0003777322229296942,0.001452962154089743
150000000000.0,-1,-0.11047191225,0.05065134725,-0.08200320729999999,0.14218,0.079072,-0.021406,-1.236226299,-9.6955406555,0.7990654553,-2.1446,1.4201,3.1295,-0.00031000000000003247,0.0007999999999999119,-0.0005999999999999339,-0.011157891473778436,0.009062560095656425,-0.005707039063839403
150000000000.0,-1,-0.12225950555,0.031773546,-0.09540889785,0.13894,0.078028,-0.014999,-1.2375011635,-9.694461923999999,0.81007832325,-2.1504,1.4194,3.1362,7.00000000000145e-05,9.999999999998899e-05,-4.0000000000040004e-05,-0.0013219003467825896,-0.00010085715261931583,0.0011211599139961947
150000000000.0,-1,-0.14059794105,0.009129991149999999,-0.11581653649999998,0.13253,0.079144,-0.011804,-1.239364427,-9.6933831925,0.8203066591999999,-2.1555,1.4187,-3.141,9.999999999998899e-05,9.999999999998899e-05,-7.999999999996898e-05,-0.0014665169541518974,-0.0003926890730241439,0.001015716724172222
150000000000.0,-1,-0.14463828085,-0.0077374468499999995,-0.13257610135,0.13248,0.078074,-0.005391,-1.241914156,-9.6922063945,0.830034856,-2.16,1.4179,-3.1356,0.0001100000000000545,9.999999999998899e-05,-7.00000000000145e-05,-0.001199765880390613,-0.0002841811665132976,0.0007196252275365467
150000000000.0,-1,-0.13627320839999998,-0.019946726099999996,-0.15628858105,0.12816,0.075974,-5.1e-05,-1.2447580844999997,-9.691127663,0.83892948755,-2.1638,1.4171,-3.1309,9.999999999998899e-05,9.999999999998899e-05,-9.999999999998899e-05,-0.0012865762648661683,-8.83597389589319e-05,0.0008692571585857678
150000000000.0,-1,-0.116895268,-0.02101565095,-0.19076876245,0.12173,0.076023,0.00528,-1.2477981459999998,-9.6900489315,0.8467846141999998,-2.167,1.4164,-3.1268,0.00013999999999991797,0.00010000000000021103,-4.999999999999449e-05,-0.0012468730081596213,-0.00016452244758391465,0.0013831709744014375
150000000000.0,-1,-0.09285916884999999,0.0057859235,-0.2200219994,0.11847,0.073914,0.011687,-1.2510343404999997,-9.6889702,0.8537375290499999,-2.1696,1.4157,-3.1234,0.00014999999999998348,9.999999999998899e-05,-9.00000000000345e-05,-0.002396979374942765,-0.0004930531883999834,0.0008838689066203997
150000000000.0,-1,-0.07522681214999999,0.021349077049999998,-0.20880319179999998,0.11097,0.076101,0.019145,-1.2547608675,-9.6878914685,0.8601706914499999,-2.1717,1.415,-3.1204,0.000200000000000089,9.999999999998899e-05,-7.999999999996898e-05,-0.0005709173600012551,-0.00027737994472709637,0.0003406623167028222
150000000000.0,-1,-0.0602520576,0.027654752999999997,-0.21469698845,0.10346,0.075093,0.024474,-1.258781594,-9.686910803499998,0.8657702885999999,-2.1733,1.4144,-3.1181,0.00017999999999995797,9.999999999998899e-05,-7.999999999996898e-05,-0.0008665896145667595,0.00012382377861674954,0.0010165731214586415
150000000000.0,-1,-0.046875787,-0.0079237732,-0.2103526425,0.091672,0.075183,0.032995,-1.2633907195,-9.6859301385,0.8703990274,-2.1741,1.4137,-3.1164,0.00017000000000000348,9.999999999998899e-05,-0.00012000000000000899,-0.0015537058623691369,-0.0002740697826730809,0.0009213857175658369
150000000000.0,-1,-0.047728965549999995,-0.040050358599999995,-0.21921785409999997,0.084201,0.080566,0.040447,-1.268588244,-9.6849494735,0.8738803881499999,-2.174,1.4131,-3.1156,0.00019999999999997797,0.00019999999999997797,-4.999999999999449e-05,-0.0009439369097226091,0.0002782818752009586,0.0008609855875265637
150000000000.0,-1,-0.0331857036,-0.05984017829999999,-0.2329079375,0.075612,0.078502,0.045774,-1.2741780344999998,-9.6839688085,0.8762045641999999,-2.1732,1.4124,-3.1156,0.00017000000000000348,9.999999999998899e-05,-0.0001100000000000545,-0.0005089826334683245,0.00024808380991192536,0.0007896160170242084
150000000000.0,-1,-0.02189824945,-0.06736187885,-0.232025339,0.067065,0.082829,0.053225,-1.2802581574999998,-9.6829881435,0.8777147882999999,-2.1718,1.4118,-3.1161,0.00014999999999998348,-0.000400000000000178,-7.999999999996898e-05,-0.0007398277098937811,0.0006499353094178151,0.0007684695666960728
150000000000.0,-1,0.001176798,-0.06168382849999999,-0.23876250755,0.057419,0.083966,0.061745,-1.2867305464999998,-9.682105544999999,0.87831299395,-2.1697,1.4113,-3.1173,0.0006200000000000649,-0.00039999999999995595,0.0006699999999999484,0.011846723611868448,-0.01248613452399594,0.009619440908775534
150000000000.0,-1,0.0342055952,-0.0394815729,-0.24674512064999998,0.049948,0.088286,0.06706,-1.2932029354999999,-9.681321013,0.87792072795,-2.1672,1.4107,-3.1189,0.00021999999999999797,0.00020000000000020002,-0.00012000000000000899,-0.0013186365339115103,0.0012362928687634778,-5.484344386097462e-05
150000000000.0,-1,0.0532501095,-0.031577413,-0.24727467975,0.038193,0.09051,0.072371,-1.3000675904999999,-9.680536480999999,0.8764987636999999,-2.164,1.4102,-3.1212,0.00026999999999999247,9.999999999998899e-05,-2.999999999997449e-05,-0.0002623542560937775,0.0004052151696212203,0.0012102411869649998
150000000000.0,-1,0.057967108149999995,-0.019466200249999996,-0.23746802975,0.027523,0.094856,0.07768,-1.3073245115,-9.679751949,0.8740274879,-2.1601,1.4097,-3.1241,-0.00029999999999996696,0.0009999999999998899,-0.0008199999999999319,-0.011683516888002732,0.013687209309915405,-0.008219202604356823
150000000000.0,-1,0.0767664562,0.004354152599999999,-0.2157070734,0.015766,0.096015,0.081924,-1.3146794990000001,-9.6790654835,0.87082071335,-2.1558,1.4093,-3.1275,0.0007899999999999574,-0.0008999999999999009,0.0006699999999999484,0.011699152993941198,-0.0107264861877574,0.009751365890960262
150000000000.0,-1,0.09247670949999999,0.011022674599999999,-0.19916325485,0.001867,0.096126,0.086166,-1.3223286859999999,-9.678379018,0.8667019203499999,-2.151,1.4089,-3.1314,0.000260000000000038,2.4999999999941735e-05,-4.999999999999449e-05,0.0011857714195506741,-0.00011025763618688345,0.0013429575051113751
150000000000.0,-1,0.0827092861,0.00031381279999999996,-0.17900078244999998,-0.007763,0.096202,0.090415,-1.3305662719999998,-9.6776925525,0.8617985953499999,-2.1456,1.4084,-3.1358,0.00025999999999992696,2.500000000016378e-05,-0.0001100000000000545,0.00013624127529077157,0.0009668045071891118,0.000415243220232675
150000000000.0,-1,0.0906330593,-0.00410898635,-0.15332697274999998,-0.015214,0.10053,0.092526,-1.3389019245,-9.677006086999999,0.8564735843999999,-2.1399,1.408,-3.1406,0.000300000000000078,2.4999999999941735e-05,-0.00017000000000000348,0.0008391791202946308,-9.46256265246248e-05,0.0014305039655804208
150000000000.0,-1,0.1160126695,-0.012356378999999999,-0.13198770234999999,-0.024845,0.099536,0.095709,-1.347041444,-9.676417687999999,0.85054056115,-2.134,1.4076,3.1377,0.00032999999999994145,2.4999999999941735e-05,-5.999999999994898e-05,-0.00017263808316902995,0.0005006039929731365,0.0010710054001625835
150000000000.0,-1,0.1313502701,-0.04009939184999999,-0.125328987,-0.036574,0.10176,0.096746,-1.355082897,-9.675829289,0.8435876462999999,-2.1276,1.4073,3.1323,-0.00021000000000004349,0.0010999999999998789,-0.0007599999999999829,-0.014990480911787785,0.014179387246711084,-0.008678270753669004
150000000000.0,-1,0.12537802025,-0.07112763244999999,-0.10792218324999998,-0.045116,0.1029,0.098859,-1.3633204829999999,-9.6753389565,0.8360561390999999,-2.1209,1.407,3.1265,0.0002700000000001035,9.999999999998899e-05,-0.00012000000000000899,0.0007511135875981623,0.001256117729691253,0.0009323725241574543
150000000000.0,-1,0.1107366918,-0.11291376809999999,-0.075118939,-0.056851,0.10406,0.099899,-1.371754202,-9.674848624,0.82794603955,-2.1138,1.4067,3.1204,0.00024999999999997247,-4.999999999988347e-05,-0.0001100000000000545,0.0010427068025382624,0.00116383440021961,0.001160291575676986
150000000000.0,-1,0.12890841425,-0.14695265024999998,-0.0548387868,-0.069643,0.10523,0.098801,-1.3796975885,-9.674456357999999,0.8188846949499999,-2.1064,1.4065,3.114,0.00027999999999994696,-5.0000000000105516e-05,-0.00010999999999994348,0.0012976128670225684,0.0006956594873022137,0.00043774563136267375
150000000000.0,-1,0.15107144325,-0.1421571984,-0.026007235799999997,-0.08139,0.10533,0.10091,-1.3875429085,-9.674260225,0.80905843165,-2.0987,1.4063,3.1072,0.000280000000000058,9.999999999998899e-05,-6.0000000000060005e-05,0.0005204959089080141,0.001015301290025361,0.00041634767922893445
150000000000.0,-1,0.17729442535,-0.09838031279999998,-0.014700168349999997,-0.089926,0.1054,0.10089,-1.3949959624999997,-9.673966025499999,0.798653576,-2.0907,1.4061,3.1002,0.00024000000000001798,4.999999999988347e-05,-7.999999999996898e-05,0.000735212777853711,0.0013132482154751823,0.00028242887299700925
150000000000.0,-1,0.1957015074,-0.04321790655,-0.00093163175,-0.093157,0.10222,0.10194,-1.4023509499999998,-9.6737698925,0.7881800738,-2.0828,1.406,3.0932,0.00028999999999990145,5.0000000000105516e-05,-4.999999999999449e-05,0.0011357654471759737,0.0012602605414064882,0.0013172240058425544
150000000000.0,-1,0.20275248875,0.011375713999999999,0.00014709975,-0.096381,0.09799,0.099802,-1.409607871,-9.6735737595,0.7775202452499999,-2.0749,1.4059,3.0861,0.000280000000000058,-3.333333333332966e-05,-9.00000000000345e-05,0.0009582443176268107,0.0011207922317437724,0.0008367406863487581
150000000000.0,-1,0.20502763154999998,0.037853669,0.00540346415,-0.099591,0.094822,0.096591,-1.416472526,-9.673475692999999,0.7667231236,-2.0669,1.4058,3.079,0.00034000000000000696,-3.333333333332966e-05,-5.999999999994898e-05,0.0015391206424313353,0.0011385824011296286,0.0009797181437245506
150000000000.0,-1,0.20298784834999997,0.02848831825,0.01750487025,-0.10385,0.093795,0.093375,-1.422944915,-9.673377626499999,0.7558181288,-2.0591,1.4057,3.0719,0.00022999999999995246,-3.333333333332966e-05,-0.0001100000000000545,0.0003239442247831015,0.0009555066285051872,0.001463220803676002
150000000000.0,-1,0.20061463905,0.0051190713,0.05162220559999999,-0.11239,0.089609,0.086954,-1.4290250379999998,-9.673377626499999,0.7447562275999999,-2.0512,1.4057,3.0649,0.0003500000000000725,-9.999999999998899e-05,-7.999999999996898e-05,0.001363645942610514,0.00046540704019992774,0.001342077036772693
150000000000.0,-1,0.20366450719999998,0.00352058735,0.08793623055,-0.11879,0.086467,0.083737,-1.4344186955,-9.673377626499999,0.7335766465999999,-2.0435,1.4058,3.0579,0.00024999999999997247,-6.666666666665932e-05,-7.999999999996898e-05,0.0009721092664365383,0.0008177499416437417,0.0007747273815574829
150000000000.0,-1,0.20904835804999997,-0.00952225715,0.11755231354999998,-0.12732,0.08441,0.079447,-1.4393220205000001,-9.6735737595,0.7220636395,-2.0358,1.4058,3.0508,0.00021999999999999797,-6.666666666665932e-05,-4.999999999999449e-05,0.001535053864222924,0.000692683796343907,0.0006791643771584255
150000000000.0,-1,0.22120860405,-0.041325223099999996,0.15004174499999998,-0.13692,0.083422,0.079422,-1.4437350129999997,-9.6737698925,0.7103741127,-2.028,1.406,3.0438,9.00000000000345e-05,-6.666666666665932e-05,-9.999999999998899e-05,0.0010131155161483552,0.0011400378659067734,0.001021135839154308
150000000000.0,-1,0.22982864939999997,-0.08801468375,0.16693860295,-0.14442,0.077092,0.076208,-1.4477557395,-9.674064092,0.6981158002,-2.0201,1.4062,3.0364,0.00017000000000000348,-5.0000000000105516e-05,-0.00012000000000000899,0.0015453737399724332,0.0004535610206108931,0.0004629416191952451
150000000000.0,-1,0.24064538434999996,-0.1540820848,0.19067069594999997,-0.15508,0.078243,0.077243,-1.4514822665,-9.674456357999999,0.6850043091499999,-2.0117,1.4064,3.0287,0.00012999999999996348,-4.999999999988347e-05,-7.00000000000145e-05,0.0009389936346850813,0.0012278409786277145,0.00017880842947004538
150000000000.0,-1,0.25396281504999996,-0.20290939515,0.22205197594999998,-0.16255,0.078301,0.079352,-1.454914594,-9.674848624,0.67188301145,-2.0034,1.4066,3.0209,0.00010999999999994348,-4.999999999988347e-05,-9.999999999998899e-05,0.0008181942949025967,0.0010075818119621438,0.0003689811716460767
150000000000.0,-1,0.27128135895,-0.2321234055,0.24391099879999997,-0.16682,0.078332,0.082534,-1.4583469215,-9.67524089,0.6583988677,-1.9949,1.4069,3.013,9.00000000000345e-05,-5.0000000000105516e-05,-2.999999999997449e-05,0.0012330758823269061,0.0004688945984263615,0.0005853183445827526
150000000000.0,-1,0.29856345925,-0.2336336296,0.25094236685,-0.17002,0.079418,0.085714,-1.461583116,-9.675633155999998,0.6447872375,-1.9863,1.4072,3.005,9.999999999998899e-05,-9.999999999998899e-05,-4.999999999999449e-05,0.0023252792017063317,0.0009897489987802377,0.0006511415112879781
150000000000.0,-1,0.3071246647,-0.1964468128,0.24294014044999998,-0.16363,0.078297,0.08678,-1.4649173770000001,-9.676025421999999,0.6314011602499999,-1.9778,1.4074,2.997,0.00038000000000004697,-0.0012000000000000899,0.0006299999999999084,-0.023238537000286996,-0.003871750819594899,0.010582391666826396
150000000000.0,-1,0.31285174829999995,-0.1349198907,0.22909315065,-0.15616,0.077169,0.08678,-1.4681535715,-9.676417687999999,0.6186034819999999,-1.9696,1.4076,2.9894,-0.000300000000000078,0.001000000000000112,-0.0006799999999999029,0.02692230473230972,0.0055365442204835524,-0.009123276253106383
150000000000.0,-1,0.30989994665,-0.08965239430000001,0.21792337629999997,-0.14016,0.074905,0.08573,-1.4714878324999998,-9.676613820999998,0.6070316349999999,-1.962,1.4078,2.9825,3.0000000000085514e-05,-9.999999999998899e-05,1.999999999990898e-05,0.0012721928627015266,0.0005381716020740335,0.0003999538117529511
150000000000.0,-1,0.2936503276,-0.07255940335,0.20883261175,-0.12518,0.072659,0.076139,-1.4744298275,-9.676809954,0.5969700120999999,-1.9555,1.4079,2.9765,9.99999999995449e-06,-0.00019999999999997797,-3.999999999992898e-05,0.0014750151912494847,0.0007605349255150884,0.00017098200997667234
150000000000.0,-1,0.25865039375,-0.12284790455,0.21643276549999999,-0.11124,0.075748,0.067607,-1.4769795565,-9.676908020499999,0.5883205467999999,-1.9499,1.408,2.9715,-2.0000000000020002e-05,-0.00019999999999997797,9.99999999995449e-06,0.0022342327041302568,0.00047826428773012353,0.0012859831769653773
150000000000.0,-1,0.22444479855,-0.17162618165,0.2076067805,-0.098357,0.077783,0.05694,-1.479038953,-9.677104153499998,0.58068116645,-1.9449,1.4081,2.9672,-0.00012999999999996348,-0.00019999999999997797,1.0000000000065512e-05,0.0009491595043322754,0.0005407605637688384,0.00035780197226742416
150000000000.0,-1,0.21963954005,-0.18817980685,0.20897971149999997,-0.085464,0.081948,0.047338,-1.4802157509999998,-9.6773002865,0.5742185841,-1.9409,1.4082,2.9638,-0.0001100000000000545,-0.00020000000000020002,3.999999999992898e-05,0.0015670311402522508,0.0010206504114380621,0.00047940290752546133
150000000000.0,-1,0.2189628812,-0.16487920645,0.2077636869,-0.074703,0.087194,0.038797,-1.480608017,-9.677496419499999,0.56885434655,-1.9376,1.4083,2.9613,-6.999999999990347e-05,-0.00019999999999997797,0.0001100000000000545,0.0011477298689890336,0.0006956053548157204,0.0008587207012697995
150000000000.0,-1,0.22724950044999997,-0.1305461248,0.22226772225,-0.06713,0.09247,0.028116,-1.479823485,-9.6778886855,0.56451980725,-1.9352,1.4086,2.9597,-0.0001300000000000745,-0.00029999999999996696,7.00000000000145e-05,0.0019620928291188555,0.0004918735815455655,0.0008976403875640138
150000000000.0,-1,0.20280152199999998,-0.13587113574999998,0.24411693844999996,-0.064895,0.099916,0.021692,-1.4789408865,-9.6782809515,0.5607834735999999,-1.9332,1.4088,2.9586,-0.00012999999999996348,-0.00019999999999997797,0.00010999999999994348,0.0013320769682150235,0.000765217998295542,0.0006809888783596563
150000000000.0,-1,0.1915042612,-0.17806915069999998,0.26933964224999996,-0.060462,0.11268,0.010993,-1.4771756894999997,-9.6786732175,0.55755708575,-1.9317,1.4091,2.9581,0.00017999999999995797,-0.0009999999999998899,0.0006200000000000649,0.010928127200207527,-0.009207249385721372,0.007779201096703048
150000000000.0,-1,0.18313918875,-0.1815799314,0.2758218379,-0.057123,0.12331,0.002431,-1.4748220934999998,-9.6792616165,0.5546739306499999,-1.9305,1.4094,2.958,-0.0005399999999999849,0.0005999999999999339,-0.00036000000000002697,-0.008567705818886884,0.010244627847422416,-0.006157831289841376
150000000000.0,-1,0.17152811515,-0.16571277169999998,0.2688395031,-0.048448,0.13284,-0.008254,-1.4716839655,-9.6798500155,0.55222226815,-1.9298,1.4098,2.9585,-0.00017000000000000348,-0.00029999999999996696,7.00000000000145e-05,-0.00026211080845617296,9.045233712123846e-05,0.0004495604698706579
150000000000.0,-1,0.1491199199,-0.138273765,0.26384791825,-0.03659,0.14021,-0.018928,-1.468055505,-9.680536480999999,0.55063359085,-1.9296,1.4102,2.9596,-0.00022999999999995246,-0.00019999999999997797,0.00019999999999997797,0.0016916094920107483,-0.0008710625689341001,0.000767496844875204
150000000000.0,-1,0.1314875632,-0.09615420324999999,0.2465980209,-0.019397,0.14754,-0.029592,-1.463740579,-9.681124879999999,0.5503688112999999,-1.9305,1.4107,2.9619,-0.0002300000000000635,-0.00019999999999997797,0.00014999999999998348,7.523306739809499e-07,0.0001043684721215854,0.0009083195491612628
150000000000.0,-1,0.14253965775,-0.07134337874999999,0.20339972764999997,0.005249,0.15587,-0.035976,-1.458641121,-9.681909412,0.5513690896,-1.9322,1.4111,2.9651,-0.00027999999999994696,-0.000300000000000189,0.000140000000000029,0.0005191184390100911,-0.0005305217689273167,0.0009050802332084551
150000000000.0,-1,0.14492267369999998,-0.04553227595,0.16164301195,0.029891,0.16526,-0.040227,-1.4530513305,-9.682595877499999,0.554075725,-1.9351,1.4115,2.9697,-0.00021000000000004349,-0.00019999999999997797,0.00017000000000000348,-0.0008918529352093252,-0.00021663468230603833,0.0018018682310718681
150000000000.0,-1,0.1460014052,-0.04327674645,0.13072264449999998,0.050262,0.17575,-0.042352,-1.4473634734999998,-9.683184276499999,0.5582043246499999,-1.9389,1.4119,2.9752,-0.00024000000000001798,-0.00019999999999997797,0.00017999999999995797,-0.000584397753975896,4.5550814240291615e-05,0.0015943784719416598
150000000000.0,-1,0.15645529409999998,-0.07175525804999999,0.1062648594,0.071709,0.18942,-0.041279,-1.4415775499999999,-9.683772675499998,0.56381372845,-1.9436,1.4123,2.9818,0.0002700000000001035,-0.0017000000000000348,0.0010200000000000209,0.015962789840000324,-0.01771785387341418,0.015526509452557846
150000000000.0,-1,0.1425494644,-0.091986377,0.0961836232,0.088894,0.20313,-0.04128,-1.4359877595,-9.684164941499999,0.57075683665,-1.9491,1.4126,2.9894,-0.000220000000000109,-0.00029999999999996696,0.00017999999999995797,0.0010497785503580381,-0.0002872715041715157,0.0009723243964243622
150000000000.0,-1,0.1151104577,-0.11880756475,0.100223963,0.10079,0.22221,-0.041299,-1.430986368,-9.6843610745,0.5786806098499999,-1.9551,1.4127,2.9976,-0.00028999999999990145,0.00029999999999996696,-4.999999999999449e-05,-0.005294345516367871,0.006698124509812997,-0.003048575286606958
150000000000.0,-1,0.09739964779999999,-0.1540820848,0.08493539565,0.10948,0.24132,-0.042391,-1.426279176,-9.6845572075,0.5870849089,-1.9613,1.4129,3.0062,-0.0002500000000000835,-0.00039999999999995595,0.00019999999999997797,-2.3479906446244314e-05,-0.0009943410642976325,0.002114904590850397
150000000000.0,-1,0.10750049729999998,-0.17933420855,0.06034031744999999,0.11609,0.26791,-0.041365,-1.4216700504999997,-9.684753340499999,0.5953715281499999,-1.9674,1.413,3.015,-0.00035999999999991594,-0.00029999999999996696,0.000140000000000029,-0.002312714401957683,-0.00013240309125128746,0.001170749201872212
150000000000.0,-1,0.1098933199,-0.20473343205,0.0282039254,0.1174,0.29773,-0.040354,-1.4171589915,-9.6849494735,0.6029716819,-1.9731,1.4131,3.0237,-0.00021000000000004349,-0.0004999999999999449,0.00029999999999996696,0.0011151536285822772,-0.0036396044479398704,0.004772788066147449
150000000000.0,-1,0.119444997,-0.1983885295,-0.04343365285,0.11973,0.32648,-0.035069,-1.4130401984999998,-9.685145606499999,0.6090616115499999,-1.9778,1.4132,3.0317,-0.00031000000000003247,-0.00039999999999995595,0.00031000000000003247,-0.0008869546757093172,0.0013566529099320324,0.003222348080882398
150000000000.0,-1,0.13963688935,-0.12212221245,-0.11955287015,0.12634,0.36157,-0.02125,-1.41019627,-9.685243673,0.6141120362999999,-1.9815,1.4133,3.039,-0.0009399999999999409,0.0004999999999999449,-0.00046000000000001595,-0.01460828699879313,0.0125059812113395,-0.007685905830997264
150000000000.0,-1,0.2748215596,0.12338727029999999,-0.1788929093,0.13932,0.40193,0.006444,-1.4083330064999997,-9.685243673,0.6191330410999999,-1.985,1.4133,3.0465,-0.000260000000000038,-0.0004999999999999449,0.00024000000000001798,-0.0006827060970702181,0.000450496772015585,0.00433315399492562
150000000000.0,-1,0.44002438549999995,0.5158003700499999,-0.35570680879999994,0.14718,0.4562,0.013822,-1.407450408,-9.685145606499999,0.6225065287,-1.9872,1.4132,3.0533,-0.00019999999999997797,-0.000600000000000156,0.00026999999999999247,-0.00021021224222361745,-0.0005112013489008138,0.00460521734570607
150000000000.0,-1,0.6571436165,0.9240904361499999,-0.6878482376499999,0.17696,0.56999,-0.000203,-1.4112750015,-9.684066875,0.63098928095,-1.9912,1.4125,3.0628,0.00015999999999993797,-0.0016000000000000458,0.0008500000000000174,0.010424924328058527,-0.013751424520563882,0.014011845686308089
150000000000.0,-1,0.9332302339499999,0.6769726627999999,-1.0213625975,0.20679,0.6891,-0.014238,-1.4143150629999999,-9.682890077,0.6413843299499999,-1.9966,1.4118,3.0749,-0.0006799999999999029,0.000400000000000178,-0.0005699999999999594,-0.011297815847477466,0.012137551474828978,-0.005094944486908393
150000000000.0,-1,1.4584449879999999,0.082571993,-1.6522243919999997,0.15243,0.78447,-0.087083,-1.4128440654999999,-9.682693944,0.6474154196999999,-2.0005,1.4116,3.0866,-0.0001300000000000745,-0.0009000000000001229,-4.999999999999449e-05,-0.0011376121152293361,-3.724024249240898e-05,0.005538911039537631
150000000000.0,-1,1.9653507264999999,-0.25492386675,-2.6081766339999994,0.028206,0.94009,-0.17297,-1.4042142135,-9.684459141,0.6402565652,-1.9986,1.4128,3.0937,-2.0000000000020002e-05,-0.0006999999999999229,0.00024999999999997247,-0.0015940246606442887,0.0017807865871333206,0.006306683508367605
150000000000.0,-1,1.7118488239999998,-1.1961171005,-3.3495593739999996,-0.15837,1.271,-0.31263,-1.3851893124999999,-9.6889702,0.61323924445,-1.9876,1.4157,3.0946,0.0005800000000000249,-0.0024999999999999467,0.00024999999999997247,0.014071907527008376,-0.015041594467215091,0.018357331254165832
150000000000.0,-1,1.498652253,-2.1446162885,-3.9865012914999998,-0.38644,1.516,-0.39885,-1.3569461605,-9.696030988,0.5613228393499999,-1.963,1.4205,3.0846,0.0003500000000000725,-0.0014000000000000679,0.00021000000000004349,-0.002280759012384781,-0.0013625256612024295,0.009986910389018
150000000000.0,-1,1.287417012,-2.6034694419999997,-4.957653841,-0.54942,1.6325,-0.4794,-1.3206615555,-9.7049550395,0.48921454189999997,-1.9256,1.4267,3.063,-0.00012000000000000899,-0.0005999999999999339,-0.0005399999999999849,-0.007554567390529288,0.011220731358415836,0.0010259173355833262
150000000000.0,-1,0.9729765864,-2.6363217195,-5.260875459,-0.51759,1.7037,-0.54351,-1.277021963,-9.714271357,0.4148212949999999,-1.8849,1.4334,3.0389,0.0005499999999999394,-0.0019000000000000128,0.00045999999999990493,0.004716603046864165,-0.002359646299002538,0.015816259104281638
150000000000.0,-1,0.7860422241,-2.324372183,-4.1181065345,-0.30731,1.7979,-0.6255,-1.2249486514999999,-9.723293475,0.35679534695,-1.8542,1.4403,3.0259,0.0009400000000000519,-0.0020999999999999908,0.0006500000000000394,0.0036341322690573996,-0.006827275786013054,0.016085117173696872
150000000000.0,-1,0.36418956105,-1.6654633695,-2.293187036,-0.057888,1.8758,-0.66577,-1.1672855494999999,-9.731531061,0.32306047094999996,-1.8408,1.447,3.0311,0.0013099999999999223,-0.0021999999999999797,0.0010099999999999554,0.008923158119541474,-0.004580552419785944,0.017596713089290228
150000000000.0,-1,-0.02395764595,-1.350571838,-0.8431659603499999,0.11223,1.9139,-0.70077,-1.105797854,-9.739180248,0.30895850825,-1.8432,1.4534,3.0528,0.0025200000000000777,-0.0033000000000000806,0.0018200000000000438,0.012431956819642043,-0.022706559825120154,0.031224237498531204
150000000000.0,-1,-0.17392093775,-0.9853721919999999,-0.27924435875,0.16039,1.904,-0.7455,-1.0398971659999998,-9.746633302,0.30348639754999995,-1.8547,1.4601,3.0836,0.0013499999999999623,-0.0016000000000000458,0.0005500000000000504,-0.0061737840332634075,0.009838652269910098,0.005229388354390352
150000000000.0,-1,-0.19907499499999998,-0.49017559359999996,-0.12101406099999999,0.15923,1.8752,-0.7732,-0.9707897034499999,-9.753890222999999,0.29998542349999996,-1.8705,1.467,3.1184,0.003029999999999977,-0.0029999999999998916,0.0019699999999999163,0.009110926114181073,-0.018057078852817154,0.030488921280852566
150000000000.0,-1,-0.3200106028,-0.21486370149999998,0.15697504655,0.16133,1.8624,-0.78598,-0.89982878405,-9.760754877999998,0.29822022649999996,-1.8908,1.474,-3.1256,0.0015500000000000513,-0.0021999999999999797,0.0008500000000000174,-0.006761676110808246,0.0035366047042999504,0.008122490941604
150000000000.0,-1,-0.43819054194999996,-0.0014611908499999999,0.5893600516999999,0.1622,1.8401,-0.78381,-0.8286423117,-9.767031134,0.29799467355,-1.916,1.4809,-3.0817,0.0019500000000000073,-0.0027000000000001467,0.0013900000000000023,0.006254454959427669,-0.006950363135771465,0.018024980633501997
150000000000.0,-1,-0.4153508541,0.40119985815000003,0.8880313840999999,0.16933,1.8038,-0.77306,-0.7581030782499999,-9.772718991,0.29979909714999997,-1.9474,1.4876,-3.032,0.0022099999999999342,-0.0023999999999999577,0.0014399999999999968,0.004789622149800943,-0.005702326183843809,0.016815261815888327
150000000000.0,-1,-0.33418121205,0.86126903625,1.0366609715,0.19335,1.7588,-0.74198,-0.6900939604999999,-9.777622316,0.30532024109999994,-1.9873,1.4938,-2.9741,0.0021400000000000308,-0.0022999999999999687,0.0013500000000000734,-0.0013741793681123493,-0.008958558639028613,0.019073147544681035
150000000000.0,-1,-0.28359851134999997,1.222104723,1.0431333605,0.2205,1.7031,-0.71088,-0.6251543242,-9.781643042499999,0.3148326916,-2.0373,1.4994,-2.9068,0.0022199999999999998,-0.0023999999999999577,0.0014199999999999768,-0.0002313591682925331,-0.008812630057881021,0.01880838648916061
150000000000.0,-1,-0.19659391254999997,1.6359453529999999,0.8359482659499999,0.24639,1.6346,-0.66482,-0.56416676785,-9.784879237,0.32868948805,-2.0983,1.5042,-2.8291,0.0020799999999999708,-0.0020999999999999908,0.0012299999999999534,-0.0008677913689618677,-0.0066590932383314705,0.0166628118320995
150000000000.0,-1,-0.1361555286,1.915238745,0.5792003623,0.27551,1.5662,-0.62302,-0.5074352976,-9.787428966,0.34631203809999994,-2.1697,1.5081,-2.7417,0.0024200000000000887,-0.0030000000000001137,0.0013500000000000734,0.012695235399076799,-0.023383398480642192,0.02854004443631908
150000000000.0,-1,-0.0851021087,2.1634450565,0.35386315859999995,0.30676,1.5009,-0.57588,-0.45523449964999996,-9.789194163,0.36828874074999995,-2.251,1.5111,-2.645,0.0014799999999999258,-0.0015000000000000568,0.00042999999999993044,-0.012790165389393593,0.010184735996252359,0.004688867034001731
150000000000.0,-1,-0.03347009644999999,2.3099564075,0.175342902,0.33804,1.4377,-0.53089,-0.4076624405,-9.7902728945,0.39448230289999997,-2.3398,1.5129,-2.5415,0.0016899999999999693,-0.0023999999999999577,0.0006700000000000594,-0.005275741655009991,-0.008379288186617373,0.018294876828763407
150000000000.0,-1,0.041619422600000004,2.3046608164999998,-0.010071429549999998,0.33632,1.3822,-0.48916,-0.36438569405,-9.790763227,0.42232338225,-2.4297,1.5139,-2.4375,0.0021900000000000253,-0.0021999999999999797,0.00031999999999998696,0.0018062922928085978,-0.003966733507067222,0.013036712892160018
150000000000.0,-1,0.13026173195,2.1735459059999997,-0.29993639025,0.2941,1.3303,-0.44965,-0.32523754725,-9.7910574265,0.44777163899999994,-2.5134,1.5143,-2.3402,0.0015200000000000768,-0.0021999999999999797,0.00019000000000002348,-0.004732178844342627,-0.004091808471371694,0.016702004252022284
150000000000.0,-1,0.20384102689999997,1.9449528944999999,-0.6249778045,0.21577,1.299,-0.41024,-0.29003167375,-9.7912535595,0.46711035279999996,-2.5859,1.5147,-2.2544,0.0019599999999999618,-0.0024999999999999467,-0.00019000000000002348,-8.00268715208663e-05,-0.004964920319234345,0.014780834138277577
150000000000.0,-1,0.27312500915,1.6937065215,-0.8944645465,0.11413,1.2838,-0.37836,-0.25816986789999996,-9.7916458255,0.47727984884999997,-2.6458,1.5154,-2.1816,0.0024100000000000232,-0.0030000000000001137,0.00017000000000000348,0.008267791853929563,-0.01844458577168151,0.022344914928207338
150000000000.0,-1,0.37291747955,1.4271617744999998,-1.1484567815,-0.005689,1.2656,-0.34331,-0.22986787599999997,-9.792332291,0.4764462836,-2.6921,1.5168,-2.1225,0.0018099999999999783,-0.0023999999999999577,-0.0007000000000000339,-0.0018014668402850376,-0.0036226466161008997,0.013782093208096313
150000000000.0,-1,0.4749360595,1.214455536,-1.3936230314999998,-0.116,1.2419,-0.29757,-0.20528260445,-9.793509088999999,0.4649921164,-2.7258,1.5189,-2.0761,0.0011900000000000244,-0.0021999999999999797,-0.0008200000000000429,-0.013055347012808749,0.009034579092777495,0.0032846488534987728
150000000000.0,-1,0.5492116266,1.056568471,-1.5445473749999998,-0.19548,1.2031,-0.25387,-0.18513974535,-9.7947839535,0.44498655039999996,-2.7473,1.5216,-2.0425,0.0018299999999999983,-0.0023999999999999577,-0.0011299999999999644,0.001293334712652472,-0.0030315522589565713,0.0160335465307071
150000000000.0,-1,0.60655110915,1.0805947635,-1.5816165119999999,-0.22605,1.1532,-0.19406,-0.16960601175,-9.796156884499998,0.42135252389999994,-2.7589,1.5245,-2.0192,0.0023900000000000032,-0.0033000000000000806,-0.00029999999999996696,0.013045767933679286,-0.017171451663929194,0.022181014346002392
150000000000.0,-1,0.6213885706,1.0105752825,-1.4036258145,-0.21506,1.0998,-0.13097,-0.15960322875,-9.797235616,0.39809115009999996,-2.7603,1.527,-2.0067,0.0009399999999999409,-0.0022999999999999687,-0.0017000000000000348,-0.011768648892266809,0.012847618005474182,-0.0010015361326871641
150000000000.0,-1,0.6236441000999999,1.0787315,-1.1233517574999998,-0.18174,1.0387,-0.064628,-0.15572960199999997,-9.798118214499999,0.37774235134999995,-2.7506,1.5291,-2.0058,0.0023400000000000087,-0.0028999999999999027,-0.0010000000000000009,0.005954750113972063,-0.001863728999876857,0.011770755194869587
150000000000.0,-1,0.6056194774,1.186800783,-0.85434554135,-0.14259,0.92104,0.027444,-0.1595541955,-9.7987066135,0.36114949955,-2.7256,1.5305,-2.0212,0.0025000000000000577,-0.0038000000000000256,-0.0009500000000000064,0.00865061990082272,-0.01604480647775075,0.023120319845236104
150000000000.0,-1,0.5688445399,1.3569461605,-0.60847321255,-0.1421,0.91241,0.12886,-0.17305795254999998,-9.799000813,0.34585112554999997,-2.6777,1.5314,-2.0599,0.0022799999999999487,-0.0032000000000000917,-0.0012400000000000189,0.0026430766884399937,0.0004580672379146389,0.008229417927798188
150000000000.0,-1,0.5004235428499999,1.4958083245,-0.39717913165,-0.12839,0.82374,0.23258,-0.19606435344999998,-9.799098879499999,0.33178838945,-2.6079,1.5315,-2.1213,0.0015800000000000258,-0.0028999999999999027,-0.0020799999999999708,-0.005596586886793542,0.012336505965631295,0.00308921738480894
150000000000.0,-1,0.6692450226,1.4570720569999998,-0.25668906375,-0.11777,0.74683,0.33414,-0.22930889695,-9.79880468,0.31849057205,-2.5176,1.5308,-2.204,0.0022099999999999342,-0.0034000000000000696,-0.0017199999999999438,-0.0005949370937674558,0.0026307284028725952,0.006428628495184441
150000000000.0,-1,0.6613212493999999,1.4455002099999998,0.0881029436,-0.097438,0.6773,0.42503,-0.2710754193,-9.798118214499999,0.30648723245000004,-2.4174,1.5291,-2.2973,0.0020999999999999908,-0.0037000000000000366,-0.0019700000000000273,0.0015485396549230757,0.001500922384412906,0.007311822462686024
150000000000.0,-1,0.68908387555,1.2458368159999997,0.27989159765,-0.098478,0.61646,0.53614,-0.32292317784999996,-9.79684335,0.29546455785,-2.3118,1.5261,-2.3967,0.0023000000000000798,-0.0039000000000000146,-0.0020299999999999763,0.002794071157238287,0.004342294103453659,0.008219467887859544
150000000000.0,-1,0.55082972385,1.1435534565,0.359315656,-0.11963,0.55581,0.6152,-0.38248876995000003,-9.795078153,0.28248055325,-2.2069,1.5223,-2.496,0.0050200000000000244,-0.0040999999999999925,-0.0014100000000000223,0.03968785040113665,-7.705656187706467e-05,0.018208944939802407
150000000000.0,-1,0.6142395227499999,1.133256474,0.49564770429999994,-0.14092,0.48662,0.70922,-0.4512824197,-9.792626490499998,0.2667604933,-2.1047,1.5173,-2.5933,-0.0008700000000000374,-0.0042999999999999705,-0.0032800000000000606,-0.0384553073243874,0.010282048017485224,-0.010057521854852425
150000000000.0,-1,0.48488980925,1.2541724685,0.68357253825,-0.131,0.43745,0.78083,-0.5272349239499999,-9.789292229499999,0.25121695304999997,-2.0154,1.5112,-2.6782,0.0019599999999999618,-0.0043999999999999595,-0.0026999999999999247,-0.0018039096042843372,0.007075730676099123,0.004635031696848202
150000000000.0,-1,0.6619096484,1.2233795875,0.86464252385,-0.10878,0.32531,0.85152,-0.6098363368999999,-9.7847811705,0.23788971569999998,-1.9427,1.504,-2.7475,0.0020900000000000363,-0.0045999999999999375,-0.0022600000000000398,0.001963700811211444,0.0054826364217051005,0.0028442918074782497
150000000000.0,-1,0.7657424586,1.0156747405,0.8178157701,-0.081033,0.2323,0.91578,-0.69855709945,-9.779093313499999,0.22755350659999998,-1.8857,1.4958,-2.8021,0.0018299999999999983,-0.0048000000000001375,-0.0029000000000000137,-0.0003712855121560388,0.005818132336641302,0.0053502458455712
150000000000.0,-1,0.6764627169999999,1.0421526955,0.8256512834499999,-0.045651,0.14778,0.95975,-0.7918379542499999,-9.772130592,0.22091440454999997,-1.8429,1.4869,-2.8434,0.0020700000000000163,-0.0043999999999999595,-0.0027199999999999447,0.0006767524770450173,0.009097497171289604,0.002578960766990157
150000000000.0,-1,0.7683706408,0.7691943994,0.9434781832,0.007689,0.042866,1.007,-0.8894337350499999,-9.7637949395,0.21965915334999997,-1.8129,1.4772,-2.8728,0.0017199999999999438,-0.004899999999999904,-0.003210000000000046,0.001954490732800851,0.010725563285782558,0.0026214707380229907
150000000000.0,-1,0.8632401728999999,0.4402401318,0.9937078444999999,0.076118,-0.045122,1.051,-0.9910600489999999,-9.753890222999999,0.22558236994999997,-1.7946,1.467,-2.8914,0.0018500000000000183,-0.0050000000000001155,-0.003009999999999957,0.0016408824938118904,0.008660258389715514,0.0018647969298397626
150000000000.0,-1,0.8855110750499999,0.0559763582,1.006358423,0.13275,-0.14686,1.0844,-1.095795071,-9.742318376,0.23852714795,-1.7851,1.4562,-2.9021,0.0018000000000000238,-0.004999999999999893,-0.003170000000000006,-0.0007531994972984624,0.008967859047208204,-0.0005907628931736131
150000000000.0,-1,0.95776647225,-0.35989424835,0.9080369500999999,0.17343,-0.25377,1.1007,-1.20229529,-9.729275531499999,0.25718920289999997,-1.7815,1.4451,-2.9081,0.0015600000000000058,-0.005300000000000082,-0.003290000000000015,-0.0005396696121793276,0.011574678260548588,-0.00010630583011916883
150000000000.0,-1,0.8842558238499999,-0.7444228015,0.83696815755,0.2057,-0.35846,1.0945,-1.30820711,-9.714957822499999,0.280666323,-1.7821,1.4339,-2.9108,0.0018599999999999728,-0.005099999999999882,-0.0031400000000000317,-0.0036750439717694316,0.00937124021623914,-0.0005959781636895034
150000000000.0,-1,0.7779909644499999,-1.3023231199999998,0.9151173514,0.23068,-0.44922,1.0744,-1.4116672675,-9.699561381999999,0.30846817574999996,-1.7859,1.4229,-2.9113,0.0013999999999999568,-0.00550000000000006,-0.0033199999999999896,-0.0006373482580050993,0.011535518010240331,-0.002416468682489681
150000000000.0,-1,0.6737364683,-2.032330146,1.11207411,0.25255,-0.52504,1.0607,-1.513362228,-9.683184276499999,0.3398200358,-1.7917,1.412,-2.9106,0.0015000000000000568,-0.005400000000000071,-0.0030799999999999716,-0.003450280008000073,0.010485790847960308,-0.003453436089634332
150000000000.0,-1,0.5242438957,-2.7393896109999996,1.2578989955,0.28855,-0.58071,1.0267,-1.6115267945,-9.666022639,0.3763203871,-1.8002,1.4012,-2.9077,0.0014800000000000368,-0.005400000000000071,-0.00279000000000007,-0.0045265237906455535,0.009876994765620761,-0.004335151355302047
150000000000.0,-1,0.65407413505,-3.0656568565,1.273295436,0.28094,-0.60089,1.0225,-1.7081222969999998,-9.647880336499998,0.4137229502,-1.8084,1.3906,-2.9055,0.0011799999999999589,-0.005699999999999816,-0.00270999999999999,-0.001723321202210304,0.010684034991174318,-0.0034701734622748504
150000000000.0,-1,0.8480006387999999,-3.4782226219999997,1.0813792955000001,0.2502,-0.58996,0.99892,-1.802658403,-9.6290515685,0.4488111439,-1.8148,1.3802,-2.905,0.0012299999999999534,-0.005300000000000082,-0.0023099999999999232,-0.006739191234326203,0.010217995199546248,-0.00626848544607439
150000000000.0,-1,1.0146940755,-3.7441789699999997,0.6688233366499999,0.20578,-0.57143,0.95078,-1.8929776495,-9.610222800499999,0.4803885569,-1.8193,1.3703,-2.9063,0.0009600000000000719,-0.005900000000000016,-0.0020300000000000873,-0.002428598445470609,0.00939126620626074,-0.005458411934414986
150000000000.0,-1,1.0462714885,-3.9167760099999995,0.1280944623,0.11591,-0.51201,0.88114,-1.9769225734999998,-9.592080498,0.50413045655,-1.8205,1.3612,-2.9105,0.0010700000000000154,-0.006000000000000005,-0.0017199999999999438,-0.0019950109699455876,0.009443084510068367,-0.007277852237117299
150000000000.0,-1,0.93111199755,-4.3075710124999995,-0.31433255244999997,-0.019779,-0.449,0.80607,-2.05351251,-9.575409192999999,0.51499622475,-1.8165,1.3532,-2.9193,0.0010499999999999954,-0.005900000000000016,-0.0011900000000000244,-0.0014719433052283737,0.009025230548593166,-0.0030769827021768226
150000000000.0,-1,1.0296001835,-4.340815556,-0.6555549392,-0.14606,-0.40527,0.73853,-2.1236300575,-9.5602088855,0.51279953515,-1.8077,1.3461,-2.9326,0.0008699999999999264,-0.006199999999999983,-0.0010299999999999754,-0.005685708066125228,0.008249477729259214,-0.00452486289825571
150000000000.0,-1,1.2212221245,-4.0820180624999995,-0.6020890834,-0.18814,-0.35693,0.69568,-2.1892365459999996,-9.5458911765,0.5027281055999999,-1.7965,1.3397,-2.9479,0.0008000000000000229,-0.006000000000000005,-0.00034999999999996145,0.0017016784480579084,0.005920831677037386,-0.003432699974709408
150000000000.0,-1,1.3475317765,-3.5854093065,-0.25859155385,-0.24482,-0.25627,0.67085,-2.252391372,-9.5320638,0.48633138679999993,-1.7835,1.3336,-2.964,0.0007700000000000484,-0.006399999999999961,5.999999999994898e-05,0.004058123261118318,0.00901366200811382,-0.0034863126761299768
150000000000.0,-1,1.334881198,-2.8316701875,-0.35871745034999997,-0.2834,-0.27194,0.67935,-2.3157423309999996,-9.517844157499999,0.46646311389999995,-1.7696,1.3275,-2.981,0.0007399999999999629,-0.006399999999999961,0.000260000000000038,-0.0015061806164933245,0.005359757407031207,-0.004055710146879665
150000000000.0,-1,1.0089081519999998,-2.3308445719999997,-0.71801349305,-0.27271,-0.27203,0.67403,-2.3787990905,-9.503232249,0.44672232745,-1.7564,1.3214,-2.9974,0.0007500000000000284,-0.006399999999999961,0.0006499999999999284,0.0040742040881054375,0.006790376730311909,-0.004235874173840193
150000000000.0,-1,0.6753055323,-2.0273287545,-0.7144929057,-0.20631,-0.25337,0.65383,-2.4405809855,-9.488326140999998,0.43137492019999996,-1.7457,1.3153,-3.0111,0.0005499999999999394,-0.006900000000000128,0.0003700000000000925,-0.00013301104790941487,0.0070582930242766295,-0.001932101941385822
150000000000.0,-1,0.5257933464,-1.6766429505,-0.70657893915,-0.10458,-0.23605,0.60808,-2.498342154,-9.4735180995,0.42496137109999993,-1.7393,1.3094,-3.0203,0.0008799999999999919,-0.006799999999999917,0.0010499999999999954,0.0018299226426188309,0.006028459401910657,-0.0041397595704195655
150000000000.0,-1,0.7364303817499999,-1.1429650574999999,-0.8443721782999999,0.006396,-0.26461,0.55922,-2.5513961305,-9.4592003905,0.4292762971,-1.7375,1.3038,-3.0248,0.0008299999999999974,-0.006800000000000139,0.0008799999999999919,0.0007725590313381048,0.007625929149749577,-0.004490320585077701
150000000000.0,-1,0.9335048201499999,-0.44862481755,-1.0085158859999999,0.13324,-0.31994,0.4955,-2.598566117,-9.445569147,0.44658503435,-1.741,1.2986,-3.0243,0.0012000000000000899,-0.006999999999999895,0.0012699999999999934,0.002394507821085412,0.007583883729862739,0.0009240948109390246
150000000000.0,-1,1.1174677675,0.3699656779,-0.9267480383,0.28567,-0.3808,0.42649,-2.6388714484999998,-9.432722435499999,0.47947653844999993,-1.7505,1.2938,-3.0182,0.0011799999999999589,-0.007000000000000117,0.0010700000000000154,0.0035144847374219967,0.004727951569597266,-0.0030756782518384096
150000000000.0,-1,1.211317408,1.0482328184999998,-0.6372165036999999,0.44453,-0.43851,0.35642,-2.6719198589999995,-9.4207583225,0.5290295409,-1.7663,1.2893,-3.0062,0.0016199999999999548,-0.006699999999999928,0.0010199999999999099,-0.010250821486153638,0.005583376401834483,-0.004255092037568131
150000000000.0,-1,1.2192607944999998,1.4283385725,-0.41920486754999997,0.56405,-0.48204,0.28305,-2.697613282,-9.409676808,0.5923412733,-1.7869,1.2853,-2.9896,0.0016700000000000603,-0.007199999999999873,0.0010100000000000664,-0.0015376700114426711,0.004476129001441231,-0.0017847702074962335
150000000000.0,-1,1.2750606329999998,1.4571701234999999,-0.3943450098,0.63123,-0.52834,0.216,-2.7162459169999997,-9.399477892,0.6644397640999999,-1.8107,1.2816,-2.9702,0.0021099999999999453,-0.007000000000000117,0.0009700000000000264,-0.002397462898654723,0.0032233146018605385,-0.0050685724460866055
150000000000.0,-1,1.2869266795,1.0947163395,-0.4473009198,0.6408,-0.56886,0.15738,-2.7285042294999995,-9.390259640999998,0.74000000235,-1.8356,1.2784,-2.9501,0.0017200000000000548,-0.006999999999999895,0.0005299999999999194,-0.010410706381895007,0.002520709021188061,-0.0033019055748790826
150000000000.0,-1,1.2206337255,0.6263115089,-0.3949334088,0.61957,-0.59738,0.090149,-2.7339959534999996,-9.382512387499998,0.8149718415999999,-1.8605,1.2756,-2.9303,0.002610000000000001,-0.006900000000000128,0.0007099999999999884,-0.004210859233944708,0.001806894015584648,-0.007895310098641639
150000000000.0,-1,1.201706891,0.18766986105,-0.18585563079999998,0.58135,-0.60341,0.040993,-2.7337998205,-9.3760399985,0.8870605257499999,-1.8846,1.2733,-2.9114,0.0018399999999999528,-0.007099999999999884,0.00043000000000004146,-0.012651103854700585,0.001200020430726756,-0.0021976734322073366
150000000000.0,-1,1.051665146,-0.24021389175,0.050308114499999994,0.5347,-0.60722,-0.023125,-2.727621631,-9.3711366735,0.95480486395,-1.9075,1.2717,-2.8937,0.0024199999999999777,-0.006900000000000128,0.0007200000000000539,0.0005089874506771785,0.0011381815190998346,-0.007520934394518619
150000000000.0,-1,1.032640245,-0.45915715965,0.13279184765,0.48361,-0.6238,-0.075487,-2.715657518,-9.367998545499999,1.0180283365,-1.9295,1.2706,-2.8772,0.0021300000000000763,-0.007199999999999873,0.00042999999999993044,-0.014185937798584014,0.0008092966875801189,-0.0030113930535051736
150000000000.0,-1,0.96672975035,-0.6601346447499999,0.1281336889,0.43247,-0.64464,-0.12251,-2.6984958805,-9.366331415,1.0771624359999998,-1.9506,1.27,-2.8618,0.0018699999999999273,-0.007400000000000073,0.0006200000000000649,-0.001796089565592851,-0.0016012950034225426,-0.006952349353712695
150000000000.0,-1,0.9381237522999999,-0.7861010639999999,0.07430498705,0.36968,-0.65047,-0.16423,-2.6769212505,-9.3662333485,1.130706745,-1.9705,1.27,-2.8478,0.0020900000000000363,-0.007099999999999884,0.00046999999999997044,-0.012705931410155857,0.0006172615342339149,-0.005438603865003833
150000000000.0,-1,0.8963866498999999,-0.6091204514499999,-0.015229727449999998,0.29194,-0.65299,-0.19745,-2.6516200935,-9.367704346,1.1772883324999999,-1.9886,1.2705,-2.8356,0.0019400000000000528,-0.007300000000000084,0.0007800000000000029,-0.0015762711007747399,-0.002162196642862657,-0.006465823752539457
150000000000.0,-1,0.93950648995,-0.4750145127,-0.061144462749999996,0.20669,-0.66078,-0.23281,-2.6227885425,-9.370842474,1.2160246,-2.0049,1.2716,-2.8255,0.0018399999999999528,-0.007200000000000095,0.0006399999999999739,-0.0062149307998873304,-0.0013042327280485821,-0.006535952877566142
150000000000.0,-1,1.072062978,-0.29903417844999997,-0.025310963649999997,0.12265,-0.64302,-0.25545,-2.5701268319999997,-9.381433656,1.246229082,-2.0223,1.2753,-2.8144,0.0018700000000000383,-0.00749999999999984,0.0008500000000000174,-0.0025850468562556017,-0.0032939744346818234,-0.004503582795308603
150000000000.0,-1,1.0701997145,-0.019819239649999997,0.011767979999999999,0.03853,-0.63697,-0.27909,-2.536195823,-9.387709912,1.2680979115,-2.0344,1.2775,-2.8084,0.0015199999999999658,-0.007500000000000062,0.0008099999999999774,-0.004904903302095809,-0.002002498135314834,-0.008567135542801863
150000000000.0,-1,1.181897458,0.25125617965,-0.02793914585,-0.056297,-0.62872,-0.29208,-2.500891883,-9.3954571655,1.2810426894999998,-2.0442,1.2802,-2.8048,0.0016000000000000458,-0.00770000000000004,0.0007899999999999574,0.0013609295837639923,-0.0036243556894672846,-0.005452935680480886
150000000000.0,-1,1.20425662,0.5523889812,-0.10245007255,-0.15008,-0.6258,-0.30933,-2.464215012,-9.4046754165,1.2847692164999998,-2.0514,1.2835,-2.8039,0.0013699999999999823,-0.007900000000000018,0.0007200000000000539,-0.0017001596386405637,-0.002287108134506388,-0.0065993524076914944
150000000000.0,-1,1.190331177,0.8836968447999999,-0.12975178615,-0.23206,-0.61551,-0.32763,-2.4258710105,-9.415266598499999,1.2798658914999999,-2.0563,1.2873,-2.8052,0.0013499999999999623,-0.00770000000000004,0.0006399999999999739,-0.003296562313753526,-0.0040852551186494335,-0.005458132540762328
150000000000.0,-1,1.1867027165,0.9464790181,-0.08699479215,-0.29912,-0.60961,-0.35018,-2.385565679,-9.4272307115,1.267803712,-2.0593,1.2917,-2.8084,0.0010299999999999754,-0.007699999999999818,0.0005700000000000705,0.00301970604142876,-0.0028015153480667188,-0.007446943001428119
150000000000.0,-1,1.0827522264999998,0.9405852214499999,-0.10301885825,-0.35448,-0.61338,-0.38015,-2.3427106185,-9.440273556,1.2501517420000001,-2.061,1.2966,-2.813,0.0013000000000000789,-0.007900000000000018,0.00034999999999996145,-0.005063283791863604,-0.004779224558218553,-0.0068283352214773
