Time,placement_label,user_acc_x(m/s^2),user_acc_y(m/s^2),user_acc_z(m/s^2),rotation_rate_x(rad/s),rotation_rate_y(rad/s),rotation_rate_z(rad/s),gravity_x(m/s^2),gravity_y(m/s^2),gravity_z(m/s^2),attitude_roll(rad),attitude_pitch(rad),attitude_yaw(rad),target_delta_x,target_delta_y,target_delta_z,target_delta_roll,target_delta_pitch,target_delta_yaw
150000000000.0,3,-0.060114764499999994,-0.059791145049999994,-0.01215043935,-0.008929,0.020135,-0.004927,-2.3086815429999996,-9.5125485665,0.5936357510999999,-1.8225,1.3253,-2.055,0.0,0.0,0.0,0.0,0.0,0.0
150000000000.0,3,-0.0301848687,-0.065704555,-0.0375594695,-0.009026,0.011607,0.000427,-2.3087796094999997,-9.5125485665,0.59182152085,-1.8217,1.3253,-2.0556,-9.999999999998899e-05,-4.999999999988347e-05,-9.999999999998899e-05,0.0003243398475993864,0.0008710712856578873,-0.00046645380048060403
150000000000.0,3,-0.0169655045,-0.0423255014,-0.016024066099999998,-0.002712,0.004091,0.005789,-2.3094660749999996,-9.5124505,0.59107621545,-1.8214,1.3252,-2.056,9.999999999998899e-05,-5.0000000000105516e-05,0.00012000000000000899,-0.00011747034213227536,0.0001764410616282852,0.0003687559771994309
150000000000.0,3,-0.0039422733,0.0035892338999999997,0.025722842949999998,0.001545,0.001925,0.004733,-2.3100544739999997,-9.5123524335,0.5915371279999999,-1.8215,1.3252,-2.0558,-2.4999999999941735e-05,9.999999999998899e-05,-1.5000000000098268e-05,0.0003383048068241745,-0.00038500904323535146,0.00020902804695221988
150000000000.0,3,-0.00027458619999999996,0.026615248099999995,0.03427424175,0.001569,0.004057,0.003661,-2.3105448065,-9.5121563005,0.5922628201,-1.8217,1.3251,-2.0555,-2.500000000016378e-05,-4.999999999988347e-05,-1.4999999999987246e-05,-0.0010407244642955948,0.00020063208093601403,0.0007286557064660748
150000000000.0,3,-0.00610954295,0.029076717250000002,0.0158279331,0.00055,0.007266,-0.000615,-2.3108390059999997,-9.512058234,0.59244914645,-1.8218,1.3251,-2.0554,-2.4999999999941735e-05,-5.0000000000105516e-05,2.0000000000020002e-05,0.0006131687927966034,0.00020470519536930354,-0.0008005848249079683
150000000000.0,3,-0.0201036325,0.000588399,-0.0055897905,0.003769,0.008308,-0.002744,-2.3111332054999996,-9.5119601675,0.59246875975,-1.8218,1.325,-2.0554,-2.4999999999941735e-05,-1.1111111111183902e-05,1.5000000000098268e-05,0.00043844476309473635,-0.0003765869866221294,-0.00014313564499879305
150000000000.0,3,-0.022810267899999997,-0.03231291175,-0.013337044000000001,0.00164,0.008327,-0.003814,-2.3111332054999996,-9.512058234,0.5921353336499999,-1.8216,1.3251,-2.0554,3.333333333332966e-05,-1.1111111110961858e-05,1.4999999999987246e-05,-0.0008558775437632615,-0.0003931169793018885,0.0010864962231291742
150000000000.0,3,-0.0167497582,-0.045934348599999994,-0.015406247149999998,-0.00367,0.00944,-0.007027,-2.3107409395,-9.5121563005,0.5913606083,-1.8213,1.3251,-2.0556,3.333333333332966e-05,-1.1111111111183902e-05,2.999999999997449e-05,-5.119595648417352e-05,-0.0004273890721353535,-6.605487526023524e-05
150000000000.0,3,-0.005756503549999999,-0.0384812946,-0.00591340995,-0.007911,0.011608,-0.009173,-2.309858341,-9.5124505,0.5902524568499999,-1.821,1.3252,-2.0558,3.333333333332966e-05,-1.1111111111183902e-05,9.99999999995449e-06,7.361480045942059e-05,0.00023098602704196836,0.0002893058664938941
150000000000.0,3,0.0067371685499999995,-0.0191425808,0.0102969825,-0.010078,0.007364,-0.00917,-2.3087796094999997,-9.512744699499999,0.5891443054,-1.8206,1.3254,-2.0561,-2.4999999999941735e-05,-1.1111111110961858e-05,-9.00000000000345e-05,0.0002555988747610094,0.0015245784196502576,-5.2955706731250274e-05
150000000000.0,3,-0.00018632635,0.01466094175,0.040991796999999996,-0.00583,0.007324,-0.004893,-2.308289277,-9.5129408325,0.588987399,-1.8206,1.3254,-2.056,-2.500000000016378e-05,-1.1111111111183902e-05,0.000160000000000049,-0.0002866134841146284,-0.002260335922916301,0.0005148494642104318
150000000000.0,3,-0.0457774422,0.0240066792,0.03651015795,0.002638,0.00192,0.000471,-2.309073809,-9.512646633,0.5895757979999999,-1.8208,1.3253,-2.0558,-2.4999999999941735e-05,-1.1111111111183902e-05,-5.999999999994898e-05,0.0002915113489203591,0.0010777422554375526,-0.0002862721056011708
150000000000.0,3,-0.0745501533,0.0196721399,0.04734650619999999,0.009045,0.002932,0.001553,-2.3105448065,-9.512254366999999,0.5910075689,-1.8212,1.3251,-2.0554,-2.4999999999941735e-05,-1.1111111110961858e-05,1.999999999990898e-05,-0.0004435479626239136,-0.0006131731868703749,0.00012163930976916149
150000000000.0,3,-0.056094038,0.015268954049999998,0.04557150255,0.009078,0.006129,0.000484,-2.311623538,-9.511862101,0.5924785664,-1.8217,1.325,-2.0548,-4.999999999988347e-05,-1.1111111111183902e-05,-7.999999999996898e-05,0.00013573766522689823,0.0009967479979355875,5.601973211533107e-05
150000000000.0,3,-0.01860321505,-0.012513285399999999,0.0077864801,0.008,0.004008,-0.00058,-2.311819671,-9.511764034499999,0.5933023249999999,-1.822,1.3249,-2.0545,-5.0000000000105516e-05,3.333333333332966e-05,-9.00000000000345e-05,-2.4831079404208367e-05,0.0010993412041266915,-0.00032965567524723127
150000000000.0,3,0.0103558224,-0.0453263363,-0.020368412049999996,0.004735,-0.004489,-0.00164,-2.3113293384999998,-9.511862101,0.59348865135,-1.8221,1.325,-2.0543,-9.999999999998899e-05,3.333333333332966e-05,0.0001300000000000745,-8.640759809330767e-05,-0.0013083208431445836,0.00017566367776300496
150000000000.0,3,0.0246146915,-0.051582978999999994,-0.020466478549999997,0.000418,-0.009782,-0.000573,-2.310642873,-9.512058234,0.59342981145,-1.8222,1.3251,-2.0544,-9.999999999998899e-05,3.333333333332966e-05,-0.0001300000000000745,-1.8661937349229163e-05,0.0005221949089075917,-0.00018845377775100758
150000000000.0,3,0.0161025193,-0.0281450855,-0.00473661195,-0.000657,-0.010839,-0.000574,-2.3101525405,-9.5121563005,0.5935572979,-1.8223,1.3251,-2.0544,-6.666666666665932e-05,-9.999999999998899e-05,3.0000000000085514e-05,-0.00011601073806999374,0.0001251033586073813,6.004433020345701e-05
150000000000.0,3,0.010924608099999998,0.005187717849999999,0.0023045627499999996,-0.000636,-0.010835,-0.004845,-2.3096622079999998,-9.512254366999999,0.5938514974,-1.8225,1.3252,-2.0543,-6.666666666665932e-05,1.999999999990898e-05,-9.00000000000345e-05,-0.0001029805707282172,0.0014411545156478578,-0.000556089772060897
150000000000.0,3,-0.008090486249999999,0.0270859673,0.01877973475,-0.000548,-0.001243,-0.006996,-2.3093680085,-9.5123524335,0.59428299,-1.8227,1.3252,-2.0541,-6.666666666665932e-05,2.0000000000131024e-05,5.999999999994898e-05,-0.00048529909026795437,-0.0012608438117407417,0.0003510566602167309
150000000000.0,3,-0.020603771649999998,0.03862839435,0.03882452735,-0.001564,0.004094,-0.008072,-2.309073809,-9.5123524335,0.5948910022999999,-1.8229,1.3252,-2.0539,-9.999999999998899e-05,1.999999999990898e-05,-4.999999999999449e-05,-0.0002594816821250845,-0.00034334932600099677,-0.00016269916411104646
150000000000.0,3,-0.0481114249,0.00791396655,0.012464252149999999,-0.00156,0.005159,-0.007003,-2.309269942,-9.512254366999999,0.5949106156,-1.8229,1.3252,-2.0538,-3.333333333332966e-05,2.0000000000131024e-05,-2.999999999997449e-05,-9.724323559145986e-05,0.00021156610564965206,9.425210057356637e-05
150000000000.0,3,-0.08519036854999999,-0.04310022674999999,-0.01701453775,-0.003714,0.00411,-0.004864,-2.3100544739999997,-9.5121563005,0.59401821045,-1.8225,1.3251,-2.0542,-3.333333333332966e-05,1.999999999990898e-05,9.999999999998899e-05,0.00025758623279648063,-3.737280121907105e-05,1.6395479975006566e-05
150000000000.0,3,-0.08242489324999999,-0.0529166834,-0.0140235095,-0.002748,-0.004428,0.001563,-2.3112312719999997,-9.5119601675,0.5934200048,-1.8221,1.325,-2.0546,-3.333333333332966e-05,1.2499999999970868e-05,-0.00014999999999998348,-2.030079217130165e-05,0.0007841548379066143,-1.9814872098677938e-07
150000000000.0,3,-0.0649984762,-0.0442868314,-0.02346731345,-0.001682,-0.004436,0.001569,-2.3121138704999997,-9.511764034499999,0.5928316057999999,-1.8218,1.3249,-2.0549,-5.0000000000105516e-05,1.2499999999970868e-05,4.0000000000040004e-05,-0.0001540554447441167,2.2949950285955367e-05,2.686030632848002e-05
150000000000.0,3,-0.043561139299999996,-0.0376771493,-0.01915238745,-0.002753,-0.005491,0.000505,-2.312800336,-9.5115679015,0.5924099198499999,-1.8216,1.3249,-2.0552,-4.999999999988347e-05,1.2499999999970868e-05,-8.000000000008001e-05,-0.00033904387155336835,0.00018472405447744755,7.584021916207107e-05
150000000000.0,3,-0.013827376499999999,-0.01952504015,0.0072176943999999995,-0.001656,-0.00443,-0.003764,-2.312604203,-9.511665967999999,0.59252759965,-1.8216,1.3249,-2.0552,-3.333333333332966e-05,1.2500000000192912e-05,0.000160000000000049,-0.0008199007029690009,-0.0007190968568084877,0.00035325224515769804
150000000000.0,3,-0.00640374245,0.00552114395,0.01972117315,-0.008045,-0.002248,-0.002711,-2.31240807,-9.511665967999999,0.5923020467,-1.8215,1.3249,-2.0553,-3.333333333332966e-05,1.2499999999970868e-05,4.999999999999449e-05,7.375319923075274e-05,-0.00024109494187296576,-4.0256931324034184e-05
150000000000.0,3,-0.01626923235,0.01766177665,0.03658861115,-0.009084,0.000957,-0.002718,-2.31240807,-9.511764034499999,0.5920372671499999,-1.8214,1.3249,-2.0554,-3.333333333332966e-05,1.2499999999970868e-05,-0.00022999999999995246,-0.00020121309409959487,0.0014104971460013882,-0.0003043165897218536
150000000000.0,3,-0.026909447599999997,0.011463973849999998,0.047601479099999996,-0.007986,0.005209,-0.001654,-2.3127022695,-9.511665967999999,0.5919490073,-1.8214,1.3249,-2.0555,-9.999999999998899e-05,1.2499999999970868e-05,3.999999999992898e-05,0.00014554699609536925,0.0006254308480151405,6.44096380613135e-05
150000000000.0,3,-0.0622526142,-0.0025693423,0.0059232166000000004,-0.001657,-0.00124,0.002643,-2.3138790675,-9.5113717685,0.5915763546,-1.8211,1.3248,-2.0557,-6.666666666665932e-05,1.2499999999970868e-05,9.00000000000345e-05,9.984272158725105e-05,-0.0007842933986066392,-6.239968838972487e-05
150000000000.0,3,-0.0920648302,-0.014494228699999999,-0.00467777205,-0.000579,0.000882,0.003715,-2.3156442645,-9.5109795025,0.5912625417999999,-1.8208,1.3246,-2.056,-6.666666666665932e-05,9.999999999998899e-05,-0.00012000000000000899,0.002190451040203767,0.001306756894873029,-0.0005943130924639384
150000000000.0,3,-0.0876518377,-0.020888164499999997,-0.0016279038999999999,-0.000548,0.00408,0.002649,-2.317311395,-9.5105872365,0.5910467954999999,-1.8205,1.3244,-2.0562,-6.666666666665932e-05,2.4999999999941735e-05,-7.999999999996898e-05,-0.0008240278152655822,-0.0005388765257259287,0.00017465131154015268
150000000000.0,3,-0.05586848504999999,-0.022447421849999996,-0.0204566719,-0.005908,0.000929,0.00265,-2.3183901264999998,-9.5103911035,0.59013477705,-1.82,1.3244,-2.0567,3.333333333332966e-05,2.500000000016378e-05,0.00017000000000000348,4.1152660111620776e-05,-0.0009162945775900155,0.000305336069857276
150000000000.0,3,-0.02868445125,-0.018416888699999998,-0.03447037475,-0.008045,-0.001181,-0.00055,-2.318880459,-9.5103911035,0.58872261945,-1.8194,1.3244,-2.0573,3.333333333332966e-05,2.4999999999941735e-05,-0.00014999999999998348,0.00029855628257013933,0.0018932084810381333,-0.0005406925019668662
150000000000.0,3,-0.03231291175,0.006413549099999999,-0.0346370878,-0.009103,-0.001169,-0.002684,-2.319272725,-9.5103911035,0.5872516219499999,-1.8188,1.3243,-2.058,3.333333333332966e-05,2.4999999999941735e-05,0.00018999999999991246,0.0004625353943581434,-0.0008803418607230551,0.0005378063458501003
150000000000.0,3,-0.0364022848,0.019662333249999997,0.00573689025,-0.005902,-0.001195,-0.002675,-2.319664991,-9.510293036999999,0.58668283625,-1.8185,1.3243,-2.0583,-3.333333333332966e-05,4.999999999988347e-05,-3.999999999992898e-05,0.000527856436798757,0.0005954015048290628,-0.0001337454425645035
150000000000.0,3,-0.040246491599999996,0.0293022702,0.026840801049999998,-0.002689,-0.001219,-0.004801,-2.3199591905,-9.510194970499999,0.58682012935,-1.8185,1.3243,-2.0583,-3.333333333332966e-05,5.0000000000105516e-05,-2.4999999999941735e-05,-0.0003838796490951424,-0.0001774007016241974,0.00029109621851830525
150000000000.0,3,-0.0518379519,0.0223787753,0.027135000549999996,-0.000553,0.000891,-0.001594,-2.320645656,-9.5099988375,0.5871339421499999,-1.8186,1.3242,-2.0582,-3.333333333332966e-05,2.500000000016378e-05,-2.5000000000052758e-05,5.072444646780916e-05,0.0002742773930575204,-0.00034469222678623623
150000000000.0,3,-0.06691077295,0.023330020349999998,0.026752541199999997,0.000555,0.005146,-0.002662,-2.321626321,-9.509704638,0.5875065948499999,-1.8187,1.3241,-2.0581,-5.0000000000105516e-05,2.4999999999941735e-05,-4.0000000000040004e-05,-0.0001848595279430043,0.0003311230749047933,-7.767935211067112e-05
150000000000.0,3,-0.06706767934999999,0.0061879961500000006,0.034489988049999996,-0.003676,0.009443,-0.002672,-2.3225089195,-9.509508505,0.58770272785,-1.8186,1.324,-2.0581,-5.0000000000105516e-05,2.4999999999941735e-05,-2.999999999997449e-05,0.0004855215643289057,4.0876500754682965e-05,-0.00012517542312018293
150000000000.0,3,-0.05099458,-0.014592295199999999,0.013327237349999998,-0.00796,0.007348,-0.002672,-2.323195385,-9.5094104385,0.5871633621,-1.8184,1.324,-2.0583,2.4999999999941735e-05,2.500000000016378e-05,0.00012000000000000899,-6.630032802590335e-05,-0.0003341224141453214,0.0003061733977371972
150000000000.0,3,-0.04257066765,-0.04706211335,-0.01903470765,-0.009045,0.005226,-0.002667,-2.3234895845,-9.5094104385,0.58585907765,-1.8178,1.324,-2.0588,2.500000000016378e-05,5.0000000000105516e-05,-8.000000000008001e-05,-4.956772918585095e-05,-0.0002468747169659391,-0.00016512354786257788
150000000000.0,3,-0.043365006299999995,-0.0567412769,-0.05098477334999999,-0.008015,0.000957,-0.002655,-2.3237837839999997,-9.5094104385,0.58399581415,-1.817,1.324,-2.0595,2.500000000016378e-05,4.999999999988347e-05,-4.499999999996174e-05,0.0002932583461559002,-5.705555930912709e-05,0.0006342784075936692
150000000000.0,3,-0.049641262299999996,-0.03702010375,-0.0403837847,-0.005909,-0.002256,-0.002642,-2.3241760499999997,-9.5094104385,0.5826719163999999,-1.8164,1.324,-2.0601,2.4999999999941735e-05,4.999999999988347e-05,-4.499999999996174e-05,0.0005276740496173993,0.0014850452573351713,-0.0003910430189013603
150000000000.0,3,-0.04669926729999999,-0.0158475464,0.010247949249999999,-0.004793,0.003064,-0.003713,-2.3245683159999997,-9.509312372,0.582318877,-1.8162,1.3239,-2.0603,-0.00010000000000021103,5.0000000000105516e-05,7.00000000000145e-05,-0.00035342536063653895,-0.0010892299300246933,0.00038420674574846103
150000000000.0,3,-0.04630700129999999,-0.005011198149999999,0.036873003999999994,-0.006917,0.004147,-0.003716,-2.324960582,-9.5092143055,0.58217177725,-1.8161,1.3239,-2.0604,0.00010000000000021103,3.333333333332966e-05,1.999999999990898e-05,0.0006748700960339526,0.0010212904759610009,-0.00011470723048168097
150000000000.0,3,-0.04788587195,-0.00510926465,0.023408473549999996,-0.005851,0.005202,-0.001578,-2.325548981,-9.509116238999999,0.5817206713499999,-1.8159,1.3239,-2.0606,-5.0000000000105516e-05,3.333333333332966e-05,2.0000000000020002e-05,0.00010212825972777395,-0.0004753031510504879,-1.9046135402600584e-05
150000000000.0,3,-0.054211161199999996,0.015288567349999999,0.026203368799999998,-0.000557,0.001958,0.001644,-2.326529646,-9.508920106,0.581926611,-1.8159,1.3237,-2.0606,-5.0000000000105516e-05,3.333333333332966e-05,-9.99999999995449e-06,0.000160286351662986,1.6940917688224033e-05,0.00014002049010519713
150000000000.0,3,-0.052563644,0.039177566750000004,0.0387166542,0.006948,0.006159,0.001654,-2.327706444,-9.50852784,0.58287785605,-1.8162,1.3236,-2.0603,-1.999999999990898e-05,4.999999999988347e-05,-7.999999999996898e-05,0.0002599538553464953,0.0006297200513851742,-0.00027959048923076324
150000000000.0,3,-0.0478956786,0.0458755087,0.044090698399999996,0.00487,0.011506,-0.00049,-2.3287851754999997,-9.5082336405,0.5839467809,-1.8165,1.3235,-2.0598,-2.0000000000131024e-05,5.0000000000105516e-05,-2.0000000000020002e-05,0.00022018013787139523,0.00013618565385464798,0.00013355496439793058
150000000000.0,3,-0.0361669252,0.022221868899999997,0.027909725899999998,-0.00365,0.012643,-0.001571,-2.329471641,-9.5080375075,0.58395658755,-1.8164,1.3234,-2.0598,-1.999999999990898e-05,9.999999999998899e-05,-4.0000000000040004e-05,-0.0003765519916729687,-0.000755952276145333,0.0009091566702892351
150000000000.0,3,-0.03849110124999999,-0.0205743517,-0.022359162,-0.010064,0.010566,-0.002643,-2.329863907,-9.5080375075,0.5824561701,-1.8158,1.3234,-2.0603,-2.0000000000131024e-05,4.999999999988347e-05,1.0000000000065512e-05,0.00023787831418831118,-0.0002649121532727339,-0.00012229617038572727
150000000000.0,3,-0.040893730499999996,-0.049964881749999995,-0.07010774084999999,-0.010067,0.010568,-0.00264,-2.3301581065,-9.508135573999999,0.57991624775,-1.8147,1.3234,-2.0612,-1.999999999990898e-05,5.0000000000105516e-05,9.99999999995449e-06,0.0003243383473359174,-0.0006269655390012119,0.00013528937403428642
150000000000.0,3,-0.039736545799999995,-0.0654495821,-0.07310857574999999,-0.00903,0.007364,-0.002629,-2.3303542395,-9.5082336405,0.5775332317999999,-1.8137,1.3235,-2.0621,-1.0000000000065512e-05,-9.999999999998899e-05,7.999999999996898e-05,-0.0034706807164892606,-0.0005176414137093577,0.0015239722550841606
150000000000.0,3,-0.0359315656,-0.05488782005,-0.03456844125,-0.009018,0.008432,-0.003696,-2.3304523059999998,-9.508331707,0.5758072613999999,-1.813,1.3235,-2.0628,-9.999999999843467e-06,4.999999999988347e-05,-9.99999999995449e-06,-0.0004879343275241421,6.517127888550078e-05,0.0001303287643739104
150000000000.0,3,-0.0101400761,-0.035451039749999996,0.015533733599999999,-0.013302,0.006336,-0.0037,-2.3301581065,-9.5084297735,0.57464027005,-1.8126,1.3236,-2.0632,-1.0000000000065512e-05,5.0000000000105516e-05,0.00012999999999996348,0.0002717302294414914,-0.0012046882469696207,0.00020150799824358856
150000000000.0,3,-0.01485707475,-0.024281265399999998,0.0147295883,-0.01332,0.005268,-0.001563,-2.3301581065,-9.50852784,0.57334579225,-1.8121,1.3236,-2.0636,-1.0000000000065512e-05,9.999999999998899e-05,-5.999999999994898e-05,0.001916148744320445,0.0012892593577367162,-0.000681044988479762
150000000000.0,3,-0.01568083335,0.00085317855,0.0055701772,-0.006933,0.004149,-0.000481,-2.3303542395,-9.50852784,0.5724730003999999,-1.8117,1.3236,-2.064,-1.0000000000065512e-05,4.999999999988347e-05,9.999999999998899e-05,0.0004203928519097566,3.430393308989643e-05,-0.0004138254066448077
150000000000.0,3,-0.00903192465,0.03637286485,0.05246557749999999,0.001622,0.006209,-0.000469,-2.3305503725,-9.5084297735,0.5731692725499999,-1.8119,1.3236,-2.0637,-9.999999999843467e-06,5.0000000000105516e-05,-9.00000000000345e-05,-0.00018360204859879659,-0.0007133140652140213,0.000646651956186961
150000000000.0,3,-0.0146707484,0.0526813238,0.052563644,0.004856,0.009379,-0.001535,-2.3309426385,-9.5082336405,0.57442452375,-1.8124,1.3235,-2.0631,-1.0000000000065512e-05,9.999999999998899e-05,2.0000000000020002e-05,-0.0007706230545223569,-0.0009686569715259274,0.001133252980387578
150000000000.0,3,-0.036480738,0.041854782199999996,-0.01130706745,0.003779,0.009387,0.000602,-2.3317271705,-9.5080375075,0.57454220355,-1.8124,1.3234,-2.063,-1.0000000000065512e-05,9.999999999998899e-05,-2.0000000000020002e-05,0.0015510246360741498,0.0009596303559813446,-0.0005577266825809168
150000000000.0,3,-0.059330232499999996,-0.0007060788,-0.04872924385,-0.006903,0.009474,0.002723,-2.3329039684999997,-9.5078413745,0.57305159275,-1.8117,1.3233,-2.0637,-9.999999999843467e-06,-9.999999999998899e-05,-2.0000000000020002e-05,-0.0009809162611547073,0.0002595805180405364,0.00023356685086595164
150000000000.0,3,-0.0556821587,-0.05035714775,-0.03454882795,-0.014415,0.004209,0.002724,-2.3338846335,-9.507743308,0.57114910265,-1.8108,1.3233,-2.0645,-1.0000000000065512e-05,9.999999999998899e-05,4.0000000000040004e-05,-0.0006591703587237596,-0.0012610505263148664,0.0009843103265292363
150000000000.0,3,-0.07245153019999999,-0.0667244466,-0.03192064575,-0.014394,0.003151,-0.003674,-2.3346691655,-9.507743308,0.5689622196999999,-1.8098,1.3232,-2.0654,9.999999999998899e-05,0.00019999999999997797,-0.0001100000000000545,0.0027136719755316285,0.0012909117010748705,-0.0003018772180509721
150000000000.0,3,-0.060928716449999996,-0.0537796686,-0.052338091049999994,-0.00584,0.003087,-0.007924,-2.334767232,-9.507743308,0.5670989562,-1.8091,1.3233,-2.0661,-5.0000000000105516e-05,9.999999999998899e-05,-3.999999999992898e-05,-0.00048108843334770945,-0.00028590314387200166,0.00029196129364850165
150000000000.0,3,-0.0336760361,-0.022908334399999997,-0.0415409694,0.003776,0.003012,-0.011107,-2.334178833,-9.507939441,0.5663242308499999,-1.8088,1.3234,-2.0664,-4.999999999988347e-05,3.333333333332966e-05,0.000140000000000029,0.0012582068898374654,0.00012095737855588595,-0.00055912572882022
150000000000.0,3,-0.0187699281,0.030812494299999996,-0.007649186999999999,0.010156,-0.000236,-0.012154,-2.333394301,-9.508135573999999,0.5670008897,-1.8092,1.3234,-2.066,-2.4999999999941735e-05,3.333333333332966e-05,7.999999999996898e-05,-0.0005384521380871199,0.0002770219662493467,-0.0006249623474743338
150000000000.0,3,-0.028125472199999998,0.06926436894999999,0.010149882749999999,0.005905,0.002994,-0.010029,-2.3331981679999996,-9.508135573999999,0.5680502012499999,-1.8096,1.3234,-2.0655,-2.4999999999941735e-05,3.333333333332966e-05,-4.999999999999449e-05,0.000782130540581516,-0.0007372639417411175,0.000520949761968037
150000000000.0,3,-0.0419332354,0.06877403644999999,0.00216726965,0.008036,0.001912,-0.011087,-2.3331001015,-9.5080375075,0.5688445399,-1.8099,1.3234,-2.0652,-2.500000000016378e-05,1.999999999990898e-05,4.999999999999449e-05,-0.0014709124091334402,-0.0009298460771269834,0.00032857223509541456
150000000000.0,3,-0.05877125345,0.05781020175,-0.05388754175,0.009126,0.005102,-0.011084,-2.3332962344999997,-9.5080375075,0.56863860025,-1.8098,1.3234,-2.0652,-2.4999999999941735e-05,2.0000000000131024e-05,-2.999999999997449e-05,0.000576781370688062,0.0013727861418113552,-0.0007371223899159673
150000000000.0,3,-0.07895333915000001,0.02609549565,-0.050945546749999994,0.009108,0.0051,-0.007874,-2.3339827,-9.5078413745,0.5685405337499999,-1.8097,1.3233,-2.0652,9.999999999998899e-05,1.999999999990898e-05,-6.0000000000060005e-05,-3.697655676870859e-05,-0.0003631372943644351,0.00032113585512494325
150000000000.0,3,-0.09325143485,-0.0191621941,-0.02899826405,0.006945,0.002986,-0.005732,-2.334767232,-9.507645241499999,0.5687366667499999,-1.8097,1.3232,-2.0652,-1.2499999999970868e-05,2.0000000000131024e-05,-0.00012000000000000899,-0.0008232789645492566,0.0005833481536907659,0.00016824067978449264
150000000000.0,3,-0.09134894475,-0.0751581656,-0.02878251775,0.000518,0.001971,-0.002533,-2.3356498305,-9.5074491085,0.5683738207,-1.8095,1.3232,-2.0654,-1.2499999999970868e-05,1.999999999990898e-05,0.00014999999999998348,0.0006228915317258998,-0.0017107672136535967,0.0003795172557725657
150000000000.0,3,-0.0640570378,-0.0993609778,-0.041207543299999996,-0.001668,-0.002275,0.000677,-2.3362382294999997,-9.507351042,0.56748141555,-1.8091,1.3231,-2.0658,-1.2499999999970868e-05,-9.999999999998899e-05,2.0000000000020002e-05,-0.00035238276124283097,0.0010063773290902578,-0.00021668895727122717
150000000000.0,3,-0.037834055699999994,-0.06964682829999999,-0.030096608849999998,-0.004923,-0.007578,0.002817,-2.336728562,-9.507351042,0.5665497838,-1.8087,1.3231,-2.0663,-1.2499999999970868e-05,3.333333333332966e-05,-2.999999999997449e-05,0.00017838143727555433,-7.677216385726382e-06,0.00010067751192366359
150000000000.0,3,-0.0375398562,-0.0193975537,-0.011689526799999999,-0.005945,-0.001176,0.003874,-2.3376111605,-9.507154908999999,0.56595157815,-1.8083,1.323,-2.0666,-1.2500000000192912e-05,3.333333333332966e-05,-9.99999999995449e-06,6.628503920635964e-05,0.0008041310726403239,-0.0007176302643654431
150000000000.0,3,-0.04141348295,0.016141745899999997,-0.0057074703,-0.006995,0.000964,0.003872,-2.3386898919999997,-9.506958776,0.5652062727499999,-1.8079,1.3229,-2.067,-1.2499999999970868e-05,3.333333333332966e-05,9.99999999995449e-06,-0.0007762002018965042,-0.001632322818089671,0.0008312886941408415
150000000000.0,3,-0.0580161414,0.0108265416,-0.01232695905,-0.006925,0.008426,0.00173,-2.3399647564999997,-9.506664576499999,0.5640392813999999,-1.8073,1.3228,-2.0676,-1.2499999999970868e-05,-4.999999999988347e-05,0.00010999999999994348,0.0007004332127114044,4.965628502096031e-05,-0.0004618749660445509
150000000000.0,3,-0.07416769395,0.005942829899999999,-0.0333622233,-0.005863,0.007354,0.000672,-2.3413376875,-9.5064684435,0.5626271237999999,-1.8066,1.3227,-2.0682,-1.2499999999970868e-05,-5.0000000000105516e-05,-1.999999999990898e-05,-0.00014480367160119023,0.0016643755841991847,-0.0007994714188073182
150000000000.0,3,-0.0697252815,0.00069627215,-0.0389127872,-0.004787,0.007349,-0.001455,-2.3423183525,-9.506272310499998,0.56114631965,-1.8059,1.3227,-2.0688,9.999999999998899e-05,5.0000000000105516e-05,9.999999999998899e-05,-0.0003426071087835325,-0.0008197658924702367,0.0002674528150343747
150000000000.0,3,-0.05022966129999999,-0.0113168741,-0.037932122199999994,-0.004747,0.01055,-0.004658,-2.342808685,-9.506272310499998,0.5597243554,-1.8053,1.3226,-2.0693,9.999999999998899e-05,4.999999999988347e-05,-0.00021999999999999797,0.001252899820949338,0.0006338217648862443,0.0007739260782990698
150000000000.0,3,-0.007423634049999999,-0.0022359162,-0.03325435015,-0.004743,0.00736,-0.011056,-2.342024153,-9.5064684435,0.5584887175,-1.8049,1.3227,-2.0696,-9.999999999998899e-05,-9.999999999998899e-05,8.999999999992347e-05,-0.00022402439812330144,0.0013240501642703961,-0.0009970194925217335
150000000000.0,3,0.024242038799999997,0.004981778199999999,-0.03596098555,-0.002598,0.006282,-0.015321,-2.3403570224999997,-9.506958776,0.55743940595,-1.8046,1.3229,-2.0698,-9.999999999998899e-05,-1.4285714285744433e-05,6.0000000000060005e-05,-0.0008475378804857492,-0.0018758446607578527,0.00038681575102783583
150000000000.0,3,0.025811102799999996,0.02117255735,-0.023545766649999997,0.003824,0.008362,-0.016382,-2.338493759,-9.5074491085,0.5571550131,-1.8047,1.3231,-2.0697,9.999999999998899e-05,-1.4285714285744433e-05,-2.999999999997449e-05,0.0003914066367425306,-0.0004918063193100064,0.000319574325171601
150000000000.0,3,0.014974754549999999,0.013807763199999998,-0.00581534345,0.005961,0.009409,-0.015314,-2.336728562,-9.5078413745,0.55722365965,-1.8049,1.3233,-2.0694,3.333333333332966e-05,-1.4285714285744433e-05,-2.0000000000020002e-05,0.000856937497748067,0.0007270576180955501,0.00010267752744264058
150000000000.0,3,-0.0109638347,0.01215043935,0.034489988049999996,0.006994,0.008329,-0.009973,-2.33594403,-9.5080375075,0.55822393795,-1.8054,1.3234,-2.0688,3.333333333332966e-05,-1.4285714285522388e-05,2.0000000000020002e-05,-0.00016624750204807803,-2.9588115169287832e-05,-0.0003163568947766038
150000000000.0,3,-0.055731191949999995,-0.00487390505,0.0315381864,0.004824,0.006211,-0.0057,-2.3362382294999997,-9.5078413745,0.5590771164999999,-1.8057,1.3233,-2.0684,3.333333333332966e-05,-1.4285714285744433e-05,-9.00000000000345e-05,-0.00010832282058226284,0.0005949236345965669,0.00041806913748843044
150000000000.0,3,-0.06693038625,-0.0270859673,0.0171812508,0.004809,0.006208,-0.002493,-2.3370227614999997,-9.507645241499999,0.5595184157499999,-1.8058,1.3232,-2.0682,-5.0000000000105516e-05,-1.4285714285744433e-05,5.999999999994898e-05,-0.0008540936157694912,-0.0018004034882368458,0.0010608241268448282
150000000000.0,3,-0.0441691516,-0.04557150255,0.03764772935,0.000491,0.003041,0.002844,-2.3378072934999996,-9.5074491085,0.560155848,-1.806,1.3231,-2.068,-4.999999999988347e-05,-1.4285714285744433e-05,-9.99999999995449e-06,0.000457231830629512,0.002254366689790066,-0.0011010996273563833
150000000000.0,3,-0.019809433,-0.05323049619999999,0.03843226135,0.000426,-0.003356,0.006058,-2.338297626,-9.5072529755,0.56087173345,-1.8062,1.3231,-2.0678,4.999999999988347e-05,4.999999999988347e-05,-0.0001100000000000545,0.00014940230802618082,-0.0005629972638969694,0.00010978287429885825
150000000000.0,3,0.01420983585,-0.04172729575,0.00420705285,-0.001714,-0.005468,0.003921,-2.3383956925,-9.5072529755,0.56096979995,-1.8062,1.3231,-2.0678,5.0000000000105516e-05,5.0000000000105516e-05,6.0000000000060005e-05,-0.0002134093019565686,-2.918680385866068e-05,0.0006985881691408125
150000000000.0,3,0.0319892923,-0.0351862602,0.0029714149499999996,-0.000666,-0.009736,0.000725,-2.3379053599999997,-9.507351042,0.56100902655,-1.8063,1.3231,-2.0678,-9.999999999998899e-05,-9.999999999998899e-05,0.00010999999999994348,-0.00037296755012161675,0.0002875723912187933,-0.0008592534912961192
150000000000.0,3,0.03677493749999999,-0.021270623849999996,-0.0042953127,-0.002794,-0.012909,-0.005681,-2.336728562,-9.507645241499999,0.56094038,-1.8064,1.3232,-2.0678,-9.999999999998899e-05,6.666666666665932e-05,-1.999999999990898e-05,-3.4806307263046676e-05,0.00020345731858539828,-2.3510598659015614e-05
150000000000.0,3,0.028517738199999997,-0.01354298365,-0.021564823349999998,-0.008071,-0.007534,-0.008904,-2.3353556309999997,-9.5080375075,0.5601068147499999,-1.8062,1.3234,-2.0681,5.0000000000105516e-05,6.666666666665932e-05,9.99999999995449e-06,6.670883591741728e-05,-0.0010260359831530952,-0.00018876228353903457
150000000000.0,3,0.0074432473499999995,-0.0178088764,-0.012474058799999998,-0.015483,-0.001078,-0.009996,-2.334178833,-9.5084297735,0.5586456238999999,-1.8057,1.3235,-2.0687,4.999999999988347e-05,6.666666666665932e-05,-2.999999999997449e-05,0.00040770785479660177,-0.0006196471136097337,0.0010434778556231983
150000000000.0,3,-0.01126784085,-0.02448720505,0.00222610955,-0.018681,-0.002115,-0.012134,-2.3331001015,-9.508723973,0.55696868675,-1.8051,1.3237,-2.0693,-9.999999999998899e-05,-9.999999999998899e-05,-2.0000000000020002e-05,-0.0001659027463412066,0.0010365679558133056,-0.000899053770969882
150000000000.0,3,-0.03392120235,-0.017730423199999998,-0.0017848103,-0.01447,-0.006416,-0.007848,-2.3327078355,-9.508920106,0.555448656,-1.8046,1.3238,-2.0699,-5.0000000000105516e-05,1.999999999990898e-05,4.0000000000040004e-05,0.0005244841623439633,-0.00017210828277614,-5.697204905130704e-05
150000000000.0,3,-0.068842683,0.0027066354,-0.019368133750000002,-0.008088,-0.007535,-0.005694,-2.3332962344999997,-9.508920106,0.55432089125,-1.804,1.3237,-2.0705,-4.999999999988347e-05,2.0000000000131024e-05,-4.999999999999449e-05,-0.0004378604180617085,-5.239570496851087e-05,-0.00016881421428127652
150000000000.0,3,-0.08074795609999999,0.03156760635,-0.009943943099999998,0.001555,-0.004413,-0.008878,-2.3339827,-9.508723973,0.55432089125,-1.804,1.3237,-2.0706,-1.6666666666775853e-05,1.999999999990898e-05,0.00015999999999993797,0.0005903555026236518,-3.5332719804381796e-05,-0.00043941779365130884
150000000000.0,3,-0.06967624825,0.0318912258,0.0281450855,0.005872,0.00088,-0.009942,-2.3342768995,-9.508625906499999,0.5552917495999999,-1.8043,1.3236,-2.0703,-1.666666666655381e-05,2.0000000000131024e-05,-0.000140000000000029,0.0007831512511271566,0.0013332692384200318,-0.0004622592463672248
150000000000.0,3,-0.05171046544999999,0.0204566719,0.041531162749999996,0.003718,-0.001234,-0.008871,-2.3342768995,-9.50852784,0.5564195143499999,-1.8048,1.3236,-2.0698,-1.666666666655381e-05,1.999999999990898e-05,9.999999999998899e-05,-0.0004875136496322874,-0.0004110389638334322,0.0005278301454709755
150000000000.0,3,-0.04610106165,0.01065982855,0.02566400305,0.004753,-0.003377,-0.00566,-2.334374966,-9.5084297735,0.5571746263999999,-1.8051,1.3236,-2.0695,-1.6666666666775853e-05,-4.999999999988347e-05,-4.999999999999449e-05,0.00031013491844533725,-0.001192326844682512,0.0005151567091599141
150000000000.0,3,-0.0502492746,-0.0010002783,0.009914523149999998,0.008991,-0.00661,-0.004575,-2.3346691655,-9.508331707,0.5581160648,-1.8054,1.3235,-2.0692,-1.6666666666775853e-05,-5.0000000000105516e-05,4.999999999999449e-05,-0.00040101712996865047,0.0006820510081890774,-0.0009173893486824625
150000000000.0,3,-0.0420705285,-0.0065116155999999994,0.012846711499999998,0.009003,-0.00448,-0.003509,-2.334963365,-9.5082336405,0.5592144095999999,-1.8059,1.3235,-2.0688,-1.666666666655381e-05,3.333333333332966e-05,-0.00018999999999991246,-0.0002765208415855813,0.00187497690699856,-0.00024007936957248788
150000000000.0,3,-0.03935408645,-0.025634583099999997,0.0320089056,0.0069,-0.000201,-0.00245,-2.3350614315,-9.5080375075,0.56055792065,-1.8064,1.3234,-2.0683,9.999999999998899e-05,3.333333333332966e-05,0.00021999999999999797,-0.00062384711836172,-0.0022971857274336482,0.0005711726975552445
150000000000.0,3,-0.048346784500000003,-0.03882452735,0.02083913125,0.005834,-0.000192,-0.002449,-2.335551764,-9.507939441,0.56155819895,-1.8068,1.3233,-2.0679,-2.4999999999941735e-05,3.333333333332966e-05,-4.999999999999449e-05,0.0008022880682092559,0.0008724651989366894,-0.0005375661002462451
150000000000.0,3,-0.05161239895,-0.0440514718,0.0097478101,0.002637,0.000899,-0.001386,-2.3360420965,-9.507743308,0.5620191115,-1.8069,1.3233,-2.0678,-2.4999999999941735e-05,-8.333333333387927e-06,-0.00012000000000000899,0.0006422179796972127,0.0006394003107332846,0.00023493515380090813
150000000000.0,3,-0.06916630245,-0.01069905515,-0.014121576,0.001599,0.001978,-0.005654,-2.336728562,-9.507547175,0.56195046495,-1.8068,1.3232,-2.0679,-2.500000000016378e-05,-8.333333333387927e-06,0.00010999999999994348,-0.0003619794864970771,-0.00014728151826770564,4.50058610095283e-05
150000000000.0,3,-0.07724698205,0.01568083335,-0.049964881749999995,0.000563,0.004123,-0.008855,-2.337316961,-9.507547175,0.56112670635,-1.8064,1.3232,-2.0682,-2.4999999999941735e-05,-8.333333333165882e-06,1.0000000000065512e-05,-0.00123712974375767,-0.0005596757895343085,0.00015819116431092795
150000000000.0,3,-0.06630276064999999,0.015582766849999999,-0.037608502749999995,-0.000475,0.005203,-0.013122,-2.337316961,-9.507547175,0.5602931411,-1.8061,1.3232,-2.0685,5.0000000000105516e-05,-8.333333333387927e-06,-1.4999999999987246e-05,0.0002732548624964082,-7.714913407452784e-06,-0.0004916614441645706
150000000000.0,3,-0.05043560095,0.0172400907,-0.033636809499999996,-0.00368,0.004166,-0.014189,-2.336924695,-9.507743308,0.5593124761,-1.8057,1.3233,-2.0688,4.999999999988347e-05,-8.333333333387927e-06,-1.5000000000098268e-05,8.368221201005e-05,0.00013291803240078615,0.00037680419198915516
150000000000.0,3,-0.04492426365,0.01369989005,-0.02686041435,-0.003716,-9.5e-05,-0.014177,-2.3362382294999997,-9.507939441,0.5585279441,-1.8055,1.3233,-2.069,1.6666666666775853e-05,-8.333333333165882e-06,9.00000000000345e-05,0.00020059178865183824,-0.0005815892960892022,0.00020797863229082836
150000000000.0,3,-0.036647451049999995,0.0122190859,-0.0158279331,0.000554,0.000935,-0.013101,-2.335747897,-9.5080375075,0.5581160648,-1.8053,1.3234,-2.0691,1.666666666655381e-05,-8.333333333387927e-06,-4.999999999999449e-05,0.0001714372544823206,0.0005790673166075067,-0.00016984368187511478
150000000000.0,3,-0.045365562899999996,0.018858187949999997,0.00605070305,0.003776,0.004104,-0.01203,-2.3353556309999997,-9.508135573999999,0.5585279441,-1.8055,1.3234,-2.0689,1.666666666655381e-05,-8.333333333387927e-06,-2.0000000000020002e-05,0.0013550372302666425,0.0005883697983801728,-0.0008055297394569116
150000000000.0,3,-0.0618015083,0.012042566199999999,0.01634768555,0.012332,0.00723,-0.010949,-2.3353556309999997,-9.5080375075,0.5597537753499999,-1.806,1.3234,-2.0683,1.6666666666775853e-05,-8.333333333387927e-06,2.0000000000020002e-05,-0.0013531411012461803,-0.0010345475407047555,0.0006976913259588713
150000000000.0,3,-0.0715100918,0.0027556686499999998,0.0293414968,0.013412,0.009351,-0.009878,-2.335747897,-9.5078413745,0.5612738061,-1.8066,1.3233,-2.0676,1.6666666666775853e-05,-8.333333333387927e-06,2.0000000000020002e-05,-0.0004997584473249717,-0.00018918082576413475,0.000439664542685847
150000000000.0,3,-0.0795123182,-0.0058447633999999995,0.0050798447,0.009112,0.007253,-0.006673,-2.3364343625,-9.507645241499999,0.56204853145,-1.8069,1.3232,-2.0673,1.666666666655381e-05,-8.333333333165882e-06,-2.0000000000020002e-05,0.00014414895952175044,0.00045663540011520176,-0.00037185963762009777
150000000000.0,3,-0.0861808402,-0.019221033999999998,-0.042207821599999994,0.004858,0.010484,-0.004545,-2.337316961,-9.5074491085,0.5616072322,-1.8066,1.3231,-2.0674,-2.4999999999941735e-05,-8.333333333387927e-06,4.0000000000040004e-05,-0.00048372016743769564,-0.0007787248395849655,0.00046947082962223163
150000000000.0,3,-0.08584741409999999,-0.035107807,-0.0567412769,0.003766,0.008363,-0.003469,-2.338297626,-9.5072529755,0.56071482705,-1.8062,1.3231,-2.0678,-2.500000000016378e-05,9.999999999998899e-05,-0.000140000000000029,0.0009404287680880863,0.0014750945783599256,-5.442664492916194e-05
150000000000.0,3,-0.06867596995,-0.04078585735,-0.0382851616,0.002658,0.00411,-0.00239,-2.3389840915,-9.507154908999999,0.5602146879,-1.8059,1.323,-2.068,-2.4999999999941735e-05,-4.999999999988347e-05,0.00014999999999998348,-0.00043337631985029823,-0.001653329741777343,-4.756764176283568e-05
150000000000.0,3,-0.028959037449999996,-0.0316754795,-0.030577134699999998,0.003677,-0.002291,-0.003443,-2.339082158,-9.507154908999999,0.56014604135,-1.8058,1.323,-2.068,-2.4999999999941735e-05,-5.0000000000105516e-05,-2.0000000000020002e-05,-0.00017821325401801147,0.0004784815718388291,0.00022079179156087037
150000000000.0,3,-0.00293218835,-0.01707337765,-0.0233006004,0.001525,-0.004404,-0.003442,-2.3387879584999998,-9.5072529755,0.56004797485,-1.8058,1.323,-2.068,9.999999999998899e-05,-1.666666666655381e-05,-2.999999999997449e-05,-0.00020793778036476418,-0.00033018547995511405,0.0003214810949292435
150000000000.0,3,0.01028717585,0.00732556755,-0.0083944924,0.002594,-0.005476,-0.005574,-2.3380034265,-9.507351042,0.56026372115,-1.806,1.3231,-2.0679,3.333333333332966e-05,-1.6666666666775853e-05,4.0000000000040004e-05,-0.0005371219163308183,-0.0009472485643755579,0.00011008849363047801
150000000000.0,3,0.011875853149999999,0.03696126385,0.01968194655,0.002662,0.00092,-0.008788,-2.3372188945,-9.507547175,0.56091096005,-1.8063,1.3232,-2.0676,3.333333333332966e-05,-1.6666666666775853e-05,-0.00012000000000000899,0.0003194608447429914,0.0014691966570115067,-0.0001954370611505496
150000000000.0,3,-0.00722750105,0.035784465849999995,0.015229727449999998,0.004821,0.001971,-0.011987,-2.3364343625,-9.507743308,0.5616170388499999,-1.8067,1.3232,-2.0672,3.333333333332966e-05,-1.666666666655381e-05,-0.0001300000000000745,-0.00013283499266414367,0.00019130075616491382,-8.773155575347857e-06
150000000000.0,3,-0.0326169179,0.013307624049999998,-0.0034617474499999998,0.004855,0.006234,-0.011992,-2.3358459635,-9.5078413745,0.56191123835,-1.8069,1.3233,-2.067,-9.999999999998899e-05,-1.666666666655381e-05,0.0001500000000000945,0.00021280477225538164,-0.00044012434816820267,-0.00013038862652603456
150000000000.0,3,-0.0514849125,-0.03090075415,-0.0121014061,0.001618,0.003062,-0.009854,-2.335551764,-9.507939441,0.5617151053499999,-1.8068,1.3233,-2.067,9.999999999998899e-05,-1.6666666666775853e-05,-4.0000000000040004e-05,-9.25049612172657e-05,0.0007102675013304083,0.00011528847102404427
150000000000.0,3,-0.05170065879999999,-0.04559111585,-0.02240819525,-0.001567,0.005221,-0.00986,-2.335159498,-9.5080375075,0.56110709305,-1.8066,1.3234,-2.0671,9.999999999998899e-05,9.999999999998899e-05,-9.999999999998899e-05,0.0003836003418897782,-0.0009255177283646887,0.0008075040088955099
150000000000.0,3,-0.033872169099999995,-0.0475818658,-0.0350097405,-0.006932,0.001004,-0.010927,-2.3344730325,-9.5082336405,0.5599401017,-1.8062,1.3235,-2.0675,9.999999999998899e-05,-1.666666666655381e-05,2.999999999997449e-05,0.00035740199523592864,-0.00022392727718867356,0.00032889000077984676
150000000000.0,3,-0.01581812645,-0.038883367249999995,-0.0346370878,-0.011232,-0.002157,-0.00986,-2.3334923675,-9.508625906499999,0.55836123105,-1.8057,1.3236,-2.068,1.2499999999970868e-05,-1.6666666666775853e-05,6.0000000000060005e-05,-0.0006752301620198686,-0.001476114125603889,0.0003728464538181875
150000000000.0,3,-0.00583495675,-0.029674922899999998,-0.0178088764,-0.010222,-0.006432,-0.005581,-2.3329039684999997,-9.5088220395,0.55710597985,-1.8052,1.3237,-2.0685,1.2499999999970868e-05,-1.6666666666775853e-05,-4.499999999996174e-05,-0.0001057497381589112,0.0004115648378872905,-0.00014545589839443096
150000000000.0,3,-0.0023339827,-0.011611073599999999,0.01654381855,-0.004919,-0.008611,-0.002366,-2.3324136359999996,-9.508920106,0.55701772,-1.8052,1.3238,-2.0686,1.2500000000192912e-05,-1.666666666655381e-05,-4.500000000007276e-05,0.0005977243830814771,-0.0002121285718799104,-0.00021853135516369804
150000000000.0,3,-0.0144746154,-0.0021770762999999997,0.030586941349999997,0.000408,-0.00972,-0.002354,-2.3323155695,-9.508920106,0.55763553895,-1.8055,1.3238,-2.0685,1.2499999999970868e-05,-1.666666666655381e-05,9.99999999995449e-06,0.0006513021999372537,0.0010880165672373376,-0.0004248669840940522
150000000000.0,3,-0.0365591912,-0.0036284604999999998,0.032675757799999997,0.000466,-0.003326,-0.003431,-2.3325117024999997,-9.5088220395,0.558390651,-1.8058,1.3237,-2.0682,1.2499999999970868e-05,-1.6666666666775853e-05,2.0000000000020002e-05,-0.0005577046786848783,-0.0007169695655040442,-8.309432686814944e-05
150000000000.0,3,-0.0538581218,0.006688135299999999,0.018338435499999996,0.004752,-0.00123,-0.003423,-2.333002035,-9.508723973,0.55910653645,-1.806,1.3237,-2.068,1.2500000000192912e-05,-3.333333333332966e-05,4.999999999999449e-05,0.00048014484984859607,0.0016204431582445,-0.0008100549815099889
150000000000.0,3,-0.062566427,0.01919161405,-0.00754131385,0.006908,0.000885,-0.004485,-2.3336885004999997,-9.5084297735,0.5597047421,-1.8062,1.3236,-2.0678,1.2499999999970868e-05,-3.333333333332966e-05,-0.00012000000000000899,-0.0009125501360922605,-0.00047189111683532126,0.0008787909748684264
150000000000.0,3,-0.07222597724999999,-0.0018142302499999999,-0.0157494799,0.002668,0.005182,-0.003427,-2.3345710989999997,-9.5082336405,0.5598322285499999,-1.8062,1.3235,-2.0678,1.2499999999970868e-05,-3.333333333332966e-05,-2.0000000000020002e-05,0.0007401645547098212,0.00012779321302058833,-0.0004707937595451739
150000000000.0,3,-0.050278694549999996,-0.0243597186,0.012925164699999998,-0.001624,0.002021,-0.003425,-2.334963365,-9.508135573999999,0.5598812618,-1.8061,1.3234,-2.0678,-3.333333333332966e-05,9.999999999998899e-05,6.0000000000060005e-05,-7.860555835859095e-05,-0.0014494240414670845,0.001100498848299658
150000000000.0,3,-0.024251845449999997,-0.02656621485,0.017416610399999997,-0.003786,-0.002223,-0.004488,-2.334767232,-9.5082336405,0.5598910684499999,-1.8062,1.3235,-2.0678,-3.333333333355171e-05,-9.999999999998899e-05,-7.00000000000145e-05,-0.001113660799424876,0.0013140046862565313,-0.0007848228299502935
150000000000.0,3,-0.0161025193,-0.0012650578499999998,-0.02079990465,0.00055,0.003076,-0.009825,-2.3342768995,-9.508331707,0.5593517026999999,-1.806,1.3235,-2.068,-3.333333333332966e-05,-9.999999999998899e-05,9.99999999995449e-06,0.0009638372433720122,0.0012517003547027894,-0.0008985307744930893
150000000000.0,3,0.019505426849999997,0.01750487025,-0.0197309798,0.002673,-0.000135,-0.013019,-2.332805902,-9.508723973,0.55932228275,-1.8061,1.3237,-2.0678,5.0000000000105516e-05,9.999999999998899e-05,6.0000000000060005e-05,-0.00019097852576321905,-0.0009486363977260215,0.0005318872250166251
150000000000.0,3,0.02746842665,0.03050848815,0.006286062649999999,0.003731,-0.003337,-0.016216,-2.3308445719999997,-9.509116238999999,0.5599499083499999,-1.8066,1.3239,-2.0674,5.0000000000105516e-05,-9.999999999998899e-05,2.0000000000020002e-05,0.000638216092517796,0.0004464818165696993,-0.00023032489818453072
150000000000.0,3,0.0107480884,0.01413138265,-4.903325e-05,0.000525,-0.003312,-0.015154,-2.329275508,-9.509508505,0.56014604135,-1.8068,1.324,-2.0672,-5.0000000000105516e-05,-9.999999999998899e-05,9.99999999995449e-06,-0.0020635083517106523,-0.00034495099667708473,0.00018223667693018086
150000000000.0,3,-0.020368412049999996,9.80665e-05,-0.014141189299999999,0.004819,-0.001214,-0.017284,-2.327902577,-9.509900771,0.5601656546499999,-1.8069,1.3241,-2.067,-5.0000000000105516e-05,9.999999999998899e-05,-2.999999999997449e-05,0.0008214821029413066,-9.701178144960743e-05,-0.000227061378592186
150000000000.0,3,-0.03627479835,0.02076067805,0.0127094184,0.011245,0.002994,-0.015142,-2.326921912,-9.5099988375,0.5612934194,-1.8075,1.3242,-2.0665,0.00010000000000021103,-9.999999999998899e-05,7.00000000000145e-05,-0.00022024660819797148,-0.0007173176388575175,-0.00012569667460260447
150000000000.0,3,-0.059771531749999995,0.0268898343,0.036451318049999994,0.015571,0.009353,-0.016209,-2.326529646,-9.5099988375,0.5631468762499999,-1.8083,1.3242,-2.0656,4.999999999988347e-05,-3.333333333332966e-05,-9.00000000000345e-05,-0.0006686512863840477,0.00011184885776915898,0.0007299887420924023
150000000000.0,3,-0.07992419749999999,-0.0033832942499999997,0.01748525695,0.012403,0.014705,-0.014083,-2.3264315795,-9.5099988375,0.5644511606999999,-1.8088,1.3242,-2.0649,5.0000000000105516e-05,-3.333333333332966e-05,0.00022999999999995246,-3.86024967744536e-05,-0.0015061675547829445,-3.068567298702973e-05
150000000000.0,3,-0.0741971139,-0.0322246519,0.01568083335,0.010207,0.009391,-0.009803,-2.3266277124999997,-9.509900771,0.5655102788999999,-1.8092,1.3241,-2.0643,5.0000000000105516e-05,-3.333333333332966e-05,-0.00016999999999989246,-0.0011711182295732758,0.0007336322394149164,0.00047819759863010347
150000000000.0,3,-0.0622918408,-0.05345604915,-0.0021182363999999996,0.009057,0.003001,-0.003386,-2.3270199785,-9.509704638,0.5660986779,-1.8094,1.3241,-2.0641,4.999999999988347e-05,-4.999999999988347e-05,-0.00010000000000010001,0.0012791353039551812,0.0006636805914148614,-0.00013974593581167483
150000000000.0,3,-0.05839860075,-0.0487194372,-0.0214177236,0.009,-0.001264,0.000895,-2.327706444,-9.509508505,0.5665497838,-1.8095,1.324,-2.064,-9.999999999998899e-05,-5.0000000000105516e-05,3.0000000000085514e-05,-0.001294059616932186,-0.0002860194244111991,0.0004197858854859682
150000000000.0,3,-0.03933447314999999,-0.0361473119,-0.010247949249999999,0.004729,-0.002293,-0.000175,-2.3281967765,-9.5094104385,0.5669028232,-1.8096,1.3239,-2.0639,9.999999999998899e-05,9.999999999998899e-05,0.00010999999999994348,0.0010412607020544584,-0.0010695666866444853,-5.806033391841936e-05
150000000000.0,3,-0.012827098199999998,-0.01658304515,-0.004314926,0.005823,-0.000169,-0.002311,-2.3282948429999997,-9.509312372,0.56740296235,-1.8098,1.3239,-2.0637,-4.999999999988347e-05,-9.999999999998899e-05,-0.00015999999999993797,0.00027601750717742846,0.0014478270635835955,-0.0009385695925177018
150000000000.0,3,-0.004314926,0.0057859235,-0.006237029399999999,0.001614,0.005198,-0.005529,-2.327902577,-9.5094104385,0.56752064215,-1.8099,1.324,-2.0636,-5.0000000000105516e-05,-5.0000000000105516e-05,0.00012000000000000899,-0.00012631737216750594,0.00023678694132334144,-0.0004502545952274062
150000000000.0,3,-0.00120621795,-0.0070705946499999995,-0.0020397832,-0.00161,0.000964,-0.007662,-2.327314178,-9.509606571499999,0.56736373575,-1.8099,1.324,-2.0635,9.999999999998899e-05,-4.999999999988347e-05,-6.0000000000060005e-05,-0.00037770041037576974,-0.00013323409615750847,0.0003876426614355388
150000000000.0,3,-0.010149882749999999,-0.02382035285,-0.012415218899999999,-0.001616,0.000963,-0.006595,-2.3267257789999998,-9.509704638,0.5669714697499999,-1.8098,1.3241,-2.0636,-3.333333333332966e-05,-3.333333333332966e-05,-9.99999999995449e-06,-0.00037117753837501155,-0.00024421746412151,0.0002579539690938937
150000000000.0,3,-0.0310478539,-0.01919161405,-0.028243152,-0.000529,0.00096,-0.01086,-2.326333513,-9.509900771,0.5663438441499999,-1.8096,1.3242,-2.0638,-3.333333333332966e-05,-3.333333333332966e-05,-4.999999999999449e-05,-0.0002469490946368502,0.0005876243059184105,-7.901054775816263e-05
150000000000.0,3,-0.049317642849999996,-0.0012552511999999998,-0.039716932499999996,-0.000466,0.008421,-0.011936,-2.3260393135,-9.5099988375,0.5653925991,-1.8092,1.3242,-2.0641,-3.333333333332966e-05,-3.333333333332966e-05,-2.0000000000020002e-05,-0.00022629349945857413,-7.33059212261189e-05,-0.0001925812711971453
150000000000.0,3,-0.06491021635,0.0036088471999999997,-0.01707337765,0.000605,0.008414,-0.012996,-2.3258431804999997,-9.510096904,0.5648924599499999,-1.8091,1.3242,-2.0642,0.00019999999999997797,1.999999999990898e-05,0.00010999999999994348,8.008233759193573e-05,-0.0005061966207695612,0.0004150954896480208
150000000000.0,3,-0.05918313275,-0.005011198149999999,0.022908334399999997,-0.002591,0.009505,-0.011932,-2.325548981,-9.510096904,0.5648728466499999,-1.8091,1.3243,-2.0641,-9.999999999998899e-05,2.0000000000131024e-05,-5.999999999994898e-05,-3.858990687288788e-05,0.0002338908383445748,2.9052480915225942e-05
150000000000.0,3,-0.0578788483,-0.016985117799999998,0.0253992235,-0.005851,0.005264,-0.00659,-2.325745114,-9.510096904,0.5646178737499999,-1.809,1.3243,-2.0641,9.999999999998899e-05,1.999999999990898e-05,-4.0000000000040004e-05,0.0009122505899561428,0.00043501659599876064,6.886395884642127e-07
150000000000.0,3,-0.0708236263,-0.01173856005,0.019819239649999997,-0.004765,0.009514,-0.003388,-2.326333513,-9.5099988375,0.5642158011,-1.8087,1.3242,-2.0643,-3.333333333332966e-05,2.0000000000131024e-05,-9.99999999995449e-06,0.001173651079370508,-0.00013205359038126474,-0.0002708844269916355
150000000000.0,3,-0.04093295709999999,-0.016033872749999997,0.03571581929999999,-0.003718,0.007373,-0.002313,-2.3268238455,-9.509900771,0.56418638115,-1.8087,1.3242,-2.0643,-3.333333333332966e-05,1.999999999990898e-05,-6.0000000000060005e-05,0.0013351662530576291,0.0001918594125713824,-0.0004640631801189343
150000000000.0,3,-0.005491723999999999,-0.0167497582,0.026772154499999996,0.000525,0.004141,-0.0023,-2.3266277124999997,-9.509900771,0.5644511606999999,-1.8088,1.3242,-2.0641,-3.333333333332966e-05,-9.999999999998899e-05,4.0000000000040004e-05,0.0003190581569598727,0.00031257286356600744,-0.0005360737971762397
150000000000.0,3,0.0008139519499999999,-0.02407532575,0.0081591328,0.003684,0.000915,0.000913,-2.326529646,-9.509900771,0.5647943934499999,-1.809,1.3242,-2.0639,0.00019999999999997797,9.999999999998899e-05,-6.0000000000060005e-05,-0.00011572388141534162,0.00029382805486011243,0.0005930397769482454
150000000000.0,3,-0.010924608099999998,-0.034597861199999996,-0.010169496049999999,0.009001,-0.00126,0.000926,-2.326529646,-9.509900771,0.5653239525499999,-1.8092,1.3242,-2.0637,-9.999999999998899e-05,-4.999999999988347e-05,5.0000000000105516e-05,-0.0004453050549297899,-0.0016756647480660192,0.0005188363189665424
150000000000.0,3,-0.0117287534,-0.022672974799999995,0.0067469752,0.006935,0.005154,-0.00229,-2.326529646,-9.509802704499998,0.5662163576999999,-1.8095,1.3241,-2.0633,5.0000000000105516e-05,-5.0000000000105516e-05,-2.0000000000020002e-05,0.0002567118298051341,0.0026346840491779933,-0.000998771612848337
150000000000.0,3,-0.02409493905,-0.0076295737,0.0120817928,0.006946,0.005156,-0.004423,-2.326529646,-9.509802704499998,0.5671676027499999,-1.8099,1.3241,-2.0629,4.999999999988347e-05,-3.333333333332966e-05,-0.0001100000000000545,0.0005962267648211839,2.394688509466114e-05,0.00018536122533330257
150000000000.0,3,-0.04851349755,0.014994367849999999,0.0,0.005927,0.010494,-0.005497,-2.3270199785,-9.509606571499999,0.56757948205,-1.81,1.3241,-2.0627,-9.999999999998899e-05,-3.333333333332966e-05,7.999999999996898e-05,-0.0010836413279504686,-0.0013125319544986525,0.0006194967677313201
150000000000.0,3,-0.06079142334999999,0.0292042037,0.03468612105,0.004904,0.013703,-0.008702,-2.3274122445,-9.509508505,0.5683542074,-1.8103,1.324,-2.0623,2.4999999999941735e-05,-3.333333333332966e-05,1.0000000000065512e-05,0.00014904675817772883,0.0009568263033512547,-0.00034369451493310166
150000000000.0,3,-0.061183689349999994,0.0304398416,0.037069136999999995,0.009196,0.0158,-0.009761,-2.3276083775,-9.5094104385,0.5694133255999999,-1.8107,1.3239,-2.0617,2.500000000016378e-05,-1.999999999990898e-05,5.999999999994898e-05,-0.0001130178510142521,-0.00026641662927651133,-7.216011569832759e-05
150000000000.0,3,-0.0482683313,0.017995202749999998,0.0058055367999999994,0.011327,0.014718,-0.010819,-2.3275103109999997,-9.5094104385,0.57014882435,-1.811,1.3239,-2.0612,2.4999999999941735e-05,-2.0000000000131024e-05,-0.00010999999999994348,-0.00031569391592078944,-0.001151268534654637,0.0006929981016936537
150000000000.0,3,-0.03219523195,0.0038638200999999996,0.006021283099999999,0.010249,0.012597,-0.011882,-2.3270199785,-9.5094104385,0.5709823895999999,-1.8114,1.324,-2.0607,2.4999999999941735e-05,-1.999999999990898e-05,9.99999999995449e-06,0.0003661720463452589,2.397996609437847e-05,0.00014958139274456883
150000000000.0,3,0.013180137599999999,-0.01169933345,0.015268954049999998,0.00807,0.006222,-0.012943,-2.325548981,-9.509704638,0.57191402135,-1.8119,1.3241,-2.0601,9.999999999998899e-05,-2.0000000000131024e-05,9.999999999998899e-05,0.0006218610153485571,0.0011845650537103403,-0.00040123628487886975
150000000000.0,3,0.050808253649999996,-0.027095773949999995,0.0002353596,0.004816,0.000918,-0.010809,-2.3234895845,-9.510194970499999,0.57242396715,-1.8123,1.3243,-2.0596,-5.0000000000105516e-05,-1.999999999990898e-05,-9.99999999995449e-06,-0.0006694641716045169,-0.0009228397664911014,0.00023513654228057845
150000000000.0,3,0.03786347565,-0.0567412769,-0.03586291905,0.00257,-0.010788,-0.007594,-2.321822454,-9.510685302999999,0.57216899425,-1.8124,1.3245,-2.0596,-4.999999999988347e-05,-1.0000000000065512e-05,-9.99999999995449e-06,-0.0002028878848991944,0.0007141810580300056,-0.0003932842683114224
150000000000.0,3,0.0092574776,-0.06498866955,-0.0329699573,0.000381,-0.0161,-0.005455,-2.3207437225,-9.510881436,0.5719630546,-1.8124,1.3246,-2.0597,-4.0000000000040004e-05,-9.999999999843467e-06,1.999999999990898e-05,-0.00024748590586742836,-0.0003333251313166752,0.0001924295295658851
150000000000.0,3,0.006158576199999999,-0.06822486404999999,-0.03095959405,-0.000736,-0.021419,-0.004382,-2.319861124,-9.511077569,0.57189440805,-1.8125,1.3247,-2.0599,-4.0000000000040004e-05,-1.0000000000065512e-05,-1.666666666666483e-05,0.0005310965444662585,0.0002982258665469306,-0.0005477747192221827
150000000000.0,3,0.009983169699999999,-0.05170065879999999,-0.028056825649999995,-0.002907,-0.0246,-0.002247,-2.3190765919999996,-9.5113717685,0.5716884684,-1.8125,1.3248,-2.0601,-3.999999999981796e-05,-1.0000000000065512e-05,-1.666666666666483e-05,-0.0002129493339599886,3.329776995131262e-05,-0.00018952213076151025
150000000000.0,3,-0.0003726527,-0.0352843267,-0.022192448949999995,0.000301,-0.023561,-0.002243,-2.3185862595,-9.511469835,0.5718061482,-1.8126,1.3248,-2.0603,-4.0000000000040004e-05,-1.0000000000065512e-05,-1.666666666666483e-05,-0.00043615531165852595,-0.0008898845808200662,0.00016176916132959462
150000000000.0,3,-0.0195740734,-0.00487390505,-0.0197309798,0.002453,-0.02251,-0.004375,-2.3183901264999998,-9.511469835,0.57218860755,-1.8128,1.3248,-2.0603,-4.0000000000040004e-05,-9.999999999843467e-06,-4.999999999999449e-05,-0.00033170777173019417,0.0013172231626141784,-0.0007447896575714097
150000000000.0,3,-0.01605348605,0.016180972499999998,-0.03115572705,0.004623,-0.020392,-0.008643,-2.3178997939999997,-9.5115679015,0.57254164695,-1.813,1.3249,-2.0603,9.999999999998899e-05,-1.0000000000065512e-05,-2.999999999997449e-05,-0.00011947308774318266,-0.0011958184431071217,0.000819107170305422
150000000000.0,3,-0.0228298812,0.0345390213,-0.029498403199999995,0.000343,-0.022486,-0.009711,-2.317311395,-9.511665967999999,0.57283584645,-1.8131,1.3249,-2.0603,5.0000000000105516e-05,-1.0000000000065512e-05,7.999999999996898e-05,-8.066159704833709e-05,0.00030765581035274714,-0.0007441836732873242
150000000000.0,3,-0.033126863699999995,0.03881472069999999,-0.009483030549999999,-0.003911,-0.021383,-0.010784,-2.316919129,-9.511764034499999,0.5730221727999999,-1.8133,1.3249,-2.0604,4.999999999988347e-05,-9.999999999843467e-06,1.4999999999987246e-05,-0.00011207338332241967,-0.0007688109548669164,0.000324940976513588
150000000000.0,3,-0.042403954599999995,0.03205793885,-0.027703786249999997,-0.002848,-0.022456,-0.011844,-2.316526863,-9.511862101,0.57283584645,-1.8132,1.325,-2.0607,-9.999999999998899e-05,-1.0000000000065512e-05,1.5000000000098268e-05,-0.00011120839467881893,0.0008253043946626626,-0.0006185029268692688
150000000000.0,3,-0.05167123885,0.01913277415,-0.027831272699999996,0.000382,-0.019283,-0.012907,-2.3160365305,-9.5119601675,0.5729633328999999,-1.8133,1.325,-2.0608,-5.0000000000105516e-05,-4.999999999988347e-05,4.999999999999449e-05,0.00018358908944904329,-7.791781100885409e-05,-0.0007465172033498391
150000000000.0,3,-0.06032070415,0.008257199299999999,-0.0137489233,0.002541,-0.016104,-0.012904,-2.3157423309999996,-9.512058234,0.5732477257499999,-1.8135,1.3251,-2.0608,-4.999999999988347e-05,-5.0000000000105516e-05,-2.0000000000020002e-05,0.00022764029079525017,0.00039070339681801514,-0.0007632173074849646
150000000000.0,3,-0.08018897705,-0.021947282699999997,-0.0078845466,-0.000652,-0.015011,-0.012906,-2.3156442645,-9.512058234,0.5733654055499999,-1.8135,1.3251,-2.0609,3.333333333332966e-05,-2.4999999999941735e-05,9.99999999995449e-06,-0.00041409747263898566,-0.00032450746068990455,4.521606863683303e-05
150000000000.0,3,-0.10440159589999999,-0.04282564055,-0.03488225405,-0.002769,-0.010733,-0.009707,-2.316134597,-9.5119601675,0.5728260397999999,-1.8133,1.325,-2.0612,3.333333333332966e-05,-2.500000000016378e-05,4.999999999999449e-05,-0.00014796101455827326,-0.00039723959639803574,-0.00019935539998217067
150000000000.0,3,-0.09799785344999999,-0.04850369089999999,-0.02170211645,-0.002774,-0.008605,-0.005434,-2.3168210625,-9.511862101,0.5722180275,-1.8129,1.325,-2.0616,3.333333333332966e-05,-2.4999999999941735e-05,-9.99999999995449e-06,-7.390009053365176e-05,-0.0005123606650596635,0.00016140548180532122
150000000000.0,3,-0.08870114924999999,-0.035460846399999996,0.0019417166999999998,0.000371,-0.012897,-0.001146,-2.3178997939999997,-9.5115679015,0.57236512725,-1.8129,1.3249,-2.0618,-1.999999999990898e-05,-2.4999999999941735e-05,9.00000000000345e-05,0.00019669510211750563,0.0001921427238225082,-0.00032208006443701365
150000000000.0,3,-0.08134616174999999,-0.00508965135,0.005021004799999999,0.005703,-0.014004,-0.002196,-2.3189785255,-9.511273701999999,0.5731790792,-1.8131,1.3247,-2.0617,-2.0000000000131024e-05,-9.999999999998899e-05,1.4999999999987246e-05,-7.242457515932443e-05,0.0005031349257345052,-0.00039586838763572274
150000000000.0,3,-0.04974913545,0.01122861425,0.0088455983,0.006809,-0.011878,-0.006463,-2.319272725,-9.511077569,0.57428723065,-1.8135,1.3247,-2.0614,-1.999999999990898e-05,-3.333333333332966e-05,1.4999999999987246e-05,-8.810031649297834e-05,-0.00023551835164892232,-0.00011278429620142916
150000000000.0,3,-0.037049523699999996,0.030910560799999997,0.00387362675,0.010015,-0.011903,-0.007522,-2.319272725,-9.511077569,0.57552286855,-1.814,1.3246,-2.061,-2.0000000000131024e-05,-3.333333333355171e-05,9.99999999995449e-06,-0.00022747481238361011,-0.000883887904457481,0.0002536405234994099
150000000000.0,3,-0.03331319005,0.027615526399999996,-0.012493672099999999,0.006865,-0.005482,-0.007535,-2.3191746584999997,-9.511077569,0.5761799141,-1.8143,1.3246,-2.0607,-1.999999999990898e-05,-3.333333333332966e-05,-9.999999999998899e-05,-0.00015508499226801753,0.0012151814945344785,-0.000497379252495822
150000000000.0,3,-0.036971070499999995,0.01240541225,-0.00540346415,0.004748,-0.005461,-0.010738,-2.3187823924999997,-9.511077569,0.5767192798499999,-1.8146,1.3247,-2.0605,1.999999999990898e-05,-3.333333333332966e-05,7.999999999996898e-05,-0.0005908685228608324,-0.0006573724635103861,3.587376603153558e-05
150000000000.0,3,-0.050945546749999994,0.007374600799999999,-0.0010591181999999998,0.0037,-0.004384,-0.012873,-2.3183901264999998,-9.511175635499999,0.5771703857499999,-1.8148,1.3247,-2.0603,2.0000000000131024e-05,-3.333333333332966e-05,-0.00013999999999991797,8.111453733050666e-05,0.0008375704719207899,-5.7089230264040225e-05
150000000000.0,3,-0.06434143064999999,-0.00936535075,-0.0183188222,0.004784,-0.000133,-0.009671,-2.3182920599999997,-9.511175635499999,0.57720961235,-1.8148,1.3247,-2.0603,1.999999999990898e-05,-3.333333333332966e-05,-1.0000000000065512e-05,7.383148990203203e-05,-0.0003026202627651742,-0.00014522760765611764
150000000000.0,3,-0.07014696744999999,-0.02597781585,-0.0164947853,0.001549,-0.004368,-0.009664,-2.3183901264999998,-9.511175635499999,0.57718999905,-1.8148,1.3247,-2.0604,2.0000000000131024e-05,-4.999999999988347e-05,4.0000000000040004e-05,-0.00021408750408125066,-0.00045774904560302865,0.0005620319971861854
150000000000.0,3,-0.06742071875,-0.026085689,0.0011375714,0.004717,-0.006528,-0.006448,-2.318684326,-9.511077569,0.57766071825,-1.815,1.3247,-2.0603,1.999999999990898e-05,-5.0000000000105516e-05,0.00010999999999994348,-0.0019608985079861974,-0.0009190023811262993,2.776887015931706e-05
150000000000.0,3,-0.06139943565,-0.0122583125,0.008865211599999999,0.005806,-0.004404,-0.007513,-2.318880459,-9.5109795025,0.5783177637999999,-1.8152,1.3246,-2.06,1.999999999990898e-05,-9.999999999998899e-05,0.0001100000000000545,-0.00040224645496866884,-0.0013511029801949181,0.00022881324933621272
150000000000.0,3,-0.0421293684,0.0086690786,0.01611232595,0.009013,-0.004429,-0.008572,-2.318684326,-9.5109795025,0.57944552855,-1.8157,1.3246,-2.0596,2.0000000000131024e-05,-4.999999999988347e-05,-9.999999999998899e-05,-1.7805276764315536e-05,0.0007986053980781893,-0.00015273632315704333
150000000000.0,3,-0.0264191151,0.028733484499999996,0.0038834333999999996,0.007981,-0.000158,-0.008579,-2.3183901264999998,-9.5109795025,0.5804556135,-1.8161,1.3246,-2.0592,1.999999999990898e-05,-5.0000000000105516e-05,-2.0000000000020002e-05,-9.484705123541382e-05,0.00025471860190906526,-4.130204667385229e-05
150000000000.0,3,-0.0315970263,0.034401728199999995,0.0033538743,0.010081,-0.004438,-0.008564,-2.3181939934999996,-9.5109795025,0.58158337825,-1.8166,1.3246,-2.0587,2.0000000000131024e-05,-3.333333333332966e-05,-2.999999999997449e-05,-0.000215481655161609,-0.00034960068746214823,3.529845527561193e-05
150000000000.0,3,-0.039844418949999995,0.007600153749999999,0.0063645158499999995,0.007982,-0.000158,-0.008573,-2.3179978605,-9.510881436,0.5826130764999999,-1.817,1.3246,-2.0583,1.999999999990898e-05,-3.333333333332966e-05,-3.0000000000085514e-05,0.0009867172056323703,0.0001720826521076635,-0.00039161320331704275
150000000000.0,3,-0.039814999,-0.03086152755,0.02599742915,0.006894,-0.002281,-0.007501,-2.317703661,-9.510881436,0.5837702612,-1.8175,1.3246,-2.0578,3.333333333332966e-05,-3.333333333332966e-05,-1.999999999990898e-05,0.00016829410628549368,0.00021840426373254118,4.6567848975165305e-05
150000000000.0,3,-0.027968565799999998,-0.0490920899,0.01723028405,0.00367,-0.003324,-0.004302,-2.3174094614999996,-9.5109795025,0.5844567266999999,-1.8178,1.3246,-2.0575,3.333333333332966e-05,-3.333333333332966e-05,-2.0000000000020002e-05,-5.529566064121916e-05,-0.0003108910932558828,1.3733793134296235e-05
150000000000.0,3,-0.03786347565,-0.03881472069999999,-0.00530539765,0.002606,-0.00225,-0.003236,-2.3176055945,-9.510881436,0.58470189295,-1.8179,1.3246,-2.0574,3.333333333332966e-05,-3.333333333332966e-05,0.00012000000000000899,-0.00013572234534597882,-0.0007113480910563297,0.00011712359788740301
150000000000.0,3,-0.04282564055,-0.02283968785,-0.03176373935,0.004735,-0.003331,-0.004294,-2.317703661,-9.510881436,0.5846724729999999,-1.8179,1.3246,-2.0575,-9.999999999998899e-05,-3.333333333332966e-05,-8.000000000008001e-05,-4.898295343958026e-05,0.00044843259376015077,-0.00047905211512278
150000000000.0,3,-0.0373437232,-0.01011065615,-0.0282235387,0.004758,-0.002261,-0.007495,-2.3176055945,-9.510881436,0.58472150625,-1.8179,1.3246,-2.0574,9.999999999998899e-05,-2.4999999999941735e-05,0.000160000000000049,0.0003725583965525914,-0.0013630592167652722,0.00014761546381159008
150000000000.0,3,-0.03962867265,-0.0040403398,-0.0332837701,0.000517,-9.2e-05,-0.009638,-2.3175075279999997,-9.5109795025,0.58425078705,-1.8178,1.3246,-2.0576,5.0000000000105516e-05,-2.500000000016378e-05,-0.000160000000000049,-0.0006415623066291509,0.00047747712649037766,0.0001159625710740464
150000000000.0,3,-0.05515259959999999,-0.019701559849999998,-0.0275959131,-0.000569,-0.002213,-0.009632,-2.317311395,-9.5109795025,0.5837996811499999,-1.8176,1.3246,-2.0578,4.999999999988347e-05,-2.4999999999941735e-05,0.0001100000000000545,0.0005940066490184304,-0.0005214425810387002,-0.0003771878029388276
150000000000.0,3,-0.04019745835,-0.024604884849999998,0.046022608449999995,-0.001647,-0.003272,-0.008563,-2.3170171955,-9.511077569,0.5843978867999999,-1.8179,1.3246,-2.0576,0.00019999999999997797,-2.4999999999941735e-05,9.99999999995449e-06,0.0005466329430612316,0.00047834133098922926,0.0002511925104839996
150000000000.0,3,-0.03456844125,-0.016936084549999997,0.081002929,0.001614,0.003095,-0.009634,-2.316526863,-9.511077569,0.58578062445,-1.8185,1.3247,-2.0569,9.999999999998899e-05,-1.4285714285744433e-05,-2.999999999997449e-05,6.207334851060509e-05,0.00028299239266260656,-2.319869747724468e-05
150000000000.0,3,-0.015249340749999998,0.00681562175,0.03762811605,0.010204,0.008354,-0.011763,-2.3158403974999997,-9.511175635499999,0.58695742245,-1.819,1.3247,-2.0563,3.333333333332966e-05,-1.4285714285744433e-05,1.0000000000065512e-05,3.879465190426146e-05,-5.8011673675251174e-05,-6.465006610234525e-05
150000000000.0,3,-0.0014906108,0.027654752999999997,0.00348136075,0.015544,0.008311,-0.01282,-2.314761666,-9.5113717685,0.58803615395,-1.8196,1.3248,-2.0557,3.333333333332966e-05,-1.4285714285744433e-05,-3.0000000000085514e-05,3.707404351005472e-05,-5.917238494346222e-05,-9.10557480775509e-05
150000000000.0,3,-0.008433719,0.046463907699999994,0.01513166095,0.01449,0.01045,-0.011757,-2.313977134,-9.511469835,0.5895561846999999,-1.8203,1.3248,-2.0549,3.333333333332966e-05,-1.4285714285522388e-05,-3.999999999992898e-05,0.0002583861959837286,-0.0018473325116485917,0.0010891543774231849
150000000000.0,3,-0.038049802,0.018897414549999998,0.01846592195,0.00911,0.007293,-0.007488,-2.313781001,-9.511469835,0.5907133694,-1.8208,1.3248,-2.0543,4.999999999988347e-05,-1.4285714285744433e-05,-4.0000000000040004e-05,0.0001753231359813423,0.0006157834541817842,-0.00010684177735464928
150000000000.0,3,-0.0640570378,-0.032685564449999996,0.014405968849999999,0.003763,0.006271,-0.006424,-2.3140752005,-9.5113717685,0.59117428195,-1.8209,1.3248,-2.054,5.0000000000105516e-05,-1.4285714285744433e-05,-0.000140000000000029,0.001012145288826538,0.0013536870198564976,-5.26091993204858e-05
150000000000.0,3,-0.0654888087,-0.056898183299999995,-0.013082071099999999,0.001626,0.007353,-0.004291,-2.3146635995,-9.511273701999999,0.5909879556,-1.8208,1.3247,-2.0541,3.333333333332966e-05,-1.4285714285744433e-05,-0.00012999999999996348,-5.457184586443731e-07,0.001317568581684636,-0.0007605929791405508
150000000000.0,3,-0.04661100745,-0.03976596574999999,-0.00040207264999999996,0.003715,0.003071,-0.002142,-2.3149577989999996,-9.511175635499999,0.59101737555,-1.8208,1.3247,-2.0541,3.333333333332966e-05,-1.666666666655381e-05,9.99999999995449e-06,-9.93738544592393e-05,-0.0011405726889484047,0.0004454506828337479
150000000000.0,3,-0.0154160538,-0.00960071035,0.01442558215,0.005836,0.001987,-0.001068,-2.3150558654999998,-9.511077569,0.59176268095,-1.8211,1.3247,-2.0537,3.333333333332966e-05,-1.6666666666775853e-05,9.999999999998899e-05,-4.6832763257675936e-05,-3.6421287936905244e-05,0.00011591562283896906
150000000000.0,3,0.0065900687999999995,-0.0044129925,0.03745159635,0.007949,-0.000163,6e-06,-2.3148597325,-9.511077569,0.59311599865,-1.8216,1.3246,-2.0532,-9.090909090847532e-06,-1.6666666666775853e-05,-0.00013999999999991797,0.00018284355003661545,0.000698717035675811,-0.0003414140565043411
150000000000.0,3,0.020123245799999998,-0.016514398599999997,0.03529413335,0.003726,0.005199,-1.3e-05,-2.314565533,-9.511077569,0.59423395675,-1.8221,1.3246,-2.0526,-9.090909091069577e-06,-1.666666666655381e-05,5.999999999994898e-05,0.0001223578760725097,0.00030097474531820545,-0.0001520645256474218
150000000000.0,3,0.0263406619,-0.033322996699999996,0.04413973164999999,0.003707,0.002002,-0.001078,-2.3138790675,-9.511175635499999,0.5952636549999999,-1.8226,1.3247,-2.0521,-9.090909090847532e-06,-1.666666666655381e-05,-5.999999999994898e-05,-0.00029706728305844976,-0.0005030094960463138,0.0002120446079989513
150000000000.0,3,0.02513444395,-0.03753004955,0.02878251775,-0.00269,0.003118,-2.7e-05,-2.3132906684999996,-9.511273701999999,0.5955088212499999,-1.8228,1.3247,-2.052,-9.090909090847532e-06,-1.6666666666775853e-05,5.999999999994898e-05,-5.347508241282384e-05,-0.00015304933448945235,-9.360802977198546e-05
150000000000.0,3,0.00985568325,-0.05539776585,0.01876012145,-0.005895,0.003143,0.001033,-2.3128984025,-9.5113717685,0.5952048150999999,-1.8227,1.3248,-2.052,-9.090909090847532e-06,9.999999999998899e-05,1.0000000000065512e-05,-0.00010262625170409656,-0.0005197575941155996,0.00042268552249202784
150000000000.0,3,0.0034323275,-0.07375581465,0.023408473549999996,-0.013387,0.002136,0.004222,-2.3128984025,-9.511469835,0.5944497030499999,-1.8224,1.3248,-2.0524,-9.090909091069577e-06,-5.0000000000105516e-05,2.999999999997449e-05,0.00015478923570877434,0.0001772711077565603,-0.00032367922999743115
150000000000.0,3,-0.0033734876,-0.06277236665,0.0171812508,-0.014434,0.003212,0.002083,-2.3129964689999998,-9.511469835,0.5931846451999999,-1.8218,1.3248,-2.0529,-9.090909090847532e-06,-4.999999999988347e-05,-4.0000000000040004e-05,-1.9017632196582923e-05,0.0011161395479757363,0.00011365301258825511
150000000000.0,3,-0.00253992235,-0.042756994,0.0085121722,-0.01444,0.001083,-4.9e-05,-2.3129964689999998,-9.5115679015,0.59168422775,-1.8212,1.3249,-2.0535,-9.090909090847532e-06,4.999999999988347e-05,-7.00000000000145e-05,0.0005031595086428808,0.0008057972256234613,-0.0003800648720790889
150000000000.0,3,0.010787315,-0.010571568699999999,0.00053936575,-0.009118,-0.001091,-0.001104,-2.3125061364999997,-9.511764034499999,0.5906741428,-1.8209,1.3249,-2.0538,-9.090909090847532e-06,5.0000000000105516e-05,7.00000000000145e-05,0.000255036410711007,-0.00012450131896746264,-0.00022488286608268737
150000000000.0,3,0.024761791249999998,0.00877695175,0.012846711499999998,-0.004817,0.001007,-0.004305,-2.311819671,-9.5119601675,0.5903407167,-1.8208,1.325,-2.0539,-9.090909091069577e-06,5.0000000000105516e-05,2.0000000000020002e-05,-0.00016349588184416675,-0.0012347822113221163,0.0005938505271294581
150000000000.0,3,0.03890298055,0.01872089485,0.030018155649999996,-0.003734,0.002064,-0.005375,-2.3108390059999997,-9.5121563005,0.5905270430499999,-1.821,1.3251,-2.0537,-9.090909090847532e-06,4.999999999988347e-05,7.999999999996898e-05,-0.00033717794422871705,-0.00023531222511152805,0.0005092316479147208
150000000000.0,3,0.0334014499,0.0177696498,0.03156760635,-0.004808,0.001007,-0.005378,-2.309858341,-9.5124505,0.59062510955,-1.8211,1.3252,-2.0536,-2.4999999999941735e-05,-9.999999999998899e-05,-5.999999999994898e-05,-6.432218721830196e-05,0.0009978241509822627,-0.0001422234056382976
150000000000.0,3,0.0012650578499999998,0.00053936575,0.01560238015,-0.002725,-0.005404,-0.005363,-2.309269942,-9.5125485665,0.5907329827,-1.8212,1.3253,-2.0535,-2.500000000016378e-05,1.999999999990898e-05,2.0000000000020002e-05,-5.415020929433467e-06,0.00014975339330414172,-0.00011048588007689375
150000000000.0,3,-0.02211399575,0.00012748645,-0.00638412915,0.002626,-0.003317,-0.005356,-2.309073809,-9.5125485665,0.5908702758,-1.8213,1.3253,-2.0535,-2.4999999999941735e-05,2.0000000000131024e-05,1.999999999990898e-05,3.226266645617315e-06,9.179831868166843e-05,-1.8346726342155506e-05
150000000000.0,3,-0.03168528615,0.006952914849999999,0.01126784085,0.006877,-0.005483,-0.005342,-2.309073809,-9.5125485665,0.5917724876,-1.8217,1.3253,-2.0532,-2.4999999999941735e-05,1.999999999990898e-05,9.00000000000345e-05,-0.0005555962288303906,-0.0004019923688627358,-0.00015701465216988453
150000000000.0,3,-0.05867318694999999,0.015759286549999998,-0.00252030905,0.005828,-0.003342,-0.005343,-2.3096622079999998,-9.5123524335,0.59239030655,-1.8219,1.3252,-2.053,-9.999999999998899e-05,2.0000000000131024e-05,2.999999999997449e-05,-0.00047476423390491185,-0.0002525535798885148,0.00019877049637972988
150000000000.0,3,-0.07624670374999999,-0.0024124359,-0.0022947561,0.001598,0.002021,-0.004286,-2.3104467399999997,-9.5121563005,0.5926158595,-1.8219,1.3251,-2.053,9.999999999998899e-05,1.999999999990898e-05,-2.999999999997449e-05,0.0007685484401183107,-0.0008817074190961005,0.0006546106839304677
150000000000.0,3,-0.0834938181,-0.0010002783,0.0112776475,-0.001551,0.008441,-0.004296,-2.311427405,-9.511862101,0.59250798635,-1.8217,1.325,-2.053,-9.999999999998899e-05,-9.999999999998899e-05,2.999999999997449e-05,-0.0006177414588321994,0.0013751047778185477,-0.001104032943147537
150000000000.0,3,-0.0753542986,-0.0027066354,0.033126863699999995,-0.000434,0.013761,-0.005365,-2.312211937,-9.511665967999999,0.59280218585,-1.8218,1.3249,-2.0529,-3.333333333332966e-05,1.4285714285744433e-05,-1.999999999990898e-05,7.555180512053283e-05,0.0003657456774230905,0.0001655372641442554
150000000000.0,3,-0.060428577299999994,-0.01081673495,0.030116222149999997,0.005986,0.01584,-0.005354,-2.312800336,-9.5115679015,0.5934200048,-1.822,1.3248,-2.0525,-3.333333333332966e-05,1.4285714285744433e-05,1.999999999990898e-05,0.00017260301675214862,0.00019912982864700446,-7.981550739266652e-05
150000000000.0,3,-0.0321265854,-0.0040991797,0.0207704847,0.008131,0.015824,-0.007482,-2.3127022695,-9.511469835,0.5942437634,-1.8223,1.3248,-2.052,-3.333333333332966e-05,1.4285714285744433e-05,0.00017000000000000348,-0.0009348254873362549,-0.0016121879531987293,0.00023149296814217735
150000000000.0,3,-0.0042462794499999994,-0.00505042475,0.00936535075,0.008092,0.011561,-0.006407,-2.3121138704999997,-9.5115679015,0.5948713889999999,-1.8226,1.3249,-2.0516,-4.999999999988347e-05,1.4285714285522388e-05,2.0000000000020002e-05,-0.0004086952419384282,-8.368129652502887e-05,0.0003708380444993331
150000000000.0,3,0.0039814999,-0.01817172245,-0.00057859235,0.004885,0.009458,-0.008545,-2.3112312719999997,-9.511764034499999,0.59523423505,-1.8229,1.325,-2.0512,-5.0000000000105516e-05,1.4285714285744433e-05,4.999999999999449e-05,-0.0002094887252639399,-0.0005341509674174905,0.0002369015584333667
150000000000.0,3,0.013101684399999999,-0.029880862549999995,-0.0139450563,0.003804,0.008401,-0.007479,-2.3101525405,-9.512058234,0.5951459751999999,-1.8229,1.3251,-2.0511,-9.999999999998899e-05,1.4285714285744433e-05,-0.00013999999999991797,0.00020564856381066754,0.0011221617161709663,-0.00028120341412085637
150000000000.0,3,-0.0089436648,-0.016239812399999998,-0.008571012099999999,-0.000459,0.008437,-0.008553,-2.3095641414999997,-9.512254366999999,0.5948517756999999,-1.8229,1.3251,-2.051,-3.333333333332966e-05,1.4285714285744433e-05,9.99999999995449e-06,-0.0005124656997053112,-0.0002033207216647348,0.0004578075284054073
150000000000.0,3,-0.03237175165,-0.0034617474499999998,-0.010571568699999999,-0.00364,0.01166,-0.007495,-2.3094660749999996,-9.512254366999999,0.59415550355,-1.8226,1.3252,-2.0512,-3.333333333332966e-05,-9.999999999998899e-05,2.5000000000052758e-05,-1.1214119174596249e-05,0.0004617721364410521,9.216749745633024e-07
150000000000.0,3,-0.0703332938,-0.0007256920999999999,-0.01011065615,-0.002584,0.01165,-0.005352,-2.3101525405,-9.5121563005,0.5934003915,-1.8222,1.3251,-2.0515,-3.333333333332966e-05,9.999999999998899e-05,2.4999999999941735e-05,-5.3464379205836465e-05,-0.0007467852890572502,0.00017002154723666507
150000000000.0,3,-0.08821081674999999,-0.0033636809499999996,0.0223395487,-0.005794,0.011675,-0.003216,-2.3112312719999997,-9.5119601675,0.5929688988999999,-1.8219,1.325,-2.0516,-2.4999999999941735e-05,3.333333333332966e-05,-4.999999999999449e-05,0.00013744717963604103,0.0010720294351493909,9.580116987972787e-05
150000000000.0,3,-0.08834810985,-0.0102381426,0.03560794615,-0.003672,0.010591,-0.002137,-2.31240807,-9.511665967999999,0.5928708324,-1.8218,1.3249,-2.0517,-2.500000000016378e-05,3.333333333332966e-05,-1.4999999999987246e-05,-0.00023550863174648384,-0.0002145738501024841,0.00018854766904663478
150000000000.0,3,-0.0689015229,-0.0118268199,0.005295591,0.001658,0.010546,-0.001055,-2.3134868015,-9.5113717685,0.59266489275,-1.8216,1.3248,-2.0518,-2.4999999999941735e-05,3.333333333332966e-05,-1.4999999999987246e-05,0.0002626033878079248,0.0007130679569316012,-0.00022935514624089492
150000000000.0,3,-0.0537208287,-0.00226533615,-0.0135135637,0.005901,0.006252,-0.00317,-2.3141732669999997,-9.511273701999999,0.59276295925,-1.8216,1.3247,-2.0517,-2.4999999999941735e-05,2.4999999999941735e-05,3.999999999992898e-05,-0.0006443699994365115,1.1145235636167428e-05,0.000290499646613096
150000000000.0,3,-0.02786069265,-2.941995e-05,-0.021349077049999998,0.005899,0.004125,-0.006366,-2.3140752005,-9.511273701999999,0.59295909225,-1.8216,1.3247,-2.0516,-6.666666666665932e-05,2.500000000016378e-05,1.0000000000065512e-05,-6.205833832728658e-05,-0.0004952023969300168,0.0002944055395612821
150000000000.0,3,-0.01175817335,0.0121994726,-0.0225356817,0.006959,0.001988,-0.008494,-2.313584868,-9.5113717685,0.59325329175,-1.8218,1.3248,-2.0514,-6.666666666665932e-05,2.4999999999941735e-05,-2.0000000000020002e-05,-0.0004506123880876345,-0.0001207676363628174,0.00021094933214271805
150000000000.0,3,-0.02282007455,0.013788149899999998,-0.024173392250000002,0.005888,0.000933,-0.009559,-2.313192602,-9.511469835,0.59339058485,-1.8219,1.3248,-2.0512,-6.666666666665932e-05,2.4999999999941735e-05,-9.00000000000345e-05,0.0005112885660520927,0.0008537732003384146,-0.0006295340013204864
150000000000.0,3,-0.03411733535,-0.00269682875,-0.03050848815,0.00693,-0.003335,-0.011682,-2.3127022695,-9.5115679015,0.5934396180999999,-1.822,1.3249,-2.0511,-3.333333333332966e-05,1.999999999990898e-05,4.0000000000040004e-05,-0.00020363589826111195,-0.0006349335023332348,0.00045897413737705506
150000000000.0,3,-0.0466012008,-0.00475622525,-0.0235947999,0.008033,0.001984,-0.010618,-2.31240807,-9.5115679015,0.5937142043,-1.8221,1.3249,-2.051,-3.333333333332966e-05,2.0000000000131024e-05,-2.0000000000020002e-05,0.0001127798446665107,-8.727060842561585e-05,-0.0003955969120532643
150000000000.0,3,-0.061056202899999995,-0.014258869099999998,-0.0013533177,0.009135,0.008365,-0.007421,-2.312604203,-9.5115679015,0.59421434345,-1.8223,1.3248,-2.0507,-3.333333333332966e-05,1.999999999990898e-05,4.0000000000040004e-05,-0.00028908279065631426,-0.00037465126267188786,0.0001772932415384787
150000000000.0,3,-0.06729323229999999,-0.01005181625,0.005187717849999999,0.008094,0.011571,-0.007423,-2.3129964689999998,-9.5113717685,0.59486158235,-1.8225,1.3248,-2.0504,-1.4285714285744433e-05,2.0000000000131024e-05,-1.0000000000065512e-05,-0.00036899798265510597,5.6600497519543325e-05,1.563712926389016e-05
150000000000.0,3,-0.06585165474999999,-0.02157463,0.00279489525,0.004861,0.009464,-0.004218,-2.313584868,-9.511273701999999,0.59515578185,-1.8226,1.3247,-2.0502,-1.4285714285744433e-05,1.999999999990898e-05,-7.00000000000145e-05,0.00035568387833251336,0.0010990893001019408,-6.252530579509141e-06
150000000000.0,3,-0.06412568434999999,-0.04061914429999999,0.0065312289,-0.00157,0.008448,4.6e-05,-2.3143694,-9.511077569,0.5950086820999999,-1.8224,1.3246,-2.0502,-1.4285714285744433e-05,2.4999999999941735e-05,6.0000000000060005e-05,-0.0005512243268692707,-0.0016597943029308393,0.0002361734266504989
150000000000.0,3,-0.059340039149999996,-0.03772618255,0.0139450563,-0.001639,0.000987,0.002198,-2.3154481314999997,-9.510783369499999,0.5949302288999999,-1.8223,1.3245,-2.0504,-1.4285714285522388e-05,2.500000000016378e-05,-1.0000000000065512e-05,1.3112079119359521e-05,0.0012131924021105966,-0.0002641793482158761
150000000000.0,3,-0.044335864649999994,-0.022368968649999998,-0.0112580342,-0.002732,-0.0022,0.002205,-2.31633073,-9.5105872365,0.59454776955,-1.822,1.3245,-2.0506,-1.4285714285744433e-05,2.4999999999941735e-05,-2.999999999997449e-05,-5.9278618854463616e-05,0.0004728764294712473,0.00037613210451858947
150000000000.0,3,-0.029537629799999996,-0.014396162199999998,-0.0229867876,-0.001647,-0.00114,7.2e-05,-2.316919129,-9.51048917,0.5940084038,-1.8218,1.3244,-2.0509,-1.4285714285744433e-05,2.4999999999941735e-05,0.00017000000000000348,-0.0004045413812969745,-0.0020259593079645644,0.0005467040916213861
150000000000.0,3,-0.011503200449999999,-0.0215157901,-0.035362779899999995,-0.004873,-0.005373,-0.00206,-2.3168210625,-9.5105872365,0.59321406515,-1.8215,1.3244,-2.0513,-1.4285714285744433e-05,4.999999999988347e-05,2.0000000000020002e-05,1.1398258616734935e-05,-0.00015428244536264124,-0.0004425927809577068
150000000000.0,3,-0.016818404749999998,-0.0203586054,-0.04733669954999999,-0.007021,-0.007485,-0.003126,-2.3168210625,-9.510685302999999,0.59186074745,-1.8209,1.3245,-2.0519,9.999999999998899e-05,5.0000000000105516e-05,-4.0000000000040004e-05,0.000714222395578723,0.0006942823565134759,-9.061486087524884e-05
150000000000.0,3,-0.04051127115,-0.0063547092,-0.07029406719999999,-0.008089,-0.008538,-0.005256,-2.316919129,-9.510783369499999,0.5899876773,-1.8201,1.3245,-2.0528,-2.4999999999941735e-05,9.999999999998899e-05,-8.999999999992347e-05,0.001800936391341157,0.0011266317897844491,-0.0005674018003127834
150000000000.0,3,-0.059467525599999994,0.007247114349999999,-0.0535246957,-0.006965,-0.001086,-0.005262,-2.3174094614999996,-9.510783369499999,0.58833035345,-1.8194,1.3245,-2.0535,-2.500000000016378e-05,2.4999999999941735e-05,-4.0000000000040004e-05,-0.00022683375454013444,0.0002943655294067593,9.395607143192208e-05
150000000000.0,3,-0.0682346707,0.007766866799999999,-0.02705654735,-0.006941,0.002112,-0.005262,-2.3179978605,-9.510685302999999,0.5870064557,-1.8188,1.3245,-2.0541,-2.4999999999941735e-05,2.4999999999941735e-05,-2.0000000000020002e-05,-7.737945643482291e-05,-0.0001989971633054033,0.00021663396174842475
150000000000.0,3,-0.08752435125000001,0.014415775499999998,-0.0156121868,-0.006943,0.003176,-0.003122,-2.319272725,-9.5103911035,0.5860257906999999,-1.8183,1.3244,-2.0545,-2.4999999999941735e-05,2.500000000016378e-05,-0.00012000000000000899,0.0006651697774362475,0.0005276424573792404,-0.0005763610261819707
150000000000.0,3,-0.08739686479999999,0.02346731345,-0.012425025549999998,-0.003687,0.009545,-0.004187,-2.3204495229999997,-9.510194970499999,0.5850843523,-1.8178,1.3243,-2.055,9.999999999998899e-05,2.4999999999941735e-05,0.00019000000000002348,0.0002094524546176757,0.00011273399809597073,0.00016978506578446684
150000000000.0,3,-0.0605854837,0.03667687099999999,-0.00134351105,0.001669,0.009506,-0.008442,-2.3209398555,-9.510096904,0.5849274458999999,-1.8177,1.3242,-2.055,5.0000000000105516e-05,-1.999999999990898e-05,-0.00012999999999996348,-0.00019473867344754758,-0.00017552220476391156,0.00017432687437413108
150000000000.0,3,-0.04086431055,0.039393313049999996,-0.038834334,0.009124,0.007316,-0.009489,-2.320841789,-9.510096904,0.5847116996,-1.8176,1.3242,-2.055,4.999999999988347e-05,-2.0000000000131024e-05,7.999999999996898e-05,0.00014762615400298884,-0.0007021227949817188,0.0008250231033102295
150000000000.0,3,-0.0550741464,0.01711260425,-0.06447872375,0.010173,0.004114,-0.011611,-2.320841789,-9.510096904,0.5844763399999999,-1.8175,1.3243,-2.055,-9.999999999998899e-05,-1.999999999990898e-05,-9.00000000000345e-05,0.0003964368298412513,0.0009168341451986084,-0.0008771045680515677
150000000000.0,3,-0.0804733699,-0.01032640245,-0.03254827135,0.006997,0.007339,-0.011616,-2.321037922,-9.510096904,0.58456459985,-1.8175,1.3242,-2.0549,-9.999999999998899e-05,-2.0000000000131024e-05,8.000000000008001e-05,-0.0008568693052368737,-0.001707102997433596,0.0008449584246021935
150000000000.0,3,-0.07416769395,-0.02113333075,-0.013886216399999998,0.002757,0.011636,-0.010558,-2.3212340549999997,-9.5099988375,0.5844567266999999,-1.8175,1.3242,-2.0548,4.999999999988347e-05,-1.999999999990898e-05,1.999999999990898e-05,-4.976940090806181e-05,0.0012197013020700531,-0.00043875073821730837
150000000000.0,3,-0.06026186425,-0.0135135637,-0.0148276548,0.001688,0.012709,-0.008422,-2.3213321215,-9.5099988375,0.5840448474,-1.8173,1.3242,-2.0548,5.0000000000105516e-05,-4.999999999988347e-05,7.00000000000145e-05,-0.00020002876406532977,-0.0011746784468849025,0.00034450624409743114
150000000000.0,3,-0.06733245889999999,0.0088063717,-0.0105127288,0.003831,0.015885,-0.005217,-2.3219205205,-9.509900771,0.5837702612,-1.8171,1.3242,-2.0549,5.0000000000105516e-05,-5.0000000000105516e-05,1.0000000000065512e-05,-0.0008408820683845075,0.0006577566575070026,-2.638096092333342e-05
150000000000.0,3,-0.05167123885,0.021045070899999997,0.034509601349999995,0.006994,0.011596,-0.004132,-2.3225089195,-9.509704638,0.5846920863,-1.8174,1.3241,-2.0544,4.999999999988347e-05,-1.0000000000065512e-05,9.99999999995449e-06,-0.000276810888915735,-0.0005527188334528699,0.00010005070264895721
150000000000.0,3,-0.034519408,0.007688413599999999,0.038157675149999994,0.01125,0.010494,-0.003054,-2.3229011854999997,-9.509508505,0.58613366385,-1.818,1.324,-2.0538,2.4999999999941735e-05,-9.999999999843467e-06,4.0000000000040004e-05,-0.00033762319929664386,-0.0007000868683113559,0.0005473739137027422
150000000000.0,3,-0.028115665550000002,-0.023271180449999998,0.02299659425,0.009081,0.007312,-0.000915,-2.3230973185,-9.5094104385,0.5872320086499999,-1.8184,1.324,-2.0532,2.4999999999941735e-05,-1.0000000000065512e-05,-2.999999999997449e-05,0.0002771916265329466,0.0007510461449193873,-0.00021807658423167453
150000000000.0,3,-0.0080022264,-0.050298307849999994,0.03580407915,0.000546,0.005254,-0.00413,-2.3228031189999996,-9.5094104385,0.5878890541999999,-1.8187,1.324,-2.0529,2.500000000016378e-05,-1.0000000000065512e-05,-3.0000000000085514e-05,-0.00013548876447311287,0.0004930462748335973,0.00022883411766061457
150000000000.0,3,0.01062060195,-0.0623114541,0.008041452999999999,-0.006962,-0.001076,-0.006268,-2.3217243874999998,-9.509704638,0.5875164015,-1.8186,1.3241,-2.0529,2.4999999999941735e-05,-1.0000000000065512e-05,-3.999999999992898e-05,0.000562861216844901,-3.7868453226508336e-05,0.00010757412761286389
150000000000.0,3,-0.00134351105,-0.0417371024,-0.049533389149999996,-0.002734,-0.004309,-0.00412,-2.3211359885,-9.509900771,0.5862807635999999,-1.8182,1.3242,-2.0534,1.666666666655381e-05,-9.999999999843467e-06,7.999999999996898e-05,-0.0005058316557366993,-0.0010573080683526914,-7.361306759356978e-05
150000000000.0,3,-0.0007158854499999999,-0.01464132845,-0.07202003759999999,0.004746,-0.006493,-0.010508,-2.3201553235,-9.510293036999999,0.5852804853,-1.8179,1.3243,-2.0537,1.6666666666775853e-05,-1.0000000000065512e-05,-4.0000000000040004e-05,0.0006618889780836135,0.0007993804776977864,-0.00018158821282510118
150000000000.0,3,0.010071429549999998,0.0241047457,-0.062223194249999995,0.007914,-0.01078,-0.011562,-2.3189785255,-9.51048917,0.5852020321,-1.818,1.3244,-2.0537,1.6666666666775853e-05,-1.0000000000065512e-05,2.4999999999941735e-05,0.00016268155293097664,0.0003225962012760597,-0.00018040169440247666
150000000000.0,3,-0.0021770762999999997,0.038677427599999994,-0.035029353799999996,0.005774,-0.010763,-0.010497,-2.318095927,-9.510783369499999,0.5853981651,-1.8182,1.3245,-2.0536,1.666666666655381e-05,-9.999999999843467e-06,2.5000000000052758e-05,-0.0003373965189958916,-0.0008665258462807746,0.0003183924575327346
150000000000.0,3,-0.029537629799999996,0.0498373953,-0.01493552795,0.003696,-0.00435,-0.011576,-2.317703661,-9.510783369499999,0.585653138,-1.8183,1.3245,-2.0535,1.666666666655381e-05,-1.0000000000065512e-05,3.0000000000085514e-05,-2.957723609142704e-05,-0.0006338978228808134,-0.0003886472518379591
150000000000.0,3,-0.0487194372,0.05235770435,0.01779906975,0.00908,0.000935,-0.012639,-2.3175075279999997,-9.510783369499999,0.5867318695,-1.8188,1.3245,-2.0531,1.6666666666775853e-05,-2.4999999999941735e-05,-2.0000000000020002e-05,5.502374525523379e-05,0.0003331365243610662,8.008479233279076e-05
150000000000.0,3,-0.0576042621,0.024634304799999996,0.02101565095,0.013383,0.005162,-0.012634,-2.317311395,-9.510783369499999,0.5881636404,-1.8194,1.3245,-2.0524,2.4999999999941735e-05,-2.4999999999941735e-05,-6.0000000000060005e-05,0.0005117938564120905,0.00018712389558017684,-0.0004733114056003629
150000000000.0,3,-0.07354987499999999,-0.0085317855,-0.0042560861,0.015485,0.001947,-0.011552,-2.317311395,-9.510685302999999,0.58948753815,-1.8199,1.3245,-2.0518,2.4999999999941735e-05,-2.500000000016378e-05,-0.00012000000000000899,-8.441619885557472e-05,0.00036454989537881843,-5.771203171844874e-05
150000000000.0,3,-0.07344200185,-0.0443652846,-0.021300043799999998,0.010092,-0.003339,-0.008345,-2.3175075279999997,-9.5105872365,0.5902230369,-1.8202,1.3245,-2.0515,2.500000000016378e-05,-2.4999999999941735e-05,1.0000000000065512e-05,-0.0001451994526324718,-0.00014708528004314658,9.297161062837844e-05
150000000000.0,3,-0.05155355905,-0.07069613984999999,-0.03146953985,-0.000617,-0.005385,-0.004088,-2.3175075279999997,-9.5105872365,0.58991903075,-1.8201,1.3245,-2.0517,2.4999999999941735e-05,-3.333333333332966e-05,-1.0000000000065512e-05,-0.0002756292463763632,6.726644004939608e-05,0.00012357558024023163
150000000000.0,3,-0.03533335995,-0.07134337874999999,-0.054005221549999996,-0.00598,-0.008536,-0.004089,-2.3174094614999996,-9.510685302999999,0.5886539729,-1.8195,1.3245,-2.0523,-9.999999999998899e-05,-3.333333333332966e-05,-2.999999999997449e-05,0.0003996191168547103,0.0002916904405882992,-0.00024115973351834796
150000000000.0,3,-0.01921122735,-0.057967108149999995,-0.0342448218,-0.002794,-0.007501,0.000185,-2.3174094614999996,-9.510783369499999,0.5879086675,-1.8192,1.3245,-2.0526,9.999999999998899e-05,-3.333333333332966e-05,-5.999999999994898e-05,8.551365308084868e-05,0.0009720021240648968,-0.0002373253928653618
150000000000.0,3,-0.018956254449999998,-0.0255365166,0.01030678915,0.000486,0.000999,-0.001958,-2.3175075279999997,-9.510685302999999,0.58809499385,-1.8193,1.3245,-2.0526,-9.999999999998899e-05,-3.333333333332966e-05,9.999999999998899e-05,-0.00030872861852304645,-0.0016477395588716526,-0.00010223390136765431
150000000000.0,3,-0.024349911949999997,-0.012121019399999999,0.031950065699999995,-0.000514,0.008468,-0.003039,-2.3176055945,-9.510685302999999,0.58844803325,-1.8194,1.3245,-2.0524,0.00019999999999997797,-3.333333333332966e-05,1.4999999999987246e-05,8.519025392073054e-05,0.0007919204676400948,0.0006012319639636665
150000000000.0,3,-0.01460210185,-0.023065240799999998,0.05758464879999999,-0.001612,0.004213,-0.003034,-2.3175075279999997,-9.510685302999999,0.5891541120499999,-1.8197,1.3245,-2.052,2.4999999999941735e-05,-3.333333333332966e-05,1.4999999999987246e-05,-5.905849108667205e-05,-0.0006100991352977481,-0.00040066271032523915
150000000000.0,3,-0.022682781449999998,-0.01065982855,0.024242038799999997,0.000494,-6.5e-05,-0.004089,-2.3175075279999997,-9.5105872365,0.5894188915999999,-1.8199,1.3245,-2.0519,2.4999999999941735e-05,9.999999999998899e-05,2.999999999997449e-05,-0.00010569279966077261,-0.00021923660414957524,0.00040105189506078887
150000000000.0,3,-0.042413761249999994,-0.00026477954999999995,-0.039726739149999996,0.004754,-0.000101,-0.00301,-2.3179978605,-9.5105872365,0.5888991391499999,-1.8196,1.3244,-2.0521,2.500000000016378e-05,-9.999999999998899e-05,-7.999999999996898e-05,9.265040356498666e-05,0.0010982992346590947,0.0002479054674631165
150000000000.0,3,-0.05718257615,0.009188831049999999,-0.03743198305,0.009058,0.002001,-0.007271,-2.318488193,-9.5103911035,0.58899720565,-1.8196,1.3244,-2.0521,2.4999999999941735e-05,-1.4285714285744433e-05,2.999999999997449e-05,0.00015015566643938882,-0.0005170945949881656,-5.0253106474329456e-05
150000000000.0,3,-0.032675757799999997,0.018436501999999997,-0.006805815099999999,0.004813,0.004169,-0.008347,-2.3183901264999998,-9.5103911035,0.5894973447999999,-1.8198,1.3244,-2.0519,3.333333333332966e-05,-1.4285714285744433e-05,-2.999999999997449e-05,0.00017022507456898595,0.000698278292426302,-0.0003299943044097198
150000000000.0,3,-0.01740680375,0.0218688295,-0.01071866845,-0.002625,0.007428,-0.009431,-2.3179978605,-9.5105872365,0.5890658522,-1.8197,1.3244,-2.0519,3.333333333332966e-05,-1.4285714285744433e-05,7.00000000000145e-05,-0.00019031356972054603,-0.0012894782842438612,0.00025374975195191496
150000000000.0,3,-0.023153500649999995,0.0163771055,-0.0168282114,-0.008987,0.011745,-0.010515,-2.3175075279999997,-9.510783369499999,0.5878498275999999,-1.8192,1.3245,-2.0523,3.333333333332966e-05,-1.4285714285522388e-05,7.00000000000145e-05,0.00013080620596062076,-0.0005162491674866043,0.00024484666816881884
150000000000.0,3,-0.03529413335,9.806649999999999e-06,-0.019564266749999996,-0.007888,0.013871,-0.013716,-2.3168210625,-9.5109795025,0.5863984434,-1.8187,1.3246,-2.0527,0.00019999999999997797,-1.4285714285744433e-05,-8.000000000008001e-05,0.000936419216229778,0.0009900149277788373,0.0001185683542033189
150000000000.0,3,-0.032783630949999996,-0.00952225715,0.00199074995,-0.000414,0.015938,-0.01157,-2.3162326635,-9.511175635499999,0.5857904311,-1.8185,1.3247,-2.0527,4.999999999988347e-05,-1.4285714285744433e-05,2.0000000000020002e-05,0.00035690795289355925,-5.785540241687315e-05,9.183104635823724e-06
150000000000.0,3,-0.03303860385,-0.02256510165,0.0154356671,0.003807,0.010575,-0.010484,-2.3156442645,-9.511273701999999,0.58595714415,-1.8186,1.3247,-2.0524,5.0000000000105516e-05,-1.4285714285744433e-05,-7.999999999996898e-05,-9.484849257468397e-05,0.00046505116580841666,0.00018624382978060794
150000000000.0,3,-0.0359315656,-0.0187503148,0.027635139700000002,0.006968,0.009476,-0.00407,-2.3157423309999996,-9.511175635499999,0.5867710961,-1.819,1.3247,-2.052,2.4999999999941735e-05,-4.999999999988347e-05,4.999999999999449e-05,-0.0001446384856562677,-0.0006013115697842686,0.00015582287476245682
150000000000.0,3,-0.028733484499999996,-0.0214373369,0.033352416649999994,0.013323,0.004094,-0.002981,-2.315938464,-9.511077569,0.58838919335,-1.8196,1.3247,-2.0513,2.500000000016378e-05,-5.0000000000105516e-05,-5.999999999994898e-05,0.00034459188837132615,0.0010512773273836373,-0.0005313916117826167
150000000000.0,3,-0.01923084065,-0.00316754795,0.040991796999999996,0.013325,0.004094,-0.00298,-2.3160365305,-9.5109795025,0.5903309100499999,-1.8204,1.3246,-2.0505,2.4999999999941735e-05,-1.999999999990898e-05,6.999999999990347e-05,-0.0002727120780385839,-0.0010460916664396525,0.0003639249902191999
150000000000.0,3,-0.004971971549999999,0.0067862018,0.053044169849999996,0.01335,0.006225,-0.004051,-2.3157423309999996,-9.510881436,0.5924883730499999,-1.8213,1.3246,-2.0495,2.4999999999941735e-05,-2.0000000000131024e-05,-2.999999999997449e-05,7.007702625516643e-06,0.0006595341296853352,-7.275987641852666e-05
150000000000.0,3,0.000588399,0.00771783355,0.025673809699999998,0.008062,0.010533,-0.006203,-2.315350065,-9.510881436,0.59352787795,-1.8217,1.3246,-2.049,-9.999999999998899e-05,-1.999999999990898e-05,-3.999999999992898e-05,-0.00011377236958876047,-0.0004142642031441657,5.107173859242309e-05
150000000000.0,3,-0.0030890947499999997,-0.0170243444,0.00630567595,0.000606,0.012724,-0.005152,-2.3149577989999996,-9.5109795025,0.5935965245,-1.8218,1.3246,-2.0488,3.333333333332966e-05,-2.0000000000131024e-05,9.99999999995449e-06,-0.00018465529727218488,-0.000289566650800932,0.00027314255404897736
150000000000.0,3,-0.0056486304,-0.041011410299999995,0.00930651085,0.000589,0.010593,-0.005149,-2.3144674665,-9.511077569,0.5935769112,-1.8218,1.3247,-2.0486,3.333333333332966e-05,-1.999999999990898e-05,-4.0000000000040004e-05,4.494718690328803e-05,0.0005557079557383382,-0.0001683352397536808
150000000000.0,3,-0.005197524499999999,-0.043247326499999995,0.0224376152,-0.002631,0.007424,-0.006217,-2.3138790675,-9.511273701999999,0.5934788447,-1.8219,1.3247,-2.0485,3.333333333332966e-05,9.999999999998899e-05,-1.999999999990898e-05,6.671948794245708e-05,-0.0017122538825566913,0.0012507215388186665
150000000000.0,3,-0.0006374322499999999,-0.04246279449999999,0.020878357849999998,-0.005853,0.005317,-0.005153,-2.313192602,-9.511469835,0.5930865786999999,-1.8218,1.3248,-2.0486,-9.999999999998899e-05,-9.999999999998899e-05,9.999999999998899e-05,-0.0004895101552691017,0.0006306221263667755,-0.0008107309035940702
150000000000.0,3,0.009208444349999999,-0.03778502245,0.021407916949999998,-0.00908,0.00321,-0.003021,-2.312604203,-9.511665967999999,0.5925570196,-1.8216,1.3249,-2.0487,7.1428571428722165e-06,1.4285714285744433e-05,-7.00000000000145e-05,0.0004299262770457446,0.0009999688325523781,-0.00019049228843481814
150000000000.0,3,0.01258193195,-0.03925601994999999,0.02625240205,-0.006997,-0.003201,-0.003008,-2.3119177375,-9.511764034499999,0.5923510799499999,-1.8216,1.325,-2.0488,7.1428571428722165e-06,1.4285714285744433e-05,1.999999999990898e-05,0.00011421542059153467,-0.0005932986332819468,0.00019211448835587674
150000000000.0,3,0.006894074949999999,-0.02756649315,0.0096301303,-0.007,-0.004266,-0.004075,-2.3113293384999998,-9.5119601675,0.5919097807,-1.8215,1.325,-2.0489,7.1428571428722165e-06,1.4285714285744433e-05,2.0000000000020002e-05,-0.00031951346520209256,0.00015819508368863922,-4.4663261024702194e-05
150000000000.0,3,-0.022251288850000002,-0.00057859235,0.0114933938,-0.006988,-0.004264,-0.006208,-2.3112312719999997,-9.512058234,0.59154693465,-1.8214,1.3251,-2.0491,7.1428571428722165e-06,1.4285714285522388e-05,-3.999999999992898e-05,0.00033423733738779937,0.00013665399270101908,-4.076175877631982e-05
150000000000.0,3,-0.055407572499999995,0.0284981249,0.006952914849999999,-0.003758,-2.8e-05,-0.005138,-2.3117216044999997,-9.5119601675,0.5913017684,-1.8212,1.325,-2.0493,7.1428571428722165e-06,1.4285714285744433e-05,-1.0000000000065512e-05,-7.212729364747261e-05,0.0004242804108203213,-6.976963990279472e-05
150000000000.0,3,-0.07465802645,0.02250626175,0.007511893899999999,-0.00268,-3.4e-05,-0.007265,-2.31240807,-9.511764034499999,0.5911840885999999,-1.8211,1.3249,-2.0494,7.1428571428722165e-06,1.4285714285744433e-05,1.0000000000065512e-05,-6.633393207922111e-05,-0.0006747875303176887,-0.0003208770035572073
150000000000.0,3,-0.07365774815,0.022359162,0.011003061299999999,0.002672,0.002053,-0.007253,-2.3128984025,-9.511665967999999,0.5914390615,-1.8211,1.3249,-2.0493,7.1428571428722165e-06,1.4285714285744433e-05,4.999999999999449e-05,9.428772375796868e-05,0.00039902674926817205,0.00041479155387058597
150000000000.0,3,-0.0501904347,0.000784532,0.020338992099999998,0.003751,0.002047,-0.009382,-2.3128984025,-9.5115679015,0.5919784272499999,-1.8214,1.3249,-2.0491,7.142857142650172e-06,1.4285714285744433e-05,9.99999999995449e-06,-0.0001731881782707223,-0.0009048569131515638,0.00023625115141845399
150000000000.0,3,-0.0322246519,0.00681562175,0.029047297299999997,0.006976,0.004153,-0.010446,-2.31240807,-9.511665967999999,0.59299831885,-1.8218,1.3249,-2.0486,7.1428571428722165e-06,1.4285714285744433e-05,-2.999999999997449e-05,0.00023812856576155284,0.0008521633093043768,-0.00050848545519111
150000000000.0,3,-0.021103910799999997,0.0047660318999999994,0.02597781585,0.010147,0.000928,-0.009366,-2.3119177375,-9.511665967999999,0.5944202831,-1.8225,1.3249,-2.0479,7.1428571428722165e-06,1.4285714285744433e-05,-1.4999999999987246e-05,-7.988416041015967e-05,-0.00044374187204043736,0.00011370392093112969
150000000000.0,3,-0.021525596749999997,0.0070705946499999995,0.013101684399999999,0.010182,0.00519,-0.009371,-2.3113293384999998,-9.511764034499999,0.5956265010499999,-1.823,1.3249,-2.0474,7.1428571428722165e-06,1.4285714285522388e-05,-1.4999999999987246e-05,-1.923734327125004e-05,0.0003005659759625079,0.00012351497312312887
150000000000.0,3,-0.05202427824999999,0.0054132708,0.029567049749999998,0.00703,0.008418,-0.013648,-2.311035139,-9.511764034499999,0.5968131057,-1.8235,1.3249,-2.0468,7.1428571428722165e-06,1.4285714285744433e-05,3.999999999992898e-05,-0.00017246613243293574,-0.0004993556637380436,8.698229602455143e-05
150000000000.0,3,-0.07143163859999999,0.0090417313,0.00287334845,0.006992,0.006283,-0.009369,-2.311427405,-9.511665967999999,0.5973230515,-1.8237,1.3249,-2.0465,7.1428571428722165e-06,1.4285714285744433e-05,-9.99999999995449e-06,-6.938621477359241e-05,0.0001159151442091666,5.5202002165355424e-05
150000000000.0,3,-0.09819398644999999,0.0011571847,-0.030253515249999998,0.006995,0.009477,-0.005097,-2.3125061364999997,-9.5113717685,0.597224985,-1.8235,1.3248,-2.0466,7.1428571428722165e-06,1.4285714285744433e-05,-2.999999999997449e-05,0.0006292407555950064,-0.0015882857461850808,0.0012295622841733689
150000000000.0,3,-0.12058256839999999,-0.0080806796,0.0019024901,0.006982,0.008412,-0.004019,-2.313977134,-9.5109795025,0.5976957042,-1.8236,1.3246,-2.0464,-9.999999999998899e-05,-0.00019999999999997797,2.999999999997449e-05,-0.0005384268442920614,0.001399558270387402,-0.0008521139250721177
150000000000.0,3,-0.10796140985,-0.01801481605,0.011836626549999998,0.002724,0.009513,-0.00402,-2.3154481314999997,-9.5105872365,0.59794087045,-1.8235,1.3245,-2.0464,9.999999999998899e-05,9.999999999998899e-05,-9.999999999998899e-05,0.0005693110923630229,-0.0010553779367228344,0.0006198891019177921
150000000000.0,3,-0.08599451385,-0.01485707475,0.006452775699999999,0.00058,0.009529,-0.001883,-2.3166249294999997,-9.510293036999999,0.5979310637999999,-1.8234,1.3243,-2.0464,-3.333333333332966e-05,-3.333333333332966e-05,9.99999999995449e-06,-0.00043847935747942657,-0.0006863659001352662,0.00036441069728665454
150000000000.0,3,-0.0557213853,0.0013140911,-0.01315071765,0.001654,0.008459,-0.005077,-2.3172133285,-9.510194970499999,0.5976368643,-1.8232,1.3243,-2.0465,-3.333333333332966e-05,-3.333333333332966e-05,-4.999999999999449e-05,-0.00026848591123851406,0.0006278912538912884,1.5455531772623488e-05
150000000000.0,3,-0.03666706435,0.025232510450000002,-0.0222414822,0.009129,0.007336,-0.008261,-2.317311395,-9.510194970499999,0.59790164385,-1.8233,1.3243,-2.0463,-3.333333333332966e-05,-3.333333333332966e-05,-4.999999999999449e-05,0.0004057676682085454,0.0026506141406623662,-0.001644751821617163
150000000000.0,3,-0.022672974799999995,0.0327738243,0.00159848395,0.012337,0.006248,-0.011453,-2.3167229959999998,-9.510194970499999,0.5988921155,-1.8238,1.3243,-2.0458,9.999999999998899e-05,4.999999999988347e-05,4.0000000000040004e-05,0.00033617708585209627,-0.0006160688272989212,0.00012048113066143173
150000000000.0,3,-0.019279873899999998,0.014092156049999999,-0.000784532,0.010236,0.0084,-0.014661,-2.3158403974999997,-9.5103911035,0.59978452065,-1.8242,1.3244,-2.0452,9.999999999998899e-05,5.0000000000105516e-05,-2.999999999997449e-05,0.0001474140489705622,-0.0014201008540188909,0.0009168102739747219
150000000000.0,3,-0.025203090499999997,-0.011365907350000001,-0.013435110499999998,0.004921,0.009512,-0.016805,-2.3146635995,-9.510685302999999,0.5998727805,-1.8244,1.3245,-2.0449,5.0000000000105516e-05,-1.4285714285744433e-05,-2.0000000000020002e-05,-0.000426993341307913,-0.00011967098198906179,0.0003128835951660136
150000000000.0,3,-0.043551332649999996,-0.02025073225,-0.04251182775,0.004973,0.016971,-0.015748,-2.3138790675,-9.510881436,0.5991667017,-1.8242,1.3246,-2.0449,4.999999999988347e-05,-1.4285714285744433e-05,9.99999999995449e-06,0.00040251499664600843,-1.2207034341571443e-05,-0.00011998138922875157
150000000000.0,3,-0.06977431475,0.00040207264999999996,-0.023830159499999996,0.010239,0.010531,-0.012519,-2.313781001,-9.510881436,0.59933341475,-1.8243,1.3246,-2.0447,4.999999999988347e-05,-1.4285714285744433e-05,-9.99999999995449e-06,0.00024113626574395752,0.000814582546708964,-0.00012455992589588405
150000000000.0,3,-0.08433718999999999,0.011846433200000001,-0.01013026945,0.015564,0.012614,-0.00717,-2.3144674665,-9.510685302999999,0.60015717335,-1.8245,1.3245,-2.0443,5.0000000000105516e-05,-1.4285714285522388e-05,-7.999999999996898e-05,0.0005300919407045246,0.0003077556678012794,-0.0002078701565122465
150000000000.0,3,-0.07718814214999999,0.0030989013999999995,-0.0212412039,0.013424,0.012632,-0.0061,-2.3152519985,-9.51048917,0.6009417053499999,-1.8248,1.3244,-2.0439,9.999999999998899e-05,-1.4285714285744433e-05,-2.0000000000020002e-05,0.0003045426689085584,0.00014035977771009733,0.0001254589037391618
150000000000.0,3,-0.05886931994999999,-0.0250069575,-0.0105323421,0.01024,0.01479,-0.006105,-2.315546198,-9.5103911035,0.6014516511499999,-1.8249,1.3243,-2.0436,-9.999999999998899e-05,-1.4285714285744433e-05,-4.0000000000040004e-05,-0.0009371149009891333,-0.0006646029732735315,0.0001584851804863341
150000000000.0,3,-0.018632634999999998,-0.0542896144,0.00134351105,0.007009,0.011619,-0.005038,-2.3152519985,-9.5103911035,0.60184391715,-1.8251,1.3244,-2.0432,9.999999999998899e-05,-1.4285714285744433e-05,9.99999999995449e-06,0.0001852386184619803,0.0003268917692984541,-7.519656035093192e-05
150000000000.0,3,0.0093555441,-0.06538093554999999,0.0102381426,0.002669,0.005256,-0.000766,-2.3146635995,-9.51048917,0.60207927675,-1.8253,1.3244,-2.043,9.999999999998899e-05,2.4999999999941735e-05,4.0000000000040004e-05,-0.0002563148128287285,-0.00034465596937360843,0.00024998752979765726
150000000000.0,3,0.03615711855,-0.051779111999999995,0.0146707484,0.005783,-0.004363,0.001387,-2.313977134,-9.510685302999999,0.6027363223,-1.8256,1.3245,-2.0427,3.333333333332966e-05,2.4999999999941735e-05,-4.0000000000040004e-05,-0.00019479753137008338,4.951969117783506e-05,0.00032843052903430703
150000000000.0,3,0.0476407057,-0.01226811915,-0.0074040207499999995,0.007882,-0.008643,0.001394,-2.313192602,-9.510783369499999,0.60341298115,-1.826,1.3245,-2.0424,3.333333333332966e-05,2.500000000016378e-05,0.0001300000000000745,-0.00016066851899454448,-0.0012901563305933728,0.00039457569287071337
150000000000.0,3,0.041884202149999994,0.00787473995,-0.04726805299999999,0.004705,-0.00861,-0.003951,-2.312211937,-9.511077569,0.6033247212999999,-1.826,1.3246,-2.0424,3.333333333332966e-05,2.4999999999941735e-05,2.0000000000020002e-05,2.2738037745551054e-05,-0.0002713061136341288,0.00021420476395173083
150000000000.0,3,0.02993970245,0.013827376499999999,-0.052749970349999994,0.001504,-0.009647,-0.006091,-2.3111332054999996,-9.5113717685,0.6029618752499999,-1.826,1.3248,-2.0425,-1.2499999999970868e-05,-9.999999999998899e-05,-0.00017000000000000348,-0.0002397255267883036,0.0009229913864041706,-0.0004457391173477987
150000000000.0,3,-0.00414821295,-0.0001765197,-0.04294332035,-0.000613,-0.008561,-0.008231,-2.3104467399999997,-9.5115679015,0.6024323161499999,-1.8259,1.3248,-2.0427,-1.2499999999970868e-05,-3.333333333332966e-05,7.999999999996898e-05,0.00020438360676489076,-9.981205131071036e-06,-0.00010907251855840627
150000000000.0,3,-0.020505705149999998,-0.03786347565,-0.0216530832,-0.007004,-0.006377,-0.007177,-2.3099564075,-9.511665967999999,0.60164778415,-1.8256,1.3249,-2.0431,-1.2499999999970868e-05,-3.333333333332966e-05,-6.0000000000060005e-05,-7.684981206246277e-05,-0.00024714755247567943,-0.000147260308038355
150000000000.0,3,-0.029537629799999996,-0.0478760653,0.00811009955,-0.012341,-0.007398,-0.008251,-2.3094660749999996,-9.511862101,0.6009122854,-1.8254,1.325,-2.0434,-1.2499999999970868e-05,-3.333333333332966e-05,-1.999999999990898e-05,0.0005088268492305925,0.0013523964082622353,-0.0007183556626166876
150000000000.0,3,-0.029851442599999996,-0.04378669225,-0.0244577851,-0.010214,-0.007416,-0.007178,-2.3089757425,-9.512058234,0.5995197411,-1.8248,1.3251,-2.044,-1.2500000000192912e-05,5.0000000000105516e-05,2.999999999997449e-05,-0.0003600734894189106,-0.0008067525393122832,5.564273332003822e-05
150000000000.0,3,-0.012866324799999999,-0.03937369975,-0.0615661487,-0.003841,-0.010664,-0.00716,-2.30848541,-9.512254366999999,0.59801932365,-1.8243,1.3252,-2.0446,-1.2499999999970868e-05,4.999999999988347e-05,-4.999999999999449e-05,0.0003177084684895526,-0.00011956556474235214,3.758479558113592e-05
150000000000.0,3,0.00224572285,-0.0007649187,-0.03931485985,0.002525,-0.01285,-0.003943,-2.3078970109999997,-9.5124505,0.5979114505,-1.8243,1.3252,-2.0447,-1.2499999999970868e-05,-9.999999999998899e-05,9.999999999998899e-05,-0.0003596635400202608,-0.001016133281611431,1.7314410896140942e-06
150000000000.0,3,0.011336487399999998,0.0157690932,-0.0313616667,0.003611,-0.012854,-0.008211,-2.306916346,-9.512646633,0.59803893695,-1.8244,1.3253,-2.0447,-1.2499999999970868e-05,-3.333333333332966e-05,-4.999999999999449e-05,-0.00010673705963637481,0.00021956917272736298,-0.00039706967216579514
150000000000.0,3,0.0197505931,0.005275977699999999,-0.013739116649999997,0.003655,-0.00859,-0.010355,-2.3056414815,-9.5129408325,0.5985194628,-1.8248,1.3254,-2.0445,9.999999999998899e-05,-3.333333333332966e-05,9.99999999995449e-06,0.0002990063166421475,0.00042149673527358544,-4.36226170679177e-05
150000000000.0,3,0.0032950343999999998,0.004981778199999999,-0.015710253299999997,-0.000599,-0.007488,-0.011431,-2.3044646835,-9.513235032,0.5984017829999999,-1.8249,1.3256,-2.0445,-1.6666666666775853e-05,-3.333333333332966e-05,-2.0000000000020002e-05,-0.00031231170872092484,-0.0005031844352192394,0.0003956379855321046
150000000000.0,3,-0.047395539449999996,-0.0040795664,-0.04829775124999999,0.001519,-0.006443,-0.007156,-2.3042685505,-9.513333098499999,0.59776435075,-1.8246,1.3256,-2.0448,-1.666666666655381e-05,-3.333333333332966e-05,2.5000000000052758e-05,-0.0004320920822000751,-0.000790586328816012,0.0002305278192009652
150000000000.0,3,-0.0819443674,-0.00903192465,-0.017514676899999998,0.004706,-0.007535,-0.006075,-2.3049550159999996,-9.5131369655,0.59796048375,-1.8246,1.3255,-2.0448,-1.666666666655381e-05,-3.333333333332966e-05,2.5000000000052758e-05,-0.00030936554006610884,-0.0005889430844783217,-0.00013762098973302272
150000000000.0,3,-0.09789978695,-0.0080022264,0.021378497,0.003669,-0.003265,-0.00501,-2.3060337475,-9.512842766,0.5987254024499999,-1.8248,1.3254,-2.0446,-1.6666666666775853e-05,-3.333333333332966e-05,-0.00012000000000000899,0.00037459407810214174,0.0008073710320126715,-5.359774497737391e-05
150000000000.0,3,-0.0792573453,-0.0111207411,0.0011081514499999999,0.004703,-0.005407,-0.001797,-2.3070144124999996,-9.5125485665,0.59939225465,-1.825,1.3253,-2.0445,-1.6666666666775853e-05,-5.0000000000105516e-05,-9.999999999998899e-05,0.00011891452854051465,0.0008942841959109771,-0.0003939416399640905
150000000000.0,3,-0.061144462749999996,-0.011817013249999998,-0.0126113519,0.00575,-0.006483,0.000346,-2.3078970109999997,-9.5123524335,0.5997943272999999,-1.8251,1.3252,-2.0445,-1.666666666655381e-05,-4.999999999988347e-05,-7.00000000000145e-05,3.966024963153458e-05,3.9185729270307945e-05,-0.00020873648074859474
150000000000.0,3,-0.045934348599999994,0.0019024901,0.012650578499999999,0.00043,-0.005372,-0.000729,-2.3085834765,-9.5121563005,0.6002650465,-1.8252,1.3251,-2.0444,9.999999999998899e-05,-9.999999999998899e-05,7.999999999996898e-05,-0.0001128209025820226,-0.00017676064659410962,0.000138444819205219
150000000000.0,3,-0.026556408199999996,-0.0010002783,0.02058415835,0.002598,-0.003255,-0.00393,-2.3086815429999996,-9.512058234,0.6008632521499999,-1.8254,1.3251,-2.0442,-9.999999999998899e-05,-9.999999999998899e-05,-4.0000000000040004e-05,-0.00015622245860891226,-0.0008623486169350159,0.00010533932066048024
150000000000.0,3,-0.00573689025,-0.018240369,0.0169262779,0.000515,0.001027,-0.007143,-2.308093144,-9.5121563005,0.6012260982,-1.8256,1.3251,-2.044,1.999999999990898e-05,-9.999999999998899e-05,8.000000000008001e-05,-0.00038098768568795016,0.0013752760376930517,-0.001199012588862125
150000000000.0,3,0.00389324005,-0.0366964843,0.01807365595,-0.004804,0.002138,-0.008223,-2.3071124789999997,-9.5124505,0.6011280317,-1.8257,1.3252,-2.0439,2.0000000000131024e-05,-3.333333333332966e-05,4.999999999999449e-05,-0.0015916944036187264,-0.0007094593871312949,0.0013921924448090373
150000000000.0,3,-0.013984282899999999,-0.04265892749999999,0.02509521735,-0.005853,0.004277,-0.008228,-2.3064260135,-9.5125485665,0.6009809319499999,-1.8257,1.3253,-2.0439,1.999999999990898e-05,-3.333333333332966e-05,-2.0000000000020002e-05,0.0006841744196530719,0.0005269234200018236,-0.0001688236431811596
150000000000.0,3,-0.013846989799999999,-0.031008627299999997,0.02091758445,-0.003715,0.005324,-0.007158,-2.305935681,-9.512744699499999,0.6006769258,-1.8256,1.3253,-2.0439,2.0000000000131024e-05,-3.333333333332966e-05,7.00000000000145e-05,-0.0007796755104152453,-0.0009260138262265905,0.00028240685722913383
150000000000.0,3,0.00034323274999999994,-0.009188831049999999,0.021368690349999997,0.003714,0.000999,-0.006071,-2.305347282,-9.512842766,0.6011280317,-1.8259,1.3254,-2.0437,1.999999999990898e-05,-4.999999999988347e-05,-3.0000000000085514e-05,0.00046410359378956656,0.00036172511179022315,5.334539909451763e-05
150000000000.0,3,0.0056486304,0.0117483667,0.00208881645,0.003732,0.00313,-0.006075,-2.3046608164999998,-9.513038899,0.60154971765,-1.8261,1.3255,-2.0434,-3.333333333332966e-05,-5.0000000000105516e-05,2.0000000000020002e-05,-0.00017972770074958788,-0.0002548588810566965,-1.4396129225602294e-05
150000000000.0,3,-0.0107088618,0.026468148349999998,0.0014219642499999998,0.004795,0.002057,-0.007137,-2.304366617,-9.513038899,0.6020694700999999,-1.8264,1.3255,-2.0431,-3.333333333332966e-05,-5.0000000000105516e-05,4.0000000000040004e-05,-0.00011192770841494948,-0.00024086939405165708,0.0006816709106849395
150000000000.0,3,-0.00858081875,0.03339164325,0.032489431449999995,0.003739,0.003131,-0.00714,-2.3038762845,-9.513038899,0.6030207151499999,-1.8268,1.3255,-2.0427,-3.333333333332966e-05,-4.999999999988347e-05,-4.0000000000040004e-05,0.0001094410779907129,0.0003473442539516647,-0.0004978223831675344
150000000000.0,3,-0.028213732049999996,0.0260660757,0.05098477334999999,0.002668,0.00101,-0.009271,-2.303582085,-9.513038899,0.6041288666,-1.8273,1.3255,-2.0422,-5.0000000000105516e-05,-3.333333333332966e-05,2.0000000000020002e-05,-0.00038885140540667607,-0.0004354941177626692,0.00016120624173332487
150000000000.0,3,-0.04298254694999999,0.006903881599999999,0.046571780849999994,0.005911,0.005246,-0.010337,-2.3033859519999997,-9.513038899,0.6052468247,-1.8278,1.3255,-2.0416,-4.999999999988347e-05,-3.333333333355171e-05,-4.999999999999449e-05,0.0002685202285834798,0.00016252544749351117,3.52111927619525e-05
150000000000.0,3,-0.04916073645,-0.00789435325,0.0241439723,0.009149,0.008419,-0.012468,-2.3029936859999998,-9.5131369655,0.60627652295,-1.8282,1.3255,-2.0411,9.999999999998899e-05,-3.333333333332966e-05,2.999999999997449e-05,3.0580730315588056e-05,-7.892224384864477e-05,-8.463615322940043e-05
150000000000.0,3,-0.06301753289999999,-0.026683894649999998,0.022702394749999997,0.010162,0.004144,-0.008185,-2.3030917525,-9.513038899,0.6074140943499999,-1.8287,1.3255,-2.0406,2.4999999999941735e-05,-3.333333333332966e-05,1.4999999999987246e-05,3.459763326141285e-05,0.00026594345891717275,6.554239745160118e-05
150000000000.0,3,-0.0495628091,-0.03837342144999999,0.03286208415,0.005922,0.007375,-0.008196,-2.3028956195,-9.513038899,0.60833591945,-1.8291,1.3255,-2.0401,2.500000000016378e-05,-3.333333333332966e-05,1.4999999999987246e-05,-0.0003698017321340785,-0.0006165466621834703,0.0001711767643488571
150000000000.0,3,-0.0215157901,-0.03475476759999999,0.0336564228,0.005913,0.007373,-0.00606,-2.3025033534999997,-9.513038899,0.60933619775,-1.8295,1.3255,-2.0396,2.4999999999941735e-05,-3.333333333332966e-05,0.0001100000000000545,-0.0007122399745376207,-0.001122641327627072,0.00018523815377724517
150000000000.0,3,-0.0168870513,-0.01756371015,0.03552949295,0.005873,0.004173,-0.002852,-2.3023072205,-9.513038899,0.61015995635,-1.8299,1.3255,-2.0392,2.4999999999941735e-05,-1.2499999999970868e-05,-0.00012999999999996348,0.001591584789317535,0.0015105368789327667,-7.367207852082558e-05
150000000000.0,3,-0.0234967334,-0.01124822755,0.0556429321,0.005854,0.00204,-0.001779,-2.3025033534999997,-9.512842766,0.6115917272499999,-1.8304,1.3254,-2.0386,-9.999999999998899e-05,-1.2499999999970868e-05,1.999999999990898e-05,0.00033744709089900127,-0.000715532037966593,-0.000251183274261102
150000000000.0,3,-0.0324600115,-0.0060016698,0.05471130034999999,0.00585,-9e-05,-0.003909,-2.30260142,-9.512744699499999,0.6131215646499999,-1.831,1.3254,-2.038,-1.999999999990898e-05,-1.2499999999970868e-05,6.0000000000060005e-05,-0.0005176822872317022,-0.00023270335636893513,0.00039478772386258854
150000000000.0,3,-0.04653255425,0.0131605243,0.007678606949999999,0.004801,0.002051,-0.00391,-2.3030917525,-9.512646633,0.6136217038,-1.8312,1.3253,-2.0378,-2.0000000000131024e-05,-1.2500000000192912e-05,-2.0000000000020002e-05,-0.00021723999273559613,0.0001401032712382566,-1.603401574135077e-05
150000000000.0,3,-0.05503491979999999,0.0164359454,-0.0183972754,0.004835,0.006314,-0.003913,-2.3036801515,-9.5124505,0.6137982235,-1.8312,1.3252,-2.0377,-1.999999999990898e-05,-1.2499999999970868e-05,-9.99999999995449e-06,0.0004636723088424777,0.0003693065911012372,-0.000319925547878519
150000000000.0,3,-0.06832293055,0.00222610955,-0.008492558899999999,0.001631,0.005277,-0.004979,-2.304366617,-9.512254366999999,0.6137786102,-1.8311,1.3252,-2.0377,-2.0000000000131024e-05,-1.2499999999970868e-05,-4.0000000000040004e-05,0.0003713011671941935,-3.968878354898564e-05,2.0600642263168822e-05
150000000000.0,3,-0.07431479369999999,-0.020044792599999996,-0.019073934249999997,0.001635,0.005279,-0.006041,-2.3049550159999996,-9.5121563005,0.61343537745,-1.8309,1.3251,-2.0379,-1.999999999990898e-05,-1.2499999999970868e-05,-4.999999999999449e-05,-0.0008905989479284226,5.32115879905426e-05,5.807061786011758e-05
150000000000.0,3,-0.05396599495,-0.01062060195,-0.0007158854499999999,-0.002604,0.007448,-0.008183,-2.3050530824999997,-9.5121563005,0.6130333048,-1.8307,1.3251,-2.038,9.999999999998899e-05,-1.2499999999970868e-05,0.00012999999999996348,-0.0016328049338312223,-0.00052556831878392,0.0003816845400805846
150000000000.0,3,-0.029812216,-0.0037951735499999993,0.021260817199999997,-0.000459,0.007432,-0.010312,-2.3046608164999998,-9.512254366999999,0.6130529181,-1.8308,1.3251,-2.0378,1.1111111111183902e-05,9.999999999998899e-05,-9.99999999995449e-06,0.0016051089399857776,-0.0004968187053084883,6.304187008376871e-05
150000000000.0,3,-0.029557243100000002,0.005687856999999999,0.024948117599999996,0.002738,0.007405,-0.009237,-2.304366617,-9.5123524335,0.6134059574999999,-1.831,1.3252,-2.0376,1.1111111110961858e-05,1.0000000000065512e-05,-4.0000000000040004e-05,0.0001317650576744267,0.0004903627257073495,1.1336329262423561e-05
150000000000.0,3,-0.0337152627,-0.00601147645,0.034303661699999995,0.00593,0.007376,-0.007094,-2.3042685505,-9.512254366999999,0.6142199094499999,-1.8313,1.3252,-2.0371,1.1111111111183902e-05,9.999999999843467e-06,3.0000000000085514e-05,-0.0014944402685583835,-0.00011846244439706055,0.00045715168632520786
150000000000.0,3,-0.0328522775,-0.0353823932,0.0471111466,0.001662,0.008474,-0.004967,-2.3041704839999997,-9.512254366999999,0.6150338613999999,-1.8316,1.3251,-2.0367,1.1111111111183902e-05,1.0000000000065512e-05,-9.00000000000345e-05,0.0004238322908558523,5.533419146774854e-05,-0.00018981611790325204
150000000000.0,3,-0.043541526000000004,-0.044326057999999995,0.03405849545,0.000559,0.006347,-0.000694,-2.3045627499999997,-9.5121563005,0.6153672874999999,-1.8317,1.3251,-2.0366,1.1111111110961858e-05,1.0000000000065512e-05,2.0000000000020002e-05,-0.0002170443265643307,-0.00017645146639488907,-0.00010744599001233368
150000000000.0,3,-0.05186737185,-0.04489484369999999,-0.01485707475,-0.001593,0.004235,-0.00069,-2.3052492155,-9.512058234,0.61474946855,-1.8314,1.325,-2.0368,1.1111111111183902e-05,1.0000000000065512e-05,9.999999999998899e-05,-0.0005510054464525904,0.0003279231845703112,0.0004930782437866377
150000000000.0,3,-0.051455492549999995,-0.027095773949999995,-0.017671583299999998,-0.003738,0.004251,0.001445,-2.306131814,-9.511862101,0.6139747431999999,-1.831,1.325,-2.0372,1.1111111111183902e-05,9.999999999843467e-06,-1.0000000000065512e-05,0.00043374600540579955,-0.0002635775765371662,-0.00015410266361426395
