Time,placement_label,user_acc_x(m/s^2),user_acc_y(m/s^2),user_acc_z(m/s^2),rotation_rate_x(rad/s),rotation_rate_y(rad/s),rotation_rate_z(rad/s),gravity_x(m/s^2),gravity_y(m/s^2),gravity_z(m/s^2),attitude_roll(rad),attitude_pitch(rad),attitude_yaw(rad),target_delta_x,target_delta_y,target_delta_z,target_delta_roll,target_delta_pitch,target_delta_yaw
150000000000.0,3,-0.03195987235,-0.07879643275,-0.03603943875,-0.038539,0.007386,-0.012521,-3.4312487684999997,-9.157253637,0.7355968164999999,-1.782,1.2048,-1.7504,0.0,0.0,0.0,0.0,0.0,0.0
150000000000.0,3,0.00748247395,-0.0975369409,-0.03923640665,-0.036319,0.013769,-0.020002,-3.4290913054999996,-9.158430435,0.73115440405,-1.7809,1.2052,-1.7514,-3.333333333332966e-05,1.2499999999970868e-05,1.0000000000065512e-05,0.00031099836796144587,8.953673744827029e-05,-3.960147278903037e-05
150000000000.0,3,0.022672974799999995,-0.11151141714999999,0.009483030549999999,-0.01285,0.014639,-0.017831,-3.4264435099999995,-9.159607233,0.7291244275,-1.7805,1.2055,-1.7517,-3.333333333332966e-05,1.2499999999970868e-05,3.999999999992898e-05,0.00010812374558533122,-0.00026529945725251025,-0.00010700467212743092
150000000000.0,3,0.0074922806,-0.1038524235,0.0795907714,-0.028884,0.015827,-0.009324,-3.4247763794999995,-9.160391765,0.7273984571,-1.7801,1.2057,-1.752,-3.333333333332966e-05,1.2499999999970868e-05,6.0000000000060005e-05,-0.0002828141736310741,0.00022476426788875514,-0.0003084636274888197
150000000000.0,3,0.026791767799999998,-0.06983315464999999,0.05730025595,-0.035426,0.00202,-0.00291,-3.4235995814999995,-9.160980164,0.7248487280999999,-1.7794,1.2059,-1.7527,9.999999999998899e-05,1.2500000000192912e-05,-4.999999999999449e-05,-8.726852839502364e-05,8.363331710437016e-05,-0.000352959137990716
150000000000.0,3,0.07230443045,-0.028870777599999998,0.0183972754,-0.025926,-0.005527,0.005655,-3.4225208499999997,-9.161568563,0.7226128118999999,-1.7789,1.2061,-1.7534,-0.00019999999999997797,1.2499999999970868e-05,0.00025999999999992696,-0.0003228250902405083,-0.0017046774188753666,-0.0002125740615208649
150000000000.0,3,0.07351064839999999,0.04349249274999999,0.0551329863,-0.002601,-0.019581,0.013189,-3.4225208499999997,-9.1614704965,0.7234365705,-1.7791,1.206,-1.7534,-9.999999999998899e-05,1.2499999999970868e-05,2.999999999997449e-05,-0.00028509999378778517,-0.00015674550636557427,-0.00043253895249106833
150000000000.0,3,0.05671185694999999,0.1039897166,0.06728342564999999,0.009051,-0.029271,0.01536,-3.4234034485,-9.160980164,0.72638837215,-1.7799,1.2059,-1.7529,-4.999999999988347e-05,1.2499999999970868e-05,5.0000000000105516e-05,-0.00018247692777961788,-0.0003274573773974776,-0.0006899740952555078
150000000000.0,3,0.09260419595,0.0840626038,0.02307504745,0.013312,-0.033564,0.010035,-3.4232073154999996,-9.160784030999999,0.72931075385,-1.7807,1.2058,-1.7524,-5.0000000000105516e-05,1.2499999999970868e-05,9.999999999998899e-05,-0.00020450991283538222,-0.00020847382769861866,-0.0004028464910117435
150000000000.0,3,0.11439457224999999,0.04531652965,-0.0141804159,0.009059,-0.035654,0.003622,-3.4220305174999996,-9.1610782305,0.7313995702999999,-1.7814,1.2059,-1.752,-9.999999999998899e-05,-4.999999999988347e-05,-2.0000000000020002e-05,-0.00028525486137720435,-8.024404529005658e-05,-0.0007072120127142867
150000000000.0,3,0.09468320575,-0.01442558215,-0.04123696325,0.00371,-0.039868,-0.000654,-3.4202653205,-9.161666629499999,0.73256656165,-1.7818,1.2061,-1.752,9.999999999998899e-05,-5.0000000000105516e-05,-9.999999999998899e-05,-4.8131549968299936e-05,-0.0005741827603367167,-1.3741213435558564e-05
150000000000.0,3,0.06271352675,-0.06406684445,-0.03992287215,0.001591,-0.039847,-0.003864,-3.4183039904999997,-9.162255028499999,0.7333412869999999,-1.7821,1.2063,-1.752,-9.999999999998899e-05,9.999999999998899e-05,2.0000000000020002e-05,-3.1548168302197865e-05,7.165114671736639e-05,-0.00047881061154608773
150000000000.0,3,0.0270859673,-0.0923198031,-0.0366572577,-0.001599,-0.040882,-0.008141,-3.4165387934999996,-9.162941494,0.7339689125999999,-1.7824,1.2065,-1.7522,-3.333333333332966e-05,-9.999999999998899e-05,5.999999999994898e-05,-0.0004599733112999882,-0.0005594463016120876,-0.00048327570370032547
150000000000.0,3,0.011915079749999998,-0.113364874,-0.0213981103,-0.004787,-0.039789,-0.009218,-3.41467553,-9.163529893,0.7344200184999999,-1.7826,1.2066,-1.7523,-3.333333333332966e-05,-1.666666666655381e-05,2.999999999997449e-05,-0.00012616010046340165,-7.255829149155346e-05,-0.00043094347149441603
150000000000.0,3,-0.00253992235,-0.08709285865,-0.0037167203499999996,-0.00477,-0.037658,-0.009224,-3.413106466,-9.164118292,0.7351457106,-1.7829,1.2068,-1.7524,-3.333333333332966e-05,-1.6666666666775853e-05,-2.0000000000020002e-05,-0.00023345741243563367,0.00010286338997511635,-0.0004258124578218059
150000000000.0,3,-0.0030596748,-0.038226321699999996,-0.00565843705,-0.00161,-0.041948,-0.008144,-3.4118316015,-9.164510558,0.73619502215,-1.7833,1.2069,-1.7524,-2.4999999999941735e-05,-1.6666666666775853e-05,-9.999999999998899e-05,-0.0006016694686847845,0.0006025697046974088,-0.00046340991840709833
150000000000.0,3,0.00116699135,0.0182795956,-0.025075604049999995,0.003722,-0.040928,-0.006001,-3.410949003,-9.164706691,0.73719530045,-1.7836,1.207,-1.7525,-2.500000000016378e-05,-1.666666666655381e-05,3.0000000000085514e-05,0.0002658550160206108,-0.00035111334427129215,-0.000422361469897492
150000000000.0,3,-0.0013140911,0.04458103089999999,-0.0265760215,0.005811,-0.043081,-0.000656,-3.4107528699999996,-9.164706691,0.73870552455,-1.7841,1.207,-1.7525,-2.4999999999941735e-05,-1.666666666655381e-05,-7.00000000000145e-05,-0.00037937287125311414,0.0006602028497011414,-0.0002718930500349437
150000000000.0,3,-0.0217315364,0.05280881025,-0.0446987107,0.007952,-0.039904,0.002546,-3.4112432024999997,-9.164412491499998,0.7400686489,-1.7844,1.2069,-1.7525,-2.4999999999941735e-05,-1.6666666666775853e-05,-1.0000000000065512e-05,-0.00021675971747026068,-0.0009234922761036657,0.00022144783937072532
150000000000.0,3,-0.060614903649999996,0.030881140849999995,-0.0559567449,0.005844,-0.035628,0.003608,-3.4125180669999997,-9.163824092499999,0.740990474,-1.7846,1.2067,-1.7527,9.999999999998899e-05,-3.333333333332966e-05,-0.00010999999999994348,0.0002544079265538457,0.0006837855284547167,-1.1176827506176323e-05
150000000000.0,3,-0.09070170585,-0.010983447999999998,-0.035892338999999995,0.003779,-0.028148,0.00146,-3.4137929314999997,-9.163333759999999,0.7417357793999999,-1.7847,1.2066,-1.7528,-9.999999999998899e-05,-3.333333333332966e-05,8.999999999992347e-05,-9.415772320431337e-05,-0.00034192905486318814,0.00026119836703220045
150000000000.0,3,-0.1136198469,-0.04498310354999999,-0.027605719749999997,-0.001444,-0.015315,-0.000702,-3.4151658625,-9.1628434275,0.7416769395,-1.7846,1.2064,-1.7531,9.999999999998899e-05,-3.333333333332966e-05,2.0000000000020002e-05,0.00011847535013598254,-0.00017351524364861426,6.861156920567879e-05
150000000000.0,3,-0.12171033314999999,-0.05302455655,-0.021947282699999997,-0.001318,-0.001459,-0.003923,-3.4163426605,-9.1624511615,0.74125525355,-1.7845,1.2063,-1.7533,-9.999999999998899e-05,-5.0000000000105516e-05,0.00014999999999998348,0.0001520174043001532,-0.00031603345371600255,-0.00017709196569448693
150000000000.0,3,-0.09933155785,-0.043767078949999996,0.00389324005,-0.002282,0.008146,-0.009275,-3.416832993,-9.162255028499999,0.7408531809,-1.7843,1.2063,-1.7534,-1.999999999990898e-05,-4.999999999988347e-05,-9.99999999995449e-06,-5.5229241951337826e-05,0.0002443241239695748,0.00014477745897245597
150000000000.0,3,-0.07975748444999999,-0.02382035285,0.01171894675,-0.008676,0.010328,-0.007151,-3.4173233255,-9.162156962,0.7402157486500001,-1.7841,1.2062,-1.7535,-2.0000000000131024e-05,-4.999999999988347e-05,-7.00000000000145e-05,-0.000201558878798469,0.0003851874683467038,-4.883091347140933e-05
150000000000.0,3,-0.0566039838,0.00367749375,0.008757338449999999,0.009424,0.00698,-0.004977,-3.4177155914999995,-9.161960829,0.74062762795,-1.7842,1.2062,-1.7533,-1.999999999990898e-05,-5.0000000000105516e-05,-9.99999999995449e-06,-5.454629538159672e-05,-0.00026731819676450996,0.00019366526060382583
150000000000.0,3,-0.0232417605,0.04765051234999999,0.0125328987,0.008336,0.004857,-0.003905,-3.418009791,-9.161764695999999,0.7413435133999999,-1.7844,1.2061,-1.7531,-2.0000000000131024e-05,-5.0000000000105516e-05,-6.0000000000060005e-05,-0.00021689688901660453,0.0002198386266873964,0.00014856772655891248
150000000000.0,3,0.0019024901,0.0591733261,-0.00410898635,0.015759,0.000531,-0.001749,-3.4181078575,-9.161666629499999,0.7425693446499999,-1.7847,1.2061,-1.7527,-1.999999999990898e-05,-4.999999999988347e-05,0.000140000000000029,4.997261096040262e-06,-0.0004883624619658189,0.00015067064159568488
150000000000.0,3,0.006982334799999999,0.04480658385,-0.0163182656,0.014686,0.000539,-0.000683,-3.4183039904999997,-9.1614704965,0.7437069160499999,-1.785,1.206,-1.7524,9.999999999998899e-05,-3.333333333332966e-05,-0.0001100000000000545,0.0002996260363903325,-2.754508548430401e-05,0.00020182670624135923
150000000000.0,3,0.00730595425,0.0083748791,-0.0117091401,0.009341,0.000581,0.001442,-3.4183039904999997,-9.16137243,0.7444816414,-1.7852,1.206,-1.7521,4.999999999988347e-05,-3.333333333332966e-05,-4.999999999999449e-05,0.00047776882649830377,0.00039449472013153297,-0.00025675302991734483
150000000000.0,3,-0.0149649479,-0.024497011699999998,-0.017897136249999997,0.008262,-0.001539,0.000377,-3.4185001235,-9.161274363499999,0.7449915871999999,-1.7854,1.206,-1.752,5.0000000000105516e-05,-3.333333333332966e-05,-0.00013999999999991797,1.9292509559454274e-05,0.001333217345232729,-0.0001243119411373783
150000000000.0,3,-0.01834824215,-0.0440710851,-0.03794192885,0.005048,-0.003642,-0.000692,-3.4184020569999998,-9.16137243,0.7449719739,-1.7854,1.206,-1.752,-9.999999999998899e-05,-5.0000000000105516e-05,0.00018999999999991246,0.0003734823626531103,-0.000992508284023641,-9.282721007375372e-05
150000000000.0,3,-0.014337322299999998,-0.0437572723,-0.015975032849999998,0.002917,-0.005751,-0.004962,-3.4179117244999997,-9.1614704965,0.74515830025,-1.7855,1.206,-1.752,6.666666666665932e-05,-4.999999999988347e-05,7.00000000000145e-05,-0.0007715620262516154,5.200731930932179e-05,-2.331271063926721e-05
150000000000.0,3,-0.0059036033,-0.036843584049999996,0.01548470035,0.002973,-0.001485,-0.009239,-3.4169310595,-9.1618627625,0.7457172793,-1.7857,1.2061,-1.7518,6.666666666665932e-05,-4.999999999988347e-05,-9.99999999995449e-06,0.00019818561178075456,3.5269682364003074e-05,-8.320793742067067e-05
150000000000.0,3,-0.00824739265,-0.0278901126,0.01501398115,0.001907,-0.001476,-0.009241,-3.4160484609999995,-9.1620588955,0.74619780515,-1.7859,1.2062,-1.7516,6.666666666665932e-05,-5.0000000000105516e-05,-0.00048000000000003595,-0.00034062315906346896,0.003059483823911968,0.00015579959292466583
150000000000.0,3,-0.0165340119,-0.0034323275,0.01826978895,0.005064,-0.003639,-0.003894,-3.415656195,-9.162156962,0.7469725305,-1.7861,1.2062,-1.7514,-9.999999999998899e-05,-2.4999999999941735e-05,0.00026999999999999247,-7.11492553246984e-05,-0.0012373206819826787,0.00019199928336988137
150000000000.0,3,-0.013101684399999999,0.0117287534,0.0413056098,0.005047,-0.004707,-0.001757,-3.415656195,-9.1620588955,0.74833565485,-1.7865,1.2062,-1.751,9.999999999998899e-05,-2.500000000016378e-05,-0.00010999999999994348,7.065168457209836e-05,0.0004757772670320737,-5.5671769839449325e-05
150000000000.0,3,-0.0018632635,0.004971971549999999,0.0673520722,0.005199,0.011279,-0.006054,-3.4154600619999997,-9.1620588955,0.7498164589999999,-1.7869,1.2062,-1.7505,9.999999999998899e-05,-2.4999999999941735e-05,-0.000160000000000049,-0.00018793144437490028,0.0008412516542284365,6.0927156412038386e-05
150000000000.0,3,-0.0019024901,-0.005756503549999999,0.02478140455,0.004103,0.010217,-0.001785,-3.415263929,-9.1620588955,0.7501891116999999,-1.787,1.2062,-1.7503,-5.0000000000105516e-05,-2.4999999999941735e-05,6.0000000000060005e-05,-3.229856182973556e-05,4.75222559979116e-05,0.00013106052395484014
150000000000.0,3,-0.044826197150000004,0.010022396299999998,0.00756092715,0.002922,-0.001499,0.002506,-3.4161465274999996,-9.161666629499999,0.7506598309,-1.7871,1.2061,-1.7502,-4.999999999988347e-05,-3.333333333332966e-05,5.999999999994898e-05,-0.0005489115516350562,-0.0009529927088633983,0.00029493632479526966
150000000000.0,3,-0.0095124505,0.0013337044,0.03080268765,0.001935,0.007036,0.000355,-3.416440727,-9.161568563,0.75119919665,-1.7872,1.2061,-1.75,4.999999999988347e-05,-3.333333333332966e-05,-9.99999999995449e-06,-4.7039964031547754e-05,-7.48769746985456e-05,0.00015972089451743443
150000000000.0,3,-0.01303303785,0.014268675749999998,0.0001765197,0.004079,0.007021,-0.001775,-3.4166368599999997,-9.1614704965,0.7513070698,-1.7872,1.206,-1.75,5.0000000000105516e-05,-3.333333333332966e-05,4.999999999921734e-06,5.553353061449329e-05,-0.00016005158194620783,5.591838889129619e-05
150000000000.0,3,-0.036529771249999995,0.0168085981,0.014513841999999999,0.009366,0.001648,-0.000687,-3.417225259,-9.161176296999999,0.7522288948999999,-1.7875,1.206,-1.7497,5.0000000000105516e-05,-9.090909090847532e-06,5.000000000032756e-06,-1.946358693283301e-05,-1.799749827879893e-05,3.8450584642024666e-05
150000000000.0,3,-0.0230848541,-0.0193191005,0.011385520649999998,0.007226,-0.000463,-0.002821,-3.417225259,-9.1610782305,0.75312130005,-1.7877,1.2059,-1.7494,4.999999999988347e-05,-9.090909091069577e-06,-7.999999999996898e-05,-5.1048359371419494e-05,0.0002519930997839648,-3.496890917720208e-06
150000000000.0,3,-0.0164359454,-0.032469818149999996,0.027546879849999997,0.005116,0.001687,-0.003896,-3.417029126,-9.1610782305,0.7540137051999999,-1.788,1.2059,-1.7491,1.999999999990898e-05,-9.090909090847532e-06,5.999999999994898e-05,-7.790775729854538e-05,-0.000265574447185557,-4.0812169466164505e-07
150000000000.0,3,-0.0104538889,-0.0421097551,0.03649054465,0.002967,-0.000427,-0.003896,-3.4165387934999996,-9.161176296999999,0.7549453369499999,-1.7883,1.206,-1.7488,2.0000000000131024e-05,-9.090909090847532e-06,-2.999999999997449e-05,8.795424513863281e-05,9.295755989580101e-05,-6.269556416427235e-05
150000000000.0,3,0.00475622525,-0.03178335265,0.0290080707,0.007218,-0.002594,-0.003886,-3.415852328,-9.16137243,0.75614174825,-1.7886,1.206,-1.7485,1.999999999990898e-05,-9.090909090847532e-06,7.999999999996898e-05,-0.00023154778776479645,-0.0003250346609398047,-0.00012382179305969743
150000000000.0,3,0.026075882349999996,-0.01972117315,0.0131212977,0.006146,-0.002587,-0.002822,-3.4150677959999998,-9.161568563,0.75690666695,-1.7889,1.2061,-1.7482,2.0000000000131024e-05,-9.090909091069577e-06,-4.999999999999449e-05,-9.367068305810022e-05,4.446561727444731e-05,1.6456114712681824e-05
150000000000.0,3,0.0312047603,-0.0064920023,0.00783551335,0.009339,-0.003679,-0.002816,-3.4141851975,-9.161764695999999,0.7581521115,-1.7893,1.2061,-1.7479,1.999999999990898e-05,-9.090909090847532e-06,-8.999999999992347e-05,0.0003415579990568851,0.00015083835951057445,-4.430779570219201e-05
150000000000.0,3,0.0411683167,0.010091042849999999,0.011385520649999998,0.004017,-0.001506,-0.001764,-3.4134006654999998,-9.1620588955,0.75865225065,-1.7895,1.2062,-1.7477,2.4999999999941735e-05,-9.090909090847532e-06,-3.0000000000085514e-05,-0.00016688145813259503,0.0002939919033213556,-3.833459142876805e-05
150000000000.0,3,0.023124080699999997,0.0082179727,-0.0132193642,0.01147,-0.002634,-0.000682,-3.4130083995,-9.162156962,0.7594662026,-1.7898,1.2062,-1.7475,2.500000000016378e-05,-9.090909090847532e-06,2.0000000000020002e-05,-0.0003401017769839587,2.7474746006062034e-05,3.3999088673297706e-06
150000000000.0,3,0.00410898635,-0.005236751099999999,-0.046895400299999994,0.011386,-0.012224,0.000402,-3.4128122664999996,-9.162156962,0.76006440825,-1.7899,1.2062,-1.7474,2.4999999999941735e-05,-9.090909091069577e-06,-7.999999999996898e-05,-6.469936161490608e-05,0.0005306643954510193,-0.00019664017579401616
150000000000.0,3,-0.0137489233,-0.0325188514,-0.01644575205,0.005024,-0.007907,-0.000684,-3.4128122664999996,-9.162156962,0.7607410671,-1.7901,1.2062,-1.7472,2.4999999999941735e-05,-9.090909090847532e-06,-0.00014999999999998348,5.133956981517862e-05,0.00048285010107296245,-0.000167171814619671
150000000000.0,3,0.0018142302499999999,-0.040177845049999994,-0.0219276694,0.001856,-0.003619,-0.000698,-3.4125180669999997,-9.162255028499999,0.76069203385,-1.7901,1.2063,-1.7473,-9.999999999998899e-05,9.999999999998899e-05,0.00024000000000001798,-3.52515391115471e-05,-0.001048387258772765,1.5040389289122658e-05
150000000000.0,3,-0.0137096967,-0.039079500249999996,-0.0180638493,0.000763,-0.006806,-0.000695,-3.4124200004999996,-9.162255028499999,0.7605645473999999,-1.7901,1.2063,-1.7474,1.666666666655381e-05,-2.4999999999941735e-05,9.99999999995449e-06,-5.1435258534571204e-06,-0.00039349018030865324,-0.00016138386514574776
150000000000.0,3,0.014719781649999998,-0.0418743955,-0.008600432049999999,-0.000361,-0.013192,0.000381,-3.4118316015,-9.1624511615,0.7608195202999999,-1.7902,1.2063,-1.7474,1.6666666666775853e-05,-2.500000000016378e-05,-2.999999999997449e-05,4.834330481262583e-06,0.0004442628198606524,-5.100596542551017e-05
150000000000.0,3,0.0197309798,-0.04704250005,-0.0056094038,-0.000361,-0.013192,0.000379,-3.4111451359999996,-9.162745360999999,0.76128043285,-1.7904,1.2064,-1.7473,1.6666666666775853e-05,-2.4999999999941735e-05,9.99999999995449e-06,-6.270105064709597e-06,-0.0004816270815724,-9.680326880490142e-05
150000000000.0,3,0.026203368799999998,-0.04582647545,-0.0058251501,-0.003552,-0.013163,-0.001764,-3.4102625375,-9.1630395605,0.7613490794,-1.7904,1.2065,-1.7474,1.666666666655381e-05,-2.4999999999941735e-05,-5.999999999994898e-05,-0.00030028045525343217,0.00034496291364671805,-7.86445692591009e-05
150000000000.0,3,0.023349633649999996,-0.0251246373,-0.0017063571,-0.001429,-0.013183,0.000373,-3.4096741385,-9.1632356935,0.7615648257,-1.7905,1.2065,-1.7474,1.666666666655381e-05,-1.999999999990898e-05,0.00012999999999996348,-0.00012505590609279693,-0.00039836181048946706,-0.0001892920720560909
150000000000.0,3,0.01397447625,-0.0055505638999999996,-0.00787473995,0.001799,-0.011076,-0.00176,-3.4092818725,-9.163333759999999,0.7618982517999999,-1.7907,1.2066,-1.7474,1.6666666666775853e-05,-2.0000000000131024e-05,-0.00021999999999999797,8.595844495040694e-05,0.0008923390563231326,-0.00016493813003837232
150000000000.0,3,-0.00267721545,-0.00012748645,-0.016504591949999998,0.003927,-0.011095,-0.000689,-3.4090857394999996,-9.163431826499998,0.76230032445,-1.7908,1.2066,-1.7474,3.333333333332966e-05,-1.999999999990898e-05,2.0000000000020002e-05,-6.541020391681585e-05,0.0002440591959209648,3.3300422957349696e-05
150000000000.0,3,-0.01913277415,0.00495235825,-0.0289492308,0.003954,-0.008961,-0.002827,-3.4090857394999996,-9.163333759999999,0.7624768441499999,-1.7908,1.2066,-1.7474,3.333333333332966e-05,-2.0000000000131024e-05,9.99999999995449e-06,8.053500593341312e-05,-0.0004590544349374337,-0.0001176184765849797
150000000000.0,3,-0.03233252505,0.0041384062999999995,-0.0519360184,0.000771,-0.005738,-0.001769,-3.4092818725,-9.163333759999999,0.76196689835,-1.7907,1.2066,-1.7476,3.333333333332966e-05,-1.999999999990898e-05,-4.999999999999449e-05,-0.00010850175107002258,0.00018845842094017407,-7.796306086138571e-05
150000000000.0,3,-0.0293611101,0.0026281822,-0.0618603482,-0.003513,-0.006768,-0.000705,-3.4095760719999997,-9.163333759999999,0.7609666200499999,-1.7904,1.2066,-1.748,-3.333333333332966e-05,-5.0000000000105516e-05,3.0000000000085514e-05,6.486491201229683e-05,-0.0005618802265805467,-0.00011806568249284055
150000000000.0,3,-0.016622271749999997,0.00195152335,-0.0716669982,-0.000335,-0.009989,-0.001761,-3.4096741385,-9.163333759999999,0.7599957616999999,-1.7901,1.2066,-1.7483,-3.333333333332966e-05,-4.999999999988347e-05,-4.0000000000040004e-05,-0.0002309146585699473,-5.02035420784086e-05,0.00013358073208591392
150000000000.0,3,0.0080806796,0.01030678915,-0.04490465034999999,0.00073,-0.009997,-0.001759,-3.409379939,-9.163529893,0.7597309821499999,-1.7901,1.2066,-1.7484,-3.333333333332966e-05,-4.999999999988347e-05,9.99999999995449e-06,-0.00011040130945305648,0.00030258611881239794,5.403108718882166e-05
150000000000.0,3,-0.00410898635,-0.0048052584999999995,-0.04254124769999999,0.00397,-0.006823,-0.004961,-3.4089876729999995,-9.1636279595,0.7596034957,-1.79,1.2067,-1.7485,9.999999999998899e-05,-5.0000000000105516e-05,-1.4999999999987246e-05,8.685460984514393e-05,-0.0004632541468059248,0.00014449121709292356
150000000000.0,3,-0.01654381855,-0.02207476915,-0.04372785235,0.002908,-0.004684,-0.002831,-3.40879154,-9.163726025999999,0.7592896828999999,-1.79,1.2067,-1.7486,9.999999999998899e-05,-5.0000000000105516e-05,-1.4999999999987246e-05,-0.00018404868957166975,-0.0003922971790117913,0.00036324346232241567
150000000000.0,3,-0.0477976121,-0.0183580488,-0.01772061655,0.001886,0.001717,-0.001775,-3.4092818725,-9.163529893,0.7591818097499999,-1.7899,1.2066,-1.7487,9.999999999998899e-05,-4.999999999988347e-05,-0.00022999999999995246,-0.00017218786002382025,0.0007174603594712892,9.608220812618029e-05
150000000000.0,3,-0.05215176469999999,-0.00442279915,-0.0006276255999999999,0.002987,0.005971,-0.001778,-3.4100664044999998,-9.1632356935,0.7592896828999999,-1.7899,1.2066,-1.7486,1.4285714285744433e-05,-4.999999999988347e-05,1.999999999990898e-05,-4.052867837955887e-05,-0.0002098660602873892,0.00012193811766092466
150000000000.0,3,-0.06043838395,0.007462860649999999,0.012572125299999999,0.004052,0.007026,0.00036,-3.4110470694999995,-9.162941494,0.7595544624499999,-1.7899,1.2064,-1.7485,1.4285714285744433e-05,-5.0000000000105516e-05,-0.00011999999999989797,-9.654105819656422e-05,0.0006596430551060184,-5.0379311333337284e-05
150000000000.0,3,-0.0372260434,0.00018632635,-0.000784532,0.005124,0.007019,-0.000704,-3.4116354684999997,-9.1626472945,0.75975059545,-1.7899,1.2064,-1.7484,1.4285714285744433e-05,-5.0000000000105516e-05,-9.99999999995449e-06,-0.0001664196235382498,-2.157464958263411e-05,2.5930452538514004e-05
150000000000.0,3,-0.027576299799999995,-0.009483030549999999,-0.01519050085,0.003012,0.009169,-0.001778,-3.4120277345,-9.162549228,0.7591818097499999,-1.7897,1.2063,-1.7485,1.4285714285522388e-05,-5.0000000000105516e-05,-1.0000000000065512e-05,-9.614624353804224e-05,3.543370000969048e-05,8.088346656798251e-05
150000000000.0,3,-0.022427808549999997,-0.02058415835,-0.011934693049999999,0.001924,0.005982,-0.00284,-3.4120277345,-9.162549228,0.759230843,-1.7897,1.2063,-1.7484,1.4285714285744433e-05,-3.333333333332966e-05,2.999999999997449e-05,4.490779798271838e-05,-0.00035631232339605745,-0.00012128349242113146
150000000000.0,3,0.0025987622499999996,-0.0233594403,0.010247949249999999,-0.001217,0.011339,-0.006058,-3.411537402,-9.162745360999999,0.7590347099999999,-1.7897,1.2064,-1.7483,1.4285714285744433e-05,-3.333333333332966e-05,-2.999999999997449e-05,6.022873931410544e-05,8.480756154560787e-05,-1.742160968554174e-05
150000000000.0,3,0.02923362365,-0.029057103949999996,0.02470295135,0.000905,0.009191,-0.00712,-3.4102625375,-9.163137627,0.7592504563,-1.7899,1.2065,-1.7481,1.4285714285744433e-05,-3.333333333332966e-05,-2.0000000000020002e-05,-0.0002575764645242895,-9.350878298786114e-05,9.451124230830388e-05
150000000000.0,3,0.044855617099999995,-0.0216923098,0.046581587499999993,-0.000194,0.004937,-0.007117,-3.4088896064999994,-9.1636279595,0.75980943535,-1.7901,1.2067,-1.7478,-9.999999999998899e-05,-1.6666666666775853e-05,-1.0000000000065512e-05,-3.858917840027232e-05,-6.05295928879368e-05,-0.00013589494247767675
150000000000.0,3,0.05251461075,-0.0039030467,0.04088392385,0.004045,0.001703,-0.006039,-3.4075166754999997,-9.164118292,0.76057435405,-1.7904,1.2068,-1.7475,-5.0000000000105516e-05,-1.666666666655381e-05,-5.999999999994898e-05,-0.00016152753202391956,3.675332511487994e-05,-5.248588623230077e-05
150000000000.0,3,0.057859234999999995,0.002157463,0.0327738243,0.005063,-0.002572,-0.002831,-3.4063398775,-9.164412491499998,0.76165308555,-1.7908,1.2069,-1.7471,-4.999999999988347e-05,-1.666666666655381e-05,7.00000000000145e-05,-4.191457528301967e-05,-0.00020256009657448892,-0.0002435502221440622
150000000000.0,3,0.0650377028,0.006207609449999999,0.03584330575,0.008246,-0.003667,-0.000692,-3.4050650129999998,-9.164804757499999,0.7632221495499999,-1.7913,1.207,-1.7466,-4.999999999988347e-05,-1.6666666666775853e-05,-2.0000000000020002e-05,-7.950409223678179e-05,3.459323325794017e-05,2.189245116746008e-06
150000000000.0,3,0.08269947944999999,-0.0009120184499999999,0.0313616667,0.008199,-0.008997,0.000381,-3.4037901484999997,-9.165098957,0.7648598600999998,-1.7918,1.2071,-1.7462,-5.0000000000105516e-05,-1.6666666666775853e-05,-5.999999999994898e-05,-0.0001536209345340822,0.0002473181536011282,-0.0002862954993769762
150000000000.0,3,0.09542851114999999,-0.009943943099999998,0.009345737449999999,0.008203,-0.007933,0.001442,-3.4024172174999996,-9.1655892895,0.7660758847,-1.7923,1.2072,-1.7458,9.999999999998899e-05,-1.666666666655381e-05,-9.00000000000345e-05,-0.00012362703148660614,-0.00015647286587805453,-5.815025770683491e-05
150000000000.0,3,0.0846117762,-0.02083913125,-0.0017063571,0.009255,-0.011137,-0.00069,-3.4008481534999997,-9.1659815555,0.7672526827,-1.7927,1.2073,-1.7455,-9.999999999998899e-05,-2.4999999999941735e-05,0.000140000000000029,-0.00035994835767994005,-0.0007748083132639305,-0.000127028733450274
150000000000.0,3,0.04969029555,-0.02601704245,-0.012778064949999998,0.011356,-0.01648,-0.002815,-3.3996713554999998,-9.1663738215,0.7684490939999999,-1.7931,1.2074,-1.7452,-5.0000000000105516e-05,-2.500000000016378e-05,-4.999999999999449e-05,0.00012187019713749692,-0.00021492760286090373,-5.530244293172615e-05
150000000000.0,3,0.014592295199999999,-0.02948859655,-0.030057382249999997,0.011353,-0.018608,-0.006014,-3.3986906904999996,-9.166668021,0.7695670521,-1.7935,1.2075,-1.745,-4.999999999988347e-05,-2.4999999999941735e-05,6.999999999990347e-05,-0.0001630130554310938,-0.0007548549110085734,-5.5492288092651165e-05
150000000000.0,3,-0.0030302548499999997,-0.023692866400000002,-0.0474445727,0.012455,-0.018608,-0.013485,-3.3973177595,-9.167060287,0.7704888771999999,-1.7938,1.2076,-1.7448,9.999999999998899e-05,-2.4999999999941735e-05,-0.00010999999999994348,-0.00028490566190297884,0.00012370090882773965,-0.00017531200903020405
150000000000.0,3,-0.014298095700000001,-0.014866881399999999,-0.0367945508,0.008192,-0.018571,-0.014559,-3.3959448285,-9.167452552999999,0.7713714757,-1.7942,1.2078,-1.7446,-5.0000000000105516e-05,-9.999999999998899e-05,7.00000000000145e-05,-0.00032413459931079913,-0.0008371253668340017,-0.00043604669983432487
150000000000.0,3,-0.0327934376,0.0020299765499999997,-0.027586106449999998,0.009244,-0.019646,-0.013486,-3.3949641634999996,-9.1677467525,0.7723325274,-1.7945,1.2078,-1.7444,-4.999999999988347e-05,-5.0000000000105516e-05,-1.0000000000065512e-05,0.0007260615620396926,0.0002022148083036246,-0.0007687462763121822
150000000000.0,3,-0.027615526399999996,0.030400614999999995,-0.01928968055,0.0167,-0.019709,-0.011337,-3.394277698,-9.167844818999999,0.7740584978,-1.795,1.2079,-1.7441,-4.999999999988347e-05,-4.999999999988347e-05,3.0000000000085514e-05,-8.477134790263463e-05,-0.0006731424343264791,-0.00038194818972181466
150000000000.0,3,-0.0223983886,0.044845810449999995,-0.01413138265,0.020929,-0.021879,-0.007054,-3.3939834985,-9.1677467525,0.77638267385,-1.7957,1.2079,-1.7436,-5.0000000000105516e-05,-4.999999999988347e-05,-7.00000000000145e-05,-6.290075495751779e-05,0.0002750547482728294,-0.0003225001337021638
150000000000.0,3,-0.021741343049999997,0.030655587899999996,-0.020201699,0.023082,-0.018701,-0.005987,-3.3937873654999997,-9.167648686,0.7788637563,-1.7964,1.2078,-1.743,-5.0000000000105516e-05,-5.0000000000105516e-05,2.999999999997449e-05,-0.00018307455856270138,-0.0002567533226889296,-0.0002879857613731218
150000000000.0,3,-0.018259982299999998,0.0013729309999999998,-0.0327738243,0.024132,-0.018712,-0.002782,-3.393493166,-9.1675506195,0.7812565789,-1.7971,1.2078,-1.7425,-4.999999999988347e-05,-3.333333333332966e-05,-2.999999999997449e-05,8.205495287838538e-05,-8.734702428014884e-07,-0.00012634100282138405
150000000000.0,3,-0.028056825649999995,-0.026850607699999997,-0.0438357255,0.020918,-0.020815,-0.00385,-3.3932970329999996,-9.167452552999999,0.7831982956,-1.7976,1.2078,-1.742,-9.999999999998899e-05,-3.333333333332966e-05,-4.999999999999449e-05,0.00046863545570530185,-0.00011566224108539025,5.110229940141764e-05
150000000000.0,3,-0.021849216199999997,-0.0557213853,-0.05778078179999999,0.019843,-0.020806,-0.002784,-3.392904767,-9.167452552999999,0.78471832635,-1.7981,1.2078,-1.7417,9.999999999998899e-05,-3.333333333332966e-05,-0.00012000000000000899,0.00011117856464082365,0.0004650764573923549,-0.00017669901610428695
150000000000.0,3,-0.02217283565,-0.06753839854999999,-0.0632725058,0.013467,-0.018619,-0.004934,-3.3922183015,-9.167648686,0.7855715048999999,-1.7984,1.2078,-1.7416,-9.999999999998899e-05,-9.999999999998899e-05,-2.0000000000020002e-05,0.00015037460231903665,7.013611724904223e-05,2.737031533461831e-05
150000000000.0,3,-0.02670350795,-0.042923707049999996,-0.0596048187,0.01456,-0.014366,-0.003872,-3.391924102,-9.1677467525,0.78624816375,-1.7986,1.2078,-1.7415,-3.333333333332966e-05,-9.999999999998899e-05,-9.99999999995449e-06,-3.131840688386234e-05,8.881641437530341e-05,-0.00017634410558198255
150000000000.0,3,-0.02474217795,-0.021290237150000002,-0.04746418599999999,0.008181,-0.013244,-0.007086,-3.3915318359999995,-9.167844818999999,0.7871209556,-1.7988,1.2079,-1.7413,-3.333333333332966e-05,-4.999999999988347e-05,-4.0000000000040004e-05,-0.00015100333913986574,-0.0003909175518552743,1.9139959964054043e-05
150000000000.0,3,-0.0262425954,-0.004903325,-0.06710690595,0.011451,-0.006871,-0.01136,-3.3908453705,-9.168040952,0.7871601822000001,-1.7989,1.2079,-1.7413,-3.333333333332966e-05,-5.0000000000105516e-05,9.99999999995449e-06,-0.00014498771814608347,0.00035811712281952346,0.00027827991794726614
150000000000.0,3,-0.03702010375,-0.0057859235,-0.06865635665,0.009304,-0.006855,-0.009227,-3.3904531044999997,-9.168237085,0.7870621157,-1.7989,1.208,-1.7413,-1.6666666666775853e-05,-9.999999999998899e-05,-9.99999999995449e-06,0.0001592226083420023,0.00012538829492414472,-3.0954817473283214e-05
150000000000.0,3,-0.0708236263,0.0004903325,-0.0368926173,0.013616,-0.000497,-0.00816,-3.390747304,-9.168040952,0.78762109475,-1.799,1.2079,-1.7412,-1.666666666655381e-05,-9.999999999998899e-05,-2.0000000000020002e-05,0.00015792288083726902,-4.5847583104219325e-05,-0.00016528824362271877
150000000000.0,3,-0.08420970354999999,-0.0059036033,-0.0067469752,0.0105,0.010186,-0.008181,-3.3912376364999997,-9.1677467525,0.7883075602499999,-1.7992,1.2078,-1.7409,-1.666666666655381e-05,-9.999999999998899e-05,7.999999999996898e-05,0.00015167510788915983,-0.0002883263102078093,0.0002212388181934699
150000000000.0,3,-0.08819120344999999,-0.00253992235,-0.01825017565,0.0105,0.012314,-0.004978,-3.3922183015,-9.167354486499999,0.7885919531,-1.7992,1.2077,-1.7408,-1.6666666666775853e-05,-0.00019999999999997797,-1.999999999990898e-05,0.00017523152977294565,0.00012326490862424322,0.00034347399345779905
150000000000.0,3,-0.08981910735,-0.020338992099999998,-0.035490266349999994,0.006265,0.016613,-0.004989,-3.3931008999999994,-9.1671583535,0.78801336075,-1.799,1.2077,-1.7408,-1.6666666666775853e-05,-9.999999999998899e-05,-7.00000000000145e-05,-0.00034980192399403087,-0.00020484830323130865,0.0006589429080330333
150000000000.0,3,-0.06777375814999999,-0.033450483149999995,-0.0356569794,0.003106,0.021968,-0.005001,-3.3936892989999996,-9.167060287,0.78699346915,-1.7987,1.2076,-1.7409,-1.666666666655381e-05,-9.999999999998899e-05,4.499999999996174e-05,-2.1322464433870536e-05,0.00019397565092993396,0.00024926238417943836
150000000000.0,3,-0.038569554449999995,-0.025212897149999997,0.017995202749999998,0.004221,0.027288,-0.006075,-3.3936892989999996,-9.167060287,0.78675810955,-1.7986,1.2076,-1.7407,-1.666666666655381e-05,-9.999999999998899e-05,4.499999999996174e-05,0.00026514961211487886,-0.00042396739491534774,0.0006307787112267427
150000000000.0,3,-0.0008041452999999999,-0.016141745899999997,0.0443652846,0.002078,0.027303,-0.003944,-3.3933950994999997,-9.1671583535,0.7867286896,-1.7986,1.2077,-1.7404,-1.6666666666775853e-05,-9.999999999998899e-05,-6.999999999990347e-05,-7.451562546179069e-05,0.0007100226989320557,0.00033987223606724015
150000000000.0,3,0.030655587899999996,-0.02970434285,0.055897905,0.003146,0.025165,-0.007143,-3.3924144345,-9.167452552999999,0.78701308245,-1.7988,1.2078,-1.74,-1.6666666666775853e-05,-9.999999999998899e-05,4.999999999999449e-05,0.0002451016002427142,-0.0005866380347567812,0.00043522062673684303
150000000000.0,3,0.05579003184999999,-0.02442836515,0.0648415698,0.0085,0.027251,-0.00714,-3.390943437,-9.167942885499999,0.78779761445,-1.7991,1.2079,-1.7394,-1.666666666655381e-05,-0.00010000000000021103,9.99999999995449e-06,-0.00034343007530335257,-0.00022301690426562715,0.0001243325972586362
150000000000.0,3,0.0205743517,0.0053544309,0.05767290864999999,0.011684,0.026156,-0.004999,-3.3902569715,-9.1681390185,0.7888273127,-1.7994,1.2079,-1.7388,-1.666666666655381e-05,-9.999999999998899e-05,5.999999999994898e-05,0.00014702816705858268,-0.0005400260334194051,0.00015016837152748153
150000000000.0,3,-0.00271644205,0.03666706435,0.0559567449,0.013771,0.024,0.001414,-3.3906492375,-9.167844818999999,0.79024927695,-1.7998,1.2079,-1.7382,-1.6666666666775853e-05,-4.999999999988347e-05,-2.999999999997449e-05,-0.0002765115715548383,0.0006048113869494554,0.00040348051609884195
150000000000.0,3,-0.0102381426,0.048895956899999996,0.04674830055,0.019071,0.020757,0.003565,-3.3914337695,-9.167354486499999,0.79226944685,-1.8003,1.2077,-1.7374,-2.4999999999941735e-05,-5.0000000000105516e-05,-9.99999999995449e-06,0.00014546394854408895,-0.00011160043078883852,0.00041052800206475837
150000000000.0,3,-0.00661948875,0.022672974799999995,0.04139386965,0.013792,0.02613,0.001412,-3.3921202349999997,-9.167060287,0.7935835379499999,-1.8006,1.2076,-1.7369,-2.4999999999941735e-05,-9.999999999998899e-05,4.999999999999449e-05,0.00019348800575635927,-0.0006551976651960612,0.0004872510931601681
150000000000.0,3,0.009169217749999998,-0.03596098555,0.04521846314999999,0.010688,0.034685,-0.003947,-3.3918260355,-9.167060287,0.7942503901499999,-1.8008,1.2076,-1.7364,-2.500000000016378e-05,-4.999999999988347e-05,-2.999999999997449e-05,-0.00011696863659804713,0.0002603824916314057,0.00041949267442564775
150000000000.0,3,-0.00722750105,-0.0645865969,0.058624153699999994,0.008604,0.04003,-0.005028,-3.3915318359999995,-9.1671583535,0.7946132362,-1.8009,1.2077,-1.7358,-2.4999999999941735e-05,-5.0000000000105516e-05,0.00023999999999990695,0.00014512741960004405,-0.0015623585026562914,0.0006055215801827885
150000000000.0,3,-0.00899269805,-0.05845744065,0.09421248654999999,0.00756,0.041105,-0.007168,-3.390943437,-9.16725642,0.7953781549,-1.8012,1.2077,-1.7352,-6.666666666665932e-05,3.333333333332966e-05,5.0000000000105516e-05,-0.0001564437733756474,-0.00018046218923961632,0.0003521217869071336
150000000000.0,3,0.01073828175,-0.039177566750000004,0.11182522995,0.008618,0.040028,-0.006098,-3.3902569715,-9.167452552999999,0.7966235994499999,-1.8016,1.2077,-1.7344,-6.666666666665932e-05,3.333333333332966e-05,-3.0000000000085514e-05,0.00013683499903427432,-0.0002722191555850628,0.0005266926405025352
150000000000.0,3,0.043541526000000004,-0.0387951074,0.1065590589,0.012879,0.039989,-0.003959,-3.3892763064999993,-9.167648686,0.79815343685,-1.8021,1.2078,-1.7335,-6.666666666665932e-05,3.333333333332966e-05,0.00031000000000003247,2.1418769653447356e-05,-0.0022349615932653055,0.0002733594945261153
150000000000.0,3,0.046758107199999996,-0.05104361325,0.11423766584999999,0.012871,0.041048,0.000306,-3.3884917745,-9.167844818999999,0.79974211415,-1.8026,1.2079,-1.7326,9.999999999998899e-05,2.4999999999941735e-05,-0.00027999999999994696,-0.00010216072390667463,0.0018885869761007257,-0.0001596220446962171
150000000000.0,3,0.06959779505,-0.05639804415,0.10129288784999999,0.015988,0.031428,0.002458,-3.3875111095,-9.168040952,0.8016151842999999,-1.8032,1.2079,-1.7317,-9.999999999998899e-05,2.4999999999941735e-05,-7.00000000000145e-05,-6.844784973614182e-05,0.0006824878050466499,-8.204503961772858e-05
150000000000.0,3,0.0992040714,-0.06387071144999999,0.0569766365,0.005199,0.019784,0.007792,-3.386432378,-9.1683351515,0.8026939157999999,-1.8035,1.208,-1.7311,-9.999999999998899e-05,2.500000000016378e-05,9.99999999995449e-06,0.0001409713929041434,-0.00022532650227669038,-0.0001294646647149733
150000000000.0,3,0.1051469013,-0.047101339949999994,0.018691474899999998,0.005104,0.009126,0.00994,-3.3855497795,-9.168629351,0.80311560175,-1.8037,1.2081,-1.7308,-4.999999999988347e-05,2.4999999999941735e-05,-2.0000000000020002e-05,-0.000109974443897487,-5.010405569660925e-05,-0.0003010491524229053
150000000000.0,3,0.12208298584999999,-0.0143765489,-0.0080806796,0.003942,-0.004715,0.006754,-3.3843729814999994,-9.169021617,0.8034098012499999,-1.8039,1.2082,-1.7307,-5.0000000000105516e-05,5.0000000000105516e-05,2.999999999997449e-05,-0.00031878154989706253,2.7800630785890235e-05,-0.0006042767344220934
150000000000.0,3,0.1285259549,0.012836904849999999,-0.00420705285,-0.000367,-0.0132,0.001418,-3.382705851,-9.169610016,0.8037236140499999,-1.8041,1.2084,-1.7306,-0.00010000000000021103,4.999999999988347e-05,-2.999999999997449e-05,-0.0001037278697253452,0.00023609275364000482,-3.2945870254152965e-05
150000000000.0,3,0.10215587304999998,0.015759286549999998,-0.0045110589999999996,-0.001466,-0.018517,-0.000714,-3.3811367869999995,-9.1701003485,0.80417471995,-1.8043,1.2085,-1.7305,-1.999999999990898e-05,4.999999999988347e-05,-0.00017999999999995797,-0.00028704942184853977,0.0012553876783656381,-0.0002804949628507636
150000000000.0,3,0.0662733407,-0.00295180165,-0.0050798447,-0.000363,-0.015328,-0.002856,-3.3798619225,-9.170590680999998,0.8045964058999999,-1.8045,1.2087,-1.7305,-2.0000000000131024e-05,5.0000000000105516e-05,3.999999999992898e-05,0.00036281448187258647,-0.00041502635040568947,0.00029801637495063815
150000000000.0,3,-0.01315071765,-0.019466200249999996,0.0407760507,-0.000369,-0.014266,0.000345,-3.379763856,-9.170492614499999,0.8057241706499999,-1.8048,1.2086,-1.7303,-1.999999999990898e-05,2.0000000000131024e-05,3.0000000000085514e-05,0.00040145026946003526,-0.0006683568338481383,3.733591835430872e-05
150000000000.0,3,-0.07097072605,-0.029537629799999996,0.07649186999999999,0.001834,-0.004696,0.002469,-3.3807445209999996,-9.170002282,0.8072638147,-1.8052,1.2085,-1.7301,-2.0000000000131024e-05,1.999999999990898e-05,-8.000000000008001e-05,-0.0003503970478209162,0.0007327208846712452,0.00046046294021939715
150000000000.0,3,-0.0780805473,-0.023339827,0.053289336099999994,0.003061,0.014475,0.001374,-3.3820193855,-9.1695119495,0.8080287333999999,-1.8053,1.2083,-1.7299,-1.999999999990898e-05,2.0000000000131024e-05,6.0000000000060005e-05,-0.00019056716629872739,0.0003395968822821338,0.0001446878332389545
150000000000.0,3,-0.08789700395,-3.9226599999999995e-05,0.01326839745,0.006294,0.019775,0.003509,-3.383686516,-9.168825484,0.8080875733,-1.8052,1.2082,-1.7298,-9.999999999998899e-05,1.999999999990898e-05,-9.00000000000345e-05,-0.00015664681725757745,0.00017842337532769648,0.0003407125524383936
150000000000.0,3,-0.07663896975000001,0.02336924695,0.0005099458,0.010562,0.019741,0.003521,-3.3855497795,-9.1681390185,0.8082738996499998,-1.8052,1.208,-1.7296,-2.4999999999941735e-05,2.0000000000131024e-05,-8.999999999992347e-05,0.00045927965549497074,0.00021466149534710155,0.0005050649074171965
150000000000.0,3,-0.05231847775,0.038638201,-0.0009120184499999999,0.013742,0.016519,0.002468,-3.3869227105,-9.1675506195,0.8089603651499999,-1.8053,1.2078,-1.7293,-2.500000000016378e-05,5.0000000000105516e-05,-9.00000000000345e-05,-0.00038398660877270174,0.0008278770145038195,-5.542958438020662e-06
150000000000.0,3,-0.034078108749999995,0.00969877685,0.00634490255,0.014794,0.016508,0.005674,-3.3880995085,-9.167060287,0.8097841237499999,-1.8054,1.2076,-1.729,-2.4999999999941735e-05,4.999999999988347e-05,5.999999999994898e-05,0.0002648275852070725,-0.0007862750315867917,0.00013351705146114057
150000000000.0,3,-0.03433308165,-0.0034911673999999996,-0.02121178395,0.010472,0.011214,0.007812,-3.3893743729999994,-9.166569954499998,0.8099508367999999,-1.8054,1.2075,-1.7288,-2.4999999999941735e-05,3.333333333332966e-05,6.0000000000060005e-05,-0.00017487612215005832,0.0002455700520902493,-6.013942453408916e-05
150000000000.0,3,-0.027233067049999997,0.0046581587499999995,-0.0234967334,0.009402,0.012286,0.009944,-3.390747304,-9.166079622,0.80999987005,-1.8053,1.2074,-1.7288,-2.4999999999941735e-05,3.333333333332966e-05,-7.00000000000145e-05,0.00026614736900687497,0.00016882186489208806,0.00023765836131772744
150000000000.0,3,-0.00983606995,-0.008041452999999999,0.0032263878499999995,0.008349,0.013362,0.008874,-3.3918260355,-9.1655892895,0.8103529094499999,-1.8053,1.2072,-1.7286,-2.4999999999941735e-05,3.333333333332966e-05,-0.00021000000000004349,-0.0004967138671767568,0.0019939328597973205,0.00010019700620489402
150000000000.0,3,-0.013905829699999999,-0.015808319799999998,-0.00326561445,0.005169,0.016584,0.00993,-3.3930028335,-9.1651970235,0.8102646496,-1.8052,1.2071,-1.7285,-2.500000000016378e-05,2.4999999999941735e-05,1.0000000000065512e-05,0.00047660822866846253,-0.00022508741403348687,0.00015196609248713244
150000000000.0,3,-0.025232510450000002,-0.0167301449,-0.01615155255,0.004084,0.014462,0.009933,-3.394473831,-9.164706691,0.8098331569999999,-1.805,1.207,-1.7286,-2.4999999999941735e-05,2.500000000016378e-05,9.99999999995449e-06,-0.0001227343887859611,0.00011172814413851206,0.00019226417859430356
150000000000.0,3,-0.019819239649999997,-0.016661498349999998,-0.025673809699999998,0.00198,0.017678,0.008857,-3.395650629,-9.164314424999999,0.8090290117,-1.8047,1.2069,-1.7287,9.999999999998899e-05,2.4999999999941735e-05,-0.00010999999999994348,7.383671111549361e-05,0.0005097371168674147,0.00018415341010546982
150000000000.0,3,-0.021201977299999997,-0.0226533615,-0.022064962499999997,0.001973,0.01555,0.006727,-3.3966312939999996,-9.1640202255,0.8082640929999999,-1.8044,1.2068,-1.7288,-9.999999999998899e-05,2.4999999999941735e-05,-4.0000000000040004e-05,0.0001800839979089197,0.00045505143407087445,0.0003260912998430676
150000000000.0,3,-0.030312355149999998,-0.026615248099999995,-0.024869664399999998,0.000908,0.016623,0.007792,-3.3979061585,-9.163726025999999,0.8073226545999999,-1.8041,1.2067,-1.729,9.999999999998899e-05,4.999999999988347e-05,-6.0000000000060005e-05,-6.108340909971588e-06,0.0003626217334364856,0.00013787611250348775
150000000000.0,3,-0.036431704749999995,-0.024173392250000002,-0.008433719,0.000896,0.014494,0.006729,-3.3990829564999996,-9.1632356935,0.80674406225,-1.8038,1.2066,-1.7291,-9.999999999998899e-05,5.0000000000105516e-05,-3.999999999992898e-05,-0.00010540000827208296,0.0004102404159851414,0.0005791081084960403
150000000000.0,3,-0.026291628649999996,-0.0098851032,0.0063939358,-0.001195,0.019839,0.006717,-3.4002597544999995,-9.162941494,0.8061458565999999,-1.8036,1.2064,-1.7292,-1.999999999990898e-05,3.333333333332966e-05,-6.0000000000060005e-05,-3.219496436668301e-05,0.0009689862583985853,0.00017738765285235658
150000000000.0,3,-0.0245754649,-0.01232695905,0.013876409749999999,-0.003277,0.02625,0.006703,-3.4013384859999998,-9.162549228,0.80539074455,-1.8033,1.2063,-1.7292,-2.0000000000131024e-05,3.333333333332966e-05,4.999999999999449e-05,0.00040742585350472815,-0.00043088569768579,0.0003748903399203307
150000000000.0,3,-0.028086245599999997,-0.0040991797,0.04686598035,0.012741,0.027184,0.005663,-3.4025152839999997,-9.1620588955,0.8057732039,-1.8033,1.2062,-1.7289,-1.999999999990898e-05,3.333333333332966e-05,-1.999999999990898e-05,-0.00024305069593677509,0.00023334428294163878,0.00013444974630916207
150000000000.0,3,-0.02187863615,-0.0014219642499999998,0.062350680699999994,0.006363,0.030432,0.006715,-3.4035940154999995,-9.161666629499999,0.80629295635,-1.8034,1.2061,-1.7285,-2.0000000000131024e-05,9.999999999998899e-05,2.999999999997449e-05,0.00035766894388133963,-0.00012223635403407762,0.000718780482192205
150000000000.0,3,-0.007198081099999999,0.006433162399999999,0.0472288264,0.009596,0.033603,0.005648,-3.4045746804999997,-9.161274363499999,0.8067538689,-1.8035,1.206,-1.7281,-1.999999999990898e-05,5.0000000000105516e-05,3.999999999992898e-05,0.000122197658468437,3.3170220440359444e-05,0.00016795369578836983
150000000000.0,3,0.01691647125,0.0010885381499999998,0.023604606549999997,0.01065,0.032527,0.006718,-3.4051630794999994,-9.160980164,0.8070284551,-1.8035,1.2059,-1.7277,9.999999999998899e-05,4.999999999988347e-05,-0.00017999999999995797,-0.0003462283738158156,0.0006250790897153191,0.0003336889392806519
150000000000.0,3,0.0168870513,0.0032361944999999997,0.0193191005,0.013826,0.029303,0.006729,-3.4057514784999996,-9.160784030999999,0.80743052775,-1.8036,1.2058,-1.7274,-5.0000000000105516e-05,9.999999999998899e-05,7.00000000000145e-05,0.00022687624225059544,-0.00023498192809712215,-5.381550916139233e-05
150000000000.0,3,0.00457970555,0.0055897905,0.029115943849999996,0.013773,0.021845,0.005674,-3.406437944,-9.160391765,0.80825428635,-1.8038,1.2057,-1.7269,-4.999999999988347e-05,9.999999999998899e-05,0.00017000000000000348,0.00030081228965261886,-0.0010447419129013813,0.00041328850305522025
150000000000.0,3,0.00661948875,-0.01485707475,0.0334995164,0.01378,0.021846,0.004606,-3.40683021,-9.160195631999999,0.80941147105,-1.8041,1.2057,-1.7264,9.999999999998899e-05,4.999999999988347e-05,-0.00014999999999998348,7.037450482605401e-05,0.0011183961495089267,-9.62781081392805e-05
150000000000.0,3,0.0152199208,-0.04734650619999999,0.030488874849999997,0.007412,0.024032,0.001387,-3.4067321434999998,-9.160195631999999,0.80988219025,-1.8042,1.2057,-1.726,-9.999999999998899e-05,5.0000000000105516e-05,0.00012999999999996348,0.0005628066341190063,-0.0008887199995155637,5.892682290120632e-05
150000000000.0,3,0.0186718616,-0.0385205212,0.030469261549999998,0.003135,0.024065,0.003513,-3.4067321434999998,-9.1600975655,0.8099018035499999,-1.8042,1.2057,-1.7258,-4.999999999988347e-05,9.999999999998899e-05,2.0000000000020002e-05,-0.00031439852912584776,8.293140788429021e-05,0.0003209721103232255
150000000000.0,3,0.028811937699999998,-0.012121019399999999,0.0308713342,0.004214,0.024057,0.001378,-3.4065360105,-9.160195631999999,0.8099508367999999,-1.8042,1.2057,-1.7255,-5.0000000000105516e-05,9.999999999998899e-05,9.00000000000345e-05,-0.00035562783006803933,-0.00048600986618785313,0.0003667035046848177
150000000000.0,3,0.0373437232,0.0163182656,0.021966895999999996,0.01056,0.01761,0.002467,-3.406437944,-9.160195631999999,0.8104607825999999,-1.8044,1.2057,-1.7252,-5.0000000000105516e-05,5.0000000000105516e-05,-7.00000000000145e-05,9.345222439383072e-05,0.00043182787634710174,2.1938023663015116e-05
150000000000.0,3,0.04382591885,0.0317931593,-0.007453054,0.011632,0.017602,0.0014,-3.4061437445,-9.160293698499999,0.8108530485999998,-1.8045,1.2057,-1.7248,-4.999999999988347e-05,4.999999999988347e-05,0.00015999999999993797,0.00018779149765180136,-0.00019210850096795795,-0.00015425227068277536
150000000000.0,3,0.038363614799999994,0.023153500649999995,-0.0044326057999999995,0.010556,0.016545,0.001398,-3.4059476115,-9.160293698499999,0.8112845411999999,-1.8046,1.2057,-1.7245,-9.999999999998899e-05,9.999999999998899e-05,1.0000000000065512e-05,-5.01417796616721e-06,4.8974247569111284e-05,-1.6315695237523187e-05
150000000000.0,3,0.02576206955,-0.012915358049999999,-0.013405690549999998,0.013755,0.014391,-0.001796,-3.4054572789999997,-9.1604898315,0.81172584045,-1.8048,1.2058,-1.7242,-5.0000000000105516e-05,9.999999999998899e-05,2.999999999997449e-05,-8.969162745620096e-06,-0.0003288799073952742,0.0001318965525864968
150000000000.0,3,0.00973800345,-0.027674366299999996,-0.0041972462,0.016916,0.010101,-0.000717,-3.4051630794999994,-9.1604898315,0.812382886,-1.805,1.2058,-1.7238,-4.999999999988347e-05,9.999999999998899e-05,5.999999999994898e-05,-0.0003333389346207305,0.0007414377745968981,-8.207053158360011e-05
150000000000.0,3,-0.0105127288,-0.039736545799999995,0.01617116585,0.012646,0.009072,-0.00179,-3.4051630794999994,-9.160391765,0.8137165903999999,-1.8054,1.2057,-1.7233,9.999999999998899e-05,9.999999999998899e-05,8.000000000008001e-05,0.0005510751040849193,-0.0016810745148909678,1.6675114585584794e-05
150000000000.0,3,-0.015984839499999997,-0.032930730699999994,0.03666706435,0.009478,0.012295,-0.002868,-3.4050650129999998,-9.160391765,0.81492280835,-1.8057,1.2057,-1.7228,-0.00019999999999997797,9.999999999998899e-05,3.999999999992898e-05,-0.0006354371236800826,0.00043010370937190956,0.00047121120129123284
150000000000.0,3,-0.00032361945,-0.0141804159,0.027252680349999996,0.008434,0.014436,-0.003942,-3.4046727469999998,-9.160391765,0.8158054068499999,-1.806,1.2057,-1.7224,-5.0000000000105516e-05,9.999999999998899e-05,-2.999999999997449e-05,0.0002666916271361064,-0.00023174311729379227,0.0003841330254883424
150000000000.0,3,-0.0070411747,0.0080218397,0.013395883899999999,0.010605,0.017617,-0.006078,-3.4043785475,-9.1604898315,0.8163447725999999,-1.8061,1.2057,-1.7221,-4.999999999988347e-05,0.00020000000000020002,-2.999999999997449e-05,0.00013570337160384582,0.0003078485109668794,0.0003159814521875859
150000000000.0,3,0.0119248864,0.03576485255,0.013778343249999998,0.012751,0.019729,-0.00501,-3.4040843479999996,-9.1604898315,0.8171587245499999,-1.8064,1.2058,-1.7216,-3.333333333332966e-05,9.999999999998899e-05,-4.0000000000040004e-05,-0.0003915495249962042,-0.00016763326534130485,0.00016943143511793934
150000000000.0,3,0.02468333805,0.043767078949999996,0.008070872949999999,0.01703,0.021824,-0.00394,-3.4036920819999996,-9.160587898,0.8180707429999999,-1.8067,1.2058,-1.7211,-3.333333333332966e-05,9.999999999998899e-05,-9.99999999995449e-06,-0.0005364183658236321,-0.0005822509541346665,0.0004872479488766679
150000000000.0,3,0.018917027849999997,0.00942419065,-0.0011081514499999999,0.01814,0.027142,-0.003948,-3.403299816,-9.160685964499999,0.8187277885500001,-1.8069,1.2058,-1.7206,-3.333333333332966e-05,9.999999999998899e-05,3.999999999992898e-05,-0.0003557315066071709,0.00017584658352065574,8.446146960405798e-05
150000000000.0,3,-0.009414384,-0.0163771055,0.0032754210999999997,0.02026,0.026058,-0.002875,-3.4032017495,-9.160587898,0.8197280668499999,-1.8072,1.2058,-1.72,-9.999999999998899e-05,9.999999999998899e-05,0.000280000000000058,0.0001160934167949712,-0.0017461771199012155,0.00014131148999885212
150000000000.0,3,-0.04523807645,-0.053171656299999995,0.00644296905,0.027723,0.025996,-0.001793,-3.4035940154999995,-9.160293698499999,0.821208871,-1.8075,1.2057,-1.7193,-9.999999999998899e-05,5.0000000000105516e-05,7.00000000000145e-05,-6.108638270552191e-05,8.059641205804269e-05,-1.061527242862681e-05
150000000000.0,3,-0.0620564812,-0.07049020019999999,-0.0144746154,0.022379,0.024975,-0.001799,-3.4041824144999997,-9.1600975655,0.8219149497999999,-1.8077,1.2056,-1.7188,-0.00029999999999996696,4.999999999988347e-05,0.0005600000000000049,-0.00047249934350013234,-0.002060151191360271,-0.00010346661117832667
150000000000.0,3,-0.0513280061,-0.060408963999999996,-0.015200307499999998,0.023402,0.019639,-0.001786,-3.4045746804999997,-9.159803365999998,0.82294464805,-1.808,1.2056,-1.7183,-4.999999999988347e-05,9.999999999998899e-05,-4.0000000000040004e-05,-4.719259265328901e-05,-0.0006478472040261085,5.807282952297044e-06
150000000000.0,3,-0.0183580488,-0.02211399575,-0.0108657682,0.020184,0.017535,-0.001787,-3.4047708135,-9.159607233,0.8239939596,-1.8082,1.2055,-1.7178,-5.0000000000105516e-05,9.999999999998899e-05,0.00012000000000000899,-0.0011464538221275244,-0.00028962479736871494,0.000864189619472544
150000000000.0,3,0.0259680092,0.010091042849999999,-0.03115572705,0.018005,0.013288,0.00035,-3.404476614,-9.1597052995,0.8246804251,-1.8085,1.2055,-1.7174,-5.0000000000105516e-05,9.999999999998899e-05,-5.999999999994898e-05,0.00010439401630901735,0.0001424042467301767,0.00010038570498238641
150000000000.0,3,0.0448163905,0.0212215906,-0.047091533299999995,0.014782,0.01012,-0.000719,-3.403888215,-9.1599014325,0.8249157846999999,-1.8086,1.2056,-1.7172,-4.999999999988347e-05,9.999999999998899e-05,-1.0000000000065512e-05,0.00010420654315401734,0.00010586727225736503,0.0002392223838607599
150000000000.0,3,0.04604222175,0.01011065615,-0.0550545331,0.01155,0.005886,-0.001787,-3.4032017495,-9.1600975655,0.8249353979999999,-1.8086,1.2057,-1.717,0.00019999999999997797,9.999999999998899e-05,-0.00020999999999993246,-0.0013229303864403796,-0.001362144355607997,0.0012863795361997
150000000000.0,3,0.03878530075,0.0008629851999999999,-0.059977471399999996,0.009408,0.003775,-0.003923,-3.402319151,-9.1604898315,0.8246313918499999,-1.8086,1.2058,-1.7169,-2.4999999999941735e-05,9.999999999998899e-05,-0.00034000000000000696,-4.233305680112487e-05,0.0012440596498877188,0.000714089213627922
150000000000.0,3,0.01879934805,-0.00863965865,-0.0546818804,0.010467,0.003766,-0.002855,-3.4018288184999994,-9.160685964499999,0.82441564555,-1.8086,1.2058,-1.7169,-2.4999999999941735e-05,0.00019999999999997797,-4.0000000000040004e-05,-9.210472550980064e-05,-9.194236501031128e-07,6.055928319259607e-05
150000000000.0,3,0.005011198149999999,-0.034833220799999995,-0.034078108749999995,0.010431,-0.000496,-0.002848,-3.4013384859999998,-9.1608820975,0.8247588782999999,-1.8087,1.2059,-1.7167,-2.500000000016378e-05,9.999999999998899e-05,-7.00000000000145e-05,1.4450292613155113e-05,8.080792244280488e-05,0.00019144348784294607
150000000000.0,3,-0.018485535249999997,-0.048582144099999995,-0.0216334699,0.008283,-0.001545,-0.001783,-3.401142353,-9.1608820975,0.8251903708999999,-1.8088,1.2059,-1.7166,-2.4999999999941735e-05,9.999999999998899e-05,-4.999999999921734e-06,-0.00034456699770624155,0.0005774435722896154,-9.205401749534659e-05
150000000000.0,3,-0.03292092405,-0.06194860804999999,-0.0102969825,0.004009,-0.00151,-0.000722,-3.4012404195,-9.160784030999999,0.8253668906,-1.8089,1.2059,-1.7165,2.4999999999941735e-05,9.999999999998899e-05,-5.000000000032756e-06,-0.00021781579312718513,0.00040180097971354023,-5.6974897276962366e-05
150000000000.0,3,-0.03858916775,-0.0544072942,-0.013552790299999999,-0.001328,-0.000402,0.001402,-3.401534619,-9.160685964499999,0.82504327115,-1.8087,1.2058,-1.7167,2.500000000016378e-05,9.999999999998899e-05,-4.0000000000040004e-05,-9.16769651149174e-06,-0.0002888568222378929,4.847384794048892e-05
150000000000.0,3,-0.04486542375,-0.04393379199999999,-0.024408751849999997,-0.004544,-0.001442,0.002467,-3.4022210845,-9.160587898,0.8242293192,-1.8085,1.2058,-1.7169,2.4999999999941735e-05,0.00019999999999997797,-0.00012999999999996348,0.0013026011996450926,0.0006978572017370954,-0.000569023422085646
150000000000.0,3,-0.03454882795,-0.025271737049999996,-0.0337544893,-0.002456,-0.005723,0.004615,-3.4029075499999997,-9.160391765,0.8233859472999999,-1.8082,1.2057,-1.7173,2.4999999999941735e-05,0.00010000000000021103,-0.000160000000000049,0.0001864889338589748,0.000958967408659861,-0.00012804298810387138
150000000000.0,3,-0.03086152755,0.00658026215,-0.04408089175,-0.007825,-0.007812,0.007813,-3.4040843479999996,-9.1600975655,0.8221895359999999,-1.8078,1.2056,-1.7177,-9.090909090847532e-06,9.999999999998899e-05,6.0000000000060005e-05,5.4512270892592696e-05,-0.00038421898126106413,-0.00012689178432712112
150000000000.0,3,-0.031724512749999996,0.02144714355,-0.053681602099999996,-0.007838,-0.007813,0.00995,-3.4054572789999997,-9.1597052995,0.8208656382499999,-1.8073,1.2055,-1.7183,-9.090909091069577e-06,0.00019999999999997797,-8.000000000008001e-05,0.0005486817891102724,0.000502497327568685,-0.000238302789256295
150000000000.0,3,-0.04617951484999999,0.0216726965,-0.04638545449999999,-0.00784,-0.007812,0.009952,-3.4071244095,-9.159116900499999,0.8195613537999998,-1.8069,1.2054,-1.7188,-9.090909090847532e-06,5.0000000000105516e-05,3.0000000000085514e-05,-0.0007456468488056256,-0.0005169004881819816,0.00017127040811937277
150000000000.0,3,-0.07797267414999999,0.0073549875,-0.06224280755,-0.008878,-0.002476,0.01208,-3.4094780054999996,-9.158430435,0.81776673685,-1.8062,1.2052,-1.7195,-9.090909090847532e-06,4.999999999988347e-05,9.99999999995449e-06,-0.00047787144138622395,-8.471852536673374e-05,0.00037014896904929984
150000000000.0,3,-0.10429372275,-0.013101684399999999,-0.0542896144,-0.008916,-0.005673,0.014225,-3.4122238674999994,-9.1575478365,0.81609960635,-1.8056,1.2049,-1.7202,-9.090909090847532e-06,9.999999999998899e-05,4.999999999999449e-05,0.0008241102031687486,-0.00015216218744296128,-0.00021988991998256324
150000000000.0,3,-0.08737725149999999,-0.022329742049999997,-0.02272200805,-0.007816,-0.001419,0.014224,-3.4147735965,-9.156763304499998,0.81490319505,-1.8051,1.2047,-1.7207,-9.090909091069577e-06,9.999999999998899e-05,-5.999999999994898e-05,0.00018455430881147983,-0.000372734508748529,0.0003427238093935969
150000000000.0,3,-0.04459083755,-0.03435269495,-0.007168661149999999,-0.009897,0.003929,0.012077,-3.4163426605,-9.156272971999998,0.8137165903999999,-1.8046,1.2045,-1.7211,-9.090909090847532e-06,4.999999999988347e-05,0.00017000000000000348,0.00015306278536897366,-0.000678742991417014,-0.0001411799853192619
150000000000.0,3,-0.01215043935,-0.0284196717,-0.0238497728,-0.015182,0.008238,0.008859,-3.417421392,-9.156076839,0.8116964204999999,-1.804,1.2045,-1.7217,-9.090909090847532e-06,5.0000000000105516e-05,-4.0000000000040004e-05,0.0005894440083391572,-0.00019701075044231686,0.000175438810655848
150000000000.0,3,0.009208444349999999,-0.016945891199999997,-0.02874329115,-0.010906,0.008206,0.006731,-3.4179117244999997,-9.1559787725,0.80984296365,-1.8034,1.2045,-1.7222,-9.090909090847532e-06,9.999999999998899e-05,2.0000000000020002e-05,-2.902732332188407e-05,0.0001456139905451348,-4.95497291010949e-05
150000000000.0,3,0.008237586,0.00222610955,-0.01640652545,-0.01413,0.003972,0.004597,-3.4183039904999997,-9.1559787725,0.8079895068,-1.8029,1.2045,-1.7227,-9.090909091069577e-06,9.999999999998899e-05,2.0000000000020002e-05,0.00013962600052241925,-0.00010340629244498523,-2.8039914670152655e-05
150000000000.0,3,-0.00195152335,0.00818855275,-0.03607866535,-0.009885,0.000742,0.003543,-3.4187943229999997,-9.1559787725,0.80641063615,-1.8024,1.2045,-1.7231,-9.090909090847532e-06,5.0000000000105516e-05,-4.999999999999449e-05,-0.0002901751418105114,0.0007937718384307679,-0.00012591089993607696
150000000000.0,3,-0.012385798949999999,-0.0023143694,-0.04992565515,-0.00882,0.000735,0.003546,-3.4192846554999994,-9.1559787725,0.80470427905,-1.8019,1.2045,-1.7236,-3.333333333332966e-05,4.999999999988347e-05,2.999999999997449e-05,0.00020857156242737318,-0.0002208860647316957,-0.0001491400437689805
150000000000.0,3,-0.013866603099999998,-0.014788428199999998,-0.0229867876,-0.009905,-0.001387,0.003548,-3.4196769215,-9.155880706,0.8033509613500001,-1.8015,1.2045,-1.724,-3.333333333332966e-05,9.999999999998899e-05,4.999999999999449e-05,0.0001930625875432579,-0.0004621296989526513,-0.00017114666701578685
150000000000.0,3,-1.9613299999999997e-05,-0.0202213123,-0.028292185249999997,-0.008893,-0.006725,0.005694,-3.4200691874999998,-9.155880706,0.8022231966,-1.8012,1.2044,-1.7244,-3.333333333332966e-05,9.999999999998899e-05,-2.999999999997449e-05,-9.777531506260928e-05,0.0009508516216558682,-9.967325596260679e-05
150000000000.0,3,0.0089436648,-0.023908612699999998,-0.0354020065,-0.008945,-0.013118,0.005704,-3.4202653205,-9.155880706,0.80109543185,-1.8009,1.2045,-1.7249,9.999999999998899e-05,9.999999999998899e-05,-4.999999999999449e-05,0.0007039510210202771,-0.0002563404191771035,-0.00028111989824797234
150000000000.0,3,0.0365788045,-0.035137226949999996,-0.0375398562,-0.012132,-0.013088,0.002494,-3.4197749879999995,-9.156174905499999,0.7997911474,-1.8005,1.2045,-1.7254,-5.0000000000105516e-05,9.999999999998899e-05,-7.00000000000145e-05,0.0009377575651090542,0.0009985776850605088,-0.0006646148619862124
150000000000.0,3,0.039059886950000004,-0.03296015065,-0.03874607415,-0.015354,-0.016257,0.001425,-3.4190885225,-9.156567171499999,0.7983005366,-1.8002,1.2046,-1.7259,-4.999999999988347e-05,4.999999999988347e-05,-4.999999999999449e-05,-0.0006199059465021861,0.000161221797979616,5.100737151408907e-05
150000000000.0,3,0.035048967099999995,-0.01005181625,-0.024340105299999998,-0.014292,-0.01733,0.000359,-3.4185001235,-9.156861371,0.7970648987,-1.7999,1.2047,-1.7264,-5.0000000000105516e-05,5.0000000000105516e-05,-4.999999999999449e-05,-0.00047970624376558746,0.00037974813330299284,0.00010255367014666561
150000000000.0,3,0.02756649315,0.000784532,0.011571847,-0.011087,-0.016292,0.001429,-3.418009791,-9.157057503999999,0.7966137927999999,-1.7998,1.2048,-1.7267,-5.0000000000105516e-05,5.0000000000105516e-05,-9.00000000000345e-05,-0.00031274837901218433,0.00113639790618425,-0.00021038176466969816
150000000000.0,3,0.01448442205,0.01083634825,0.03323473685,-0.01215,-0.015219,0.002492,-3.418009791,-9.157155570499999,0.7966530194,-1.7998,1.2048,-1.7268,1.2499999999970868e-05,4.999999999988347e-05,7.00000000000145e-05,-0.00014721896022451553,0.00011651817364155548,-0.00023421832822734245
150000000000.0,3,-0.01058137535,0.004314926,-0.00326561445,-0.012194,-0.019483,0.004635,-3.4184020569999998,-9.157057503999999,0.7960450070999999,-1.7996,1.2048,-1.7272,1.2499999999970868e-05,2.4999999999941735e-05,-4.999999999999449e-05,-0.0001686455589993141,4.8636967750592675e-05,-0.00026876037874146164
150000000000.0,3,-0.033970235599999996,-0.01250347875,-0.05392676835,-0.010065,-0.018437,0.006773,-3.419186589,-9.156861371,0.7947799492500001,-1.7992,1.2047,-1.7278,1.2500000000192912e-05,2.4999999999941735e-05,5.999999999994898e-05,0.0001456319070709533,-0.0004644353429852366,-0.00020308115961187312
150000000000.0,3,-0.05855550714999999,-0.01793636285,-0.08161094129999999,-0.008993,-0.017378,0.006776,-3.42055952,-9.156469105,0.7931422387,-1.7986,1.2046,-1.7285,1.2499999999970868e-05,2.500000000016378e-05,-2.999999999997449e-05,0.0002019284348011574,0.00014164295715790587,-2.053598555695757e-05
150000000000.0,3,-0.07836494014999999,-0.020005566,-0.0878479707,-0.015401,-0.018388,0.005703,-3.4221285839999998,-9.156076839,0.7911416820999999,-1.798,1.2045,-1.7294,1.2499999999970868e-05,2.4999999999941735e-05,4.999999999999449e-05,-0.0001076654678220379,-0.00034258424339483895,9.236598731376944e-05
150000000000.0,3,-0.08532766165,-0.0033832942499999997,-0.08428815675,-0.006803,-0.01206,0.002508,-3.4236976479999996,-9.1555865065,0.7893764850999999,-1.7974,1.2044,-1.7301,1.2500000000192912e-05,-5.0000000000105516e-05,4.999999999999449e-05,0.00030874153857185505,-0.00024526809642577696,-6.339226858553815e-06
150000000000.0,3,-0.09535005795,0.00775706015,-0.061252335899999996,-0.013128,-0.003479,0.000352,-3.4251686455,-9.155292307,0.7872974753,-1.7967,1.2043,-1.7308,1.2499999999970868e-05,-4.999999999988347e-05,-9.99999999995449e-06,-7.362003328914568e-05,0.00010832246661096612,0.00021943016964875994
150000000000.0,3,-0.1035974506,0.0273997801,-0.0381870951,-0.008781,0.00395,-0.003918,-3.4266396429999997,-9.154900041,0.7856303447999999,-1.7962,1.2041,-1.7313,1.2499999999970868e-05,-2.4999999999941735e-05,8.999999999992347e-05,0.0004622243848997343,-0.0005966457774488898,7.097204211881092e-05
150000000000.0,3,-0.10082216865,0.04311984005,-0.032048132199999996,-0.000216,0.007078,-0.00497,-3.4281106405,-9.1544097085,0.7845810332500001,-1.7958,1.204,-1.7316,4.999999999988347e-05,-2.4999999999941735e-05,-3.999999999992898e-05,-0.0001497457135166691,-0.00036496721678536126,0.0005358328640920895
150000000000.0,3,-0.09204521689999999,0.052848036849999995,-0.008433719,0.003074,0.017709,-0.006045,-3.429385505,-9.153919376,0.78414954065,-1.7956,1.2039,-1.7317,5.0000000000105516e-05,-2.500000000016378e-05,9.99999999995449e-06,0.00019989059826208688,2.2706113249171267e-05,0.00018806262220572023
150000000000.0,3,-0.0636647718,0.051053419899999994,-0.0014709974999999999,0.00522,0.019822,-0.004974,-3.4302681034999996,-9.153625176499999,0.7839239876999999,-1.7955,1.2038,-1.7316,5.0000000000105516e-05,-2.4999999999941735e-05,7.00000000000145e-05,-5.9216505981840584e-05,-0.0006281050075043204,0.00014182884387681227
150000000000.0,3,-0.05194582504999999,0.0403445581,-0.0119248864,0.002065,0.026241,-0.00392,-3.4310526355,-9.1534290435,0.7831492623499999,-1.7952,1.2037,-1.7316,4.999999999988347e-05,-2.4999999999941735e-05,2.999999999997449e-05,-0.0001514911947340103,0.0002189620624746258,0.00023224130683852096
150000000000.0,3,-0.039648285949999994,0.014709975,-0.012915358049999999,-0.001161,0.025199,-0.00072,-3.4318371674999995,-9.1532329105,0.7820509175499999,-1.7949,1.2037,-1.7317,3.333333333332966e-05,-2.500000000016378e-05,-9.99999999995449e-06,0.00014161293034264943,0.0003492730065466354,3.577164169188407e-05
150000000000.0,3,-0.04770935225,-0.0224572285,-0.01456287525,-0.005462,0.023101,0.002481,-3.432719766,-9.153036777499999,0.7804132069999999,-1.7943,1.2036,-1.7319,3.333333333332966e-05,-2.4999999999941735e-05,-4.0000000000040004e-05,0.0001174480418648649,0.0005494429773298393,0.00012943658477349018
150000000000.0,3,-0.04341403955,-0.05512317965,-0.012317152399999998,-0.006544,0.022043,0.003549,-3.4336023644999996,-9.1528406445,0.7789029828999999,-1.7939,1.2036,-1.7322,3.333333333332966e-05,-2.4999999999941735e-05,-4.0000000000040004e-05,2.9374788490077464e-05,0.0005926312739992223,8.519875699297685e-05
150000000000.0,3,-0.0216138566,-0.05245577084999999,0.0120033396,-0.005527,0.017769,0.006761,-3.43428883,-9.152644511499998,0.7779419311999999,-1.7936,1.2035,-1.7323,3.333333333332966e-05,-1.999999999990898e-05,5.0000000000105516e-05,0.0001233322193279207,0.000200311839743339,1.3044894100033844e-05
150000000000.0,3,0.004118793,-0.0506807672,0.008433719,-0.006614,0.014582,0.005696,-3.4345830294999997,-9.152644511499998,0.7768631997,-1.7932,1.2035,-1.7325,3.333333333332966e-05,-2.0000000000131024e-05,-2.0000000000020002e-05,0.0001544785140783489,-3.9210742763584605e-05,0.00010074075426480533
150000000000.0,3,0.03756927615,-0.030577134699999998,0.011424747249999999,-0.005564,0.010314,0.002501,-3.4341907634999997,-9.1528406445,0.7761178943,-1.7931,1.2036,-1.7326,3.333333333332966e-05,-1.999999999990898e-05,3.666666666668483e-05,-9.23497993257083e-05,-0.0005971025361255489,-2.8756977316302113e-05
150000000000.0,3,0.0676854983,-0.00446202575,0.015053207749999999,-0.007721,0.006071,0.000367,-3.433308165,-9.1532329105,0.7754902686999999,-1.7929,1.2037,-1.7326,1.999999999990898e-05,-2.0000000000131024e-05,3.666666666657381e-05,-0.00010316047312497467,-0.00021246198036029007,7.153696573336532e-06
150000000000.0,3,0.08240527995000001,0.014768814899999998,0.0125917386,-0.005588,0.003921,-0.002832,-3.4320333004999997,-9.153723243,0.7749509029499999,-1.7929,1.2038,-1.7327,2.0000000000131024e-05,-1.999999999990898e-05,3.666666666668483e-05,8.563607958267383e-05,-0.00037340893396664576,-0.00037709775062610973
150000000000.0,3,0.07581521114999999,0.027850886,-0.0007158854499999999,0.000776,-0.001459,-0.003882,-3.4306603694999995,-9.1542135755,0.7749410962999999,-1.793,1.204,-1.7326,1.999999999990898e-05,-1.999999999990898e-05,1.0000000000065512e-05,-0.0003686025259748149,-0.0003665560595045303,0.0001631823204997218
150000000000.0,3,0.06341960555,0.015445473749999999,-0.019064127599999998,0.00605,-0.008961,-0.003862,-3.429385505,-9.154703908,0.7753333622999999,-1.7931,1.2041,-1.7325,2.0000000000131024e-05,-2.0000000000131024e-05,-4.0000000000040004e-05,-0.0002556412118159823,-0.00024382562505853578,-0.0001673976038256697
150000000000.0,3,0.0375006296,-0.00922805765,0.00195152335,0.004949,-0.013215,-0.003858,-3.4283067735,-9.154998107499999,0.7763140272999999,-1.7935,1.2042,-1.7323,1.999999999990898e-05,-1.999999999990898e-05,-4.0000000000040004e-05,0.0001444369741328,0.0006527632213839674,-0.0004935879033931556
150000000000.0,3,0.026683894649999998,-0.028037212349999997,0.0072765343,0.000647,-0.017442,-0.00386,-3.427228042,-9.1553903735,0.7771279792499999,-1.7938,1.2043,-1.7321,1.666666666655381e-05,-2.0000000000131024e-05,7.00000000000145e-05,-5.471710192184176e-05,-0.0006593432816328626,-0.00014553775344650077
150000000000.0,3,0.0193191005,-0.03590214565,0.00216726965,-0.00149,-0.018489,-0.004931,-3.4261493105,-9.1557826395,0.7775888918,-1.794,1.2044,-1.7321,1.6666666666775853e-05,-1.999999999990898e-05,-2.999999999997449e-05,-8.313754681443797e-05,0.00047285093819615653,-0.00040340721448872685
150000000000.0,3,0.01817172245,-0.04543420945,-0.009532063799999999,-0.00261,-0.02381,-0.00279,-3.425070579,-9.156076839,0.7779223178999999,-1.7941,1.2045,-1.7322,1.6666666666775853e-05,-2.4999999999941735e-05,-5.000000000032756e-06,-0.00013025734888749696,-0.00031238040989212124,-0.0001969943904915894
150000000000.0,3,0.0003726527,-0.0314989598,-0.0097870367,-0.000508,-0.027025,-0.001714,-3.42448218,-9.156272971999998,0.7784714902999998,-1.7943,1.2045,-1.7322,1.666666666655381e-05,-2.4999999999941735e-05,-4.999999999921734e-06,-5.96238390455639e-05,0.00017450187828460528,-6.972120350123845e-05
150000000000.0,3,-0.01679879145,-0.019485813549999998,-0.0037559469499999997,-0.000491,-0.024894,-0.001717,-3.424286047,-9.156272971999998,0.7791775690999999,-1.7945,1.2046,-1.7323,1.666666666655381e-05,-2.500000000016378e-05,6.999999999990347e-05,-0.00018870762861000756,-0.0003392720292774154,-4.759316889968446e-05
150000000000.0,3,-0.01371950335,-0.004501252349999999,0.006168382849999999,-0.003661,-0.02167,-0.002795,-3.424089914,-9.156272971999998,0.7798836479,-1.7947,1.2046,-1.7323,1.6666666666775853e-05,-2.4999999999941735e-05,-2.999999999997449e-05,-0.0004353280246516267,-6.650634744254091e-06,9.182042255817535e-05
150000000000.0,3,-0.0176127434,0.0075511204999999994,0.007992419749999998,0.000636,-0.017444,-0.001727,-3.424089914,-9.156272971999998,0.78059953335,-1.7949,1.2045,-1.7323,3.333333333332966e-05,-5.0000000000105516e-05,9.999999999998899e-05,-0.00011056583746116289,-0.000667661300829181,0.00013458290696721775
150000000000.0,3,-0.03554910625,0.00626644935,-0.007649186999999999,0.001764,-0.011057,-0.003869,-3.4241879804999997,-9.156174905499999,0.7809819926999999,-1.795,1.2045,-1.7323,3.333333333332966e-05,-4.999999999988347e-05,7.00000000000145e-05,-4.3188108185931995e-05,-0.000914857966401561,0.00016463787137732666
150000000000.0,3,-0.04058972435,-0.0038049802,0.0065704555,-0.000282,-0.001447,-0.006023,-3.424286047,-9.156076839,0.7812761922,-1.7951,1.2045,-1.7323,3.333333333332966e-05,-1.4285714285744433e-05,-7.999999999996898e-05,3.871881852335335e-05,0.0007775514578922671,-8.624703158366387e-05
150000000000.0,3,-0.04830755789999999,-0.01819133575,0.0091201845,-0.002373,0.003898,-0.006034,-3.4243841135,-9.156076839,0.7812663855499999,-1.7951,1.2045,-1.7323,3.333333333332966e-05,-1.4285714285744433e-05,-4.0000000000040004e-05,0.00017255007574057402,0.0003886585216528182,9.780809901194232e-05
150000000000.0,3,-0.040677984199999996,-0.019642719949999998,0.0050013915,-0.003392,0.009236,-0.007111,-3.4243841135,-9.156174905499999,0.7807466331,-1.795,1.2045,-1.7323,3.333333333332966e-05,-1.4285714285744433e-05,-7.00000000000145e-05,-0.00017472071672464118,0.0002622551550550689,-4.516612357274852e-05
150000000000.0,3,-0.024634304799999996,-0.0156710267,0.01169933345,-0.002352,0.007094,-0.00497,-3.4241879804999997,-9.156174905499999,0.7803347538,-1.7949,1.2045,-1.7324,3.333333333332966e-05,-1.4285714285522388e-05,-7.999999999996898e-05,0.00016947634144015566,0.00045147820053337284,0.0001555834865039074
150000000000.0,3,-0.0030106415499999996,0.00734518085,0.027389973449999997,0.000858,0.008133,-0.004966,-3.4237957144999998,-9.1563710385,0.7805112734999999,-1.7949,1.2046,-1.7322,4.999999999988347e-05,-1.4285714285744433e-05,-4.999999999999449e-05,-9.273674950005528e-05,0.00022025226754918137,0.00014545206559724022
150000000000.0,3,-0.0026477955,0.030145642099999998,0.026262208699999998,0.003002,0.00918,-0.004963,-3.4235995814999995,-9.1563710385,0.7808839262,-1.795,1.2046,-1.732,5.0000000000105516e-05,-1.4285714285744433e-05,-0.00017999999999995797,0.0006522364206882347,0.0014309919946793315,-0.00027841348287971357
150000000000.0,3,-0.0069627215,0.030596747999999997,0.00887501825,0.00406,0.008106,-0.004959,-3.423501515,-9.1563710385,0.7813644520499999,-1.7952,1.2046,-1.7318,9.999999999998899e-05,-1.4285714285744433e-05,-9.00000000000345e-05,-0.00010163040841204563,0.0006133283512630427,0.0001118631935486114
150000000000.0,3,-0.0196329133,0.024791211199999996,-0.010091042849999999,0.005129,0.007034,-0.007088,-3.4234034485,-9.156469105,0.7814723251999999,-1.7952,1.2046,-1.7316,9.999999999998899e-05,-5.0000000000105516e-05,-7.00000000000145e-05,0.00018057880933763926,0.0002665349438628617,9.015480051743907e-05
150000000000.0,3,-0.0297141495,0.0126898051,-0.01942697365,0.008346,0.009139,-0.007085,-3.4233053819999997,-9.156469105,0.7815311651,-1.7952,1.2046,-1.7315,9.999999999998899e-05,-4.999999999988347e-05,2.999999999997449e-05,-0.00010904932504396392,-0.00022829045914241064,0.0002243946012172593
150000000000.0,3,-0.0182992089,-0.01670072495,0.0026085689,0.010463,0.006991,-0.007077,-3.422913116,-9.156567171499999,0.7822372438999999,-1.7955,1.2046,-1.7312,2.4999999999941735e-05,-3.333333333332966e-05,-9.99999999995449e-06,6.971341058825686e-05,-1.3784183359843993e-05,-3.69512060247601e-05
150000000000.0,3,-0.011130547749999999,-0.05051405415,0.02038802535,0.009408,0.009129,-0.006016,-3.422324717,-9.156665237999999,0.7831688756499999,-1.7958,1.2047,-1.7308,2.4999999999941735e-05,-3.333333333332966e-05,7.999999999996898e-05,-0.00016837003908176662,-0.0005340385112053703,2.681065590337539e-05
150000000000.0,3,0.016563431849999997,-0.057751361849999995,0.0355981395,0.0094,0.005935,-0.009214,-3.420951786,-9.157057503999999,0.7844143202,-1.7962,1.2048,-1.7303,2.500000000016378e-05,-3.333333333332966e-05,2.0000000000020002e-05,-0.00012857707658930906,-0.0004235223447106584,4.572488608900471e-05
150000000000.0,3,0.0399130655,-0.04539498285,0.009414384,0.009369,0.002737,-0.008144,-3.4192846554999994,-9.157645902999999,0.7853067253499999,-1.7965,1.2049,-1.7299,2.4999999999941735e-05,-3.333333333332966e-05,-2.0000000000020002e-05,-3.489925268507221e-05,3.3766522908207364e-05,4.695822131139948e-06
150000000000.0,3,0.053818895199999994,-0.01685763135,-0.02644853505,0.013593,-0.002626,-0.00813,-3.4177155914999995,-9.158136235499999,0.78601280415,-1.7968,1.2051,-1.7296,3.333333333332966e-05,-3.333333333332966e-05,2.0000000000020002e-05,6.629553014181333e-05,-0.00022385873477603901,5.151546021675557e-05
150000000000.0,3,0.0460716417,0.0101793027,-0.027586106449999998,0.013569,-0.004758,-0.007061,-3.4163426605,-9.158626567999999,0.78699346915,-1.7972,1.2052,-1.7292,3.333333333332966e-05,-3.333333333332966e-05,2.0000000000020002e-05,-0.00012939143699086664,-0.00019781870650170674,0.00013483796779700796
150000000000.0,3,0.02964550295,0.019505426849999997,-0.0106696352,0.010405,-0.001532,-0.009208,-3.4151658625,-9.1589207675,0.78803297405,-1.7976,1.2053,-1.7289,3.333333333332966e-05,-3.333333333332966e-05,-2.999999999997449e-05,0.00012425363465462524,-0.00022464943936273407,0.0001440919154398479
150000000000.0,3,0.014837461449999999,0.008168939449999999,-0.0058839899999999995,0.00507,-0.001488,-0.009217,-3.4141851975,-9.159214967,0.78864098635,-1.7978,1.2054,-1.7286,9.999999999998899e-05,-3.333333333332966e-05,-4.999999999999449e-05,8.223543465368799e-05,-0.00041340157716085457,9.099294554282267e-06
150000000000.0,3,-0.00306948145,-0.0054426907500000005,-0.002157463,0.000802,-0.001453,-0.009225,-3.4133025989999997,-9.159607233,0.78879789275,-1.7979,1.2055,-1.7285,5.0000000000105516e-05,-3.333333333332966e-05,0.00012000000000000899,0.0002503727734861627,9.651226462903395e-05,-0.00023099621532729486
150000000000.0,3,-0.0291257505,-0.0153376006,-0.0212412039,0.004031,0.002782,-0.008158,-3.4130083995,-9.1597052995,0.7885821464499999,-1.7979,1.2055,-1.7285,4.999999999988347e-05,-9.999999999998899e-05,-5.0000000000105516e-05,-0.0001742303752008123,-3.0693609456289295e-05,0.00014881979099445886
150000000000.0,3,-0.0430708068,-0.020750871399999996,-0.011836626549999998,0.005133,0.005972,-0.010295,-3.4126161335,-9.159803365999998,0.7886115664,-1.7979,1.2056,-1.7284,9.999999999998899e-05,-4.999999999988347e-05,-5.999999999994898e-05,5.1873002977043114e-05,-0.00014278943373247088,0.0002442787425622761
150000000000.0,3,-0.05153394575,-0.027223260399999998,-0.0152199208,0.009405,0.005939,-0.011353,-3.4123219339999995,-9.1599014325,0.78899402575,-1.798,1.2056,-1.7282,5.0000000000105516e-05,-5.0000000000105516e-05,4.0000000000040004e-05,4.2257422188107796e-05,-1.1223362833101547e-05,7.016953046434793e-05
150000000000.0,3,-0.05473091365,-0.03539219984999999,-0.0379517355,0.000886,0.008141,-0.01137,-3.411929668,-9.1600975655,0.7880820073,-1.7978,1.2057,-1.7284,4.999999999988347e-05,-5.0000000000105516e-05,-4.999999999999449e-05,2.7059315679034412e-05,0.0001254407288586723,0.00014163390401256137
150000000000.0,3,-0.04637564784999999,-0.00936535075,-0.0299298958,0.008347,0.008079,-0.010287,-3.4116354684999997,-9.160293698499999,0.78783684105,-1.7977,1.2057,-1.7283,9.999999999998899e-05,-4.999999999988347e-05,-4.999999999999449e-05,0.000465255595485603,-0.00014978479062710548,0.0005495162336206505
150000000000.0,3,-0.04255105435,0.008012033049999999,-0.009669356899999999,0.008379,0.013405,-0.00816,-3.411537402,-9.160293698499999,0.78793490755,-1.7978,1.2057,-1.7281,-5.0000000000105516e-05,-9.999999999998899e-05,0.00024999999999997247,0.00010327736596504877,-0.0015448100294572775,0.000325558266162318
150000000000.0,3,-0.04178613565,0.019446586949999997,-0.0020103632499999997,0.009474,0.017658,-0.007095,-3.4117335349999998,-9.160195631999999,0.7882094937499999,-1.7978,1.2057,-1.7279,-4.999999999988347e-05,-9.999999999998899e-05,0.00041999999999997595,-0.0009367462342453337,-0.003038478122812549,0.0007606538884390446
150000000000.0,3,-0.04650313429999999,0.0208685512,0.0044326057999999995,0.010573,0.022975,-0.004966,-3.4122238674999994,-9.159999499,0.7884938866,-1.7979,1.2056,-1.7276,9.999999999998899e-05,-0.00010000000000021103,4.999999999999449e-05,-0.0002680444111109459,-0.0005717058921612672,0.00037160821685100487
150000000000.0,3,-0.042756994,0.03678474415,0.01638691215,0.010634,0.030434,-0.004976,-3.4128122664999996,-9.1597052995,0.7888076993999998,-1.7979,1.2055,-1.7273,0.00010000000000021103,-4.999999999988347e-05,-4.0000000000040004e-05,0.0005149045064751778,-8.22234521753451e-05,0.000685498650289329
150000000000.0,3,-0.03309744375,0.0205743517,0.0327149844,0.014976,0.038924,-0.006049,-3.4132045325,-9.1595091665,0.7893960983999999,-1.7981,1.2055,-1.7267,9.999999999998899e-05,-5.0000000000105516e-05,-3.999999999992898e-05,6.911103221329817e-05,-0.00018058578953317195,0.0005856198860736406
150000000000.0,3,-0.0258699427,-0.026311241949999998,0.03819690175,0.010753,0.044286,-0.006065,-3.4133025989999997,-9.1595091665,0.7897491378,-1.7982,1.2055,-1.7262,9.999999999998899e-05,-9.999999999998899e-05,8.999999999992347e-05,-1.3181113231564012e-05,-0.0010826844859348483,0.0005520624091377435
150000000000.0,3,-0.031185147,-0.045296916349999994,0.043806305549999994,0.008595,0.041107,-0.006063,-3.4132045325,-9.1595091665,0.7899746907499999,-1.7982,1.2055,-1.7257,9.999999999998899e-05,-3.333333333332966e-05,-2.999999999997449e-05,0.00016726032811487102,0.00042444447218881187,0.0001039092931032215
150000000000.0,3,-0.0079237732,-0.059124292849999996,0.021584436649999997,0.006425,0.035797,-0.007125,-3.4126161335,-9.1597052995,0.78944513165,-1.7981,1.2055,-1.7254,0.00019999999999997797,-3.333333333332966e-05,-3.999999999992898e-05,0.0003620565734698822,-0.00014043422520382265,0.00028728962932023094
150000000000.0,3,0.028547158149999998,-0.07234365705,-0.005462304049999999,0.002097,0.028374,-0.007122,-3.4114393355,-9.160293698499999,0.78852330655,-1.7979,1.2057,-1.7253,4.999999999988347e-05,-3.333333333332966e-05,-2.0000000000020002e-05,1.877723889509575e-05,0.0004423115374423414,1.12232898206166e-05
150000000000.0,3,0.0739225277,-0.06722458575,-0.0046189321499999995,-9.7e-05,0.020932,-0.007118,-3.4094780054999996,-9.1610782305,0.787670128,-1.7978,1.2059,-1.7252,5.0000000000105516e-05,5.0000000000105516e-05,-7.00000000000145e-05,0.0002619958364853403,0.0002719394639187911,0.00015194332571155655
150000000000.0,3,0.11639512884999999,-0.0730203159,0.024722564649999997,-0.005528,0.011381,-0.002847,-3.407026343,-9.1620588955,0.7872092154499999,-1.7979,1.2062,-1.725,-2.4999999999941735e-05,4.999999999988347e-05,7.999999999996898e-05,-8.980491884891251e-05,-1.3215753655870799e-05,-0.0004087806964960805
150000000000.0,3,0.14142169964999998,-0.0595655921,0.0599382448,-0.010938,0.005024,0.002484,-3.4046727469999998,-9.162941494,0.7871601822000001,-1.798,1.2064,-1.7249,-2.500000000016378e-05,3.333333333332966e-05,1.0000000000065512e-05,-3.027302737601545e-05,-0.0001827415092738871,-0.0003258675877040318
150000000000.0,3,0.15842643074999999,-0.051573172349999995,0.08536688824999998,-0.015312,-0.006667,0.00569,-3.4024172174999996,-9.163726025999999,0.7876112880999999,-1.7983,1.2067,-1.7247,-2.4999999999941735e-05,3.333333333332966e-05,-6.0000000000060005e-05,-0.000123592094459557,0.0002364996074104564,5.738757278805906e-05
150000000000.0,3,0.17639221354999998,-0.04955300245,0.09612478329999999,-0.016476,-0.017319,0.0089,-3.4000636215,-9.164510558,0.78838601345,-1.7986,1.2069,-1.7246,-2.4999999999941735e-05,3.333333333332966e-05,4.0000000000040004e-05,-0.00014880346725409943,0.00036273900840066986,-0.0006968095463237844
150000000000.0,3,0.19541711455,-0.042090141799999994,0.09996899009999999,-0.014432,-0.02906,0.008914,-3.3973177595,-9.1653931565,0.7896314579999999,-1.7992,1.2072,-1.7244,-3.333333333332966e-05,9.999999999998899e-05,2.999999999997449e-05,0.00011944088983639745,-0.0002603419905358173,-0.0006776941315704832
150000000000.0,3,0.19345578455,-0.033224930199999995,0.08628871334999999,-0.015566,-0.036515,0.01105,-3.3949641634999996,-9.1661776885,0.7908867091999999,-1.7997,1.2074,-1.7243,-3.333333333332966e-05,0.00010000000000021103,-2.0000000000020002e-05,-0.00015081706883268708,-0.0003476778380631096,-0.00037388409338312556
150000000000.0,3,0.1653205057,-0.038147868499999994,0.058496667249999995,-0.016666,-0.042898,0.007849,-3.392708634,-9.166962220499999,0.7917398877499999,-1.8001,1.2076,-1.7244,-3.333333333332966e-05,4.999999999988347e-05,-2.999999999997449e-05,-1.4532485539175966e-05,-0.00019987961419243305,-0.0003893888489834296
150000000000.0,3,0.110030613,-0.013964669599999998,0.0327149844,-0.016649,-0.042896,0.004641,-3.3911395699999995,-9.167452552999999,0.7922400269,-1.8003,1.2078,-1.7246,5.0000000000105516e-05,5.0000000000105516e-05,-2.999999999997449e-05,-1.8585060059583824e-05,-0.00020018559034529204,-0.0004167058892527997
150000000000.0,3,0.046895400299999994,-0.00212804305,-0.0012454445499999998,-0.013432,-0.04292,0.001442,-3.3902569715,-9.167844818999999,0.7923871266499999,-1.8004,1.2079,-1.725,4.999999999988347e-05,9.999999999998899e-05,-9.00000000000345e-05,0.0003968229450723726,0.0007323511264316629,-0.0006542025910940552
150000000000.0,3,-0.0014611908499999999,0.01834824215,0.0009022117999999999,-0.009112,-0.039753,-0.003893,-3.389766639,-9.167942885499999,0.7929264923999999,-1.8006,1.2079,-1.7253,-9.999999999998899e-05,2.4999999999941735e-05,2.0000000000020002e-05,3.186493532369994e-05,1.211883700014127e-05,-0.00024829409285009874
150000000000.0,3,-0.05204389155,0.0163574922,-0.01369989005,-0.00372,-0.034465,-0.007092,-3.389766639,-9.167844818999999,0.7934658581499999,-1.8007,1.2079,-1.7255,0.00019999999999997797,2.4999999999941735e-05,-0.000280000000000058,-0.00041913661002968006,0.0018714330339690832,-0.00045208325846335384
150000000000.0,3,-0.06749917194999999,0.01758332345,-0.0155729602,-0.003677,-0.032328,-0.012429,-3.3895705059999997,-9.167942885499999,0.7939856106,-1.8009,1.2079,-1.7256,-9.999999999998899e-05,2.500000000016378e-05,4.999999999999449e-05,-5.5568847339371175e-05,-0.0004279419161272724,-0.000422913486830101
150000000000.0,3,-0.04329635974999999,0.026262208699999998,0.000392266,-0.002635,-0.035533,-0.012419,-3.388982107,-9.168040952,0.7949270489999999,-1.8012,1.2079,-1.7257,9.999999999998899e-05,2.4999999999941735e-05,-0.00014999999999998348,0.00016976478393848637,0.0007582748195309463,-0.0004837113132176718
150000000000.0,3,-0.0089240515,0.022771041299999996,-0.0044718324,0.001617,-0.038763,-0.01454,-3.3875111095,-9.168433217999999,0.79621172015,-1.8016,1.208,-1.7256,1.666666666655381e-05,-1.4285714285744433e-05,-2.0000000000020002e-05,-0.0004746512447182383,0.00012597719454077172,-0.00036555032156471157
150000000000.0,3,-0.006894074949999999,0.024251845449999997,-0.0151414676,0.011151,-0.045238,-0.01131,-3.3863343114999997,-9.1687274175,0.7983397631999999,-1.8023,1.2081,-1.7253,1.6666666666775853e-05,-1.4285714285744433e-05,-9.99999999995449e-06,7.5861700852275504e-06,-0.0002989127190407004,-0.00023329767173141391
150000000000.0,3,-0.0408348906,0.0244577851,-0.01379795655,0.013319,-0.040993,-0.011311,-3.3855497795,-9.168825484,0.80074239245,-1.803,1.2081,-1.725,1.6666666666775853e-05,-1.4285714285744433e-05,-2.999999999997449e-05,-0.00032671353637137024,0.0004527034627908044,-0.00021979962430540567
150000000000.0,3,-0.07658012985,0.00581534345,-0.03725546335,0.010159,-0.035638,-0.011322,-3.385451713,-9.1687274175,0.8023604897,-1.8035,1.2081,-1.7249,1.666666666655381e-05,-1.4285714285522388e-05,0.00015999999999993797,-6.330322981518144e-05,-0.0016653609662835578,-6.488391507497582e-05
150000000000.0,3,-0.10798102315,-0.015357213899999998,-0.06034031744999999,0.00379,-0.029193,-0.008137,-3.3859420455,-9.1685312845,0.8028410155499999,-1.8036,1.2081,-1.725,1.666666666655381e-05,-1.4285714285744433e-05,1.0000000000065512e-05,-0.00013656151928187477,0.0005462475872000105,-9.834297243305201e-05
150000000000.0,3,-0.13851893125,-0.015651413399999998,-0.04201168859999999,0.000651,-0.020642,-0.007084,-3.3871188434999997,-9.168040952,0.80291946875,-1.8036,1.2079,-1.7253,1.6666666666775853e-05,-1.4285714285744433e-05,7.999999999996898e-05,-2.9472564020416314e-06,-0.0009249102505302087,3.636666865824978e-05
150000000000.0,3,-0.14707033005,-0.0204174453,-0.0526028706,0.002804,-0.015334,-0.002813,-3.3886879075,-9.167452552999999,0.80274294905,-1.8034,1.2078,-1.7256,9.999999999998899e-05,-1.4285714285744433e-05,4.999999999999449e-05,-0.0001111028574078965,-0.0006136148176290046,1.2125595745704487e-05
150000000000.0,3,-0.14391258875,-0.02117255735,-0.056456884049999996,-0.001426,-0.008906,-0.000691,-3.390551171,-9.166864154,0.8019486104,-1.8031,1.2076,-1.726,9.999999999998899e-05,-3.333333333332966e-05,-0.00012000000000000899,0.00010882496834652144,0.0010139754866775874,0.00010105399876936261
150000000000.0,3,-0.11392385305,-0.0208685512,-0.0378732823,-0.004575,-0.003549,-0.002835,-3.391924102,-9.166471888,0.8010267853,-1.8027,1.2075,-1.7264,4.999999999988347e-05,-3.333333333332966e-05,1.4999999999987246e-05,-0.00030403306794113405,0.00023825105477892627,2.7750566996331827e-05
150000000000.0,3,-0.07100995265,-0.014396162199999998,-0.02886097095,-0.004514,0.002847,-0.004978,-3.392512501,-9.166275755,0.79993824715,-1.8024,1.2074,-1.7267,5.0000000000105516e-05,-3.333333333332966e-05,1.4999999999987246e-05,9.158789624730268e-05,-9.877355100051943e-06,1.545344158726536e-05
150000000000.0,3,-0.0427766073,1.9613299999999997e-05,-0.021103910799999997,-0.004474,0.006048,-0.008184,-3.3926105675,-9.1663738215,0.7989281622,-1.8021,1.2074,-1.7269,-5.0000000000105516e-05,-2.4999999999941735e-05,-2.999999999997449e-05,-0.00011717610880701557,-9.778212483602111e-05,5.8900438816955614e-05
150000000000.0,3,-0.0206331916,0.013846989799999999,-0.02089797115,0.000844,0.006001,-0.004971,-3.3926105675,-9.166471888,0.79826131,-1.8019,1.2075,-1.727,-4.999999999988347e-05,-2.500000000016378e-05,0.00036999999999998145,-0.0003848123352028221,-0.002634664570304368,0.00011335186492589244
150000000000.0,3,-0.013827376499999999,0.03313667035,-0.0177696498,0.004013,0.002778,-0.003891,-3.392708634,-9.1663738215,0.7981240168999999,-1.8018,1.2075,-1.727,4.999999999988347e-05,-2.4999999999941735e-05,-9.99999999995449e-06,1.4883975684387707e-05,0.0008809697659262206,-0.00010899777083173134
150000000000.0,3,0.011081514499999999,0.04219801495,-0.03379371589999999,0.005044,-0.001493,-0.003882,-3.3924144345,-9.166471888,0.7981436302,-1.8019,1.2075,-1.727,5.0000000000105516e-05,-2.4999999999941735e-05,-9.99999999995449e-06,-0.00010572241932171877,-0.00013611855181916432,-0.00019004731590532842
150000000000.0,3,0.00987529655,0.0367357109,-0.027772432799999996,0.000757,-0.002525,-0.001752,-3.392316368,-9.166569954499998,0.79795730385,-1.8018,1.2075,-1.727,5.0000000000105516e-05,-3.333333333332966e-05,9.999999999998899e-05,-0.0003108506468372241,-0.000405206964026128,-0.0002702558578153713
150000000000.0,3,0.0030204482,0.030792880999999998,-0.01417060925,0.000744,-0.004654,-0.002815,-3.3921202349999997,-9.166569954499998,0.7979671104999999,-1.8018,1.2075,-1.7271,4.999999999988347e-05,-3.333333333355171e-05,-2.0000000000020002e-05,0.00048561100742738894,0.0002834492818306611,-0.00035787961260203005
150000000000.0,3,0.0093555441,-0.007453054,-0.0205351251,0.000706,-0.009981,-0.003874,-3.3916299024999996,-9.166864154,0.7979082706,-1.8019,1.2076,-1.7271,9.999999999998899e-05,-3.333333333332966e-05,-4.0000000000040004e-05,-6.713726583895685e-05,-0.00011250921149374982,8.454400180823995e-05
150000000000.0,3,0.0127878716,-0.0292042037,-0.0173185439,0.002808,-0.013196,-0.002798,-3.3908453705,-9.167060287,0.79827111665,-1.802,1.2076,-1.7271,-5.0000000000105516e-05,-3.333333333332966e-05,7.00000000000145e-05,0.0001106640243397905,-0.000632067556397331,-0.0003688304727287317
150000000000.0,3,0.0114149406,-0.0333033834,-0.01648497865,0.002787,-0.016391,-0.003861,-3.3900608384999997,-9.167354486499999,0.7987908691,-1.8022,1.2077,-1.727,-4.999999999988347e-05,-3.333333333332966e-05,9.999999999998899e-05,-0.00022458665843139158,0.00018330811780553624,-0.0003734304145561751
150000000000.0,3,0.0289492308,-0.05384831515,-0.0183188222,0.001719,-0.016382,-0.003866,-3.3888840405,-9.1677467525,0.7991242952,-1.8024,1.2078,-1.727,0.00019999999999997797,-3.333333333332966e-05,-0.000140000000000029,-5.731620563320661e-05,-0.0007916428055003699,0.0005093842731698217
150000000000.0,3,0.04413973164999999,-0.06538093554999999,-0.011983726299999999,0.001721,-0.017446,-0.006002,-3.38721691,-9.1683351515,0.79968327425,-1.8026,1.208,-1.7269,4.999999999988347e-05,-3.333333333332966e-05,4.999999999999449e-05,-0.0004783304461142279,3.76345252024457e-05,-0.0004125383049906617
150000000000.0,3,0.04726805299999999,-0.07363813485,-0.0148276548,-0.00042,-0.019557,-0.00814,-3.38525558,-9.169021617,0.7996734676,-1.8028,1.2082,-1.727,5.0000000000105516e-05,-3.333333333332966e-05,-8.999999999992347e-05,-4.460137212380921e-05,-0.00030842239956574424,0.0002626968565095922
150000000000.0,3,0.0319304524,-0.08136577505,-0.042609894249999995,-0.004695,-0.019523,-0.007083,-3.383490383,-9.1697080825,0.7994773345999999,-1.8028,1.2084,-1.7271,2.4999999999941735e-05,-3.333333333332966e-05,0.00012999999999996348,0.000281922317692862,-0.0005172966437776427,-0.00043231469057669614
150000000000.0,3,0.0070804013,-0.06644005374999999,-0.03792231555,-0.004669,-0.017389,-0.009223,-3.382117452,-9.170198415,0.7988300957,-1.8027,1.2086,-1.7274,2.500000000016378e-05,-4.999999999988347e-05,4.0000000000040004e-05,-0.0003069084926359267,-0.0008971543944764626,7.690204889332364e-05
150000000000.0,3,-0.00805125965,-0.03507838705,-0.00324600115,-0.005745,-0.018446,-0.009223,-3.3811367869999995,-9.170590680999998,0.7988693223000001,-1.8028,1.2087,-1.7275,2.4999999999941735e-05,-5.0000000000105516e-05,4.999999999999449e-05,-0.00013365325129499617,-5.230598587191437e-05,-0.00027435155379151865
150000000000.0,3,-0.011611073599999999,-0.0092770909,0.006148769549999999,-0.004664,-0.017388,-0.01029,-3.3800580554999997,-9.170982946999999,0.7990556486499999,-1.8029,1.2088,-1.7275,2.4999999999941735e-05,-5.0000000000105516e-05,-4.0000000000040004e-05,0.00021180657593045105,-0.000514733002574097,9.598355535489489e-05
150000000000.0,3,-0.0151610809,0.0037755602499999997,-0.00122583125,-0.002545,-0.0206,-0.012415,-3.3790773904999996,-9.171375213,0.7993988814,-1.8031,1.2089,-1.7276,-9.999999999998899e-05,-4.999999999988347e-05,9.999999999998899e-05,0.0004806570679667388,0.00131209037055946,-0.0008200672148586108
150000000000.0,3,0.00828661925,0.01352337035,0.0127094184,-0.001438,-0.016346,-0.013488,-3.3777044595,-9.171767479,0.79997747375,-1.8034,1.209,-1.7275,1.2499999999970868e-05,-2.4999999999941735e-05,2.0000000000020002e-05,-0.0001428953982824943,0.0011137040425011069,-0.00026286722563950704
150000000000.0,3,0.00938496405,0.01513166095,0.014886494699999999,-0.001417,-0.01315,-0.012426,-3.376429595,-9.1722578115,0.8006443259499999,-1.8036,1.2091,-1.7274,1.2499999999970868e-05,-2.4999999999941735e-05,2.999999999997449e-05,-0.00017591725124521673,-0.00030570055719292277,-2.0398059453974327e-05
150000000000.0,3,0.01832862885,0.0074040207499999995,0.02878251775,0.000757,-0.008905,-0.013498,-3.374860531,-9.172748144,0.80140924465,-1.8039,1.2093,-1.7271,1.2499999999970868e-05,-2.500000000016378e-05,-5.999999999994898e-05,2.3142594250735726e-05,0.0006165293325115506,-7.518407203477295e-06
150000000000.0,3,0.03188141915,-0.0085906254,0.029115943849999996,0.001834,-0.007849,-0.0135,-3.3729972674999997,-9.173336543,0.80211532345,-1.8043,1.2094,-1.7269,1.2500000000192912e-05,-2.4999999999941735e-05,7.00000000000145e-05,-7.664721907740812e-05,-0.0001390406347883122,-0.0002967788238610325
150000000000.0,3,0.03445076145,-0.0077864801,0.03778502245,0.000735,-0.009975,-0.010298,-3.3713301369999997,-9.1738268755,0.80317444165,-1.8047,1.2096,-1.7266,1.2499999999970868e-05,-5.0000000000105516e-05,7.00000000000145e-05,-0.0003905253563933897,-0.00065589808116151,-0.00016142479393099762
150000000000.0,3,0.0385205212,-0.0226337482,0.03333280335,0.000711,-0.013173,-0.010295,-3.36956494,-9.1744152745,0.8041943332499999,-1.8051,1.2097,-1.7263,1.2499999999970868e-05,-4.999999999988347e-05,3.999999999992898e-05,-9.425845963062507e-05,0.00024739565709208655,-0.0002009655922012854
150000000000.0,3,0.02287891445,-0.028772711099999997,0.023486926749999998,0.000701,-0.013175,-0.008161,-3.3681920089999995,-9.1748075405,0.80505731845,-1.8054,1.2099,-1.7261,1.2499999999970868e-05,-3.333333333332966e-05,2.0000000000020002e-05,-0.00011169052663784207,-5.000310170588662e-06,-0.0002589901622673807
150000000000.0,3,0.00093163175,-0.04519884985,0.01654381855,0.003894,-0.014267,-0.008155,-3.3670152109999996,-9.1751998065,0.8060085634999999,-1.8058,1.21,-1.7259,1.2499999999970868e-05,-3.333333333332966e-05,-9.99999999995449e-06,-0.00033012799209219956,0.00012166554642689675,-0.00028565708358030406
150000000000.0,3,-0.023506540049999997,-0.0311263071,0.016769371499999998,0.008141,-0.014307,-0.003877,-3.3667210114999997,-9.1751998065,0.80743052775,-1.8062,1.21,-1.7256,6.666666666665932e-05,-3.333333333332966e-05,3.999999999992898e-05,-0.0001229525860897418,-0.00038260011725710363,-6.024146907712691e-05
150000000000.0,3,-0.02003498595,0.00024516625,0.007453054,0.013489,-0.013284,-0.004936,-3.3664268119999994,-9.175101739999999,0.8091270782,-1.8067,1.21,-1.7253,6.666666666665932e-05,-9.999999999998899e-05,-0.000160000000000049,-0.0005891523589340864,-0.0004250717807332549,-2.4703050255148185e-05
150000000000.0,3,-0.01411176935,0.022927947699999996,-0.01925045395,0.016698,-0.012245,-0.004931,-3.366230679,-9.175101739999999,0.81068633555,-1.8071,1.2099,-1.7249,6.666666666665932e-05,-9.999999999998899e-05,-0.00015999999999993797,-0.00022753337692815734,0.002430686268127369,3.1038103161407093e-05
150000000000.0,3,-0.018054042649999998,0.032901310749999996,-0.021584436649999997,0.016759,-0.005849,-0.007076,-3.366034546,-9.1750036735,0.8121181064499999,-1.8075,1.2099,-1.7245,9.999999999998899e-05,-1.999999999990898e-05,2.0000000000020002e-05,-4.018605410882614e-06,-0.000386053907774464,4.6008097959848726e-05
150000000000.0,3,-0.027586106449999998,0.019064127599999998,-0.012542705349999999,0.013578,-0.002626,-0.006018,-3.3659364794999997,-9.174905607,0.8134027776,-1.8079,1.2099,-1.7242,1.999999999990898e-05,-2.0000000000131024e-05,-4.999999999999449e-05,0.00017710308005813857,-7.347508476174269e-05,0.0002983672551843952
150000000000.0,3,-0.04463006415,-0.0071392412,-0.0024320492,0.010397,0.000596,-0.00496,-3.366034546,-9.1748075405,0.8145207357,-1.8082,1.2099,-1.7238,2.0000000000131024e-05,-1.999999999990898e-05,-4.0000000000040004e-05,4.543876102314215e-05,9.675126186881045e-06,0.0002111154197113052
150000000000.0,3,-0.04233530804999999,-0.0431100334,0.0102577559,0.00514,0.01023,-0.004985,-3.3661326125,-9.174709473999998,0.81500126155,-1.8083,1.2098,-1.7236,1.999999999990898e-05,-2.0000000000131024e-05,7.00000000000145e-05,9.800453279207311e-05,-0.0004076978576881274,0.00011352983794044036
150000000000.0,3,-0.01232695905,-0.042099948449999994,0.0243989452,0.001974,0.014514,-0.004997,-3.3657403465,-9.1748075405,0.81521700785,-1.8084,1.2099,-1.7234,2.0000000000131024e-05,-1.999999999990898e-05,2.0000000000020002e-05,-0.0002508045800755365,-5.011634580465163e-05,0.00010247444989985866
150000000000.0,3,0.011856239849999999,-0.0304790682,0.01701453775,0.003024,0.012374,-0.004993,-3.3650538809999997,-9.175101739999999,0.8152660410999999,-1.8085,1.2099,-1.7232,1.999999999990898e-05,-3.333333333332966e-05,9.99999999995449e-06,-7.28106683505203e-05,-0.00017825008165073264,-0.00013322895277045887
150000000000.0,3,0.0394815729,-0.013886216399999998,0.02666428135,0.008337,0.010197,-0.003914,-3.3641712825,-9.1753959395,0.8159426999499999,-1.8087,1.21,-1.7228,-9.999999999998899e-05,-3.333333333332966e-05,7.00000000000145e-05,0.00016223759229072598,0.0002881492942925501,-0.0003711962846897343
150000000000.0,3,0.0639981979,-0.01797558945,0.00422666615,0.009351,0.004858,-0.001772,-3.3628964179999996,-9.1757882055,0.8165409056,-1.809,1.2101,-1.7225,5.0000000000105516e-05,-3.333333333332966e-05,2.0000000000020002e-05,-0.0003939461244981679,-3.506440290479418e-05,-5.111534455659594e-05
150000000000.0,3,0.07498164589999999,-0.0079826131,-0.01226811915,0.008227,-0.001528,-0.000699,-3.3616215534999996,-9.1761804715,0.8171685312,-1.8093,1.2103,-1.7222,4.999999999988347e-05,-3.333333333332966e-05,-7.00000000000145e-05,-0.00010702953784869074,-0.00029747094407661656,-3.714150278621986e-05
150000000000.0,3,0.0646062102,-0.0034617474499999998,-0.02574245625,0.011392,-0.005816,-0.000689,-3.3605428219999998,-9.176474671,0.81792364325,-1.8095,1.2104,-1.722,-3.333333333332966e-05,-3.333333333332966e-05,-9.99999999995449e-06,-0.0003042588841157823,-8.466100580406533e-05,-9.912451834104274e-05
150000000000.0,3,0.0480133584,0.00387362675,-0.021770763000000002,0.008173,-0.010049,-0.003891,-3.3594640904999995,-9.1767688705,0.81874740185,-1.8098,1.2104,-1.7217,-3.333333333332966e-05,-3.333333333332966e-05,9.99999999995449e-06,0.00022609897827341463,-0.0004097008177172956,-9.598559261281281e-05
150000000000.0,3,0.021260817199999997,0.00038245935,-0.011513007099999998,0.00496,-0.012152,-0.004961,-3.358581492,-9.177063069999999,0.8195613537999998,-1.8101,1.2105,-1.7215,-3.333333333332966e-05,-4.999999999988347e-05,2.0000000000020002e-05,-0.0005217132270334268,0.0002674405798359647,-0.00011469567973998451
150000000000.0,3,-0.00565843705,-0.011817013249999998,-0.034303661699999995,0.00817,-0.012176,-0.007091,-3.3578950264999996,-9.177259203,0.8200516862999999,-1.8103,1.2106,-1.7215,-1.666666666655381e-05,-5.0000000000105516e-05,2.999999999997449e-05,-0.00035865565510073694,-0.00038111650620464843,-7.7852573536763e-05
150000000000.0,3,-0.01823056235,-0.02678196115,-0.042286274799999995,0.014569,-0.012228,-0.007079,-3.3573066275,-9.177455336,0.8208558316,-1.8106,1.2106,-1.7213,-1.6666666666775853e-05,-9.999999999998899e-05,-3.999999999992898e-05,-0.00019279688899676017,-0.00022648502545585814,-0.00012332784506785543
150000000000.0,3,0.010728475099999999,-0.029351303449999998,-0.02317311395,0.017766,-0.013319,-0.00814,-3.3561298294999995,-9.177651468999999,0.82239547565,-1.8111,1.2107,-1.7208,-1.6666666666775853e-05,-3.333333333332966e-05,-2.0000000000020002e-05,-0.0001333372254164189,0.0003480949890264373,-0.00013519775086212604
150000000000.0,3,0.0264387284,-0.02842947835,-0.0033538743,0.016724,-0.010113,-0.008149,-3.354854965,-9.178043735,0.8242685458,-1.8117,1.2108,-1.7203,-1.666666666655381e-05,-3.333333333332966e-05,-2.0000000000020002e-05,-0.0002188161299945257,-0.0003150474503277323,6.387574845456712e-05
150000000000.0,3,0.030400614999999995,-0.02313388735,0.0070019481,0.012474,-0.007947,-0.008162,-3.3533839674999997,-9.1783379345,0.8260239361499999,-1.8123,1.2109,-1.7198,-1.666666666655381e-05,-3.333333333332966e-05,4.999999999999449e-05,-0.0003197839788477985,-0.0010962753399677005,1.149320825843958e-05
150000000000.0,3,0.029155170449999997,-0.029920089149999995,0.030214288649999997,0.013539,-0.009021,-0.009228,-3.3518149034999998,-9.178828267,0.8279558462,-1.813,1.211,-1.7192,-1.6666666666775853e-05,-1.4285714285744433e-05,9.99999999995449e-06,-8.12706444917044e-05,6.675763580354932e-05,-0.000252900239526177
150000000000.0,3,0.02427145875,-0.020593965,0.0236144132,0.010322,-0.011126,-0.009231,-3.3504419725,-9.179122466499999,0.8299171761999999,-1.8136,1.2111,-1.7186,-1.6666666666775853e-05,-1.4285714285744433e-05,3.0000000000085514e-05,-6.52619994501169e-05,0.00021966755374980274,-0.00014138136983410377
150000000000.0,3,0.0159259996,-0.03970712585,-0.01020872265,0.008181,-0.013238,-0.011367,-3.3487748419999996,-9.179612799,0.83096648775,-1.814,1.2113,-1.7183,-1.666666666655381e-05,-1.4285714285744433e-05,-6.0000000000060005e-05,0.00014206710500896946,-0.00024206970093487712,-0.00014378823936400664
150000000000.0,3,0.0014611908499999999,-0.05492704665,-0.037902702249999996,0.00602,-0.016416,-0.011366,-3.3474019109999995,-9.1801031315,0.8314372069499999,-1.8143,1.2114,-1.7182,-1.666666666655381e-05,-1.4285714285522388e-05,-9.999999999998899e-05,0.00031521782194410264,0.0006213797665659548,-0.0002720766457784407
150000000000.0,3,-0.0067077486,-0.062007447949999996,-0.0420313019,-0.000433,-0.020628,-0.008169,-3.346225113,-9.1804953975,0.8315254668000001,-1.8144,1.2115,-1.7183,-1.6666666666775853e-05,-1.4285714285744433e-05,-4.999999999999449e-05,7.864113593170075e-05,0.00016162786057738465,-0.00022613594046516639
150000000000.0,3,-0.02019189235,-0.0542307745,-0.041854782199999996,-0.001538,-0.023817,-0.00603,-3.3454405809999996,-9.180789597,0.83133914045,-1.8144,1.2116,-1.7185,-1.6666666666775853e-05,-1.4285714285744433e-05,6.0000000000060005e-05,8.50645283323459e-06,0.0002304760113858162,-0.00021530183951101733
150000000000.0,3,-0.0300868022,-0.033126863699999995,-0.0366376444,-0.006871,-0.022708,-0.004973,-3.3451463815,-9.18098573,0.8309076478499999,-1.8143,1.2116,-1.7188,-1.666666666655381e-05,-1.4285714285744433e-05,2.999999999997449e-05,0.00013227867677345628,-0.00016441078873952186,-0.00016039638698694958
150000000000.0,3,-0.0273017136,-0.00922805765,-0.0351274203,-0.011125,-0.019478,-0.00285,-3.345048315,-9.1810837965,0.8299956293999999,-1.814,1.2117,-1.7193,9.999999999998899e-05,-4.999999999988347e-05,-0.00021000000000004349,0.00010975893773612633,0.0006259534229620112,-0.00023125392964207236
150000000000.0,3,-0.0407760507,0.013905829699999999,-0.0351666469,-0.013254,-0.017331,-0.000721,-3.3455386474999997,-9.18098573,0.8288384446999999,-1.8137,1.2117,-1.7199,9.999999999998899e-05,-5.0000000000105516e-05,-0.00017999999999995797,3.144286637657423e-05,0.0011730092496844424,0.00021165394093669576
150000000000.0,3,-0.048640984,0.0340094622,-0.0075511204999999994,-0.00681,-0.012055,-0.000716,-3.3463231794999997,-9.180789597,0.82831869225,-1.8134,1.2116,-1.7202,6.666666666665932e-05,-5.0000000000105516e-05,-4.0000000000040004e-05,1.1851862956824277e-05,0.00032197535475209094,1.7281963350157525e-05
150000000000.0,3,-0.041001603649999996,0.04680714045,0.0068254284,-0.002472,-0.004629,-0.002854,-3.3469115784999994,-9.1804953975,0.8283088855999999,-1.8134,1.2115,-1.7203,6.666666666688137e-05,-4.999999999988347e-05,-4.999999999999449e-05,8.199829643795731e-05,-0.00015350082211407212,5.182737203623944e-05
150000000000.0,3,-0.029665116249999998,0.044737937299999996,0.0070019481,0.001835,-0.000401,-0.003919,-3.3472057779999997,-9.180397331,0.82857366515,-1.8135,1.2115,-1.7203,6.666666666665932e-05,-9.999999999998899e-05,-0.00010999999999994348,4.095563436590233e-05,0.0004359734459642439,0.00016514143334367404
150000000000.0,3,-0.0205743517,0.03666706435,0.0021378497,0.008267,0.000616,-0.008178,-3.3470096449999995,-9.180397331,0.8292503239999999,-1.8137,1.2115,-1.72,-0.00010000000000021103,-5.0000000000105516e-05,0.00015999999999993797,-0.0002706350372583266,-0.0013837696935317112,0.00014565983550030026
150000000000.0,3,-0.0226337482,0.008649465299999999,-0.018907221199999998,0.003998,0.000652,-0.008184,-3.346617379,-9.1804953975,0.8296425899999998,-1.8138,1.2115,-1.7199,0.00020000000000020002,-5.0000000000105516e-05,-0.00014999999999998348,0.0001997166131859629,-1.3335968169769785e-05,0.00023903704638250645
150000000000.0,3,-0.01611232595,-0.01830901555,-0.01220927925,0.021064,-0.000553,-0.009219,-3.3459309134999997,-9.180691530499999,0.8308782278999999,-1.8142,1.2116,-1.7195,9.999999999998899e-05,-9.999999999998899e-05,-0.00017999999999995797,-0.00010145689832885552,0.0010140154379680855,7.701089193634658e-05
150000000000.0,3,-0.027909725899999998,-0.05226944449999999,0.00879656505,0.010391,-0.000466,-0.00817,-3.3452444479999994,-9.180789597,0.8321727057,-1.8146,1.2116,-1.719,1.2499999999970868e-05,-4.999999999988347e-05,6.999999999990347e-05,3.430698630735307e-05,-6.409433907772488e-05,0.00013946275609066916
150000000000.0,3,-0.03893240049999999,-0.06015399109999999,-0.0034519407999999995,0.006101,-0.000435,-0.003907,-3.3449502485,-9.180887663499998,0.83259439165,-1.8147,1.2116,-1.7189,1.2499999999970868e-05,-5.0000000000105516e-05,-0.00011999999999989797,0.00014025059285760477,0.0005018089202921683,-0.00014422735175401158
150000000000.0,3,-0.050210048,-0.0481114249,0.0012944778,-0.00136,0.001756,-0.001788,-3.3452444479999994,-9.180789597,0.8324865184999999,-1.8147,1.2116,-1.7189,1.2499999999970868e-05,-1.666666666655381e-05,1.999999999990898e-05,0.00024710047718912165,-0.0002847418124780621,0.0001034726862414459
150000000000.0,3,-0.0419920753,-0.012317152399999998,0.019819239649999997,-0.003537,-0.000363,0.003551,-3.3459309134999997,-9.1804953975,0.8325159384499999,-1.8147,1.2115,-1.719,1.2499999999970868e-05,-1.6666666666775853e-05,4.0000000000040004e-05,2.5083932060132597e-05,-0.00012087534900406816,6.714185693201813e-06
150000000000.0,3,-0.02405571245,0.027105580599999998,0.03743198305,-0.006721,0.002857,0.005676,-3.3470096449999995,-9.1801031315,0.8325649717,-1.8146,1.2114,-1.719,1.2500000000192912e-05,-1.6666666666775853e-05,2.0000000000020002e-05,-0.00010798317870297502,-3.5331063140464636e-05,0.0001973681850673259
150000000000.0,3,0.0032558077999999997,0.0380694153,0.0500727549,-0.008853,0.002874,0.005673,-3.3476961105,-9.1799069985,0.8326336182499999,-1.8146,1.2113,-1.7191,1.2499999999970868e-05,-1.666666666655381e-05,3.999999999992898e-05,0.00014230053295527512,-0.0001670216943776559,4.682570132263919e-05
150000000000.0,3,0.030586941349999997,0.022329742049999997,0.05500549985,-0.008842,0.003939,0.00567,-3.347794177,-9.179808932,0.8326434248999999,-1.8146,1.2113,-1.7191,1.2499999999970868e-05,-1.666666666655381e-05,-3.999999999992898e-05,-0.0001355463885013286,0.0001205721514536684,-6.227013002613191e-05
150000000000.0,3,0.03945215294999999,-0.00865927195,0.06390993805,-0.012024,0.003967,0.00246,-3.3473038445,-9.180005065,0.8327218781,-1.8146,1.2114,-1.719,1.2499999999970868e-05,-1.6666666666775853e-05,-4.0000000000040004e-05,0.00017849465831565325,0.00011499020350536071,7.660078399185366e-05
150000000000.0,3,0.02544825675,-0.023908612699999998,0.05783962169999999,-0.009903,0.000754,0.000333,-3.3469115784999994,-9.180201197999999,0.8325061317999999,-1.8146,1.2114,-1.719,-1.999999999990898e-05,-1.4285714285744433e-05,7.00000000000145e-05,-4.746248391818142e-05,-0.0003736979060497969,-7.498071387423977e-05
150000000000.0,3,9.80665e-05,-0.04321790655,0.04408089175,-0.00774,0.002869,-0.001803,-3.346617379,-9.1802992645,0.8323394187500001,-1.8146,1.2115,-1.7191,-2.0000000000131024e-05,-1.4285714285744433e-05,7.999999999996898e-05,-0.00012038296808292159,-0.0013415645929724107,0.00037144012362677614
150000000000.0,3,-0.0270467407,-0.05290687674999999,0.023869386099999997,-0.003514,-0.002494,-0.001785,-3.3465193125,-9.1802992645,0.83220212565,-1.8145,1.2115,-1.7191,-1.999999999990898e-05,-1.4285714285744433e-05,7.00000000000145e-05,0.0003462137922527475,0.00013401566711612745,-0.0003188826621558505
150000000000.0,3,-0.03297976395,-0.03974635245,0.016082905999999998,-0.003505,-0.001428,-0.001786,-3.346617379,-9.1802992645,0.83206483255,-1.8145,1.2115,-1.7192,-2.0000000000131024e-05,-1.4285714285522388e-05,-2.999999999997449e-05,-0.0003097629586148454,3.5755296436734696e-05,-7.487670522898782e-05
150000000000.0,3,-0.018210949049999998,-0.006197802799999999,0.01872089485,-0.003485,-0.000361,-0.003922,-3.3465193125,-9.180397331,0.8319667660499999,-1.8145,1.2115,-1.7192,-1.999999999990898e-05,-1.4285714285744433e-05,4.999999999999449e-05,-1.7520766615541916e-05,-0.0002823591190350694,-0.00014996438026226855
150000000000.0,3,-0.00196133,0.0282039254,0.02491869765,-0.001387,-0.003577,-0.001778,-3.3465193125,-9.1802992645,0.83235903205,-1.8146,1.2115,-1.7191,9.999999999998899e-05,-1.4285714285744433e-05,-9.99999999995449e-06,1.8244166403169615e-05,-0.0005414380924861906,0.0001363015897997144
150000000000.0,3,-0.0085317855,0.07536410525,0.038363614799999994,0.003917,-0.005756,0.001439,-3.3469115784999994,-9.1801031315,0.8335750566499999,-1.8149,1.2114,-1.7189,9.999999999998899e-05,-1.4285714285744433e-05,-3.0000000000085514e-05,-0.0003881227285471578,8.42297771039835e-05,-5.0439692571124795e-05
150000000000.0,3,-0.01713221755,0.08420970354999999,0.05143587925,0.009242,-0.00793,0.000387,-3.3475980439999997,-9.179612799,0.8356148398499998,-1.8154,1.2113,-1.7185,-9.999999999998899e-05,-5.0000000000105516e-05,0.00017000000000000348,-0.0007694314450161777,-0.0004304708004594371,-0.00025773323330335884
150000000000.0,3,-0.03498032055,0.058251501,0.0445614176,0.013531,-0.00477,0.001459,-3.3484806424999998,-9.179122466499999,0.8378507560499999,-1.816,1.2111,-1.7179,0.00019999999999997797,-4.999999999988347e-05,-7.999999999996898e-05,-0.00033042172661135183,0.0001359143157217968,0.00010766043949361759
150000000000.0,3,-0.048994023399999996,0.03199909895,0.022231675549999996,0.013529,-0.005835,0.000396,-3.3494613075,-9.178632133999999,0.8396845996,-1.8164,1.211,-1.7175,9.999999999998899e-05,-3.333333333332966e-05,-9.99999999995449e-06,-0.00012054280976059317,1.793543718431323e-06,2.9838025291439862e-05
150000000000.0,3,-0.05857512045,-0.00842391235,0.013474337099999999,0.013555,-0.002638,0.000393,-3.350343906,-9.178141801499999,0.8412536636,-1.8168,1.2108,-1.7172,-9.999999999998899e-05,-3.333333333332966e-05,0.00014999999999998348,-0.00021809797158356403,-0.0015255390132860036,0.00015892948825113606
150000000000.0,3,-0.051759498699999996,-0.03168528615,-0.01697531115,0.011451,-0.00155,-0.00388,-3.3507361719999995,-9.1779456685,0.8420774221999999,-1.817,1.2108,-1.7169,0.00029999999999996696,-3.333333333332966e-05,-0.00038000000000004697,-0.0001445800341275394,0.001163012350961834,0.0002719544605773727
150000000000.0,3,-0.046973853499999996,-0.04412992499999999,-0.023428086849999998,0.012492,-0.002627,-0.000672,-3.3510303715,-9.177749535499999,0.8428423408999999,-1.8172,1.2107,-1.7167,4.999999999988347e-05,-1.999999999990898e-05,0.00012000000000000899,0.00017542231381040274,0.0003733419891358558,-0.00017680193984404013
150000000000.0,3,-0.0446790974,-0.046140288249999994,-0.025252123749999997,0.010443,0.004856,-0.006025,-3.3510303715,-9.177651468999999,0.84332286675,-1.8173,1.2107,-1.7166,5.0000000000105516e-05,-2.0000000000131024e-05,-0.00015999999999993797,6.147068943973544e-05,-1.0871320428540443e-05,0.0003855947618713884
150000000000.0,3,-0.041119283449999995,-0.0361276986,-0.0180246227,0.00725,0.005948,-0.006031,-3.3510303715,-9.177651468999999,0.84357783965,-1.8174,1.2107,-1.7164,9.999999999998899e-05,-1.999999999990898e-05,-1.0000000000065512e-05,-7.811135821711446e-06,-0.00020508273717489978,0.00012696252610666647
150000000000.0,3,-0.030626167949999998,-0.0385009079,-0.01011065615,0.003018,0.009182,-0.008178,-3.350540039,-9.177847602,0.84344054655,-1.8174,1.2107,-1.7163,9.999999999998899e-05,-2.0000000000131024e-05,-2.999999999997449e-05,-5.665141834754195e-06,-0.00014852390660280435,0.00011956164866777641
150000000000.0,3,-0.004167826249999999,-0.026134722249999996,-0.012425025549999998,0.001929,0.007059,-0.007109,-3.34995164,-9.178043735,0.8432149936,-1.8174,1.2108,-1.7162,9.999999999998899e-05,-1.999999999990898e-05,-0.00021999999999999797,-4.6099956869882774e-05,-0.00020116102831813087,0.0005430968902571109
150000000000.0,3,0.012846711499999998,-0.015102240999999999,-0.01624961905,0.001878,0.002794,-0.0039,-3.349363241,-9.1783379345,0.8429992472999999,-1.8174,1.2109,-1.7162,9.999999999998899e-05,-4.999999999988347e-05,2.999999999997449e-05,-0.0004218041995815991,-9.719849687073179e-05,6.558665123712615e-05
150000000000.0,3,0.03570601265,-0.011454167199999999,-0.02654660155,0.004002,0.001711,-0.003896,-3.348382576,-9.178730200499999,0.84281292095,-1.8174,1.211,-1.7162,5.0000000000105516e-05,-5.0000000000105516e-05,-9.99999999995449e-06,-5.753498215144148e-05,-0.000266055552330835,0.00013497511891680247
150000000000.0,3,0.038883367249999995,-0.01493552795,-0.03839303475,0.002916,-0.000411,-0.003897,-3.3474019109999995,-9.179122466499999,0.84240104165,-1.8173,1.2111,-1.7162,4.999999999988347e-05,-3.333333333332966e-05,-2.999999999997449e-05,1.7233758179191483e-05,0.0001563948835028306,2.871573145712958e-05
150000000000.0,3,0.034705734349999996,-0.0193191005,-0.037157396849999996,0.003973,-0.001485,-0.003895,-3.3463231794999997,-9.1795147325,0.8420578088999999,-1.8173,1.2112,-1.7162,9.999999999998899e-05,-3.333333333332966e-05,-3.0000000000085514e-05,-1.1369462881161141e-05,0.00012043503453829096,-0.00020606893164121232
150000000000.0,3,0.009561483749999999,-0.03125379355,-0.04137425634999999,0.00186,0.000666,-0.004971,-3.3455386474999997,-9.179808932,0.8414890231999999,-1.8172,1.2113,-1.7163,3.333333333332966e-05,-3.333333333332966e-05,3.0000000000085514e-05,0.0001500406630146056,0.00024354636738843638,-0.0001270989441879422
150000000000.0,3,-0.0020593965,-0.04206072185,-0.037049523699999996,-0.00349,-0.000356,-0.003911,-3.345048315,-9.1801031315,0.84075352445,-1.817,1.2114,-1.7165,3.333333333332966e-05,-4.999999999988347e-05,-3.0000000000085514e-05,0.00014775290703017419,0.00035646572473502225,9.344875556926979e-05
150000000000.0,3,-0.00734518085,-0.0646062102,-0.0329895706,0.000783,-0.001453,-0.007105,-3.3442637829999997,-9.1804953975,0.8401357054999999,-1.8169,1.2115,-1.7166,3.333333333332966e-05,-5.0000000000105516e-05,9.999999999998899e-05,-0.0001970119361542899,8.792665990187132e-05,-0.00031564383656412787
150000000000.0,3,-0.010914801449999999,-0.0716669982,-0.0376967626,-0.004553,-0.001409,-0.007115,-3.3433811845,-9.180887663499998,0.8389981341,-1.8167,1.2116,-1.7168,3.333333333332966e-05,-3.333333333332966e-05,-8.999999999992347e-05,0.0003624831962700803,0.0006260775550619435,0.0001328783431726599
150000000000.0,3,0.00234378935,-0.0518379519,-0.039001047049999994,-0.007742,-0.000315,-0.008191,-3.3422043864999997,-9.181377995999998,0.8376153964499999,-1.8164,1.2118,-1.7171,3.333333333332966e-05,-3.333333333332966e-05,-0.00012000000000000899,-1.416486030780817e-05,0.0007502285188285551,0.00011363214081949735
150000000000.0,3,0.00314793465,-0.007698220249999999,-0.0350097405,-0.004529,0.000726,-0.009254,-3.3412237215,-9.181868328499998,0.8366249248,-1.8161,1.2119,-1.7174,3.333333333332966e-05,-3.333333333332966e-05,-2.999999999997449e-05,-0.00020984624486541925,0.00017100071317344145,-9.423236471572949e-06
150000000000.0,3,0.0257718762,0.01734796385,-0.03776540915,-0.001313,0.002831,-0.009254,-3.3400469234999997,-9.182358660999999,0.8357815528999999,-1.816,1.2121,-1.7175,9.999999999998899e-05,-9.999999999998899e-05,-6.0000000000060005e-05,-9.624829524090828e-05,-0.0001498965470241309,3.384918957216598e-05
150000000000.0,3,0.0271448072,0.047219019749999994,-0.029733762799999997,0.004012,0.001722,-0.009243,-3.3390662585,-9.182750926999999,0.83553638665,-1.816,1.2122,-1.7174,2.4999999999941735e-05,-9.999999999998899e-05,7.00000000000145e-05,-0.0003585825818439581,-0.00019811967489258286,-0.0003131827581377422
150000000000.0,3,0.036108085299999995,0.052426350899999995,-0.028547158149999998,0.00825,-0.002574,-0.010296,-3.3378894605,-9.183143193,0.8358403928,-1.8162,1.2123,-1.7173,2.4999999999941735e-05,-9.999999999998899e-05,9.99999999995449e-06,-7.239661400926245e-05,-0.00027125360736102166,0.00012617154089911153
150000000000.0,3,0.04362978585,0.0441691516,-0.03078307435,0.010329,-0.007921,-0.00815,-3.3365165294999994,-9.183535459,0.8364385984499999,-1.8164,1.2124,-1.717,2.500000000016378e-05,-5.0000000000105516e-05,-4.999999999999449e-05,-0.0002555600049083395,6.213993397841122e-06,-4.480659676353582e-05
150000000000.0,3,0.0353823932,0.0190837409,-0.024193005549999997,0.009231,-0.01111,-0.00708,-3.3353397315,-9.183927725,0.8373310036,-1.8168,1.2125,-1.7168,2.4999999999941735e-05,-4.999999999988347e-05,-7.999999999996898e-05,1.1057618916510137e-05,0.0002809403694921109,-0.00022830002503315683
150000000000.0,3,0.024948117599999996,-0.02111371745,-0.025232510450000002,0.005981,-0.016412,-0.00601,-3.3341629335,-9.184319991,0.8380665023499999,-1.8171,1.2126,-1.7166,5.0000000000105516e-05,-9.999999999998899e-05,2.999999999997449e-05,1.7749325778915193e-05,0.0003725489871018173,-0.00034862628687193364
150000000000.0,3,-0.0036480737999999998,-0.06856809679999999,-0.01115016105,0.003827,-0.017462,-0.003878,-3.3332803349999995,-9.1846141905,0.8386450946999999,-1.8173,1.2127,-1.7165,5.0000000000105516e-05,-5.0000000000105516e-05,-9.999999999998899e-05,-7.029767913735441e-05,0.00035578152748039216,9.516478280247043e-05
150000000000.0,3,-0.027135000549999996,-0.09224134989999999,0.01621039245,0.003845,-0.015331,-0.003882,-3.3326919359999994,-9.184712257,0.8397140195499999,-1.8176,1.2127,-1.7163,-5.0000000000105516e-05,-4.999999999988347e-05,2.999999999997449e-05,0.00012851114845036093,-0.00015072614446909327,-0.0001140486995443446
150000000000.0,3,-0.031940259049999996,-0.07171603145,-0.0012160246,0.002811,-0.013188,-0.00709,-3.332103537,-9.184810323499999,0.840233772,-1.8178,1.2128,-1.7162,-5.0000000000105516e-05,-4.999999999988347e-05,7.00000000000145e-05,0.00016237436546306938,-0.0003307593028181177,-0.00022004314990864415
150000000000.0,3,-0.05469168705,-0.05611365129999999,-0.0039030467,-0.000334,-0.006767,-0.008172,-3.331907404,-9.184908389999999,0.8403808717499999,-1.8179,1.2128,-1.7163,3.333333333332966e-05,-5.0000000000105516e-05,7.00000000000145e-05,-5.170179723590351e-05,-0.00022468484709992076,-5.792238579749309e-05
150000000000.0,3,-0.04702288674999999,-0.023751706299999998,0.01879934805,0.003982,-0.001473,-0.00924,-3.3316132044999995,-9.184908389999999,0.841018304,-1.8181,1.2128,-1.7161,3.333333333355171e-05,-5.0000000000105516e-05,7.00000000000145e-05,-0.00012556803382723913,-0.0003075889047250424,-7.667221761531451e-05
