Time,placement_label,user_acc_x(m/s^2),user_acc_y(m/s^2),user_acc_z(m/s^2),rotation_rate_x(rad/s),rotation_rate_y(rad/s),rotation_rate_z(rad/s),gravity_x(m/s^2),gravity_y(m/s^2),gravity_z(m/s^2),attitude_roll(rad),attitude_pitch(rad),attitude_yaw(rad),target_delta_x,target_delta_y,target_delta_z,target_delta_roll,target_delta_pitch,target_delta_yaw
150000000000.0,3,-0.3620419047,0.06500828285,0.12810426895,0.006588,0.011952,-0.012575,-2.089600982,-9.555501693499998,0.7047745155499999,-1.8961,1.344,1.2728,0.0,0.0,0.0,0.0,0.0,0.0
150000000000.0,3,-0.3248550879,0.08389589075,0.11467896509999999,0.018473,0.02997,-0.013654,-2.0885222504999996,-9.5556978265,0.70563750075,-1.8966,1.3441,1.2737,9.999999999998899e-05,-9.999999999998899e-05,-8.999999999992347e-05,0.0005166125617597217,0.0007239344832350447,0.00032030743222133395
150000000000.0,3,-0.30393750345,0.10458792224999998,0.10507825475,0.030362,0.049053,-0.012581,-2.0932294424999998,-9.554324895499999,0.70924634795,-1.8975,1.3435,1.275,9.999999999998899e-05,-0.00010000000000021103,-4.999999999999449e-05,0.00019650072057775247,-0.00013012178755844594,0.0008406413131458734
150000000000.0,3,-0.269682875,0.09919426475,0.07416769395,0.041158,0.064948,-0.012591,-2.092542977,-9.554324895499999,0.7115803306499999,-1.8986,1.3435,1.2768,0.00019999999999997797,0.00010000000000021103,-0.0002300000000000635,-0.001288151473415322,0.0002462333176180831,0.0013003331167360521
150000000000.0,3,-0.2272004672,0.1187389182,0.0540934814,0.049809,0.078731,-0.013667,-2.091758445,-9.554324895499999,0.7145909722,-1.9,1.3434,1.279,0.00029999999999996696,-0.00020000000000020002,2.0000000000020002e-05,0.0015298749684140578,-0.00035179691508924193,-0.0003521029437263401
150000000000.0,3,-0.17728461869999998,0.13153659645,0.05110245315,0.060644,0.096762,-0.01795,-2.09077778,-9.554226829,0.7183371124999999,-1.9017,1.3434,1.2817,0.00019999999999997797,-9.999999999998899e-05,-4.0000000000040004e-05,0.0002878735042297631,-0.00037989537947846763,0.0012205216754774817
150000000000.0,3,-0.13890139059999998,0.13973495584999998,0.040373978049999995,0.068204,0.10523,-0.022212,-2.092542977,-9.553442297,0.7236719301,-1.9038,1.3431,1.2848,0.00029999999999996696,-0.00019999999999997797,-0.00011999999999989797,-0.0014628047996083637,0.0009510154877800936,0.0013599688678924693
150000000000.0,3,-0.09685047539999998,0.1519442351,0.043541526000000004,0.067271,0.11803,-0.02864,-2.0906797134999997,-9.5535403635,0.7276926566,-1.9057,1.3431,1.2881,0.000300000000000189,-0.00019999999999997797,4.999999999999449e-05,0.0017365010653516144,-0.0016233152773323933,0.0007304523569593435
150000000000.0,3,-0.048562530799999996,0.1183466522,0.044512384349999996,0.064179,0.12765,-0.035067,-2.088424184,-9.5537364965,0.7313603437,-1.9077,1.3432,1.2913,0.00019999999999997797,-0.00019999999999997797,3.999999999992898e-05,0.0007886450691330094,1.0458049515271739e-07,0.0012781993672232872
150000000000.0,3,-0.0156710267,0.07606037739999999,0.0290669106,0.058873,0.1277,-0.040412,-2.0861686544999998,-9.5539326295,0.73513590395,-1.9096,1.3433,1.2946,9.999999999998899e-05,-0.00019999999999997797,-5.999999999994898e-05,-0.001844842469889807,0.00033507228368812036,0.0012573252011853775
150000000000.0,3,0.0192014207,0.024732371299999997,-0.00512887795,0.053532,0.12349,-0.045752,-2.0824421275,-9.5545210285,0.73790137925,-1.9113,1.3436,1.2977,0.00019999999999997797,-0.00019999999999997797,-4.999999999999449e-05,-0.0014192116873352756,0.0003685445209955507,0.001452059085076396
150000000000.0,3,0.047209213099999994,-0.04919015639999999,-0.04974913545,0.048135,0.11608,-0.045751,-2.077833002,-9.555403627,0.7392841169,-1.9126,1.344,1.3002,0.00019999999999997797,-9.999999999998899e-05,-6.0000000000060005e-05,0.0002085630804751215,-0.0010479075902800616,0.001910326327712486
150000000000.0,3,0.06785221135,-0.12500536755,-0.08126770854999998,0.039478,0.10336,-0.042547,-2.0727335439999997,-9.556580425,0.73937237675,-1.9134,1.3445,1.3022,9.999999999998899e-05,-9.999999999998899e-05,-9.999999999998899e-05,-0.0011265204177357546,0.0004241012255299381,0.0012100372454790786
150000000000.0,3,0.0961640099,-0.19257318605,-0.08459216289999999,0.027566,0.085333,-0.037207,-2.0671437535,-9.557757223,0.73850939155,-1.9139,1.345,1.3036,9.999999999998899e-05,-0.00019999999999997797,0.000160000000000049,-0.0007291384122714017,-7.19472556176548e-05,0.0010537233162453141
150000000000.0,3,0.14785486204999998,-0.19926132135,-0.06547900205,0.016743,0.070497,-0.030806,-2.0611616969999997,-9.5592282205,0.73735220685,-1.9144,1.3457,1.3048,5.0000000000105516e-05,-0.00019999999999997797,0.00017999999999995797,-0.0008803703386139894,0.0006535785149446305,-0.00034215669337811505
150000000000.0,3,0.17677467289999999,-0.15269934715,-0.034176175249999996,0.009197,0.06416,-0.025471,-2.0591023004999998,-9.559718553,0.7370285874,-1.9145,1.3459,1.3057,4.999999999988347e-05,-0.00020000000000020002,4.0000000000040004e-05,0.0014823223904631977,-0.0015413101738586121,0.0012428410464440098
150000000000.0,3,0.2065084357,-0.12362262989999999,-0.020662611549999998,0.004827,0.056728,-0.016927,-2.0577293694999996,-9.560012752499999,0.7363813485,-1.9145,1.3461,1.3062,9.999999999998899e-05,-5.0000000000105516e-05,-0.000160000000000049,0.0001488958077033864,-0.0011694928544978556,0.0015442460167442995
150000000000.0,3,0.21275527174999997,-0.09381041389999999,-0.023771319599999997,0.004716,0.048195,-0.008372,-2.057042904,-9.5602088855,0.7357439162499999,-1.9143,1.3461,1.3066,9.999999999998899e-05,-4.999999999988347e-05,-2.999999999997449e-05,0.0010020728122643874,-0.0007815100020833743,0.0007457024499037956
150000000000.0,3,0.20715567459999998,-0.08220914694999999,-0.043345393,0.006714,0.037512,0.001243,-2.052924111,-9.5611895505,0.7345180849999999,-1.9144,1.3466,1.3071,-4.999999999988347e-05,-9.999999999998899e-05,-4.0000000000040004e-05,-0.0011117664728481635,0.0010836111905030421,-0.00010707250628039233
150000000000.0,3,0.18828767999999999,-0.0867888525,-0.0602520576,0.003327,0.021543,0.013007,-2.0541009089999998,-9.560895351,0.7343611786,-1.9141,1.3465,1.3071,-5.0000000000105516e-05,-9.999999999998899e-05,0.00012000000000000899,0.0006814795048355471,0.0007266272924595363,-0.001055793548693007
150000000000.0,3,0.13752845959999999,-0.1135217804,-0.061674021849999996,0.006365,0.004463,0.018379,-2.055866106,-9.5606011515,0.7345965381999999,-1.914,1.3463,1.307,-5.0000000000105516e-05,-4.999999999988347e-05,4.999999999999449e-05,0.00022121081665593678,0.00029970791560218757,0.00013604649440113192
150000000000.0,3,0.10437217594999999,-0.13074225779999998,-0.03986403225,0.005174,-0.009382,0.020529,-2.0553757735,-9.560699218,0.73433175865,-1.9139,1.3464,1.3069,-4.999999999988347e-05,-5.0000000000105516e-05,-3.999999999992898e-05,-8.391858146827857e-05,-0.00014194870324102382,-0.0006601658445251068
150000000000.0,3,0.08480790919999999,-0.11034442579999999,-0.0069627215,0.002979,-0.018952,0.017333,-2.0549835075,-9.560699218,0.73480247785,-1.9142,1.3464,1.307,9.999999999998899e-05,-1.999999999990898e-05,-0.00019000000000002348,0.0004121479894825253,-0.0011346664006428586,0.0002982041198329455
150000000000.0,3,0.0491509298,-0.0421293684,0.009483030549999999,0.007238,-0.025372,0.008809,-2.0545912415,-9.560699218,0.7360086958,-1.9148,1.3464,1.3073,-5.0000000000105516e-05,-2.0000000000131024e-05,-9.00000000000345e-05,-0.0009605417955131923,0.00027006440333710025,0.00010234461179337018
150000000000.0,3,0.04947454925,0.029184590399999998,-0.005452497399999999,0.014725,-0.029685,-0.001847,-2.0536105765,-9.5607972845,0.7377836994499999,-1.9157,1.3464,1.308,-4.999999999988347e-05,-1.999999999990898e-05,-5.999999999994898e-05,-0.00016381980306201527,0.00011116462417537498,-0.0004100532251567479
150000000000.0,3,0.0827288994,0.07707046235,-0.013817569850000001,0.017932,-0.032902,-0.008244,-2.051355047,-9.561091484,0.7400098089999999,-1.917,1.3465,1.309,9.999999999998899e-05,-2.0000000000131024e-05,-0.00014999999999998348,-0.0008660109029139385,-0.0010486626640899832,0.0009760637253992677
150000000000.0,3,0.10431333605,0.08191494744999998,-0.01466094175,0.012593,-0.036051,-0.012523,-2.0482169189999997,-9.5615818165,0.7420495922,-1.9184,1.3468,1.31,-9.999999999998899e-05,-1.999999999990898e-05,-4.999999999999449e-05,-0.0011570670137199812,0.000876366746511037,-0.0003525236926416042
150000000000.0,3,0.08628871334999999,0.058937966499999994,-0.005717276949999999,0.004049,-0.037047,-0.01254,-2.0453729904999998,-9.5621702155,0.74343232985,-1.9194,1.347,1.3107,-4.999999999988347e-05,-9.999999999998899e-05,-2.0000000000020002e-05,0.00031992068509012483,-0.0003710372176204402,-0.00027707789157283
150000000000.0,3,0.033215123549999996,-0.01634768555,-0.017063571,-0.000233,-0.038078,-0.011481,-2.043117461,-9.5625624815,0.74400111555,-1.92,1.3472,1.3109,-5.0000000000105516e-05,-9.999999999998899e-05,2.0000000000020002e-05,0.00042531828831737784,-5.8514226775718825e-05,-0.001044629735069691
150000000000.0,3,-0.015347407249999999,-0.065900688,-0.0097478101,-0.003425,-0.036986,-0.011488,-2.04174453,-9.562856681,0.7443149283499999,-1.9204,1.3473,1.3109,-5.0000000000105516e-05,-4.999999999988347e-05,3.999999999992898e-05,0.001221763995895575,0.0009569358167218489,-0.0008895255817775727
150000000000.0,3,-0.051455492549999995,-0.08108138219999998,0.0007453054,-0.005567,-0.035906,-0.00829,-2.0412541975,-9.5629547475,0.7445993211999999,-1.9206,1.3474,1.3107,-4.999999999988347e-05,-5.0000000000105516e-05,2.999999999997449e-05,4.935359917901394e-05,-0.00013756389015773252,-0.0003638269233077196
150000000000.0,3,-0.0787473995,-0.05245577084999999,0.0163574922,-0.006601,-0.030571,-0.006162,-2.0416464635,-9.5627586145,0.7448542940999999,-1.9206,1.3473,1.3104,1.6666666666775853e-05,-0.00029999999999996696,0.00021000000000004349,0.0006849240154465086,0.0009091170031403362,-0.000832120024104821
150000000000.0,3,-0.12518188724999998,-0.027546879849999997,0.02070183815,-0.001239,-0.02529,-0.002953,-2.0432155275,-9.562464414999999,0.7454426930999999,-1.9206,1.3472,1.3102,1.666666666655381e-05,-9.999999999998899e-05,9.99999999995449e-06,0.00027016152014347483,3.183910873705287e-05,-0.0002040670020795332
150000000000.0,3,-0.13942114305,0.0017946169499999999,0.033636809499999996,0.007352,-0.017902,-0.001876,-2.045471057,-9.561876016,0.746874464,-1.9209,1.3469,1.3103,1.666666666655381e-05,-9.999999999998899e-05,-9.99999999995449e-06,-0.00014135827339645246,-9.393817540170879e-05,-0.0004940194294626998
150000000000.0,3,-0.1477077623,0.02964550295,0.043482686099999994,0.015957,-0.009447,-0.001867,-2.0479227195,-9.561091484,0.74929670655,-1.9215,1.3466,1.3108,1.6666666666775853e-05,-9.999999999998899e-05,-2.0000000000020002e-05,3.914173717900482e-05,0.00010835764413252846,6.535303849064533e-05
150000000000.0,3,-0.09448707274999998,0.06281159324999999,0.05900661305,0.01926,0.001184,-0.004,-2.0522376455,-9.559914685999999,0.7535233727,-1.9227,1.346,1.312,1.6666666666775853e-05,-5.0000000000105516e-05,-7.999999999996898e-05,-0.000901765132413912,-0.00043080766140635163,0.0008016604628906521
150000000000.0,3,-0.09470281905,0.06273314005,0.05739832244999999,0.019326,0.010772,-0.001882,-2.051943446,-9.5598166195,0.7551316632999999,-1.9234,1.3459,1.3128,1.666666666655381e-05,-4.999999999988347e-05,-2.0000000000020002e-05,-0.00017178449324783962,0.00026087608849678645,0.00020836462527773492
150000000000.0,3,-0.05737870915,0.0328130509,0.04553227595,0.021508,0.017147,-0.000819,-2.0531202439999996,-9.559326287,0.75773042555,-1.9244,1.3457,1.3139,3.333333333332966e-05,-0.00019999999999997797,-3.3333333333551707e-06,-0.0002776624015150553,0.001166004430119827,-0.0010209588305021278
150000000000.0,3,-0.04878808375,-0.0017946169499999999,0.0264387284,0.018297,0.015043,-0.001885,-2.0539047759999995,-9.5590320875,0.7597604021,-1.9251,1.3456,1.3148,3.333333333332966e-05,-9.999999999998899e-05,-3.3333333332441484e-06,0.0005974915629520794,-0.00028458358772520675,0.000275043599492264
150000000000.0,3,-0.042727574049999995,-0.03060655465,0.021525596749999997,0.01401,0.011883,-0.002952,-2.0543951085,-9.558737888,0.7612313996,-1.9256,1.3455,1.3155,3.333333333332966e-05,-5.0000000000105516e-05,-3.3333333333551707e-06,-0.0001772267151256557,8.60259528301377e-06,-0.0002549020806421609
150000000000.0,3,-0.03774579585,-0.055937131599999995,0.008953471449999998,0.00334,0.009843,-0.006168,-2.0544931749999997,-9.558737888,0.76167269885,-1.9258,1.3455,1.3158,9.999999999998899e-05,-4.999999999988347e-05,-4.0000000000040004e-05,0.0009305046989971366,-0.00024467495957058993,0.0004104582188131367
150000000000.0,3,-0.0411487034,-0.0651946092,-0.000588399,-0.003126,0.002436,-0.005097,-2.0544931749999997,-9.558737888,0.7613490794,-1.9257,1.3455,1.3157,9.999999999998899e-05,-0.00010000000000021103,1.4999999999987246e-05,-0.00013835646403714819,0.0002822115072025344,-0.00011415694302074897
150000000000.0,3,-0.0263406619,-0.07282418289999999,-0.0128859381,-0.003133,0.000308,-0.007228,-2.0541009089999998,-9.558934021,0.7606233873,-1.9254,1.3455,1.3155,3.333333333332966e-05,-4.999999999988347e-05,1.4999999999987246e-05,-0.00039054702058405333,-6.219568044807389e-05,2.4522219403522172e-05
150000000000.0,3,-0.02005459925,-0.05362276219999999,0.0040991797,-0.0031,0.002442,-0.010433,-2.053316377,-9.559130153999998,0.7602409279499999,-1.9254,1.3456,1.3155,3.333333333332966e-05,-5.0000000000105516e-05,-2.0000000000020002e-05,-0.0006752509008898233,0.0007129576331994514,0.00036530742580032083
150000000000.0,3,-0.01226811915,-0.04276680065,0.022741621349999998,-0.004136,0.005648,-0.011508,-2.0522376455,-9.559326287,0.76016247475,-1.9255,1.3457,1.3157,3.333333333332966e-05,-9.999999999998899e-05,1.0000000000065512e-05,0.00010470679931140481,0.00035153047045533015,-0.000391882773314034
150000000000.0,3,0.0195740734,-0.026164142199999997,0.04415934495,-0.008426,0.004614,-0.008313,-2.0508647145,-9.559620486499998,0.76014286145,-1.9257,1.3459,1.3159,3.333333333332966e-05,-4.999999999988347e-05,-1.0000000000065512e-05,-0.00042706219702370873,-1.2611335333589935e-05,0.0002999384285411466
150000000000.0,3,0.034411534849999995,-0.0187699281,0.0656457151,-0.004216,0.000311,-0.002963,-2.0496879165,-9.5598166195,0.76065280725,-1.9261,1.346,1.3163,3.333333333332966e-05,-5.0000000000105516e-05,3.0000000000085514e-05,0.00017746185891676092,4.319683035802768e-05,-0.00026154288793778235
150000000000.0,3,0.0634686388,-0.02113333075,0.08571992765,-0.001045,-0.001851,0.000245,-2.048413052,-9.560012752499999,0.761976705,-1.9269,1.346,1.3171,3.333333333332966e-05,-9.999999999998899e-05,2.999999999997449e-05,8.372472324191804e-05,-0.000256823368371073,2.6294402554416507e-05
150000000000.0,3,0.06709709929999999,-0.0175931301,0.0836311112,0.002094,-0.009338,0.001327,-2.047236254,-9.560110818999998,0.7637615153,-1.9279,1.3461,1.3179,1.4285714285744433e-05,-4.999999999988347e-05,-2.0000000000020002e-05,-0.00036249202355209675,-0.0002658289084669363,0.0002550678889012836
150000000000.0,3,0.08539630819999999,-0.0137096967,0.0666263801,0.00203,-0.015735,0.004536,-2.0459613895,-9.560306952,0.765507099,-1.9288,1.3462,1.3187,1.4285714285744433e-05,-5.0000000000105516e-05,4.0000000000040004e-05,-0.0006941970665970132,0.00018521056738185493,-7.182458885779397e-05
150000000000.0,3,0.09532063799999999,-0.02217283565,0.05995785809999999,-0.000135,-0.019981,0.004534,-2.0443923254999996,-9.560503084999999,0.7670957762999999,-1.9298,1.3463,1.3194,1.4285714285744433e-05,-3.333333333332966e-05,2.0000000000020002e-05,-0.00039070841375621335,-0.0005617208034742749,0.0002079516934752057
150000000000.0,3,0.07083343295,-0.02862561135,0.054005221549999996,0.000922,-0.022121,0.003468,-2.0432155275,-9.5606011515,0.7685471604999999,-1.9306,1.3463,1.32,1.4285714285522388e-05,-3.333333333332966e-05,2.500000000016378e-06,0.00013029638480444028,0.00028531740883797063,-0.00043164547185803315
150000000000.0,3,0.04125657654999999,-0.01866205495,0.0508965135,0.003096,-0.020004,-0.000804,-2.0422348625,-9.560699218,0.7700181580000001,-1.9314,1.3464,1.3206,1.4285714285744433e-05,-3.333333333332966e-05,2.4999999999053557e-06,-0.0002348392471844818,-0.00023683458276191338,-0.00038323464143097397
150000000000.0,3,0.0089044382,-0.0040795664,0.0220845758,0.005244,-0.021083,-0.005069,-2.0414503305,-9.5607972845,0.7712930225,-1.932,1.3464,1.3211,1.4285714285744433e-05,-4.999999999988347e-05,2.500000000016378e-06,-0.0005545196638421235,-0.00028232933131300264,0.00037429554039825064
150000000000.0,3,-0.03415656195,0.0020299765499999997,0.007688413599999999,0.009538,-0.021112,-0.010396,-2.0410580645,-9.560699218,0.7726659534999999,-1.9327,1.3464,1.3215,1.4285714285744433e-05,-5.0000000000105516e-05,2.500000000016378e-06,-0.0001714779003350042,2.52749875784275e-06,-0.00034134279613873275
150000000000.0,3,-0.046434487749999996,0.026644668049999997,-0.00197113665,0.00961,-0.016842,-0.017873,-2.0402735325,-9.5607972845,0.7738035249,-1.9333,1.3464,1.322,3.333333333332966e-05,-3.333333333332966e-05,-2.999999999997449e-05,-0.00028824002566962825,-0.00024641196321328884,-0.00018895518242079135
150000000000.0,3,-0.04333558635,0.049013636699999995,-0.0211627507,0.009658,-0.014704,-0.024278,-2.0389006015,-9.560993417499999,0.7747351566499999,-1.9339,1.3465,1.3225,3.333333333332966e-05,-3.333333333332966e-05,-2.0000000000020002e-05,-0.0004895613233169005,-0.0007895609804200454,0.00017892126569485356
150000000000.0,3,-0.0160436794,0.0546034272,-0.01456287525,0.013935,-0.014737,-0.026402,-2.0374296039999997,-9.561287617,0.77591195465,-1.9347,1.3466,1.3231,3.333333333332966e-05,-3.333333333332966e-05,-4.999999999999449e-05,-7.169557452257891e-05,-9.59149477970378e-05,0.0001494405882009886
150000000000.0,3,-0.0187895414,0.0550545331,-0.0162594257,0.016066,-0.015819,-0.027464,-2.034683742,-9.561679883,0.7776085051,-1.9358,1.3468,1.3242,9.999999999998899e-05,-4.999999999988347e-05,-4.0000000000040004e-05,-0.0002179015553323005,-0.00030437050757714523,-0.00033791895683554785
150000000000.0,3,-0.04327674645,0.023006400899999998,-0.0282627653,0.01821,-0.013706,-0.026394,-2.0328204784999997,-9.561974082499999,0.7791481491499999,-1.9368,1.3469,1.325,5.0000000000105516e-05,-5.0000000000105516e-05,-9.99999999995449e-06,0.00014334012630867754,-0.00013280473341392707,-0.00014963769565889962
150000000000.0,3,-0.0667440599,-0.006472388999999999,-0.012905551399999998,0.018219,-0.010512,-0.023194,-2.0314475475,-9.562072149,0.78085450625,-1.9378,1.347,1.3259,4.999999999988347e-05,-5.0000000000105516e-05,-2.999999999997449e-05,0.00042767904327867257,-0.0006697358410332477,-0.00034155001185265377
150000000000.0,3,-0.10396029664999999,-0.04329635974999999,-0.014121576,0.013973,-0.005152,-0.018936,-2.0310552814999996,-9.562072149,0.7820607242,-1.9383,1.347,1.3264,0.00010000000000021103,-4.999999999988347e-05,-7.00000000000145e-05,-0.00021669132885571152,0.0003040847426261095,9.164506417835838e-05
150000000000.0,3,-0.11844471869999999,-0.07275553635,-0.020593965,0.010778,-0.000868,-0.013607,-2.0314475475,-9.561974082499999,0.78269815645,-1.9386,1.3469,1.3267,9.999999999998899e-05,-3.333333333332966e-05,-1.0000000000065512e-05,-0.0001556406520692999,-0.00023221426256681,-2.5631214153776227e-05
150000000000.0,3,-0.1301146322,-0.09021137335,-0.0135920169,0.006487,0.000227,-0.007206,-2.0324282124999997,-9.561679883,0.7830315825499999,-1.9385,1.3468,1.3267,0.00019999999999997797,-3.333333333332966e-05,-0.00029999999999996696,-0.0018800324030079363,-0.0020121176659715356,0.0025994168400882423
150000000000.0,3,-0.11206058954999999,-0.09301607525,0.00057859235,0.002206,0.001324,-0.002941,-2.0336050105,-9.561483749999999,0.7832277155499999,-1.9384,1.3467,1.3266,5.0000000000105516e-05,-3.333333333332966e-05,0.000140000000000029,0.0005707295281540681,0.0008216729355436936,-0.0013500247844628888
150000000000.0,3,-0.06566532839999999,-0.07195139105,0.00018632635,0.002199,0.002387,0.000262,-2.034487609,-9.561287617,0.7831688756499999,-1.9383,1.3466,1.3264,4.999999999988347e-05,-5.0000000000105516e-05,-4.0000000000040004e-05,-7.779137045504925e-05,0.0002483473264311975,4.5430606188556766e-05
150000000000.0,3,-0.0207116448,-0.036843584049999996,-0.00863965865,0.005384,-0.000834,-0.001861,-2.034683742,-9.5611895505,0.7833061687499999,-1.9383,1.3466,1.3265,9.999999999998899e-05,-4.999999999988347e-05,-4.999999999921734e-06,0.0004803138224644954,-0.0002038641768049576,-0.00017231702504005852
150000000000.0,3,0.0052563644,0.010954028049999998,0.00401091985,0.00967,-0.001929,-0.007189,-2.0339972765,-9.561287617,0.7842770271,-1.9388,1.3466,1.327,9.999999999998899e-05,-9.999999999998899e-05,-5.000000000032756e-06,-0.0003747109402971738,-0.0004988495299478313,-0.001203596264585105
150000000000.0,3,0.04830755789999999,0.04637564784999999,-0.00218688295,0.00756,-0.000843,-0.010399,-2.032526279,-9.5615818165,0.78509097905,-1.9394,1.3467,1.3276,4.999999999988347e-05,-9.999999999998899e-05,4.999999999999449e-05,-0.0007257518425833887,-0.00029829884279442,0.00013909089281627374
150000000000.0,3,0.06792085789999999,0.0516418189,-0.029949509099999997,0.007538,-0.006167,-0.014662,-2.030172683,-9.561974082499999,0.78546363175,-1.94,1.347,1.3281,5.0000000000105516e-05,-9.999999999998899e-05,9.99999999995449e-06,0.00018660750875287846,-0.0004309374270108357,-9.259450144227799e-05
150000000000.0,3,0.043257133149999995,0.037196623449999994,-0.05935965245,0.008627,-0.005106,-0.017866,-2.0277210205,-9.5625624815,0.7852576921000001,-1.9403,1.3472,1.3284,9.999999999998899e-05,-9.999999999998899e-05,1.0000000000065512e-05,0.00013003362819574704,-0.0006295845149482115,0.00021401155844813502
150000000000.0,3,0.010247949249999999,0.006648908699999999,-0.0629979196,0.010738,-0.008319,-0.018925,-2.0257596904999997,-9.5629547475,0.7852969187,-1.9406,1.3474,1.3287,9.999999999998899e-05,-9.999999999998899e-05,5.999999999994898e-05,0.0007501044611641916,-0.0009317536518120839,-0.00015091970494918172
150000000000.0,3,0.009483030549999999,-0.02164327655,-0.04151154945,0.010707,-0.01258,-0.019986,-2.0234060945,-9.56344508,0.7858068645,-1.9412,1.3476,1.3292,9.999999999998899e-05,-6.666666666665932e-05,-0.00036999999999998145,-0.00021933525513917473,-0.0018158490235360425,0.0016163922505705308
150000000000.0,3,0.01071866845,-0.03148915315,-0.0373241099,0.010682,-0.01684,-0.022114,-2.020954432,-9.563837346,0.7864148768,-1.9419,1.3478,1.3298,9.999999999998899e-05,-6.666666666665932e-05,-2.999999999997449e-05,-0.00042273278093585276,-0.0005791182068068945,0.000595772866421207
150000000000.0,3,0.014513841999999999,-0.044326057999999995,-0.030155448749999997,0.008519,-0.018955,-0.019981,-2.0185027695,-9.5643276785,0.7870228891,-1.9426,1.348,1.3303,9.999999999998899e-05,-6.666666666665932e-05,2.999999999997449e-05,2.511837980279097e-06,-0.00021632259791859454,0.00012045599074905766
150000000000.0,3,0.012248505849999999,-0.04765051234999999,-0.0104538889,0.005302,-0.018932,-0.016785,-2.0162472399999998,-9.5647199445,0.78767993465,-1.9432,1.3482,1.3308,9.999999999998899e-05,-0.00010000000000021103,2.999999999997449e-05,-0.00020388875788901473,-5.399180347964716e-05,-6.588373900262567e-05
150000000000.0,3,0.00279489525,-0.05155355905,-0.0001765197,0.009528,-0.022167,-0.013571,-2.0143839765,-9.565014144,0.78891557255,-1.9441,1.3484,1.3314,5.0000000000105516e-05,-9.999999999998899e-05,1.0000000000065512e-05,0.0002688734867530851,-0.00011099426784744182,-0.0002516850772238399
150000000000.0,3,2.941995e-05,-0.0279881791,-0.005972249849999999,0.011695,-0.017922,-0.013575,-2.0128149124999997,-9.5653083435,0.790219857,-1.9449,1.3485,1.3321,4.999999999988347e-05,-9.999999999998899e-05,9.99999999995449e-06,-0.0004881757363903727,0.0002332748390032613,-0.0005892971789824841
150000000000.0,3,-0.01301342455,-0.006805815099999999,0.00134351105,0.012734,-0.020064,-0.011434,-2.011736181,-9.56540641,0.7918869875,-1.9458,1.3485,1.3328,9.999999999998899e-05,-9.999999999998899e-05,-4.0000000000040004e-05,0.0004188571488281667,8.103875092602131e-05,-0.00021180316124258525
150000000000.0,3,-0.023751706299999998,-0.00661948875,0.0073353742,0.011662,-0.020056,-0.010368,-2.0108535825,-9.56540641,0.7936717978,-1.9467,1.3485,1.3335,9.999999999998899e-05,-4.999999999988347e-05,-4.999999999999449e-05,-0.0003175652186753197,0.00013168063768498328,-0.00025737517635526785
150000000000.0,3,-0.03533335995,-0.0223003221,0.0050013915,0.00739,-0.020022,-0.009306,-2.0102651835,-9.56540641,0.7949662755999999,-1.9474,1.3485,1.334,9.999999999998899e-05,-5.0000000000105516e-05,5.000000000032756e-06,4.373892526521317e-05,2.185760961115335e-07,0.0002496181545619258
150000000000.0,3,-0.033744682649999996,-0.0377752158,0.015367020549999999,0.002041,-0.023172,-0.011443,-2.009382585,-9.5655044765,0.7959665538999999,-1.948,1.3486,1.3344,9.999999999998899e-05,-0.00019999999999997797,5.000000000032756e-06,-0.0003258063074493833,-0.0003985532447454698,0.0006669740851155126
150000000000.0,3,-0.0173577705,-0.044198571549999996,0.03456844125,0.003098,-0.025311,-0.012505,-2.0081077205,-9.5657006095,0.7972708383499999,-1.9487,1.3487,1.3349,9.999999999998899e-05,-5.0000000000105516e-05,1.999999999990898e-05,0.0015560234851379473,-0.0006755163581506629,-0.0010214586506456236
150000000000.0,3,0.00887501825,-0.033568162949999994,0.01303303785,0.004167,-0.026384,-0.014637,-2.006244457,-9.565994809,0.7983005366,-1.9495,1.3488,1.3354,0.00020000000000020002,-4.999999999988347e-05,-2.999999999997449e-05,-0.00014474045779988565,0.0007102802471168346,5.9533933205457856e-05
150000000000.0,3,0.033352416649999994,-0.015357213899999998,0.013395883899999999,0.002047,-0.025294,-0.015715,-2.003890861,-9.566387075,0.7992910082499999,-1.9503,1.349,1.336,4.999999999988347e-05,-4.999999999988347e-05,-7.00000000000145e-05,-0.0001651605304651138,0.00030009452346280163,-1.356486974302129e-05
150000000000.0,3,0.045306723,0.00034323274999999994,0.00928689755,-0.000109,-0.027409,-0.01465,-2.001537265,-9.5668774075,0.8001049601999999,-1.9511,1.3492,1.3365,5.0000000000105516e-05,-5.0000000000105516e-05,-7.00000000000145e-05,-0.0010888625709404298,-0.0003435903853212796,0.0004308356079638642
150000000000.0,3,0.02389880605,0.013082071099999999,-0.0008139519499999999,-0.00227,-0.027397,-0.009318,-1.9998701344999998,-9.567171606999999,0.8004776129,-1.9515,1.3493,1.3367,9.999999999998899e-05,-9.999999999998899e-05,1.0000000000065512e-05,-0.00031654501057909457,-5.5295831877133494e-05,-0.00017276971169488675
150000000000.0,3,-0.007698220249999999,0.0192602606,-0.013846989799999999,-0.004401,-0.026314,-0.008255,-1.9988894695,-9.56736774,0.80048741955,-1.9517,1.3494,1.3366,9.999999999998899e-05,-9.999999999998899e-05,-1.0000000000065512e-05,-0.00017066937991350173,0.00041773962017277455,-0.000435021886296294
150000000000.0,3,-0.040981990350000004,0.0027066354,-0.029812216,-0.002273,-0.026333,-0.007182,-1.9986933364999997,-9.56736774,0.8002912865499999,-1.9516,1.3494,1.3363,5.0000000000105516e-05,-9.999999999998899e-05,1.0000000000065512e-05,0.000343125871823613,0.00023457985690300553,-0.0009575188043240423
150000000000.0,3,-0.061899574799999996,-0.02021150565,-0.0273605535,-0.002254,-0.023136,-0.006117,-1.9988894695,-9.56736774,0.8000853469,-1.9515,1.3494,1.3359,4.999999999988347e-05,-9.999999999998899e-05,2.0000000000020002e-05,-0.0005398339805902097,0.00048825114362438526,0.0001877562773255903
150000000000.0,3,-0.0832584585,-0.0334995164,-0.012572125299999999,-0.003262,-0.015668,-0.006128,-1.999575935,-9.567269673499998,0.7999676670999999,-1.9514,1.3494,1.3356,9.999999999998899e-05,-9.999999999998899e-05,-2.0000000000020002e-05,0.0006134690323009728,0.0009212217138203638,-0.0013980792863397262
150000000000.0,3,-0.09484011215,-0.04559111585,-0.0010395049,-0.004281,-0.01033,-0.007203,-2.0002624005,-9.567171606999999,0.7996538543,-1.9511,1.3493,1.3352,5.0000000000105516e-05,-0.00019999999999997797,0.00021999999999999797,0.0021413054686876265,0.0011840747331901547,-0.001525914328206035
150000000000.0,3,-0.07589366435,-0.04819968475,0.0115914603,-0.004247,-0.006068,-0.007207,-2.0006546665,-9.5670735405,0.7994381079999999,-1.951,1.3493,1.335,4.999999999988347e-05,-9.999999999998899e-05,9.00000000000345e-05,0.00016660516429878314,-0.0010285970946506406,0.0003749806239752296
150000000000.0,3,-0.04074663075,-0.0371475902,0.034715541,-0.00214,-0.008218,-0.005063,-2.0006546665,-9.5670735405,0.7998107607,-1.9511,1.3493,1.3351,0.00019999999999997797,-9.999999999998899e-05,-0.000160000000000049,-0.00012210066289908283,-0.0015425445164778395,0.0020001875667898794
150000000000.0,3,-0.005942829899999999,-0.0101400761,0.0427962206,-0.001074,-0.009292,-0.006126,-1.999968201,-9.5670735405,0.8005560661,-1.9516,1.3493,1.3354,4.999999999988347e-05,-9.999999999998899e-05,0.00012000000000000899,0.0012431204048057864,0.0018843744305836463,-0.001646807413881568
150000000000.0,3,0.019113160849999998,0.013807763199999998,0.03986403225,-1.2e-05,-0.01143,-0.008256,-1.9987914029999998,-9.567269673499998,0.80154653775,-1.9522,1.3494,1.3359,5.0000000000105516e-05,-9.999999999998899e-05,-2.0000000000020002e-05,0.0002410165698538691,0.00023205476152354798,-0.00023950118298454726
150000000000.0,3,0.04663062075,0.01623000575,0.032930730699999994,0.00419,-0.017862,-0.005038,-1.997418472,-9.5674658065,0.80280178895,-1.9529,1.3495,1.3365,5.0000000000105516e-05,-0.00010000000000021103,-2.0000000000020002e-05,-6.403250008957251e-05,0.0002425875077181061,-0.00021723452225597129
150000000000.0,3,0.06881326304999999,-0.017465643649999998,0.01909354755,0.005244,-0.018938,-0.00397,-1.9956532749999998,-9.567760005999999,0.8039099403999999,-1.9537,1.3496,1.3371,4.999999999988347e-05,-9.999999999998899e-05,3.500000000000725e-05,-0.00021964878974300994,0.0004226864783405393,0.00022969333537714576
150000000000.0,3,0.07171603145,-0.04770935225,0.035451039749999996,0.003145,-0.014659,-0.003986,-1.9937900114999998,-9.5680542055,0.8052142248499999,-1.9546,1.3497,1.3378,0.00019999999999997797,-9.999999999998899e-05,3.500000000000725e-05,2.56540247374204e-05,-0.0010628435583375229,-0.0003362670541529056
150000000000.0,3,0.05088670685,-0.06302733955,0.06377264495,-8e-06,-0.010369,-0.006137,-1.9921228809999998,-9.568250338499999,0.8065185092999999,-1.9555,1.3498,1.3386,0.00019999999999997797,-4.999999999988347e-05,1.0000000000065512e-05,-0.0005106122864300122,0.00029025057384290953,-0.0005692963172942989
150000000000.0,3,0.0084533323,-0.06730303894999999,0.04253144104999999,-0.002056,-0.001825,-0.009359,-1.9908480164999998,-9.5684464715,0.8071069083,-1.956,1.3499,1.339,9.999999999998899e-05,-5.0000000000105516e-05,-3.0000000000085514e-05,-0.00011999209475699324,9.197034696795114e-05,1.5417190497135635e-05
150000000000.0,3,-0.017524483549999997,-0.0512299396,0.009453610599999999,0.000122,0.002422,-0.011497,-1.9898673515,-9.568642604499999,0.8071167149499999,-1.9561,1.35,1.3392,9.999999999998899e-05,-9.999999999998899e-05,-1.999999999990898e-05,-0.0004562797115277295,-9.00613189769306e-05,-0.00044361673641590826
150000000000.0,3,0.008070872949999999,-0.01856398845,0.006952914849999999,0.003333,0.00027,-0.016826,-1.9881021544999997,-9.5690348705,0.8073716878499999,-1.9566,1.3502,1.3396,9.999999999998899e-05,-4.999999999988347e-05,9.99999999995449e-06,-0.0003238570736701085,-0.0003134906103723356,1.0325981388170646e-05
150000000000.0,3,0.02582090945,0.018240369,-0.006933301549999999,0.002276,0.000281,-0.018963,-1.9859446914999999,-9.5694271365,0.8074893676499999,-1.957,1.3504,1.3401,9.999999999998899e-05,-5.0000000000105516e-05,-2.999999999997449e-05,-0.0002379702619654811,-5.018117594213223e-05,-4.146438062901936e-05
150000000000.0,3,0.04041320464999999,0.02164327655,-0.0112776475,-0.001947,0.00458,-0.021115,-1.983296896,-9.5700155355,0.8072049747999999,-1.9573,1.3507,1.3405,0.00010000000000021103,-9.999999999998899e-05,-1.0000000000065512e-05,-6.214495421552613e-05,-0.0005189659406950042,3.416946338852256e-05
150000000000.0,3,0.0381674818,-0.0057466969,-0.0129643913,-0.001941,0.006709,-0.018986,-1.9807471669999999,-9.5706039345,0.80648908935,-1.9575,1.3509,1.3407,9.999999999998899e-05,-9.999999999998899e-05,6.0000000000060005e-05,-0.0004945123047983557,-0.0005432643474665433,-0.0002655444583279376
150000000000.0,3,0.00781590005,-0.0364022848,-0.023408473549999996,-0.001922,0.009905,-0.017925,-1.9788839034999999,-9.571094267,0.8055574575999999,-1.9574,1.3512,1.3407,0.00029999999999996696,9.999999999998899e-05,-0.000160000000000049,-0.0014703806703328937,-0.0025116930224071687,0.0021717344551124285
150000000000.0,3,-0.0196329133,-0.03835380815,-0.004167826249999999,-0.001901,0.015228,-0.013665,-1.9777071054999997,-9.5713884665,0.80488079875,-1.9573,1.3513,1.3408,4.999999999988347e-05,-0.00019999999999997797,1.0000000000065512e-05,0.00050531674081844,-0.0003376318701744374,0.00026005554778718576
150000000000.0,3,-0.027233067049999997,-0.0486017574,-0.0063743225,-0.002942,0.020562,-0.010473,-1.9770206399999999,-9.5715845995,0.8039393603499999,-1.957,1.3514,1.3407,5.0000000000105516e-05,-9.999999999998899e-05,4.999999999999449e-05,0.0003538902349153883,-0.0007574501910321274,0.00037257635430076874
150000000000.0,3,-0.03933447314999999,-0.06150730879999999,-0.0025693423,-0.005063,0.024837,-0.006213,-1.9769225734999998,-9.571682666,0.8028312088999999,-1.9566,1.3515,1.3405,9.999999999998899e-05,-9.999999999998899e-05,2.5000000000052758e-05,-0.00015171940636027337,-0.0004602196877647735,0.00021415588487583292
150000000000.0,3,-0.018044235999999998,-0.056770696849999996,-0.0240655191,-0.003003,0.018423,-0.001928,-1.9769225734999998,-9.571780732499999,0.8015857643500001,-1.956,1.3515,1.3402,9.999999999998899e-05,-9.999999999998899e-05,2.4999999999941735e-05,0.0009939734080037788,-0.0007524676466936775,-5.152959159593351e-05
150000000000.0,3,-0.0029910282499999996,-0.0617426684,-0.0442868314,0.000159,0.015198,0.000217,-1.976824507,-9.571878799,0.8004089663499999,-1.9555,1.3516,1.3398,5.0000000000105516e-05,-9.999999999998899e-05,-3.0000000000085514e-05,0.0005951750497077413,5.989409550544167e-06,0.0005685891852404978
150000000000.0,3,0.0338329425,-0.05300494325,-0.0397561591,0.003292,0.005584,-0.001897,-1.9761380414999998,-9.5721729985,0.79976172745,-1.9554,1.3517,1.3398,4.999999999988347e-05,-9.999999999998899e-05,-9.99999999995449e-06,-0.0008919743954005632,0.0008220120425066479,0.00030467868501604656
150000000000.0,3,0.07742350174999998,-0.0300868022,-0.028811937699999998,0.002158,-0.001867,-0.000823,-1.974667044,-9.572467198,0.7994479146499999,-1.9555,1.3518,1.3399,9.999999999998899e-05,-9.999999999998899e-05,2.0000000000020002e-05,0.000488619558191683,-0.00012183804656662467,-0.00024351690684598637
150000000000.0,3,0.11068765855,-0.011934693049999999,-0.0053348176,-0.00103,-0.002903,-0.005102,-1.9723134479999997,-9.5729575305,0.7993106215499999,-1.9558,1.352,1.3402,3.333333333332966e-05,-4.999999999988347e-05,2.999999999997449e-05,0.00022870428860799485,0.0002619611168142022,-0.00010035403433938939
150000000000.0,3,0.12208298584999999,0.00010787314999999999,0.01028717585,0.001115,-0.002919,-0.00724,-1.9696656524999998,-9.573447862999998,0.7997028875499999,-1.9565,1.3523,1.3408,3.333333333332966e-05,-5.0000000000105516e-05,0.00012999999999996348,-0.00020769566277789586,0.0010953353591731663,-0.0008737837891787947
150000000000.0,3,0.0979095936,-0.0040011132,0.027635139700000002,-0.000965,0.0003,-0.012591,-1.9669197904999998,-9.574036262,0.8001539934499999,-1.9572,1.3525,1.3415,3.333333333332966e-05,-9.999999999998899e-05,5.0000000000105516e-05,-0.00016478426163590854,-0.00011350521424136062,0.0002510405231097579
150000000000.0,3,0.07450112005,-0.024281265399999998,0.050406180999999994,0.0012,0.001351,-0.016863,-1.9639777955,-9.5745265945,0.80103659195,-1.9581,1.3528,1.3424,9.999999999998899e-05,-9.999999999998899e-05,2.999999999997449e-05,7.006248990704123e-05,-0.00031954095010955363,3.986456971949437e-05
150000000000.0,3,0.050278694549999996,-0.038451874649999995,0.060310897499999995,-0.001936,0.007772,-0.019018,-1.96133,-9.575016927,0.8017524773999999,-1.9589,1.353,1.3432,5.0000000000105516e-05,-3.333333333332966e-05,-4.0000000000040004e-05,0.0004471706533013542,-1.703273123965232e-05,-0.0003351432550586786
150000000000.0,3,0.03686319735,-0.03227368515,0.04461045085,0.00124,0.004549,-0.019009,-1.9586822044999999,-9.5755072595,0.8023310697499999,-1.9596,1.3532,1.344,4.999999999988347e-05,-3.333333333332966e-05,-0.00014999999999998348,0.00017318316835024383,-0.0007007948211195103,0.0007081538643443075
150000000000.0,3,0.02489908435,-0.0280077924,0.0206528049,0.009745,0.00128,-0.017923,-1.956426675,-9.575899525499999,0.8032430881999999,-1.9604,1.3534,1.3449,9.999999999998899e-05,-3.333333333332966e-05,9.99999999995449e-06,0.00032272518895237745,-0.00036712885064016376,3.777185707765085e-06
150000000000.0,3,0.02217283565,-0.00530539765,0.027125193899999997,0.012936,0.001252,-0.015784,-1.954465345,-9.576193725,0.8050082851999999,-1.9615,1.3536,1.346,9.999999999998899e-05,-3.333333333332966e-05,-1.999999999990898e-05,0.00013046413451367478,2.2797661149764892e-05,-0.00016647539883152263
150000000000.0,3,-0.00067665885,0.016180972499999998,0.02872367785,0.016088,-0.00304,-0.012568,-1.9531904805,-9.576193725,0.80715594155,-1.9627,1.3536,1.3472,-8.333333333387927e-06,-3.333333333332966e-05,-1.0000000000065512e-05,-6.185467822961144e-05,-0.00021798533809858078,-0.00010958039011432774
150000000000.0,3,-0.0045306723,0.0136508568,0.029351303449999998,0.014978,-0.007296,-0.010428,-1.9521117489999997,-9.576193725,0.8093722444499999,-1.9638,1.3536,1.3483,-8.333333333387927e-06,-3.333333333332966e-05,-1.4999999999987246e-05,0.0001261302717496804,-0.0006085410433478433,-0.0005314354598997539
150000000000.0,3,0.022584714949999998,-0.006158576199999999,0.04830755789999999,0.011772,-0.006208,-0.007234,-1.9508368845,-9.5762917915,0.81151009415,-1.965,1.3536,1.3494,-8.333333333165882e-06,1.2499999999970868e-05,-1.4999999999987246e-05,-0.0001710465244810777,0.00017990603255091386,-5.908567755064098e-05
150000000000.0,3,0.044620257499999996,-0.017063571,0.05120051965,0.00859,-0.004051,-0.007246,-1.9491697539999997,-9.5764879245,0.8134027776,-1.9661,1.3537,1.3505,-8.333333333387927e-06,1.2499999999970868e-05,2.0000000000020002e-05,-9.983476019215232e-07,-0.00014639714582709296,-5.058589215423126e-05
150000000000.0,3,0.06338037895,-0.04404166515,0.06212512775,0.004312,-0.005083,-0.006188,-1.9473064905,-9.576782124,0.81490319505,-1.9671,1.3538,1.3514,-8.333333333387927e-06,1.2499999999970868e-05,-1.0000000000065512e-05,-2.0885311375451465e-05,-0.0002035778289506407,0.00015320969007248664
150000000000.0,3,0.0739617543,-0.06426297745,0.04317867994999999,0.003213,-0.007209,-0.002988,-1.945443227,-9.577076323499998,0.8160407664499999,-1.968,1.354,1.3522,-8.333333333165882e-06,1.2500000000192912e-05,2.4999999999941735e-05,7.559433615522693e-05,0.00011697909468555423,-1.695356005004811e-05
150000000000.0,3,0.09774288055,-0.09517353825,0.01379795655,0.002102,-0.011465,-0.000854,-1.9433838305,-9.577370522999999,0.816697812,-1.9686,1.3541,1.3528,-8.333333333387927e-06,1.2499999999970868e-05,2.5000000000052758e-05,-0.0005270761469731156,-0.0002291773082627735,-0.00019343120704906624
150000000000.0,3,0.09587961704999999,-0.11030519919999998,0.0015396440499999998,-0.003284,-0.017815,-0.000858,-1.9412263674999997,-9.577860855499999,0.81682529845,-1.9691,1.3544,1.353,-8.333333333387927e-06,1.2499999999970868e-05,1.0000000000065512e-05,0.000289796443154966,0.00019787825242767454,-0.00028133399993235386
150000000000.0,3,0.0875929978,-0.09545793109999999,-0.0047856452,-0.008626,-0.019901,-0.003004,-1.9390689044999998,-9.578351188,0.8162663193999999,-1.9692,1.3546,1.353,-8.333333333387927e-06,1.2499999999970868e-05,2.0000000000020002e-05,5.64208518061271e-06,9.929166741140527e-05,-0.00016574978600214507
150000000000.0,3,0.0827092861,-0.0554467991,-0.0025301156999999997,-0.011859,-0.025201,-0.00514,-1.9369114414999997,-9.5788415205,0.8155112073499999,-1.9693,1.3548,1.3528,-8.333333333387927e-06,1.2499999999970868e-05,1.4999999999987246e-05,4.017267821088133e-05,-0.00015775511516902263,-0.00026342592562889067
150000000000.0,3,0.06303714619999999,-0.011581653649999999,-0.0234182802,-0.012964,-0.030519,-0.006204,-1.9350481779999997,-9.579331853,0.8144030559,-1.9692,1.355,1.3524,-8.333333333165882e-06,-3.333333333332966e-05,1.4999999999987246e-05,-8.636289393137986e-05,7.017363776795627e-05,1.8208647225570473e-05
150000000000.0,3,0.0311459204,0.01513166095,-0.030047575599999998,-0.012968,-0.031583,-0.007271,-1.9336752469999998,-9.5796260525,0.81325567785,-1.9689,1.3552,1.3518,-8.333333333387927e-06,-3.333333333332966e-05,5.999999999994898e-05,-0.0001241808441454495,-0.00020326878329846032,-0.00014084468512010062
150000000000.0,3,-0.008257199299999999,0.014013702849999999,-0.0168085981,-0.014062,-0.034771,-0.007266,-1.9327926484999998,-9.579920251999999,0.81243191925,-1.9687,1.3553,1.3513,-9.999999999998899e-05,-3.333333333332966e-05,0.00021000000000004349,-0.00028233278629907765,0.00038058017511466424,-0.001016366792936818
150000000000.0,3,-0.00383440015,-0.039059886950000004,0.018416888699999998,-0.016237,-0.040081,-0.00726,-1.9320081164999998,-9.580116385,0.8120690732,-1.9687,1.3554,1.3508,-4.999999999988347e-05,3.333333333332966e-05,2.0000000000020002e-05,-0.0001923069871094807,3.644456449225508e-05,-0.00044713229367943086
150000000000.0,3,-0.004726805299999999,-0.0387951074,0.019436780299999998,-0.0195,-0.04645,-0.00512,-1.931125518,-9.5804105845,0.8110491816,-1.9684,1.3556,1.3501,-5.0000000000105516e-05,3.333333333332966e-05,3.999999999992898e-05,-8.698532950157656e-06,6.852985348815288e-05,-0.0006668182854161486
150000000000.0,3,0.0169655045,-0.041844975549999996,0.035490266349999994,-0.019571,-0.052847,-0.00084,-1.9300467865,-9.580606717499998,0.8107157554999999,-1.9685,1.3557,1.3496,5.0000000000105516e-05,3.333333333332966e-05,3.0000000000085514e-05,-0.00032837640513272426,8.153948267630717e-05,-0.0003832434006523222
150000000000.0,3,0.033538742999999996,-0.00995374975,0.04353171935,-0.017477,-0.056065,0.002369,-1.929164188,-9.5808028505,0.8108922752,-1.9687,1.3558,1.3493,4.999999999988347e-05,0.00019999999999997797,-0.000200000000000089,-0.0013214199959989958,-0.001409129673308085,0.001564884177503334
150000000000.0,3,0.041119283449999995,0.00946341725,0.042286274799999995,-0.013278,-0.063562,0.004523,-1.928379656,-9.580900917,0.8115493207499999,-1.9691,1.3558,1.3491,-9.999999999998899e-05,3.333333333332966e-05,1.0000000000065512e-05,-0.0004379526604061379,-2.062040945660648e-05,-0.0006599454466553745
150000000000.0,3,0.0396777059,0.0045895122,0.030459454899999995,-0.013304,-0.065695,0.006659,-1.927791257,-9.580900917,0.8120004266499999,-1.9694,1.3558,1.3487,-0.00019999999999997797,3.333333333332966e-05,0.00017999999999995797,-0.0006315216164507476,0.0010133249167636471,-0.0017350654167280766
150000000000.0,3,0.01213082605,0.0112972608,0.0315970263,-0.015428,-0.064612,0.006653,-1.927791257,-9.580900917,0.8123534660499999,-1.9696,1.3558,1.3482,-2.4999999999941735e-05,3.333333333332966e-05,-3.999999999992898e-05,-0.0008317166566031986,0.0004512403246537122,-0.0004719601413283314
150000000000.0,3,-0.0091594111,0.0006080123,0.027968565799999998,-0.016494,-0.064604,0.006652,-1.9280854564999999,-9.580900917,0.8125397924,-1.9696,1.3558,1.3475,-2.500000000016378e-05,9.999999999998899e-05,-0.000200000000000089,0.0002652717173554642,-0.0008845680987583648,0.0006039340866172971
150000000000.0,3,-0.033009183899999996,-0.02105487755,0.0246539181,-0.017543,-0.062464,0.006648,-1.928575789,-9.580704784,0.81256921235,-1.9696,1.3557,1.3468,-2.4999999999941735e-05,9.999999999998899e-05,-9.99999999995449e-06,0.00026796187369537705,-0.0005326140746411134,-0.0003340777935942896
150000000000.0,3,-0.0554860257,-0.030469261549999998,0.0353823932,-0.019673,-0.063509,0.004514,-1.9292622544999998,-9.580606717499998,0.8124613392,-1.9694,1.3557,1.3459,-2.4999999999941735e-05,9.999999999998899e-05,-9.99999999995449e-06,0.0003567800731567594,7.447514488934104e-05,-0.0005769252318192919
150000000000.0,3,-0.060212830999999994,-0.050308114499999994,0.04615990155,-0.022873,-0.065611,0.001312,-1.9298506534999997,-9.580508651,0.81231423945,-1.9692,1.3556,1.3451,9.999999999998899e-05,9.999999999998899e-05,6.999999999990347e-05,-0.0004183032534221809,0.00016388142028245234,-0.00037957915387032415
150000000000.0,3,-0.058712413549999995,-0.07201023094999999,0.03392120235,-0.021777,-0.063486,-0.000822,-1.9299487199999998,-9.580508651,0.8119808133499999,-1.969,1.3556,1.3442,-9.999999999998899e-05,9.999999999998899e-05,1.0000000000065512e-05,0.0001446437815433299,1.7638431262234633e-06,7.060083413890084e-06
150000000000.0,3,-0.04064856425,-0.03861858769999999,0.02389880605,-0.017531,-0.065653,0.000258,-1.9299487199999998,-9.580508651,0.8118337135999999,-1.969,1.3556,1.3435,-1.6666666666775853e-05,9.999999999998899e-05,-2.999999999997449e-05,0.0003842213929505789,0.00010617220209296896,-0.0012545584406717936
150000000000.0,3,-0.02125101055,0.016033872749999997,0.020368412049999996,-0.017567,-0.07098,-0.000799,-1.929752587,-9.580606717499998,0.8119219734500001,-1.9691,1.3557,1.3428,-1.666666666655381e-05,9.999999999998899e-05,-1.0000000000065512e-05,0.00014603443582217324,-0.00015692792693222657,-0.0005651461551865467
150000000000.0,3,0.0050013915,0.0532501095,0.01509243435,-0.017575,-0.072045,-0.000796,-1.929164188,-9.580704784,0.8119612000499999,-1.9692,1.3557,1.3422,-1.666666666655381e-05,9.999999999998899e-05,1.0000000000065512e-05,0.00046217849357899077,2.3958361064169154e-05,-0.0012061707305348612
150000000000.0,3,0.0197702064,0.05354430899999999,0.004501252349999999,-0.021841,-0.069882,0.002394,-1.9286738555,-9.5808028505,0.81147086755,-1.9691,1.3558,1.3414,-1.6666666666775853e-05,9.999999999998899e-05,-1.0000000000065512e-05,0.0008417859933700367,3.460580525493917e-05,-0.0011126553907323533
150000000000.0,3,-0.0052857843499999994,0.03837342144999999,-0.008433719,-0.018613,-0.067775,0.000262,-1.9284777224999998,-9.580900917,0.8107844020499999,-1.9688,1.3558,1.3404,-1.6666666666775853e-05,9.999999999998899e-05,0.00015500000000001624,0.0012903499839715948,-0.0007440306676769204,-0.0012797196930121046
150000000000.0,3,-0.0510338066,0.011905273099999999,-0.0136704701,-0.01536,-0.062471,-0.001874,-1.9286738555,-9.580900917,0.81019600305,-1.9685,1.3558,1.3395,-1.666666666655381e-05,-9.999999999998899e-05,0.00015500000000001624,0.0007740844121459922,0.0017876788766737484,-0.002529935408930317
150000000000.0,3,-0.08938761475,-0.0058839899999999995,-0.02005459925,-0.012112,-0.057168,-0.002941,-1.9295564539999999,-9.5808028505,0.8096958638999999,-1.9681,1.3558,1.3385,9.999999999998899e-05,9.999999999998899e-05,-0.00019000000000002348,0.0014745937406046572,-0.001025031235256213,0.00037537202777881973
150000000000.0,3,-0.10157728069999998,-0.0160632927,-0.02893942415,-0.011052,-0.057177,-0.001866,-1.930537119,-9.580606717499998,0.8091466915,-1.9677,1.3557,1.3375,4.999999999988347e-05,5.0000000000105516e-05,0.000260000000000038,6.261413455255216e-05,0.001596671182373166,-0.0024877728063041893
150000000000.0,3,-0.09362408755,-0.036451318049999994,-0.0179657828,-0.015304,-0.057138,-0.005072,-1.9309293849999998,-9.580606717499998,0.8084994526,-1.9673,1.3557,1.3366,5.0000000000105516e-05,4.999999999988347e-05,-4.999999999999449e-05,-0.0012315525190436105,-0.0004903771791979761,-0.00035088007653616415
150000000000.0,3,-0.07736466185,-0.02448720505,-0.020721451449999997,-0.011021,-0.055041,-0.005064,-1.9312235844999999,-9.580606717499998,0.80796008685,-1.967,1.3557,1.3357,5.0000000000105516e-05,9.999999999998899e-05,-2.0000000000020002e-05,-5.1702028359024155e-05,0.0001399166298794441,-0.0003714362829736473
150000000000.0,3,-0.051690852149999994,0.005952636549999999,-0.012317152399999998,-0.005631,-0.050819,-0.009329,-1.9308313185,-9.580704784,0.8080875733,-1.9672,1.3557,1.3353,4.999999999988347e-05,5.0000000000105516e-05,9.99999999995449e-06,-0.00043266627669180657,0.0002255453573942745,-0.0006269138248988781
150000000000.0,3,-0.017681389949999998,0.0245362383,-0.007247114349999999,-0.005626,-0.050817,-0.010396,-1.9298506534999997,-9.5808028505,0.8084013860999999,-1.9675,1.3558,1.3351,3.333333333332966e-05,4.999999999988347e-05,2.0000000000020002e-05,0.0004713868167847135,-0.0005781934269943889,-0.0005565515045837799
150000000000.0,3,0.0007060788,0.0283804451,-0.00856120545,-0.003491,-0.051898,-0.012525,-1.928379656,-9.581097049999999,0.8089799784499999,-1.968,1.3559,1.3351,3.333333333332966e-05,4.999999999988347e-05,-2.0000000000020002e-05,-0.0006127233835060419,0.00032491168907489154,-0.00034237546424797927
150000000000.0,3,-0.00638412915,0.019377940399999998,-0.028096052249999996,-0.003463,-0.047637,-0.011464,-1.9269086585,-9.5813912495,0.809048625,-1.9683,1.356,1.3349,3.333333333332966e-05,5.0000000000105516e-05,1.0000000000065512e-05,7.789773070809858e-05,-0.00021159350072585958,-0.00046387690031357565
150000000000.0,3,-0.03078307435,-0.0053936575,-0.0291061372,-0.005581,-0.045488,-0.01147,-1.9259279935,-9.581587382499999,0.8090093984,-1.9685,1.3561,1.3346,9.999999999998899e-05,2.4999999999941735e-05,9.99999999995449e-06,-3.2960837458517744e-05,-0.00017825267421311963,-0.0005012123004721758
150000000000.0,3,-0.056898183299999995,-0.01324878415,-0.010904994799999998,-0.002361,-0.042318,-0.0104,-1.9253395945,-9.581685449,0.8093722444499999,-1.9687,1.3562,1.3345,4.999999999988347e-05,2.500000000016378e-05,9.99999999995449e-06,0.00012203722111081561,-0.00042020366714989876,-0.0004961607578719551
150000000000.0,3,-0.07649186999999999,-0.032263878499999996,-0.00828661925,0.000843,-0.041279,-0.009325,-1.925241528,-9.581685449,0.8099018035499999,-1.969,1.3562,1.3343,5.0000000000105516e-05,2.4999999999941735e-05,5.0000000000105516e-05,-0.0003690349813147975,-0.0003860331338705336,-7.731712895431286e-05
150000000000.0,3,-0.07318702895,-0.04847427095,-0.001569064,0.002979,-0.040232,-0.008253,-1.925045395,-9.581587382499999,0.81080401535,-1.9694,1.3561,1.3344,3.333333333332966e-05,2.4999999999941735e-05,1.999999999990898e-05,-0.00010353044644251241,0.00011436794818386886,-0.00035931568101066347
150000000000.0,3,-0.0635863186,-0.061497502149999994,-0.0106107953,0.002987,-0.039166,-0.008252,-1.924849262,-9.581587382499999,0.81147086755,-1.9698,1.3561,1.3343,3.333333333332966e-05,9.090909090847532e-06,-1.999999999990898e-05,-0.00012080899766342412,-0.00023457583031283313,-0.0002284719408436331
150000000000.0,3,-0.0439730186,-0.048464464299999996,-0.0179657828,0.005075,-0.043447,-0.006105,-1.9243589294999999,-9.581587382499999,0.8123926926499999,-1.9703,1.3562,1.3344,3.333333333332966e-05,9.090909091069577e-06,9.99999999995449e-06,-0.0002690128186324525,-0.0002242456703722695,-0.0002499178128627655
150000000000.0,3,0.0004707192,-0.02203554255,-0.01315071765,0.00508,-0.043446,-0.007172,-1.9232801979999998,-9.581685449,0.8137067837499999,-1.971,1.3562,1.3347,-1.2499999999970868e-05,9.090909090847532e-06,4.0000000000040004e-05,-0.00040424519494997035,-0.00017895181373406288,-0.00015812340443854822
150000000000.0,3,0.0298710559,0.0159652262,-0.0048444850999999995,0.009308,-0.047745,-0.006091,-1.9219072669999997,-9.581881582,0.8154327541499999,-1.9721,1.3563,1.3353,-1.2499999999970868e-05,9.090909090847532e-06,1.999999999990898e-05,3.309236832160778e-05,-0.0004169791452224292,-0.00036166111976010384
150000000000.0,3,0.055897905,0.0365395779,-0.00914960445,0.008246,-0.047735,-0.007163,-1.9200440034999997,-9.582077714999999,0.81704104475,-1.9731,1.3564,1.3359,-1.2499999999970868e-05,9.090909091069577e-06,-2.999999999997449e-05,-0.0002771987611425164,9.14820980473241e-05,-0.00010008430437258298
150000000000.0,3,0.08290541909999999,0.046326614599999996,-0.04490465034999999,0.009286,-0.050941,-0.00716,-1.917788474,-9.582469981,0.8182276493999999,-1.9741,1.3565,1.3364,-1.2499999999970868e-05,9.090909090847532e-06,1.0000000000065512e-05,-2.821497833083164e-05,-0.00032133429564562555,-0.0004681487089719383
150000000000.0,3,0.0741775006,0.03413694865,-0.06479253655,0.003927,-0.053029,-0.006102,-1.915631011,-9.582862247,0.8188160484,-1.9747,1.3567,1.3365,-1.2500000000192912e-05,9.090909091069577e-06,-1.0000000000065512e-05,-1.0086358710470478e-05,-8.088374399917164e-05,-0.00024205929489928835
150000000000.0,3,0.06802873104999999,-0.010973641349999999,-0.08032627015,0.00071,-0.051941,-0.001843,-1.9137677475,-9.5831564465,0.8186395286999999,-1.975,1.3569,1.3363,-1.2499999999970868e-05,9.090909090847532e-06,1.0000000000065512e-05,-0.00031118686173225996,6.107295617696629e-05,-0.0006564949372522833
150000000000.0,3,0.04678752715,-0.08532766165,-0.09062325264999999,-0.004678,-0.054034,0.004552,-1.9125909495,-9.583548712499999,0.8177078969499999,-1.9748,1.3571,1.3355,-1.2499999999970868e-05,9.090909090847532e-06,1.999999999990898e-05,-1.436187011005785e-05,-0.0001150084279799568,-0.0004469213565876373
150000000000.0,3,0.02538941685,-0.13775401255,-0.06261546024999999,-0.017496,-0.052867,0.008795,-1.9120025505,-9.583744845499998,0.8161878662,-1.9743,1.3572,1.3344,-1.2499999999970868e-05,9.090909091069577e-06,8.000000000008001e-05,0.0012850882719466217,-0.00033005142914888097,0.0011891155082115468
150000000000.0,3,0.019985952699999997,-0.18209968384999997,-0.02221206225,-0.025,-0.057068,0.008786,-1.911512218,-9.584039044999999,0.8143932492499999,-1.9735,1.3573,1.3331,-2.4999999999941735e-05,9.090909090847532e-06,2.999999999997449e-05,-4.123408213563273e-05,0.0003277772322860528,-0.00048029379764669144
150000000000.0,3,0.00658026215,-0.15542559585,-0.034068302099999996,-0.027126,-0.053857,0.011977,-1.9116102844999998,-9.584235177999998,0.8120298466,-1.9725,1.3574,1.3315,-2.500000000016378e-05,9.999999999998899e-05,-0.00014999999999998348,-0.0001526312104811467,-0.0010402114477199298,0.0009485704907028492
150000000000.0,3,-0.01311149105,-0.09620323649999998,-0.06610662764999999,-0.021759,-0.050701,0.009846,-1.9121006169999997,-9.5843332445,0.8095095375499999,-1.9713,1.3574,1.3297,-2.4999999999941735e-05,-5.0000000000105516e-05,3.999999999992898e-05,-5.3395599387329185e-05,6.505771093689994e-05,-0.0004411712669698531
150000000000.0,3,0.00399130655,-0.0232025339,-0.1033424777,-0.013266,-0.056098,0.008802,-1.9124928829999999,-9.584431311,0.8072343947499999,-1.9702,1.3575,1.3281,-2.4999999999941735e-05,-4.999999999988347e-05,-9.99999999995449e-06,-0.00010819313608911862,0.00028175169384070387,-0.0005680374874006411
150000000000.0,3,0.023732092999999996,0.06832293055,-0.12180839965,-0.005815,-0.058288,0.007751,-1.9125909495,-9.5845293775,0.8056555241,-1.9695,1.3576,1.3268,-9.999999999998899e-05,-3.333333333332966e-05,2.999999999997449e-05,-0.00017579301087455868,3.2884094966822985e-05,-0.0006795351601769362
150000000000.0,3,0.03135186005,0.1120703962,-0.11472799834999999,-0.002571,-0.052985,0.006679,-1.9127870825,-9.5845293775,0.80470427905,-1.969,1.3576,1.3258,-1.999999999990898e-05,-3.333333333355171e-05,-5.999999999994898e-05,-0.00041946303267215157,-0.000584579073067415,3.374967452840494e-05
150000000000.0,3,0.01448442205,0.1124038223,-0.08376840429999999,-0.000349,-0.045537,0.000265,-1.9127870825,-9.584627443999999,0.80427278645,-1.9688,1.3576,1.3252,-2.0000000000131024e-05,-3.333333333332966e-05,-2.0000000000020002e-05,-0.0001425387143940693,-2.402540107615536e-05,-0.0003117704346671246
150000000000.0,3,-0.0009218250999999998,0.06577320155,-0.07728620865000001,0.002914,-0.038103,-0.000809,-1.9126890159999999,-9.584627443999999,0.8039295536999999,-1.9687,1.3576,1.3247,-1.999999999990898e-05,-4.999999999988347e-05,2.0000000000020002e-05,0.0006214643105812989,0.000576568475062933,-0.0003511769921216157
150000000000.0,3,-0.02113333075,0.0246539181,-0.08923070835,0.006142,-0.034931,-0.001875,-1.9125909495,-9.584725510499998,0.80360593425,-1.9686,1.3576,1.3242,-2.0000000000131024e-05,-5.0000000000105516e-05,-4.999999999999449e-05,-0.00037047044610161173,-0.00020504368000362483,-0.0009557634978145657
150000000000.0,3,-0.049533389149999996,-0.00487390505,-0.09365350749999998,0.008296,-0.031745,-0.001877,-1.9129832154999997,-9.584627443999999,0.80339018795,-1.9684,1.3576,1.3237,-1.999999999990898e-05,-3.333333333332966e-05,-8.000000000008001e-05,1.143330359543171e-05,1.2895692032666162e-05,-0.0007835668166435994
150000000000.0,3,-0.05992843815,-0.017897136249999997,-0.07602115079999999,0.010433,-0.029633,0.00026,-1.913669681,-9.5845293775,0.803556901,-1.9683,1.3575,1.3234,9.999999999998899e-05,-3.333333333332966e-05,-0.00017999999999995797,-0.0014699054184026394,-0.0007765321419019866,0.00044839764664139636
150000000000.0,3,-0.058163241149999996,-0.020309572149999996,-0.043659205799999996,0.010501,-0.022171,-0.001885,-1.91425808,-9.5843332445,0.8042629797999999,-1.9686,1.3575,1.3234,5.0000000000105516e-05,-3.333333333332966e-05,2.0000000000020002e-05,0.00033567705752579613,-0.00024949924397499323,-0.00017498267254234534
150000000000.0,3,-0.05631959095,-0.012523092049999998,-0.04266873415,0.009514,-0.012571,-0.002968,-1.9147484125,-9.584235177999998,0.8047729255999999,-1.9687,1.3574,1.3234,4.999999999988347e-05,-9.999999999998899e-05,-9.00000000000345e-05,-0.00011214409982596152,0.00041597385431257905,-0.0003564930692911972
150000000000.0,3,-0.05312262305,-0.0018632635,-0.04876847045,0.007469,-0.001896,-0.004055,-1.915238745,-9.584039044999999,0.8048906053999999,-1.9686,1.3573,1.3233,-1.4285714285744433e-05,-9.999999999998899e-05,-2.0000000000020002e-05,3.444482801961968e-05,-1.8813353984237224e-05,-7.277892053858537e-05
150000000000.0,3,-0.07029406719999999,0.00979684335,-0.0273017136,0.004318,0.004524,-0.004069,-1.9160232769999999,-9.5839409785,0.8049690586,-1.9685,1.3573,1.3233,-1.4285714285744433e-05,-9.999999999998899e-05,-1.999999999990898e-05,0.00011310858531787815,0.00022182377992696622,-0.00010550071252835025
150000000000.0,3,-0.06751878524999999,0.010414662299999999,-0.013876409749999999,0.000141,0.015216,-0.005158,-1.9168078089999998,-9.583744845499998,0.80456698595,-1.9682,1.3572,1.3231,-1.4285714285744433e-05,-9.999999999998899e-05,-4.0000000000040004e-05,-0.0004121255892093334,0.0007422328610595663,0.00025063498388666616
150000000000.0,3,-0.06677347985,-0.0148276548,-0.01267999845,-0.000852,0.025878,-0.003041,-1.9176904074999999,-9.583646779,0.8036647741499999,-1.9676,1.3571,1.3228,-1.4285714285522388e-05,-0.00019999999999997797,9.99999999995449e-06,-0.000776156377912951,1.5324763919410955e-05,0.0004476207540591304
150000000000.0,3,-0.0761388306,-0.030106415499999997,-0.00469738535,0.001332,0.032254,-0.003045,-1.9188672055,-9.583548712499999,0.80301753525,-1.9671,1.3571,1.3226,-1.4285714285744433e-05,-9.999999999998899e-05,-4.999999999999449e-05,-0.0002714306673110567,0.0003013251751413648,0.000492468495315812
150000000000.0,3,-0.05427000109999999,-0.047071919999999996,0.042904093750000004,-0.003942,0.037629,-0.006263,-1.9192594714999998,-9.583450646,0.8025468160499999,-1.9668,1.357,1.3227,-1.4285714285744433e-05,-9.999999999998899e-05,-9.99999999995449e-06,-0.0004989301661573187,-0.0012309107317223233,0.0009714034692289708
150000000000.0,3,-0.0264387284,-0.06814641085,0.06981354135,-0.00601,0.04617,-0.005214,-1.9192594714999998,-9.583450646,0.80227222985,-1.9667,1.357,1.323,-1.4285714285744433e-05,-9.999999999998899e-05,9.00000000000345e-05,0.00048661344643941007,-0.0007664674210186018,0.0004824420947211472
150000000000.0,3,-0.023712479699999997,-0.06932320885,0.06510634935,-0.008126,0.049381,-0.003088,-1.9194556044999997,-9.583548712499999,0.8015955709999999,-1.9664,1.3571,1.3231,-3.333333333332966e-05,-0.00019999999999997797,-1.0000000000065512e-05,-0.00020558768145284567,-9.604477274161027e-05,0.0006563589999242225
150000000000.0,3,-0.02999854235,-0.07250056345,0.06802873104999999,-0.007068,0.04937,-0.00095,-1.919945937,-9.583450646,0.8009189121499999,-1.966,1.357,1.3232,-3.333333333332966e-05,-9.999999999998899e-05,-5.999999999994898e-05,-0.0006237707664380476,0.0009068448612095104,0.0012159463076177879
150000000000.0,3,-0.0273997801,-0.0629783063,0.07608979735,-0.007044,0.052565,0.000112,-1.9204362695,-9.583450646,0.8003403198,-1.9657,1.357,1.3234,-3.333333333332966e-05,-9.999999999998899e-05,2.0000000000020002e-05,0.0004924656235196778,7.781127840367219e-05,0.0005601016212812837
150000000000.0,3,-0.01093441475,-0.03786347565,0.1039112634,-0.003903,0.047206,0.004397,-1.9212208014999999,-9.583254513,0.8006541325999998,-1.9657,1.3569,1.3238,4.999999999988347e-05,-9.999999999998899e-05,-3.0000000000085514e-05,0.0005891397097157469,-0.00021188150585449428,0.0003644467110723859
150000000000.0,3,-0.003726527,0.010042009599999999,0.11241362894999998,0.00141,0.043965,0.004413,-1.9221034,-9.5829603135,0.8017132508,-1.966,1.3568,1.3246,5.0000000000105516e-05,-9.999999999998899e-05,1.0000000000065512e-05,7.254972533954351e-05,6.697003962563564e-05,0.0002731515210179225
150000000000.0,3,0.007727640199999999,0.07020580735,0.09803708005,0.010984,0.03856,0.002304,-1.9227898654999998,-9.582666114,0.8035274810499999,-1.9666,1.3567,1.3256,-9.999999999998899e-05,-0.00019999999999997797,0.00014999999999998348,0.0004737607437048652,0.00016977977071586103,-0.00019704367512041188
150000000000.0,3,0.028233345349999998,0.10800063644999999,0.0897308475,0.021652,0.033151,-0.00514,-1.922691799,-9.582469981,0.8064400560999999,-1.968,1.3566,1.3273,9.999999999998899e-05,-9.999999999998899e-05,-2.999999999997449e-05,0.0012491059898376289,-0.0004039972224487709,0.0002749835687696489
150000000000.0,3,0.07240249694999999,0.12941836005,0.0727261164,0.026971,0.026719,-0.011526,-1.9212208014999999,-9.582469981,0.80968605725,-1.9697,1.3566,1.3293,-5.0000000000105516e-05,-0.00020000000000020002,9.99999999995449e-06,0.000932338547411371,-0.0011587503680616784,0.0007277191096690672
150000000000.0,3,0.0991844581,0.11272744174999999,0.07438344024999999,0.030181,0.023502,-0.017923,-1.9184749394999998,-9.582666114,0.813559684,-1.9719,1.3567,1.3318,-4.999999999988347e-05,-9.999999999998899e-05,-4.999999999999449e-05,-0.000832621088985297,0.00028118820641687137,0.00047822178945100546
150000000000.0,3,0.11166832354999999,0.08198359399999999,0.0635667053,0.034424,0.016013,-0.024312,-1.9148464789999997,-9.583058379999999,0.81764905705,-1.9744,1.3569,1.3345,2.4999999999941735e-05,-9.999999999998899e-05,-9.99999999995449e-06,0.00018303080158221796,-0.0004884006604195523,0.0003343600349632325
150000000000.0,3,0.109442214,0.044296638049999996,0.07104917925,0.037607,0.010662,-0.028572,-1.9104334864999999,-9.583548712499999,0.8222876024999999,-1.9772,1.3571,1.3375,2.4999999999941735e-05,-9.999999999998899e-05,0.00015999999999993797,0.0007503577848018139,0.000991697002023617,-0.001652103321863052
150000000000.0,3,0.07618786385,0.0050406181,0.0740205942,0.038665,0.008522,-0.029638,-1.9064127599999998,-9.5839409785,0.8270928609999999,-1.9801,1.3573,1.3406,2.500000000016378e-05,-9.999999999998899e-05,-2.0000000000020002e-05,-6.272226922376944e-05,-0.00011703403389562439,0.00018631868508300897
150000000000.0,3,0.030841914249999994,-0.0277920461,0.059153712799999994,0.042885,0.004221,-0.026423,-1.903078499,-9.584137111499999,0.8319373461,-1.9829,1.3574,1.3434,2.4999999999941735e-05,-9.999999999998899e-05,-3.999999999992898e-05,-0.0003836069390823482,-0.00040504508287009244,-0.0003754695178646017
150000000000.0,3,-0.0146707484,-0.06481214985,0.035696206,0.043897,-0.002182,-0.025342,-1.90052877,-9.584235177999998,0.83669357135,-1.9855,1.3574,1.3461,5.0000000000105516e-05,-4.999999999988347e-05,-6.0000000000060005e-05,8.955225637974351e-05,-0.00034144734684682376,-0.0005310705686842887
150000000000.0,3,-0.04413973164999999,-0.0691761091,-0.00516810455,0.045998,-0.004334,-0.022131,-1.8987635729999996,-9.584235177999998,0.84104772395,-1.9878,1.3574,1.3483,4.999999999988347e-05,-5.0000000000105516e-05,-9.999999999998899e-05,-0.00011425213626825581,-0.0001472849268160381,-0.00029218789641127785
150000000000.0,3,-0.05824169435,-0.050278694549999996,-0.018005009399999997,0.045957,-0.008596,-0.021054,-1.897390642,-9.584137111499999,0.8453528432999999,-1.9899,1.3574,1.3505,4.999999999988347e-05,-5.0000000000105516e-05,-5.999999999994898e-05,-0.000521864854339249,-0.00011958023250069338,-0.00022321450208018234
150000000000.0,3,-0.049984495049999994,-0.02352615335,-0.0053642375499999995,0.043802,-0.008583,-0.016786,-1.8963119104999997,-9.5839409785,0.8497756424499999,-1.9921,1.3573,1.3526,5.0000000000105516e-05,-4.999999999988347e-05,-4.999999999999449e-05,-0.0010733701245557725,-0.00031783725921430417,-0.000495405381230718
150000000000.0,3,-0.02980240935,0.0050308114499999996,0.02291814105,0.040603,-0.008556,-0.01679,-1.8951351125,-9.583744845499998,0.8544141878999999,-1.9944,1.3572,1.3548,5.0000000000105516e-05,-4.999999999988347e-05,-3.0000000000085514e-05,0.0005980250848813817,-0.00045536271001900275,0.000355763887759597
150000000000.0,3,-0.00793357985,0.0018828768,0.04027591155,0.038464,-0.007476,-0.013593,-1.893860248,-9.583646779,0.8590429266999999,-1.9966,1.3571,1.3571,4.999999999988347e-05,-5.0000000000105516e-05,-7.00000000000145e-05,-0.0010516417637578268,0.00010548344841310175,-0.0005228340209253446
150000000000.0,3,0.0005099458,-0.01823056235,0.0450713634,0.034243,-0.003177,-0.015743,-1.8921931175,-9.583548712499999,0.8632205596,-1.9988,1.3571,1.3592,3.333333333332966e-05,-5.0000000000105516e-05,3.0000000000085514e-05,9.069433080233225e-05,0.00044137415151812576,-0.0005369173273681582
150000000000.0,3,0.0037755602499999997,-0.0417959423,0.027831272699999996,0.031136,0.006442,-0.018968,-1.8902317874999999,-9.583646779,0.8667019203499999,-2.0007,1.3571,1.3612,3.333333333332966e-05,-4.999999999988347e-05,-4.0000000000040004e-05,-0.000275915696404061,-0.0003775278226494372,5.8935052851261105e-05
150000000000.0,3,-0.0008825985,-0.06430220405,0.0186130217,0.032238,0.010695,-0.018974,-1.8882704574999998,-9.583744845499998,0.8699283081999999,-2.0025,1.3572,1.3632,3.333333333332966e-05,-4.999999999988347e-05,-4.999999999999449e-05,6.293044356775468e-05,-0.00018647697037343924,0.00012937423869674447
150000000000.0,3,-0.0156121868,-0.071000146,0.01079712165,0.032244,0.012824,-0.016843,-1.8867013934999999,-9.583744845499998,0.8729683696999999,-2.0042,1.3572,1.365,5.0000000000105516e-05,-5.0000000000105516e-05,9.99999999995449e-06,-0.0005612354953983267,-2.8899855573749633e-05,0.00023007314519452038
150000000000.0,3,-0.02544825675,-0.0669598062,0.00756092715,0.030071,0.008578,-0.015772,-1.8854265289999999,-9.583744845499998,0.87574365165,-2.0056,1.3572,1.3666,4.999999999988347e-05,-3.333333333332966e-05,-2.999999999997449e-05,-0.0001904032453194926,-0.00015374264559642192,0.00014112611469130343
150000000000.0,3,-0.029410143349999997,-0.0601343778,0.015023787799999999,0.024699,0.006487,-0.011507,-1.8846419969999997,-9.583744845499998,0.8781658942,-2.0069,1.3572,1.3679,5.555555555591951e-06,-3.333333333332966e-05,-2.999999999997449e-05,-0.00032224893303989255,-0.00025382308118171437,0.0005539698242262858
150000000000.0,3,-0.011395327299999999,-0.033528936349999997,0.02356537995,0.017205,0.004415,-0.009381,-1.8837593985,-9.583646779,0.880244904,-2.0079,1.3571,1.369,5.555555555591951e-06,-3.333333333332966e-05,5.999999999994898e-05,-0.00020386572189390328,-0.0004004523318563713,0.00044866225545581173
150000000000.0,3,0.02939053005,-0.007511893899999999,0.014572681899999999,0.013987,0.00231,-0.009385,-1.8823864675,-9.583842912,0.8819022278499999,-2.0089,1.3572,1.3701,5.555555555591951e-06,9.999999999998899e-05,-8.999999999992347e-05,-0.0004424327682939211,-0.0006988701299992517,0.0007749089439568202
150000000000.0,3,0.07846300664999999,0.00281450855,-0.0049915848499999995,0.010747,-0.001927,-0.008319,-1.8802290045,-9.584137111499999,0.8830692192,-2.0099,1.3574,1.371,5.5555555553699065e-06,-5.0000000000105516e-05,-2.0000000000020002e-05,-0.0003289517377860207,-1.388724805018171e-05,1.612262718975188e-05
150000000000.0,3,0.10316595799999999,0.006913688249999999,-0.0040011132,0.011778,-0.005135,-0.006182,-1.8778754084999998,-9.584431311,0.88431466375,-2.0109,1.3575,1.372,5.555555555591951e-06,-4.999999999988347e-05,2.999999999997449e-05,0.0005697550986645261,0.0005581692027083474,-0.0005918785244141134
150000000000.0,3,0.09725254805,-0.0055897905,-0.03221484525,0.012792,-0.011537,-0.006175,-1.8755218125,-9.584823577,0.8853051353999999,-2.0118,1.3577,1.3728,5.555555555591951e-06,4.999999999988347e-05,-4.999999999999449e-05,0.0002022282454139379,0.0002929270549718588,-0.00043467185311207857
150000000000.0,3,0.07965941794999999,-0.02197670265,-0.07374600799999999,0.010581,-0.020045,-0.005101,-1.8734624159999997,-9.585215842999999,0.88553068835,-2.0123,1.3579,1.3732,5.555555555591951e-06,5.0000000000105516e-05,-9.00000000000345e-05,-0.00014413553603231932,8.037773617819433e-05,-0.00018774455345393903
150000000000.0,3,0.04585589539999999,-0.0383832281,-0.10995215979999999,0.002017,-0.021043,-0.001914,-1.8721875515,-9.5855100425,0.8844813767999999,-2.0121,1.3581,1.3728,5.555555555591951e-06,-9.999999999998899e-05,3.0000000000085514e-05,-0.0001237805137646042,-4.257200310187059e-05,-4.8716017669647727e-05
150000000000.0,3,0.013758729949999998,-0.08128732185,-0.13077167774999998,-0.00119,-0.021016,-0.001921,-1.8714030195,-9.5859023085,0.88254946675,-2.0115,1.3582,1.372,5.5555555553699065e-06,-2.4999999999941735e-05,-3.0000000000085514e-05,0.00013871709395663068,0.00023371457602094914,-0.0005076674459547625
150000000000.0,3,-0.0141019627,-0.11094263145,-0.12355398335000001,-0.004441,-0.025253,0.000215,-1.8710107534999998,-9.586196507999999,0.8802645172999999,-2.0105,1.3583,1.3708,5.555555555591951e-06,-2.4999999999941735e-05,-9.99999999995449e-06,0.00015076855449769333,3.2331526331308424e-05,0.0005113983734186256
150000000000.0,3,-0.0467973338,-0.10745146404999999,-0.09218251,-0.000222,-0.029552,0.002366,-1.8714030195,-9.586196507999999,0.87897984615,-2.0099,1.3584,1.3699,5.555555555591951e-06,-2.500000000016378e-05,2.0000000000020002e-05,-0.0002740967710905817,1.669212904165107e-05,-0.0004391823095928338
150000000000.0,3,-0.06450814369999999,-0.06593010795,-0.07593289095,0.004055,-0.028519,0.001306,-1.8720894849999998,-9.586196507999999,0.87829338065,-2.0095,1.3583,1.3692,5.555555555591951e-06,-2.4999999999941735e-05,2.999999999997449e-05,-0.0007848593402481896,-0.00015311696778774753,-0.0003946069279709974
150000000000.0,3,-0.05118090634999999,-0.011875853149999999,-0.06520441585,0.007272,-0.027477,-0.000822,-1.8726778839999998,-9.586000375,0.87833260725,-2.0094,1.3583,1.3688,5.555555555591951e-06,-5.0000000000105516e-05,-4.999999999999449e-05,0.00022451392536870785,-0.00020255433015203828,-0.00016511972446542345
150000000000.0,3,-0.0415409694,0.03764772935,-0.0545642006,0.008414,-0.017895,-0.000835,-1.8733643494999999,-9.5859023085,0.8786170000999999,-2.0093,1.3582,1.3686,5.555555555591951e-06,-4.999999999988347e-05,2.0000000000020002e-05,-0.0002957571976840434,-0.0001236557443951014,-0.0006067920297927465
150000000000.0,3,-0.0423843413,0.0452282698,-0.024595078199999995,0.007397,-0.011493,-0.000845,-1.8740508149999997,-9.585706175499999,0.8793328855499999,-2.0095,1.3581,1.3687,5.555555555591951e-06,-9.999999999998899e-05,-4.0000000000040004e-05,-0.0004855674511112795,2.3106256633376177e-05,-4.013905788813332e-05
150000000000.0,3,-0.049739328799999996,0.0364611247,-0.0037853669,0.007451,-0.004035,0.000212,-1.8749334135,-9.585411976,0.8800683843,-2.0097,1.358,1.3688,5.5555555553699065e-06,-5.0000000000105516e-05,-2.0000000000020002e-05,-0.0009444283719912683,-6.122800143404383e-05,0.0005166208643694326
150000000000.0,3,-0.049739328799999996,0.01419022255,-0.001176798,0.007489,0.001292,0.001273,-1.8759140784999997,-9.585117776499999,0.8808921429,-2.0098,1.3579,1.369,5.555555555591951e-06,-4.999999999988347e-05,-3.999999999992898e-05,-0.00038969914305719833,1.2311275918941433e-05,0.00035351693674545714
150000000000.0,3,-0.06856809679999999,-0.018897414549999998,-0.01513166095,0.011778,0.00339,0.000213,-1.877188943,-9.584823577,0.88168648155,-2.0099,1.3577,1.3691,5.555555555591951e-06,-4.999999999988347e-05,-0.0002500000000000835,-0.001948134368275456,-0.001755266800015809,0.002662625564500587
150000000000.0,3,-0.05680992345,-0.027811659399999997,-0.0328522775,0.013922,0.005503,0.001283,-1.8781696079999999,-9.584627443999999,0.8821964273499999,-2.0099,1.3576,1.3692,9.999999999998899e-05,-5.0000000000105516e-05,-9.99999999995449e-06,-0.00042090686680018585,0.0005752721455614118,0.00045514811202718164
150000000000.0,3,-0.04311984005,-0.0434042329,-0.03843226135,0.008598,0.007677,0.002339,-1.8789541399999998,-9.584431311,0.88239256035,-2.0098,1.3575,1.3692,3.333333333332966e-05,-9.999999999998899e-05,-2.0000000000020002e-05,-0.0005117164936379037,0.00045954611235354825,0.0001693595120113578
150000000000.0,3,-0.025752262899999996,-0.03272479105,-0.030979207349999996,0.005438,0.013032,0.002325,-1.8795425389999998,-9.5843332445,0.8821179741499999,-2.0096,1.3575,1.3691,3.333333333332966e-05,-4.999999999988347e-05,-4.999999999999449e-05,-0.0006166625217880473,-0.0010779811649519466,0.0011246365287296278
150000000000.0,3,-0.019113160849999998,-0.026968287499999997,-0.0128074849,0.003335,0.016247,0.001249,-1.880130938,-9.584235177999998,0.8819120344999999,-2.0094,1.3574,1.3691,3.333333333332966e-05,-5.0000000000105516e-05,-5.999999999994898e-05,-0.00024960678635110867,2.638948116340245e-05,3.911116556132299e-05
150000000000.0,3,-0.00057859235,-0.007158854499999999,0.012895744749999999,0.001208,0.018393,0.003377,-1.880523204,-9.584137111499999,0.8819316477999999,-2.0093,1.3574,1.3692,-9.999999999998899e-05,-0.00010000000000021103,-2.0000000000020002e-05,-0.00043988487754553773,0.0006158567849738894,-1.1883319752215016e-05
150000000000.0,3,0.02970434285,0.017426417049999997,-0.011395327299999999,0.004422,0.019434,0.002311,-1.8802290045,-9.584235177999998,0.8819904877,-2.0094,1.3574,1.3694,3.333333333332966e-05,-9.999999999998899e-05,-9.99999999995449e-06,1.8568355009129789e-06,1.0891956862435492e-05,0.00034697546867556994
150000000000.0,3,0.030008348999999997,0.01734796385,-0.01162088025,0.005525,0.022623,0.000172,-1.8806212704999998,-9.584137111499999,0.8822160406499999,-2.0094,1.3574,1.3697,3.333333333332966e-05,-9.999999999998899e-05,-2.0000000000020002e-05,5.6612129939681566e-05,-0.00041074455329015436,-7.799997765145505e-05
150000000000.0,3,0.02644853505,0.0032165811999999997,-0.024908891,0.00871,0.019403,-0.001953,-1.880130938,-9.584235177999998,0.8821768140499999,-2.0095,1.3574,1.37,3.333333333332966e-05,-9.999999999998899e-05,-4.999999999999449e-05,0.00046545084029703254,-0.0004059267407341416,0.0005379364084605598
150000000000.0,3,0.018917027849999997,-0.01591619295,-0.04045243125,0.005498,0.016236,-0.005156,-1.8795425389999998,-9.5843332445,0.8817159015,-2.0094,1.3575,1.3701,-1.999999999990898e-05,-9.999999999998899e-05,-1.0000000000065512e-05,0.00056823345284851,-0.000422542179265184,0.00022637213143461565
150000000000.0,3,0.004609125499999999,-0.06407665109999999,-0.03543142645,0.001192,0.013073,-0.003024,-1.8789541399999998,-9.5845293775,0.8810294359999999,-2.0092,1.3576,1.3701,-2.0000000000131024e-05,-9.999999999998899e-05,-7.00000000000145e-05,0.0002839928043285589,-0.00037969464282605614,0.0007865948571823544
150000000000.0,3,0.0023830159499999997,-0.08248373315,-0.0128859381,-0.000934,0.014156,-0.003031,-1.878561874,-9.584725510499998,0.8803331638499999,-2.009,1.3576,1.37,-1.999999999990898e-05,-9.999999999998899e-05,3.0000000000085514e-05,0.00036607445354830404,-0.0005579841329617086,0.0005220148941122993
150000000000.0,3,-0.0006276255999999999,-0.0676070451,0.0385793611,0.000114,0.010951,-0.004091,-1.8780715415,-9.584725510499998,0.88063717,-2.0093,1.3577,1.3703,-2.0000000000131024e-05,-9.999999999998899e-05,9.99999999995449e-06,0.0005092991099040489,-0.0002018911687975411,0.000300598445126532
150000000000.0,3,0.012944777999999999,-0.038010575399999996,0.030841914249999994,0.002277,0.013067,-0.006227,-1.8772870094999998,-9.5849216435,0.8810490493,-2.0096,1.3577,1.3708,-1.999999999990898e-05,-9.999999999998899e-05,9.99999999995449e-06,0.0009261071537549626,-0.0005647122829028905,0.0006830888047071326
150000000000.0,3,0.035264713399999995,-0.0034617474499999998,0.01819133575,0.006554,0.014097,-0.006223,-1.8763063445,-9.58501971,0.88172570815,-2.0101,1.3578,1.3715,9.999999999998899e-05,-9.999999999998899e-05,-8.999999999992347e-05,0.00015277005824865242,8.271933065318038e-05,0.00022026014672826832
150000000000.0,3,0.06668521999999999,0.021849216199999997,0.0264387284,0.011863,0.010856,-0.006212,-1.8747372805,-9.585215842999999,0.88305941255,-2.011,1.3579,1.3725,-9.999999999998899e-05,-0.00019999999999997797,7.999999999996898e-05,0.0009432824019799391,0.0001766796332260956,-0.0003479435845554768
150000000000.0,3,0.0596832719,0.02768417295,0.015494507,0.010806,0.011929,-0.006218,-1.8734624159999997,-9.5853139095,0.88427543715,-2.0118,1.3579,1.3734,9.999999999998899e-05,-9.999999999998899e-05,-4.999999999999449e-05,-0.0007828462947956361,-0.000163405950328821,0.0001407976437337588
150000000000.0,3,0.04219801495,0.019485813549999998,0.02313388735,0.012942,0.014039,-0.003018,-1.8725798175,-9.585411976,0.8857660479499999,-2.0126,1.358,1.3744,-9.999999999998899e-05,-9.999999999998899e-05,-9.99999999995449e-06,-9.141370449183839e-05,0.00010541419350351688,7.109082451917104e-05
150000000000.0,3,0.023379053599999998,-0.0011179581,0.0390500803,0.019334,0.013984,-0.000873,-1.8721875515,-9.585215842999999,0.88780583115,-2.0136,1.3579,1.3755,-3.333333333332966e-05,-4.999999999988347e-05,-0.00010000000000010001,7.473803557944692e-05,0.0001351201314150341,6.446024187445332e-05
150000000000.0,3,0.014366742249999998,-0.01552392695,0.03499993385,0.022505,0.01076,0.000204,-1.8719914185,-9.58501971,0.8902084603999999,-2.0147,1.3578,1.3767,-3.333333333332966e-05,-5.0000000000105516e-05,-9.999999999998899e-05,-0.00011275748378025696,-9.366247417696982e-05,0.00025489234420383866
150000000000.0,3,0.025154057249999997,-0.03003776895,0.0246146915,0.015031,0.011883,0.00339,-1.8717952855,-9.5849216435,0.89206191725,-2.0155,1.3577,1.3776,-3.333333333332966e-05,-9.999999999998899e-05,8.000000000008001e-05,-0.00030095977772037763,0.0003149307323644379,0.00021696991755115747
150000000000.0,3,0.017151830849999997,-0.05227925115,0.025105024,0.008639,0.013001,0.003376,-1.8717952855,-9.584823577,0.8932289085999999,-2.016,1.3577,1.3783,-3.333333333332966e-05,-9.999999999998899e-05,-3.0000000000085514e-05,0.00044978584249766307,0.00017639937530411487,0.00021016515040006567
150000000000.0,3,0.017455837,-0.07846300664999999,0.0097085835,0.003319,0.014112,0.002295,-1.8715991524999998,-9.584823577,0.8935034947999999,-2.0162,1.3577,1.3786,-3.333333333332966e-05,-9.999999999998899e-05,1.0000000000065512e-05,-0.0001570506574890551,4.2815514211591577e-05,0.0002001150956254527
150000000000.0,3,0.035882532349999996,-0.08763222439999999,-0.0015298374,0.001153,0.010931,0.003362,-1.8712068865,-9.5849216435,0.8932191019499999,-2.0162,1.3578,1.3787,-3.333333333332966e-05,-9.999999999998899e-05,9.99999999995449e-06,-0.0008983120794709976,0.0005612817953815075,-0.0015378703097006508
150000000000.0,3,0.0299298958,-0.07007832089999999,0.01840708205,0.001128,0.007735,0.003365,-1.870912687,-9.58501971,0.8933367817499999,-2.0163,1.3578,1.3788,-3.333333333332966e-05,-9.999999999998899e-05,2.0000000000020002e-05,-0.0005926769426927159,0.0008268165948481787,-0.00013195265377907717
150000000000.0,3,0.0338133292,-0.04957261574999999,0.03560794615,-0.003183,0.003505,0.005498,-1.870716554,-9.58501971,0.8936407878999999,-2.0164,1.3578,1.379,-3.333333333332966e-05,-0.00010000000000021103,-2.999999999997449e-05,7.465169483467093e-06,0.00047688416602076344,-9.343980327969348e-05
150000000000.0,3,0.0553683459,-0.027831272699999996,0.025046184099999997,-0.003204,0.001372,0.006566,-1.8704223545,-9.58501971,0.8937290477499998,-2.0165,1.3578,1.3792,-3.333333333332966e-05,-9.999999999998899e-05,0.00031000000000003247,0.0008701424396495572,0.002109794931347775,-0.0027213531172751715
150000000000.0,3,0.061379822349999995,-0.009502643849999999,0.0334210632,-0.001038,0.004552,0.005493,-1.8700300884999999,-9.585117776499999,0.8938859541499999,-2.0167,1.3578,1.3794,-9.999999999998899e-05,-5.0000000000105516e-05,9.99999999995449e-06,-0.0001698619683556668,0.00040092923637580213,8.742375683956638e-05
150000000000.0,3,0.05045521425,-0.015474893699999999,0.02793914585,-0.002114,0.004558,0.007623,-1.8699320219999997,-9.585117776499999,0.893974214,-2.0168,1.3578,1.3795,-3.333333333332966e-05,-4.999999999988347e-05,2.999999999997449e-05,-3.4944854840901485e-05,0.00023170778339420828,-0.0007666032172890525
150000000000.0,3,0.04574802225,-0.027693979599999998,0.02025073225,-0.004234,0.005642,0.006548,-1.8696378224999997,-9.585215842999999,0.8938859541499999,-2.0168,1.3579,1.3795,-3.333333333332966e-05,-9.999999999998899e-05,-4.999999999921734e-06,0.00021210387019188204,-0.00022021740796351885,-0.00018145290846582895
150000000000.0,3,0.04512039665,-0.04605202839999999,0.028547158149999998,-0.005313,0.004584,0.007612,-1.869539756,-9.585215842999999,0.8938271142499999,-2.0168,1.3579,1.3795,-3.333333333332966e-05,-2.4999999999941735e-05,-5.000000000032756e-06,-0.00046696786639266463,0.0006830637185604171,2.8833632725877578e-05
150000000000.0,3,0.049523582499999996,-0.054779946899999994,0.015396440499999999,-0.008553,0.000346,0.008679,-1.8692455565,-9.5853139095,0.8932092952999999,-2.0166,1.3579,1.3793,-9.999999999998899e-05,-2.500000000016378e-05,-4.0000000000040004e-05,-0.0003591765427723992,9.472853994219044e-05,-8.495065985547612e-05
150000000000.0,3,0.0439534053,-0.046885593649999995,0.00132389775,-0.012829,-0.000684,0.00867,-1.8692455565,-9.585411976,0.8920128839999999,-2.016,1.358,1.3788,-4.999999999988347e-05,-2.4999999999941735e-05,1.0000000000065512e-05,-3.214366596959728e-05,0.00020354631678110024,0.0005414009441908618
150000000000.0,3,0.029753376099999996,-0.0385793611,0.0067763951499999996,-0.011766,-0.001758,0.007605,-1.8694416895,-9.5855100425,0.8909047325499999,-2.0155,1.358,1.3782,-5.0000000000105516e-05,-2.4999999999941735e-05,-1.0000000000065512e-05,-0.0007879371717960382,0.0013603061208757872,-9.338020347193776e-06
150000000000.0,3,0.01473939495,-0.00538385085,0.01813249585,-0.008567,-0.002849,0.006544,-1.8698339554999999,-9.5855100425,0.8903261401999999,-2.0152,1.358,1.3779,-9.999999999998899e-05,-4.999999999988347e-05,2.0000000000020002e-05,0.00031671209468142614,-0.00022594744747528317,-0.00014517657297385966
150000000000.0,3,0.0046287388,0.01723028405,0.0288511643,-0.004273,0.000313,0.006546,-1.8704223545,-9.5853139095,0.89037517345,-2.0151,1.358,1.3777,-4.999999999988347e-05,-5.0000000000105516e-05,9.99999999995449e-06,-9.085404802711139e-06,0.0005704986419763358,-0.0002593432537034701
150000000000.0,3,-0.013278204099999998,0.0249677309,0.0273017136,2.9e-05,0.002412,0.003348,-1.8713049529999999,-9.585215842999999,0.8907282128499999,-2.0151,1.3579,1.3777,-5.0000000000105516e-05,-5.0000000000105516e-05,2.0000000000020002e-05,-0.00021671566548864263,-0.0001896101963299035,5.2443212747554924e-05
150000000000.0,3,-0.0253992235,0.0284981249,0.03235213835,0.002243,0.010921,0.001204,-1.8719914185,-9.5849216435,0.8913656450999999,-2.0152,1.3578,1.378,-9.999999999998899e-05,-4.999999999988347e-05,2.0000000000020002e-05,-0.00022666432386708735,-0.00038644546218469245,0.00038538990289849195
150000000000.0,3,-0.014925721299999998,0.0312047603,0.028154892149999996,0.002249,0.010922,0.000138,-1.8724817509999998,-9.584823577,0.8919638507499998,-2.0154,1.3577,1.3782,-4.999999999988347e-05,-2.4999999999941735e-05,-2.999999999997449e-05,-8.033653697836485e-05,-0.00013684749362452564,0.00036276745236030195
150000000000.0,3,0.0062958693,0.0051582979,0.034715541,0.001203,0.011998,-0.002001,-1.872285618,-9.584823577,0.8924443766,-2.0156,1.3577,1.3786,-5.0000000000105516e-05,-2.4999999999941735e-05,2.999999999997449e-05,0.00016539161885331666,-0.0005508680197523486,0.00028294969575748397
150000000000.0,3,0.01013026945,-0.004716998649999999,0.037490822949999995,0.002243,0.007728,-0.00306,-1.8718933519999998,-9.584823577,0.8931112287999999,-2.016,1.3577,1.379,-5.0000000000105516e-05,-2.500000000016378e-05,-2.0000000000020002e-05,-0.00018895519291550755,0.0004759362175890125,-0.00011235213021976165
150000000000.0,3,0.006413549099999999,-0.0260660757,0.02150598345,0.003359,0.013048,-0.004135,-1.871501086,-9.584823577,0.8935231080999999,-2.0162,1.3577,1.3794,-4.999999999988347e-05,-2.4999999999941735e-05,-9.99999999995449e-06,-1.8434732847794066e-05,-8.038914812713571e-05,0.0002838102907913864
150000000000.0,3,0.00891424485,-0.040981990350000004,0.027066353999999997,0.007619,0.011947,-0.004127,-1.8708146204999998,-9.5849216435,0.8944057065999999,-2.0168,1.3577,1.3801,-3.333333333332966e-05,1.2499999999970868e-05,9.99999999995449e-06,0.0005858197354891015,-0.000604060706012044,0.0003385876149364364
150000000000.0,3,0.00587418335,-0.041315416449999996,0.0383047749,0.006537,0.011952,-0.000927,-1.8705204209999997,-9.584823577,0.89543540485,-2.0173,1.3577,1.3807,-3.333333333332966e-05,1.2499999999970868e-05,-9.99999999995449e-06,0.00011866102717994487,-8.348729107687802e-05,0.00024242720634548576
150000000000.0,3,-0.01732835055,-0.03986403225,0.032469818149999996,0.010798,0.012979,0.002281,-1.870912687,-9.584725510499998,0.89663181615,-2.0177,1.3576,1.3813,-3.333333333332966e-05,1.2499999999970868e-05,-2.999999999997449e-05,-1.9268760708790467e-05,0.00016383110126483302,0.00029548682835844886
150000000000.0,3,-0.043139453349999995,-0.03709855695,0.03800076875,0.009707,0.012983,0.007618,-1.8721875515,-9.5843332445,0.8979851338499999,-2.018,1.3574,1.3817,-5.0000000000105516e-05,1.2500000000192912e-05,2.999999999997449e-05,-9.943305874871022e-05,-8.745505782448149e-05,0.0002154374353007249
150000000000.0,3,-0.04204110855,-0.0180638493,0.047934905199999996,0.011865,0.015097,0.006553,-1.873658549,-9.583842912,0.8995738111499999,-2.0184,1.3572,1.3822,-4.999999999988347e-05,1.2499999999970868e-05,-2.0000000000020002e-05,0.00018750768728836853,-1.3031650397898886e-05,0.0001875076872877024
150000000000.0,3,-0.012513285399999999,-0.00812971285,0.06051683715,0.009737,0.016179,0.007615,-1.8747372805,-9.583548712499999,0.9013488147999998,-2.019,1.3571,1.3829,-4.999999999988347e-05,1.2499999999970868e-05,-2.0000000000020002e-05,-7.95515955891446e-05,0.00010863332347832433,0.00030568381620010854
150000000000.0,3,0.006452775699999999,-0.00226533615,0.055064339749999996,0.010833,0.018309,0.005476,-1.8753256795,-9.583254513,0.90306497855,-2.0196,1.3569,1.3837,-5.0000000000105516e-05,1.2499999999970868e-05,2.0000000000020002e-05,6.140722823833045e-05,-0.00018760812135809601,0.0001022729733044514
150000000000.0,3,0.024281265399999998,-0.00858081875,0.050053141599999997,0.014026,0.015089,0.002283,-1.8753256795,-9.583058379999999,0.9049380486999999,-2.0204,1.3568,1.3847,-5.0000000000105516e-05,1.2499999999970868e-05,-9.99999999995449e-06,0.0002077765569530321,-3.579192284730581e-05,0.00021408053506677405
150000000000.0,3,0.04168806914999999,-0.01652420525,0.027036934049999996,0.009765,0.015125,0.001206,-1.8747372805,-9.583058379999999,0.9062521397999999,-2.0211,1.3568,1.3855,-4.999999999988347e-05,-9.999999999998899e-05,5.000000000032756e-06,0.0003973136475232675,-0.0001610394254429881,0.0005227666981308943
150000000000.0,3,0.038020382049999996,-0.01264077185,0.0146903617,0.010778,0.007658,0.000151,-1.874246948,-9.583058379999999,0.90737990455,-2.0217,1.3568,1.3862,4.999999999988347e-05,9.999999999998899e-05,4.999999999921734e-06,0.0008748240476172953,-0.0005918308494738955,0.00013419534921688125
150000000000.0,3,0.0315381864,-0.0246146915,0.00705098135,0.011806,0.003386,0.001226,-1.8737566154999998,-9.583058379999999,0.9084390227499999,-2.0222,1.3568,1.3868,5.0000000000105516e-05,9.999999999998899e-05,-0.00031000000000003247,-0.0008605526053109269,-0.002003620092986491,0.0022835217798542473
150000000000.0,3,0.0240459058,-0.0289492308,0.0071490478500000005,0.00859,0.000218,-0.00091,-1.8732662829999998,-9.583058379999999,0.9093804611499999,-2.0227,1.3568,1.3874,-9.999999999998899e-05,9.999999999998899e-05,2.0000000000020002e-05,4.1387122457603454e-05,0.00031958508412133213,-8.463575246375754e-05
150000000000.0,3,0.023732092999999996,-0.02701732075,0.00697252815,0.006441,0.000232,0.002287,-1.8729720834999999,-9.583058379999999,0.9101551864999999,-2.0231,1.3568,1.3878,9.999999999998899e-05,9.999999999998899e-05,-0.00012000000000000899,-0.0014080802371527756,-0.0013840556552489058,0.0013671497302749636
150000000000.0,3,0.00585457005,-0.031067467199999997,-0.01317033095,0.0011,0.000275,0.003344,-1.87307015,-9.5829603135,0.9100963465999999,-2.0231,1.3568,1.3877,-9.999999999998899e-05,9.999999999998899e-05,1.0000000000065512e-05,8.983418428720746e-05,0.0002343786862071262,-8.034152581837262e-05
150000000000.0,3,-0.012121019399999999,-0.03158721965,-0.02301620755,-0.002112,0.000299,0.005474,-1.873658549,-9.5829603135,0.9096256274,-2.0228,1.3568,1.3874,-4.999999999988347e-05,2.4999999999941735e-05,-2.0000000000020002e-05,0.00010118411521431447,-0.0002115970075162732,-4.250766386304505e-05
150000000000.0,3,-0.0102969825,-0.0354020065,-0.0188876079,-0.005316,0.001389,0.007601,-1.8743450144999998,-9.582862247,0.9087822555,-2.0222,1.3568,1.3869,-5.0000000000105516e-05,2.4999999999941735e-05,2.4999999999941735e-05,0.00012564716158158795,0.0004410593647858896,-0.00020357008500138107
150000000000.0,3,-0.019829046299999997,-0.0343428883,-0.0104538889,-0.009591,0.002487,0.010795,-1.875619879,-9.582666114,0.9076839107,-2.0215,1.3567,1.3861,-5.0000000000105516e-05,2.500000000016378e-05,2.5000000000052758e-05,9.107850752387847e-05,-0.0006498218049717508,0.0004303145727431179
150000000000.0,3,-0.01673995155,-0.048582144099999995,-0.008865211599999999,-0.013903,0.000386,0.016129,-1.877188943,-9.582568047499999,0.9062423331499999,-2.0206,1.3566,1.3852,-4.999999999988347e-05,2.4999999999941735e-05,5.999999999994898e-05,0.00032093328452176273,3.727723579460829e-05,-7.303338658504188e-05
150000000000.0,3,-0.014258869099999998,-0.0733341287,-0.010904994799999998,-0.013942,-0.001749,0.020402,-1.879150273,-9.5823719145,0.9045457827,-2.0194,1.3565,1.384,-5.0000000000105516e-05,5.0000000000105516e-05,-2.0000000000020002e-05,0.0003486678942332677,0.0006126232067196202,5.829080308350498e-05
150000000000.0,3,-0.0061193496,-0.0720788775,-0.007109821249999999,-0.015029,-0.002808,0.022537,-1.8811116029999997,-9.582077714999999,0.9029865253499999,-2.0183,1.3564,1.3829,-5.0000000000105516e-05,4.999999999988347e-05,1.0000000000065512e-05,0.00017822585481641617,-0.0001513569441469187,6.012188135340324e-06
150000000000.0,3,0.01093441475,-0.025271737049999996,0.005501530649999999,-0.017147,-0.002787,0.01933,-1.8827787335,-9.581881582,0.90145668795,-2.0173,1.3563,1.3818,-4.999999999988347e-05,5.0000000000105516e-05,4.999999999999449e-05,-0.0004601371796342235,0.0001345779969259553,-0.00047933366841412806
150000000000.0,3,0.0126309652,-0.0254776767,0.006864655,-0.015042,-0.007066,0.018274,-1.884445864,-9.581685449,0.90008375695,-2.0164,1.3562,1.3808,-5.0000000000105516e-05,5.0000000000105516e-05,2.999999999997449e-05,-0.0005809389036455226,0.0006428978176340472,0.00039761176773511764
150000000000.0,3,0.01728912395,-0.0075511204999999994,0.01560238015,-0.010798,-0.011361,0.016153,-1.885622662,-9.581489315999999,0.8994267114,-2.0159,1.3561,1.3801,-9.999999999998899e-05,4.999999999988347e-05,2.999999999997449e-05,-3.0144814093802097e-06,0.00019992276138758314,-6.638692374405508e-05
150000000000.0,3,0.010885381500000001,0.00752170055,0.0273801668,-0.008626,-0.00818,0.014016,-1.8867013934999999,-9.5813912495,0.8991815451499999,-2.0155,1.356,1.3797,-9.999999999998899e-05,5.0000000000105516e-05,4.0000000000040004e-05,-0.00019220903069561146,0.00040782073613843117,-4.760381102864031e-05
150000000000.0,3,0.013886216399999998,0.0179657828,0.03511761365,-0.007539,-0.007121,0.011881,-1.8876820584999998,-9.5811951165,0.8992207717499999,-2.0154,1.3559,1.3794,-5.0000000000105516e-05,5.0000000000105516e-05,-2.999999999997449e-05,0.00020300187029276273,3.9732449045315477e-05,-0.00010600842612218386
150000000000.0,3,0.014896301349999998,0.020025179299999998,0.02458527155,-0.004315,-0.005016,0.010815,-1.8884665904999998,-9.580998983499999,0.8994267114,-2.0153,1.3558,1.3793,-4.999999999988347e-05,4.999999999988347e-05,-2.0000000000020002e-05,-0.0008137673810189039,0.0006081351753159936,-4.288142703368081e-05
150000000000.0,3,0.023231953849999997,0.007207887749999999,0.0047856452,-0.005387,-0.005008,0.011879,-1.8892511224999997,-9.580900917,0.89902463875,-2.015,1.3558,1.3789,-9.999999999998899e-05,4.999999999988347e-05,2.0000000000020002e-05,0.0006900161529077575,0.0003235677480439847,-0.00040024624526369124
150000000000.0,3,0.019848659600000002,-0.018867994599999997,-0.01256231865,-0.005385,-0.006072,0.009745,-1.889741455,-9.5808028505,0.8982695266999999,-2.0145,1.3558,1.3784,-5.0000000000105516e-05,5.0000000000105516e-05,1.4999999999987246e-05,0.0007678410482698794,5.199558269008975e-05,-0.0003215078861495968
150000000000.0,3,0.011385520649999998,-0.0327149844,-0.0040795664,-0.009664,-0.006039,0.011871,-1.890525987,-9.580704784,0.8974163481499999,-2.014,1.3557,1.3778,-4.999999999988347e-05,9.999999999998899e-05,1.4999999999987246e-05,0.0003584311072581947,0.00040829288953525555,-4.365114791538005e-05
150000000000.0,3,-0.01160126695,-0.0300279623,-0.0067371685499999995,-0.00967,-0.00604,0.012939,-1.8918008514999998,-9.580606717499998,0.8964749097499999,-2.0133,1.3557,1.3771,-4.999999999988347e-05,4.999999999988347e-05,2.0000000000020002e-05,-4.1456105138504284e-05,0.00021859538369439768,-0.0001578669548805145
150000000000.0,3,-0.010414662299999999,-0.03323473685,-0.005756503549999999,-0.005442,-0.010338,0.014022,-1.8930757159999998,-9.5804105845,0.8959551573,-2.0128,1.3556,1.3765,-5.0000000000105516e-05,5.0000000000105516e-05,0.00012000000000000899,0.0003023320828212661,0.0005151941875771726,-0.0003955774584829541
150000000000.0,3,0.0010198916,-0.03403888215,-0.0078060934,-0.004378,-0.009283,0.016156,-1.8943505805,-9.580214451499998,0.89545501815,-2.0124,1.3555,1.3759,-9.999999999998899e-05,5.0000000000105516e-05,2.999999999997449e-05,0.0009074400141164674,0.0002976879272966748,-0.0004762022181186154
150000000000.0,3,-0.00246146915,-0.0223003221,-0.000392266,-0.004364,-0.008216,0.015087,-1.8957235115,-9.579920251999999,0.8952196585499999,-2.012,1.3554,1.3754,-9.999999999998899e-05,4.999999999988347e-05,-4.0000000000040004e-05,0.00040665197815448195,0.0005041230079687598,-0.00010281859908767288
150000000000.0,3,0.00012748645,-0.013562596949999998,0.014317708999999998,-0.005417,-0.007141,0.014016,-1.8969003094999999,-9.579724119,0.89518043195,-2.0117,1.3552,1.3751,-9.999999999998899e-05,4.999999999988347e-05,2.0000000000020002e-05,0.0003616815918612293,6.195083365945209e-05,-2.6679182712818772e-05
150000000000.0,3,0.0008041452999999999,-0.03309744375,0.04268834745,-0.010686,0.001426,0.015059,-1.898175174,-9.579429919499999,0.8949352657,-2.0114,1.3551,1.3747,-4.999999999988347e-05,5.0000000000105516e-05,-9.99999999995449e-06,0.0005954054826795563,6.929779433950678e-05,3.169777158262832e-05
150000000000.0,3,0.01093441475,-0.051690852149999994,0.04189400879999999,-0.010699,0.000359,0.016127,-1.8993519719999998,-9.5792337865,0.89453319305,-2.0109,1.355,1.3742,-5.0000000000105516e-05,0.00019999999999997797,-4.999999999999449e-05,0.0005082518660766144,0.0003331483528830059,-0.0002464642002735218
150000000000.0,3,-3.9226599999999995e-05,-0.04668946064999999,0.01736757715,-0.011767,0.001431,0.018257,-1.900921036,-9.5790376535,0.8936211745999999,-2.0102,1.3549,1.3735,-9.999999999998899e-05,5.0000000000105516e-05,9.99999999995449e-06,-0.0007283447233867868,0.0005889389067892381,0.0001448571664899312
150000000000.0,3,-0.01189546645,-0.03317589695,0.006158576199999999,-0.014925,0.006785,0.018243,-1.9028823659999998,-9.578743454,0.8922678568999999,-2.0093,1.3548,1.3726,-9.999999999998899e-05,4.999999999988347e-05,-9.99999999995449e-06,0.0005386154293476331,1.0447422178483379e-06,5.658742117775617e-05
150000000000.0,3,-0.01169933345,-0.0072373077,0.014719781649999998,-0.015994,0.005729,0.017176,-1.9047456295,-9.578547321,0.8910420256499999,-2.0084,1.3547,1.3717,-5.0000000000105516e-05,9.999999999998899e-05,-1.0000000000065512e-05,0.00019522865059173888,-8.873230305916913e-05,3.248304660452561e-05
150000000000.0,3,0.0032361944999999997,-0.00130428445,0.0195936867,-0.01493,0.004656,0.016112,-1.9063146935,-9.578351188,0.8897573545,-2.0075,1.3546,1.3709,-4.999999999988347e-05,9.999999999998899e-05,4.0000000000040004e-05,-0.00017553287083837965,-2.8726956152302918e-05,5.0686935878285766e-05
150000000000.0,3,0.02013305245,-0.014464808749999999,0.021270623849999996,-0.017068,0.004672,0.017175,-1.9076876245,-9.5782531215,0.88837461685,-2.0066,1.3545,1.37,-4.999999999988347e-05,0.00019999999999997797,-4.0000000000040004e-05,-0.0005239352790700202,-0.0006630838548531415,0.0013369416679238633
150000000000.0,3,0.02644853505,-0.009963556399999999,0.04180574895,-0.013855,0.004648,0.015044,-1.9087663559999999,-9.578056988499998,0.88759008485,-2.0061,1.3545,1.3695,-5.0000000000105516e-05,4.999999999988347e-05,4.0000000000040004e-05,-4.2152861459587854e-05,0.00035685133373197786,0.0001092632968160423
150000000000.0,3,0.021525596749999997,-0.0034617474499999998,0.041648842549999995,-0.009537,0.00675,0.008643,-1.909354755,-9.577958921999999,0.8871585922499999,-2.0058,1.3544,1.3692,-9.999999999998899e-05,5.0000000000105516e-05,-1.0000000000065512e-05,0.0006375878849134153,-0.00035143358858391593,0.0007304248402535407
150000000000.0,3,0.008629852,0.0053250109499999995,0.008629852,-0.004167,0.007777,0.003313,-1.9097470209999998,-9.577958921999999,0.8866486464499999,-2.0055,1.3544,1.369,-9.999999999998899e-05,9.999999999998899e-05,-5.499999999991623e-05,0.0009969693733553608,-0.00015472005097549868,-0.00012387724395113153
150000000000.0,3,0.020947004399999997,0.025634583099999997,-0.026526988249999998,8.6e-05,0.003484,-0.000943,-1.9095508879999998,-9.578056988499998,0.8860504408,-2.0052,1.3545,1.3688,-9.999999999998899e-05,9.999999999998899e-05,-5.500000000002725e-05,-0.000933695371297949,-0.0012005828191881118,0.00043958000995347746
150000000000.0,3,0.026232788749999996,0.0317539327,-0.043237519849999996,5.9e-05,0.000287,-0.000938,-1.9091586219999999,-9.578155055,0.8853933952499999,-2.005,1.3545,1.3686,-4.999999999988347e-05,9.999999999998899e-05,2.5000000000052758e-05,-4.5724035233618565e-06,2.162329007804331e-05,0.000271129491378197
150000000000.0,3,0.0006864654999999999,0.0404426246,-0.0510926465,0.004305,-0.000815,0.001206,-1.909354755,-9.578155055,0.8848736428,-2.0048,1.3545,1.3684,-5.0000000000105516e-05,4.999999999988347e-05,2.4999999999941735e-05,-0.0007777012065024458,6.060972855648217e-05,-0.0002170102279346331
150000000000.0,3,-0.031420506599999995,0.022359162,-0.028811937699999998,0.005362,-0.001889,0.001212,-1.9099431539999998,-9.578056988499998,0.8848932560999999,-2.0047,1.3545,1.3682,-3.333333333332966e-05,5.0000000000105516e-05,-2.0000000000020002e-05,-0.0005894264087196177,0.00021176086097596247,0.00011661107652916058
150000000000.0,3,-0.04974913545,-0.006423355749999999,-0.018534568499999998,0.008584,0.000217,0.000149,-1.9108257524999999,-9.577860855499999,0.88523648885,-2.0046,1.3544,1.3682,-3.333333333355171e-05,0.00010000000000021103,-9.99999999995449e-06,0.00011913120145434775,4.622359677086685e-05,-0.0002850786141217476
150000000000.0,3,-0.07830610025,-0.0148276548,-0.027007514099999998,0.011778,0.000191,0.001226,-1.9121986834999998,-9.577566655999998,0.8857758546,-2.0046,1.3542,1.3682,-3.333333333332966e-05,3.333333333332966e-05,-1.0000000000065512e-05,-0.00014617119660043087,-0.00031220262105935426,0.0003275105924456234
150000000000.0,3,-0.08632793995,-0.0216334699,-0.018917027849999997,0.012873,0.004444,0.002292,-1.9137677475,-9.57717439,0.8865113533499999,-2.0046,1.354,1.3683,-3.333333333332966e-05,3.333333333332966e-05,2.0000000000020002e-05,-0.0001979344953277895,7.320162996515833e-05,0.00039572571749291185
150000000000.0,3,-0.0824543132,-0.02287891445,-0.016033872749999997,0.009711,0.008734,0.001216,-1.915238745,-9.576782124,0.8870703323999999,-2.0046,1.3539,1.3683,-3.333333333332966e-05,3.333333333332966e-05,-4.999999999999449e-05,-0.00028164591966151065,-0.00018650158661670524,0.0001887068806145642
150000000000.0,3,-0.0697252815,-0.03464689445,-0.00493274495,0.006533,0.013021,0.003344,-1.9178865404999998,-9.5762917915,0.8870507191,-2.004,1.3536,1.3679,-3.333333333332966e-05,1.6666666666775853e-05,-5.000000000032756e-06,-7.079400692244775e-05,-7.951369742853487e-06,0.0002582033455649224
150000000000.0,3,-0.06912707585,-0.03478418755,-0.00512887795,0.00545,0.013027,0.006545,-1.9184749394999998,-9.576193725,0.8872370454499999,-2.004,1.3536,1.368,-4.999999999988347e-05,1.666666666655381e-05,-4.999999999921734e-06,-1.6208860347477483e-05,0.00017327839735292727,1.0076771843614551e-05
150000000000.0,3,-0.06451795034999999,-0.01899548105,-0.0097085835,0.004415,0.018362,0.008672,-1.9204362695,-9.575801459,0.88717820555,-2.0036,1.3534,1.3678,-5.0000000000105516e-05,1.666666666655381e-05,2.999999999997449e-05,0.0001026289590535523,0.00020459047184329116,0.00014187012362798512
150000000000.0,3,-0.06777375814999999,-0.0059232166000000004,-0.01819133575,0.003359,0.020501,0.009737,-1.9225937325,-9.575409192999999,0.8868349727999999,-2.003,1.3532,1.3674,1.666666666655381e-05,1.6666666666775853e-05,2.0000000000020002e-05,2.2370757550405074e-05,0.00011486099572244335,6.196881454290093e-05
150000000000.0,3,-0.06431201069999999,0.00118660465,-0.024908891,0.000171,0.021595,0.008665,-1.9246531289999997,-9.575016927,0.8862269605,-2.0023,1.353,1.367,1.6666666666775853e-05,1.6666666666775853e-05,9.99999999995449e-06,-0.00010935174884973975,0.0003429418936065076,0.0001370963615059395
150000000000.0,3,-0.05310300974999999,-0.01856398845,-0.0119248864,-0.003004,0.024819,0.008657,-1.9266144589999998,-9.5747227275,0.8852070688999999,-2.0015,1.3529,1.3664,1.6666666666775853e-05,1.666666666655381e-05,1.0000000000065512e-05,0.0003549931729225353,-6.618281200143628e-05,0.00013906599250868013
150000000000.0,3,-0.053583535599999996,-0.0354216198,-0.013778343249999998,-0.004033,0.029091,0.007583,-1.928379656,-9.574428527999999,0.8840694974999999,-2.0007,1.3528,1.3658,1.666666666655381e-05,-9.999999999998899e-05,5.999999999994898e-05,-3.4444912306197395e-05,-0.00010858024296300783,0.0005249757860266158
150000000000.0,3,-0.047944711849999995,-0.037686955949999996,-0.00244185585,-0.006091,0.036571,0.004366,-1.9298506534999997,-9.574232395,0.88276521305,-1.9998,1.3527,1.3653,1.666666666655381e-05,9.999999999998899e-05,-2.0000000000020002e-05,0.0002823236892921521,0.0003552437426388444,0.00019981276089398037
150000000000.0,3,-0.0244185585,-0.04278641395,0.0086690786,-0.010373,0.033412,0.00223,-1.9306351854999997,-9.574232395,0.8812255689999999,-1.999,1.3527,1.3648,1.6666666666775853e-05,5.0000000000105516e-05,8.000000000008001e-05,-0.00011580242750230951,0.00011839157911319731,0.0009736205605062054
150000000000.0,3,-0.0088455983,-0.045816668799999995,0.008492558899999999,-0.014613,0.03558,8.4e-05,-1.9309293849999998,-9.574428527999999,0.8793034655999998,-1.9981,1.3527,1.3643,-2.4999999999941735e-05,4.999999999988347e-05,-4.0000000000040004e-05,0.0013281264749700483,-0.00024830904090822337,-0.00023537523478101008
150000000000.0,3,0.0052857843499999994,-0.0497589421,-0.00634490255,-0.0178,0.036673,-0.000992,-1.9308313185,-9.574624661,0.8767831565499999,-1.9971,1.3528,1.3635,-2.4999999999941735e-05,-4.999999999988347e-05,7.00000000000145e-05,4.919021483740238e-05,-5.092050242416768e-05,0.0004267227762335679
150000000000.0,3,0.0037657536,-0.06116407605,-0.028988457399999997,-0.021013,0.036698,0.001137,-1.9309293849999998,-9.574918860499999,0.8735469620499999,-1.9956,1.353,1.3625,-2.500000000016378e-05,-5.0000000000105516e-05,4.999999999999449e-05,0.001263463019239186,0.0007470250501928621,-0.0009649301937710852
150000000000.0,3,-0.01099325465,-0.06606740105,-0.05066115389999999,-0.024286,0.031391,0.006477,-1.9317139169999997,-9.5751149935,0.8697714017999999,-1.9939,1.3531,1.361,-2.4999999999941735e-05,2.4999999999941735e-05,0.000140000000000029,0.00046462048863071814,0.0007108051754347589,-0.0003678390892702943
150000000000.0,3,-0.0309301741,-0.04359055925,-0.05035714775,-0.023243,0.031379,0.01075,-1.9333810474999997,-9.5751149935,0.86587816175,-1.9919,1.3531,1.3593,3.333333333332966e-05,2.500000000016378e-05,9.99999999995449e-06,4.434926446772458e-05,0.0004175303304043698,6.715698078041399e-05
150000000000.0,3,-0.0633313457,-0.01301342455,-0.021368690349999997,-0.020051,0.032416,0.013959,-1.9359307765,-9.574820793999999,0.86277926035,-1.99,1.3529,1.3578,3.333333333332966e-05,2.4999999999941735e-05,2.0000000000020002e-05,0.00037720397658391747,-8.168938425967553e-05,-4.516244032526373e-05
150000000000.0,3,-0.05502511314999999,0.006197802799999999,0.01107170785,-0.01684,0.035583,0.017165,-1.9388727714999998,-9.574428527999999,0.8605629574499999,-1.9885,1.3528,1.3566,3.333333333332966e-05,2.4999999999941735e-05,-1.0000000000065512e-05,7.188638328048391e-05,0.00041286518514205284,0.0007940753539110723
150000000000.0,3,-0.0216138566,0.015651413399999998,0.04478697055,-0.007233,0.036568,0.018248,-1.9413244339999998,-9.574036262,0.8597784254499999,-1.9877,1.3526,1.3562,-4.999999999988347e-05,3.333333333332966e-05,4.0000000000040004e-05,0.0001807724490370255,0.00020708449817030683,0.0003931319504544284
150000000000.0,3,-0.00043149259999999994,0.0331660903,0.059899018199999994,-0.001862,0.040786,0.018251,-1.9434818969999998,-9.573643996,0.8597686188,-1.9873,1.3524,1.3561,-5.0000000000105516e-05,3.333333333332966e-05,9.99999999995449e-06,-0.0011088234681373432,0.0009824846801211873,0.0004842202688255526
150000000000.0,3,0.026948674199999998,0.030116222149999997,0.07735485519999999,0.000339,0.0461,0.013974,-1.9450509609999997,-9.573251729999999,0.8602785646,-1.9872,1.3522,1.3565,0.00019999999999997797,3.333333333332966e-05,-0.00013999999999991797,0.0009123265385848622,-0.001232454333530697,0.0015131763967950462
150000000000.0,3,0.045051750099999996,0.0041776329,0.07801190075,-0.002819,0.050388,0.012892,-1.9459335594999998,-9.573055597,0.8605139242000001,-1.9872,1.3521,1.3569,-5.0000000000105516e-05,3.333333333332966e-05,-2.0000000000020002e-05,3.7740561539045814e-05,0.00036630437991802545,0.0005421734901958075
150000000000.0,3,0.05590771165,-0.01823056235,0.060938523099999996,-0.000658,0.051439,0.009688,-1.9464238919999999,-9.5729575305,0.8605335375,-1.9871,1.352,1.3573,-4.999999999988347e-05,3.333333333332966e-05,0.00017000000000000348,-0.0009757289298633065,0.0012307022843593973,-0.0006390117321117827
150000000000.0,3,0.043139453349999995,-0.0478760653,0.040168038399999995,-0.004936,0.049343,0.008615,-1.9468161579999999,-9.5729575305,0.8598961052499999,-1.9867,1.352,1.3574,9.999999999998899e-05,3.333333333332966e-05,-0.00014999999999998348,1.9660945399513352e-05,-0.0010729433730556348,0.0019580581303060285
150000000000.0,3,0.01256231865,-0.04763089905,0.0456597624,-0.005996,0.047225,0.004346,-1.947404557,-9.572859464,0.8591998330999999,-1.9863,1.352,1.3575,5.0000000000105516e-05,9.999999999998899e-05,2.999999999997449e-05,0.00030006062239928966,0.0004624387101122007,0.0008923970460341657
150000000000.0,3,-0.0078649333,-0.030018155649999996,0.03409772205,-0.001749,0.041866,9.3e-05,-1.9478948895,-9.572859464,0.8584839476499999,-1.9859,1.352,1.3575,5.0000000000105516e-05,5.0000000000105516e-05,-4.0000000000040004e-05,0.00012669558611921872,-0.00024938441843280756,0.0005406646436618701
150000000000.0,3,-0.013395883899999999,-6.864654999999999e-05,0.02468333805,-0.001738,0.039741,-0.005239,-1.9480910224999999,-9.572859464,0.857885742,-1.9856,1.352,1.3576,5.0000000000105516e-05,4.999999999988347e-05,5.000000000032756e-06,-8.173471536432331e-05,0.00037564907670417647,0.000806585713049035
150000000000.0,3,-0.0008335652500000001,0.0292042037,0.0071490478500000005,0.002494,0.033315,-0.008423,-1.9477968229999998,-9.5729575305,0.8576111557999999,-1.9856,1.352,1.3579,4.999999999988347e-05,9.999999999998899e-05,5.000000000032756e-06,0.0001902496872343562,-4.246355440606919e-05,0.000559199855682202
150000000000.0,3,0.0252619304,0.04288448045,0.0007649187,0.007819,0.030078,-0.011611,-1.946620025,-9.5731536635,0.85785632205,-1.9859,1.3521,1.3585,9.999999999998899e-05,9.999999999998899e-05,-7.00000000000145e-05,-0.0014396713374762449,-0.0004520526503906108,0.001257527196228292
150000000000.0,3,0.042276468149999996,0.047297472949999995,0.016239812399999998,0.013134,0.026838,-0.012665,-1.9450509609999997,-9.5733497965,0.8588467936999999,-1.9866,1.3522,1.3595,-9.090909090847532e-06,1.999999999990898e-05,-2.999999999997449e-05,-0.0003660035180887977,0.0002612788001741251,0.00012499208635530223
150000000000.0,3,0.050602313999999995,0.02584052275,0.01075789505,0.013078,0.020444,-0.011589,-1.9433838305,-9.573643996,0.8599843650999999,-1.9874,1.3524,1.3606,-9.090909091069577e-06,2.0000000000131024e-05,9.99999999995449e-06,-6.74844487547066e-05,-0.00014188595465203235,7.424920413079406e-05
150000000000.0,3,0.058947773149999994,-0.00021574629999999997,-0.028351025149999997,0.018319,0.010806,-0.008364,-1.9415205669999998,-9.573938195499998,0.8609356101499999,-1.9882,1.3525,1.3615,-9.090909090847532e-06,1.999999999990898e-05,2.999999999997449e-05,0.000789864545826191,0.0006882362831044375,-0.0008815326142661561
150000000000.0,3,0.05523105279999999,-0.05023946795,-0.04043281795,0.017169,0.002289,-0.006223,-1.9386766384999998,-9.574428527999999,0.86119058305,-1.9888,1.3528,1.3622,-9.090909090847532e-06,2.0000000000131024e-05,2.0000000000020002e-05,-5.354139719093709e-05,-0.0003167829135841682,0.00044257806430048063
150000000000.0,3,0.05480936685,-0.050278694549999996,-0.041776328999999994,0.014999,-0.000893,-0.004086,-1.9382843724999999,-9.574428527999999,0.8625340941,-1.9895,1.3527,1.3629,-9.090909090847532e-06,1.999999999990898e-05,-9.99999999995449e-06,2.020265663871257e-06,-0.000248842908787239,-0.00011843423548585363
150000000000.0,3,0.05867318694999999,-0.06885248965,-0.0560351981,0.013868,-0.007279,-0.001946,-1.936813375,-9.5747227275,0.8628871334999999,-1.9899,1.3529,1.3633,-9.090909091069577e-06,3.333333333332966e-05,-4.999999999999449e-05,0.0002616795354484225,0.00043291659332789223,-0.00042275851538331466
150000000000.0,3,0.0442868314,-0.08154229475,-0.0652534491,0.0106,-0.012584,0.002324,-1.93583271,-9.574918860499999,0.8629753933499998,-1.9901,1.3529,1.3635,-9.090909090847532e-06,3.333333333332966e-05,7.999999999996898e-05,-0.0004095928643894631,-0.0005663479826265583,0.00037883118715420494
150000000000.0,3,0.0115914603,-0.0776490547,-0.06457679024999999,0.006252,-0.018947,0.007664,-1.9359307765,-9.574918860499999,0.8627498403999999,-1.99,1.353,1.3632,-9.090909090847532e-06,3.333333333332966e-05,-7.999999999996898e-05,-0.00023311177016216433,0.00031058709198683587,-0.0006650374783188084
150000000000.0,3,-0.0039030467,-0.057545422199999995,-0.062036867899999994,0.001948,-0.021046,0.010862,-1.9366172419999998,-9.574820793999999,0.8622987344999999,-1.9897,1.3529,1.3627,-9.090909090847532e-06,4.999999999988347e-05,9.99999999995449e-06,-2.5658981511300638e-05,0.00026241531403603524,-0.0003545459462470646
150000000000.0,3,-0.0096301303,-0.04073682409999999,-0.055819451799999996,-0.003375,-0.019935,0.009783,-1.9374998405,-9.5747227275,0.8614749758999999,-1.9892,1.3529,1.362,-9.090909091069577e-06,5.0000000000105516e-05,9.99999999995449e-06,-7.941654036969226e-05,-3.729107878513993e-05,-0.00015372547866032704
150000000000.0,3,0.010002783,-0.030400614999999995,-0.059153712799999994,-0.009784,-0.019883,0.010839,-1.9380882394999999,-9.5747227275,0.8600137850499999,-1.9884,1.3529,1.361,-9.090909090847532e-06,5.0000000000105516e-05,-9.99999999995449e-06,0.00013961635328962885,0.0002977651671647319,-0.00025444327488743923
150000000000.0,3,0.0173969971,-0.031616639599999996,-0.06704806605,-0.017242,-0.018754,0.009755,-1.9384805055,-9.574820793999999,0.8577288355999999,-1.9874,1.3529,1.3597,-2.4999999999941735e-05,4.999999999988347e-05,2.0000000000020002e-05,-0.00013519423778163286,0.00014334415057004612,-7.039348824378067e-05
150000000000.0,3,0.010091042849999999,-0.030400614999999995,-0.045581309199999996,-0.020415,-0.017658,0.005477,-1.9385785719999997,-9.575016927,0.85542427285,-1.9864,1.353,1.3585,-2.4999999999941735e-05,1.999999999990898e-05,2.999999999997449e-05,0.0005544693085117736,-0.0007100629437557515,-0.0005127828914264221
150000000000.0,3,0.014268675749999998,-0.037804635749999996,-0.03860878105,-0.021467,-0.015518,0.005471,-1.9385785719999997,-9.57521306,0.8529333837499999,-1.9853,1.3531,1.3573,-2.500000000016378e-05,2.0000000000131024e-05,9.99999999995449e-06,0.000222386755620807,0.00022625635543360723,-0.00033378815134677
150000000000.0,3,0.01115016105,-0.04878808375,-0.04321790655,-0.021452,-0.013387,0.005466,-1.9386766384999998,-9.575409192999999,0.8502071350499999,-1.9841,1.3532,1.3559,-2.4999999999941735e-05,1.999999999990898e-05,1.0000000000065512e-05,-0.0005016769582533165,0.0007605978641540556,-0.00015057193992218387
150000000000.0,3,0.0047464186,-0.0368926173,-0.06690096629999999,-0.021467,-0.015516,0.004401,-1.9387747049999997,-9.5757033925,0.8472553333999999,-1.9828,1.3533,1.3545,-0.00010000000000021103,2.0000000000131024e-05,0.00019000000000002348,0.00034939537141109867,0.0011362571944679711,-0.0008280751081262139
150000000000.0,3,0.012042566199999999,-0.04237453465,-0.06322347254999999,-0.019372,-0.018732,0.006544,-1.938970838,-9.575899525499999,0.8446369578499999,-1.9816,1.3534,1.3531,-1.999999999990898e-05,1.999999999990898e-05,9.99999999995449e-06,-0.0001360112259614077,-0.0001889209282524007,-4.14390248111296e-05
150000000000.0,3,0.037912508899999996,-0.021809989599999996,-0.04970010219999999,-0.011966,-0.026252,0.006568,-1.9385785719999997,-9.5760956585,0.84293060075,-1.9809,1.3535,1.3522,-2.0000000000131024e-05,5.0000000000105516e-05,-0.000140000000000029,0.00015884107617214482,-0.0009020948741953472,0.00020832336087117653
150000000000.0,3,0.04266873415,0.010149882749999999,-0.03264633785,-0.005601,-0.030567,0.006585,-1.9384805055,-9.576193725,0.84234220175,-1.9807,1.3536,1.3517,-1.999999999990898e-05,4.999999999988347e-05,-0.00012000000000000899,-0.0010826122429090645,-0.0008100903464716147,0.00034081096538685074
150000000000.0,3,0.01679879145,0.024193005549999997,-0.035686399349999995,-0.001355,-0.033797,0.00553,-1.9385785719999997,-9.576193725,0.8422343285999999,-1.9807,1.3536,1.3512,-2.0000000000131024e-05,-4.999999999988347e-05,2.0000000000020002e-05,0.00014885936314801285,5.533530995194269e-06,-0.0004124894012358382
150000000000.0,3,0.0082179727,0.01579851315,-0.034715541,-0.001334,-0.031665,0.004459,-1.9386766384999998,-9.576193725,0.8421656820499999,-1.9806,1.3536,1.3509,-1.999999999990898e-05,-5.0000000000105516e-05,-2.0000000000020002e-05,-4.209789197973102e-05,-0.00037205931466655073,-0.0005938449712510341
150000000000.0,3,-0.00104931155,0.007247114349999999,-0.03178335265,-0.001339,-0.032729,0.003393,-1.9388727714999998,-9.5760956585,0.84206761555,-1.9805,1.3535,1.3505,-3.333333333332966e-05,-3.333333333332966e-05,2.0000000000020002e-05,0.00012768066362789376,-0.0001901939714983314,-0.0005033314713336345
150000000000.0,3,-0.02387919275,-0.009718390149999999,-0.052759777,-0.004564,-0.034834,0.00446,-1.939363104,-9.5760956585,0.8414988298499999,-1.9802,1.3535,1.3498,-3.333333333332966e-05,-3.333333333332966e-05,-4.999999999999449e-05,1.2832097393555841e-05,-0.000345746128917801,-4.1927005116626503e-05
150000000000.0,3,-0.05896738645,-0.01997614605,-0.02976318275,-0.005623,-0.032694,0.005526,-1.941128301,-9.575801459,0.8401945453999999,-1.9793,1.3534,1.3486,-3.333333333332966e-05,-3.333333333332966e-05,7.00000000000145e-05,0.0006719942185848815,0.0007458133781470533,-0.0011843269027003167
150000000000.0,3,-0.0588987399,-0.02001537265,-0.030008348999999997,-0.002381,-0.029521,0.002324,-1.941128301,-9.575801459,0.8404495182999999,-1.9794,1.3534,1.3484,-2.4999999999941735e-05,-3.333333333332966e-05,-9.99999999995449e-06,0.00012499556994471916,9.064054863427984e-05,-0.00026942491514025946
150000000000.0,3,-0.0519556317,-0.0228298812,-0.010198915999999999,-0.004535,-0.032698,0.001261,-1.9418147664999998,-9.5757033925,0.8403906783999999,-1.9792,1.3533,1.3479,-2.500000000016378e-05,-3.333333333332966e-05,-1.0000000000065512e-05,-0.000150189526051836,3.449395379284681e-05,-0.00022539460705095493
150000000000.0,3,-0.033931009,-0.020947004399999997,0.00250069575,-0.003415,-0.027377,-0.00088,-1.9420108995,-9.575605326,0.84055739145,-1.9793,1.3533,1.3477,-2.4999999999941735e-05,-3.333333333332966e-05,2.0000000000020002e-05,0.0004549841513901143,-0.0008207654342060611,-0.00015540920208856335
150000000000.0,3,0.0052563644,-0.016279039,0.0008727918499999999,-0.001302,-0.028456,0.001257,-1.9417167,-9.575605326,0.8409888840499999,-1.9795,1.3533,1.3476,-2.4999999999941735e-05,-3.333333333332966e-05,4.0000000000040004e-05,7.755714247315026e-05,-3.514719369057673e-05,-0.00029776088801858336
150000000000.0,3,0.01601425945,-0.0192014207,0.0070019481,-0.000238,-0.029529,0.000193,-1.941128301,-9.5757033925,0.84159689635,-1.9799,1.3533,1.3477,-3.333333333332966e-05,-3.333333333332966e-05,-1.0000000000065512e-05,-0.00035971564216197294,-0.0003168352095506144,-0.00038380010725536096
150000000000.0,3,0.015249340749999998,-0.0057466969,0.0215354034,0.002964,-0.029556,0.000197,-1.9406379685,-9.5757033925,0.8427736943499999,-1.9805,1.3533,1.348,-3.333333333332966e-05,-3.333333333332966e-05,-1.4999999999987246e-05,-3.6101556421863634e-05,0.00014132596596794222,-0.000368194328657534
150000000000.0,3,0.01230734575,0.0062174160999999995,0.01211121275,0.002981,-0.027425,0.000193,-1.9402457025,-9.5757033925,0.8438131992499999,-1.981,1.3533,1.3483,-3.333333333332966e-05,-1.999999999990898e-05,-1.4999999999987246e-05,-1.2678982481029166e-05,-6.326996122196782e-05,-8.292903819473452e-05
150000000000.0,3,0.0032361944999999997,0.0017553903499999998,0.0122583125,-0.003366,-0.022043,-0.001963,-1.9398534365,-9.5757033925,0.8444114049,-1.9814,1.3533,1.3484,-1.2499999999970868e-05,-2.0000000000131024e-05,-1.4999999999987246e-05,-1.219552248166167e-05,-0.0004014029784518147,-0.000317753844708335
150000000000.0,3,-0.014405968849999999,-0.01273883835,0.01154242705,-0.009752,-0.018795,0.000156,-1.9398534365,-9.5757033925,0.84408778545,-1.9812,1.3534,1.3481,-1.2499999999970868e-05,-1.999999999990898e-05,-1.4999999999987246e-05,0.00011510230396627463,0.00022905707903309036,8.321582631776181e-05
150000000000.0,3,-0.04106044354999999,-0.029115943849999996,0.0169262779,-0.010786,-0.013461,0.002282,-1.9404418354999997,-9.5757033925,0.84349938645,-1.9808,1.3533,1.3475,-1.2499999999970868e-05,-2.0000000000131024e-05,2.0000000000020002e-05,-8.897083205727796e-06,0.00012392201281419268,-0.00019691741798455453
150000000000.0,3,-0.05857512045,-0.04394359864999999,0.0044129925,-0.005457,-0.013505,0.003361,-1.9415205669999998,-9.5755072595,0.8429894406499999,-1.9804,1.3533,1.347,-1.2500000000192912e-05,-1.999999999990898e-05,3.999999999992898e-05,-4.958810833799454e-05,-0.00043039483307638626,0.0005695305938497874
150000000000.0,3,-0.06026186425,-0.031577413,-0.01921122735,-0.000158,-0.017811,0.00338,-1.9425992984999998,-9.575311126499999,0.8426658212,-1.9801,1.3532,1.3465,-1.2499999999970868e-05,-9.999999999998899e-05,4.999999999999449e-05,-0.00022485936824301334,-0.0004796937083004771,9.883965437929021e-05
150000000000.0,3,-0.0407564374,-0.024751984600000002,-0.018593408399999997,0.003048,-0.015708,0.005519,-1.9435799635,-9.5751149935,0.8428031143,-1.98,1.3531,1.3462,-1.2499999999970868e-05,-4.999999999988347e-05,-9.99999999995449e-06,9.362909277355058e-05,9.921901150011792e-06,0.00016248800310680878
