Time,placement_label,user_acc_x(m/s^2),user_acc_y(m/s^2),user_acc_z(m/s^2),rotation_rate_x(rad/s),rotation_rate_y(rad/s),rotation_rate_z(rad/s),gravity_x(m/s^2),gravity_y(m/s^2),gravity_z(m/s^2),attitude_roll(rad),attitude_pitch(rad),attitude_yaw(rad),target_delta_x,target_delta_y,target_delta_z,target_delta_roll,target_delta_pitch,target_delta_yaw
150000000000.0,3,-0.10582356015,-0.0089240515,-0.0120817928,-0.005426,0.006858,-0.002514,-1.928771922,-9.582273848,0.79409348375,-1.9613,1.3565,-2.1226,0.0,0.0,0.0,0.0,0.0,0.0
150000000000.0,3,-0.08160113465,-0.008306232549999999,-0.00210842975,-0.006488,0.006869,-0.00358,-1.9298506534999997,-9.582077714999999,0.7932403052,-1.9608,1.3564,-2.1231,-9.999999999998899e-05,-0.000500000000000167,3.0000000000085514e-05,-0.008245468981062043,-0.0007986551590808411,0.004536939394110373
150000000000.0,3,-0.060085344549999996,0.0024908890999999996,0.0107088618,-0.003338,0.000449,-0.003561,-1.930537119,-9.581979648499999,0.79299513895,-1.9605,1.3563,-2.1233,-0.0006999999999999229,-0.0046999999999999265,0.005459999999999909,0.004960113815458911,0.0035403327094321035,-0.004479268471488496
150000000000.0,3,-0.0419920753,0.0001765197,0.01344491715,-0.00014,-0.000641,-0.00462,-1.9308313185,-9.581881582,0.7931030121,-1.9605,1.3563,-2.1233,-4.999999999988347e-05,-4.999999999988347e-05,-2.999999999997449e-05,-0.0002251233719690049,-6.94692145815079e-05,0.00030271141711946115
150000000000.0,3,-0.025654196399999996,0.0163574922,0.00252030905,0.004123,-0.003869,-0.008875,-1.930537119,-9.581979648499999,0.79354431135,-1.9608,1.3563,-2.1231,-5.0000000000105516e-05,-5.0000000000105516e-05,-4.0000000000040004e-05,-0.001155627018927019,0.00015289674136664821,0.00045785692231525843
150000000000.0,3,-0.0162005858,0.0327738243,-0.007904159899999999,0.006256,-0.006014,-0.012069,-1.9298506534999997,-9.582077714999999,0.79409348375,-1.9612,1.3564,-2.1228,-5.0000000000105516e-05,-5.0000000000105516e-05,-2.999999999997449e-05,0.0003544462104569934,-6.17565928857644e-05,-7.302502356987262e-05
150000000000.0,3,-0.0226533615,0.0392462133,-0.03656899785,0.00841,-0.006027,-0.016334,-1.928771922,-9.582273848,0.79432884335,-1.9615,1.3565,-2.1225,-4.999999999988347e-05,-4.999999999988347e-05,-9.99999999995449e-06,-0.0008013833497506617,0.0002740892671122541,0.0002960244449430327
150000000000.0,3,-0.04704250005,0.046581587499999993,-0.0725888233,0.010547,-0.006042,-0.017395,-1.92798739,-9.5823719145,0.79428961675,-1.9616,1.3565,-2.1224,-5.0000000000105516e-05,-4.999999999988347e-05,-6.0000000000060005e-05,-0.0002197069081493197,-7.020970222315626e-05,0.0001761037883767358
150000000000.0,3,-0.06778356479999999,0.03223445855,-0.0706667199,0.00631,-0.003872,-0.020605,-1.9273009245,-9.582568047499999,0.7940150305499999,-1.9616,1.3566,-2.1224,-5.0000000000105516e-05,-5.0000000000105516e-05,-6.999999999990347e-05,-0.0008536551138784709,0.0004609973813478607,0.0004904524920958941
150000000000.0,3,-0.087671451,0.009296704199999999,-0.0334210632,-7.2e-05,-0.000623,-0.019551,-1.9269086585,-9.582666114,0.7937306377,-1.9615,1.3567,-2.1225,0.00045000000000006146,0.0025999999999999357,8.999999999992347e-05,0.0008320853870698031,-0.0009909807335428678,-6.437346247079034e-05
150000000000.0,3,-0.1048723151,-0.028959037449999996,0.02297698095,-0.010682,0.007988,-0.017446,-1.9269086585,-9.582666114,0.7931520453500001,-1.9613,1.3567,-2.1227,0.00045000000000006146,0.0025999999999999357,-0.00541999999999998,0.004105660361013674,-0.0022828632893572287,-0.000408268808068879
150000000000.0,3,-0.121406327,-0.055819451799999996,0.0734714218,-0.013876,0.011206,-0.013184,-1.9273989909999998,-9.582666114,0.79277939265,-1.961,1.3566,-2.1228,-9.999999999998899e-05,-0.0004999999999999449,0.00012999999999996348,-0.007548553315583906,-0.0014103615943952263,0.004466495201120857
150000000000.0,3,-0.11208020284999999,-0.07122569895,0.09150585115,-0.016025,0.012284,-0.007849,-1.9281835229999997,-9.582469981,0.7925538396999999,-1.9608,1.3566,-2.123,-0.001000000000000112,-0.0045999999999999375,0.005260000000000042,0.00492535224911772,0.00788620793195527,-0.003995437854821038
150000000000.0,3,-0.09776249384999999,-0.0875733845,0.07981632435,-0.016057,0.01334,0.000691,-1.9293603209999999,-9.582273848,0.7919752473499999,-1.9603,1.3565,-2.1233,-9.999999999998899e-05,9.999999999998899e-05,4.999999999999449e-05,0.0003434595592106682,4.9417329437417834e-05,8.975807722455542e-05
150000000000.0,3,-0.09258458265,-0.09100571199999999,0.0812971285,-0.018192,0.015484,0.004955,-1.931125518,-9.581979648499999,0.7912397486,-1.9597,1.3563,-2.1238,0.00019999999999997797,-9.999999999998899e-05,4.999999999999449e-05,-0.0010855979642285796,-0.0032963334356459484,0.0013951917067553943
150000000000.0,3,-0.07095111275,-0.0742363405,0.08940722805,-0.023602,0.009129,0.010296,-1.9329887815,-9.581685449,0.7901708237499999,-1.9588,1.3562,-2.1246,-9.999999999998899e-05,3.333333333332966e-05,9.00000000000345e-05,-0.0004947574280345091,0.0003019283845488996,0.0002013238613831625
150000000000.0,3,-0.0336564228,-0.02776262615,0.09129010484999998,-0.02148,0.005916,0.008172,-1.9343617124999999,-9.581489315999999,0.78932745185,-1.9582,1.3561,-2.1252,-4.999999999988347e-05,3.333333333332966e-05,-2.999999999997449e-05,0.0005148219321420289,0.0003290266345861159,-0.00018152093652723522
150000000000.0,3,0.013405690549999998,0.03019467535,0.09364370085,-0.019364,0.002702,0.007113,-1.9350481779999997,-9.5813912495,0.78891557255,-1.9579,1.3561,-2.1255,-5.0000000000105516e-05,3.333333333332966e-05,-2.0000000000020002e-05,-0.00039430687755137583,0.0006564802865549613,0.00020304276428229073
150000000000.0,3,0.025595356499999996,0.05953617215,0.07241230359999999,-0.018307,-0.001565,0.002852,-1.9351462444999998,-9.5813912495,0.7886017597499999,-1.9578,1.3561,-2.1257,9.999999999998899e-05,9.999999999998899e-05,2.0000000000020002e-05,0.0011713024646564651,0.00011214684345395298,-0.0004918683429617765
150000000000.0,3,0.02331040705,0.0466012008,0.05314223635,-0.011951,-0.010138,-0.001392,-1.9347539784999999,-9.581489315999999,0.7884252400499999,-1.9578,1.3561,-2.1258,-9.999999999998899e-05,4.999999999988347e-05,2.999999999997449e-05,-0.0006424446813528828,0.00036927047778889666,0.00014201065262220425
150000000000.0,3,-0.020603771649999998,0.02625240205,0.05758464879999999,-0.009791,-0.009088,-0.004592,-1.9347539784999999,-9.581489315999999,0.7886115664,-1.9578,1.3561,-2.1258,-1.999999999990898e-05,5.0000000000105516e-05,-1.0000000000065512e-05,-0.00020279424044078453,-0.0001867727136217745,7.602046611276947e-05
150000000000.0,3,-0.06745994535,0.016082905999999998,0.07673703625,-0.007604,-0.00484,-0.007795,-1.9351462444999998,-9.5813912495,0.7893666784499999,-1.9581,1.356,-2.1257,-2.0000000000131024e-05,5.0000000000105516e-05,1.0000000000065512e-05,-0.00020755913360703815,0.0002521960451973282,3.32665588227421e-05
150000000000.0,3,-0.0723142371,0.0087279185,0.061075816199999994,-0.002247,-0.001689,-0.006721,-1.935636577,-9.5811951165,0.7900629505999999,-1.9583,1.356,-2.1255,-1.999999999990898e-05,4.999999999988347e-05,1.999999999990898e-05,0.0007613672496651347,0.00023223152901663546,-0.0002187610478117108
150000000000.0,3,-0.10039067604999999,0.00818855275,0.04384553215,0.000963,-0.00065,-0.006714,-1.9366172419999998,-9.580998983499999,0.7906905762,-1.9584,1.3558,-2.1254,-2.0000000000131024e-05,9.999999999998899e-05,2.0000000000020002e-05,-0.00029704633181726336,0.00025012179877315077,0.00018752984840286757
150000000000.0,3,-0.09524218479999999,0.0446987107,0.03176373935,0.005235,0.00038,-0.005637,-1.9376959734999997,-9.580704784,0.7915437547499999,-1.9586,1.3557,-2.1252,-1.999999999990898e-05,5.0000000000105516e-05,-4.999999999999449e-05,-0.00014783018323072383,-0.00010938417059058736,5.440651192945012e-05
150000000000.0,3,-0.09336911464999999,0.0546818804,0.021564823349999998,0.006298,0.00037,-0.004564,-1.938970838,-9.580312518,0.7926224862499999,-1.9588,1.3555,-2.1249,2.4999999999941735e-05,4.999999999988347e-05,3.0000000000085514e-05,0.0007937427319644197,0.00023897989369126016,-0.00015562801363433465
150000000000.0,3,-0.09695834854999999,0.04076624405,0.00687446165,-0.000103,0.000424,-0.004571,-1.940343769,-9.5800183185,0.79293629905,-1.9587,1.3554,-2.125,2.4999999999941735e-05,9.999999999998899e-05,-4.999999999999449e-05,-0.0005109882034757263,-2.375261074227808e-05,0.0002672637169141012
150000000000.0,3,-0.09935117114999999,0.011424747249999999,0.0079433865,-0.006513,0.002603,0.000755,-1.9420108995,-9.579724119,0.7926126795999999,-1.9583,1.3552,-2.1254,2.500000000016378e-05,9.999999999998899e-05,3.999999999992898e-05,0.0005533062393765498,-0.00026791537775761043,0.00010881628096548468
150000000000.0,3,-0.09699757515,-0.04777799879999999,0.02117255735,-0.015061,0.001607,0.001813,-1.9435799635,-9.579429919499999,0.7916614345499999,-1.9576,1.3551,-2.1262,2.4999999999941735e-05,9.999999999998899e-05,7.999999999996898e-05,0.0017964116349002968,-0.0002429349743882092,-0.0004237133086584244
150000000000.0,3,-0.0776882813,-0.09170198415,0.04319829325,-0.022506,0.0038,0.000731,-1.944658695,-9.579331853,0.7901414038,-1.9567,1.3551,-2.127,-3.333333333332966e-05,9.999999999998899e-05,1.0000000000065512e-05,-0.0009167565160597135,-0.000415191863023745,0.0007741700105281524
150000000000.0,3,-0.059967664749999997,-0.09696815519999999,0.0290669106,-0.022561,-0.002594,0.001811,-1.945443227,-9.579331853,0.7884056267499999,-1.9558,1.3551,-2.1279,-3.333333333332966e-05,9.999999999998899e-05,-1.0000000000065512e-05,0.000598407277549784,0.00022714627514885954,-8.837477938916649e-05
150000000000.0,3,-0.04245298785,-0.062036867899999994,-0.005207331149999999,-0.019393,-0.007945,-0.000308,-1.9459335594999998,-9.579429919499999,0.78646391005,-1.9549,1.3551,-2.129,-3.333333333332966e-05,0.00010000000000021103,-9.99999999995449e-06,0.00045182954324962665,0.0007176244664706122,-0.00015086938196517963
150000000000.0,3,-0.02368305975,0.005462304049999999,-0.040697597499999995,-0.013054,-0.017584,-0.003481,-1.945835493,-9.579527986,0.78469871305,-1.9541,1.3552,-2.1299,9.999999999998899e-05,9.999999999998899e-05,9.00000000000345e-05,0.0008991506635849245,-0.0008286696310717545,-6.560268203426034e-05
150000000000.0,3,0.00363826715,0.043139453349999995,-0.059673465249999995,-0.013107,-0.023976,-0.003469,-1.9453451604999998,-9.5798221855,0.7827275763999999,-1.9533,1.3553,-2.1309,-5.0000000000105516e-05,9.999999999998899e-05,-4.0000000000040004e-05,-0.0005482337685611682,0.00011095208960276715,-8.167161597061323e-05
150000000000.0,3,0.0103558224,0.0693918554,-0.055309505999999994,-0.016337,-0.026083,-0.001336,-1.9450509609999997,-9.5800183185,0.7809035395,-1.9526,1.3554,-2.1319,-4.999999999988347e-05,9.999999999998899e-05,4.999999999999449e-05,-0.00042408472255184293,-0.0006533349919612963,0.0003200242406875553
150000000000.0,3,-0.0090417313,0.0421293684,-0.051455492549999995,-0.019572,-0.02819,0.001865,-1.945247094,-9.580214451499998,0.778844143,-1.9516,1.3555,-2.1331,-4.999999999988347e-05,9.999999999998899e-05,-9.99999999995449e-06,0.0007552802692960547,0.00046072018948217774,-0.0006830482414232897
150000000000.0,3,-0.034489988049999996,0.004314926,-0.03241097825,-0.021707,-0.028172,0.001863,-1.945835493,-9.580214451499998,0.7768631997,-1.9507,1.3555,-2.1344,-5.0000000000105516e-05,9.999999999998899e-05,-1.0000000000065512e-05,-0.0002961612528142865,0.0002586843811913653,2.3693989509077085e-05
150000000000.0,3,-0.061370015699999995,-0.03409772205,-0.007247114349999999,-0.022745,-0.021774,0.006122,-1.9471103575,-9.580116385,0.77502935615,-1.9496,1.3554,-2.1357,-5.0000000000105516e-05,4.999999999988347e-05,2.999999999997449e-05,0.00016537107171599175,0.0006697472233798685,-0.0002463886151180539
150000000000.0,3,-0.08772048425,-0.053485469099999995,0.0048248718,-0.019534,-0.018606,0.009327,-1.9488755544999998,-9.579920251999999,0.7734406788499999,-1.9486,1.3553,-2.137,-4.999999999988347e-05,5.0000000000105516e-05,3.0000000000085514e-05,-0.00018966616099547196,-0.00022232766639285195,0.0001569475461282721
150000000000.0,3,-0.11708159435,-0.058369180799999996,0.022672974799999995,-0.017335,-0.011163,0.008254,-1.9512291505,-9.579527986,0.7723521406999999,-1.9477,1.3551,-2.138,-9.999999999998899e-05,5.0000000000105516e-05,-2.0000000000020002e-05,-0.0009445343865139844,0.0007792567361792901,0.00010705417879508516
150000000000.0,3,-0.13329198679999998,-0.050906320149999996,0.0272428737,-0.014086,-0.005861,0.007188,-1.9538769459999998,-9.5790376535,0.77151857545,-1.9469,1.3549,-2.1389,-9.999999999998899e-05,4.999999999988347e-05,0.00019999999999997797,-3.167418544181011e-05,0.0009053951027502283,-0.0003135244815424265
150000000000.0,3,-0.11068765855,-0.014945334599999999,0.01876012145,-0.010874,-0.005884,0.005063,-1.9561324755,-9.5786453875,0.7707242367999999,-1.9461,1.3547,-2.1398,0.0039000000000000146,0.0034000000000000696,-0.0018899999999999473,0.02479278040610522,-0.031681219577230246,0.02740362954879716
150000000000.0,3,-0.10277369199999999,0.01879934805,0.013964669599999998,-0.008686,-0.000572,0.002927,-1.9581918719999998,-9.5782531215,0.7701358378,-1.9455,1.3545,-2.1404,-5.0000000000105516e-05,3.333333333332966e-05,7.00000000000145e-05,-0.0005076005383735094,1.0437108271199591e-05,-0.0008777623970264159
150000000000.0,3,-0.08687711235,0.04459083755,0.01301342455,-0.009688,0.004769,-0.00135,-1.9597609359999997,-9.577958921999999,0.7692924659,-1.9449,1.3544,-2.141,-4.999999999988347e-05,3.333333333332966e-05,0.00013999999999991797,0.0006372710108535351,0.0006987664460298415,-0.0004233933699286929
150000000000.0,3,-0.0668028998,0.04598338184999999,0.00185345685,-0.010722,0.006913,-0.004555,-1.9606435345,-9.577860855499999,0.7681843144499999,-1.9442,1.3544,-2.1416,-4.999999999988347e-05,3.333333333332966e-05,-3.999999999992898e-05,0.0009074019011072743,0.0001589397097674361,0.0002892761701187574
150000000000.0,3,-0.0666656067,0.0263210486,0.015474893699999999,-0.008569,0.007963,-0.006685,-1.9612319335,-9.577860855499999,0.7674292024,-1.9438,1.3544,-2.1419,-5.0000000000105516e-05,0.00019999999999997797,5.999999999994898e-05,0.0030601265290033375,0.00098449257417621,-0.0018194971695852935
150000000000.0,3,-0.05374044199999999,0.01266038515,0.01932890715,-0.005412,0.003673,-0.004535,-1.9616241995,-9.577762789,0.7670173231,-1.9435,1.3543,-2.1421,-9.999999999998899e-05,5.0000000000105516e-05,4.999999999999449e-05,0.0001576123162383425,-0.00014511387226723294,1.2031845624704829e-05
150000000000.0,3,-0.06035012409999999,-0.0089436648,0.0020986231,-0.003304,0.000459,-0.004524,-1.9620164654999999,-9.577762789,0.7667427369,-1.9433,1.3543,-2.1423,-9.999999999998899e-05,4.999999999988347e-05,-0.00014999999999998348,-0.0008994017353260997,0.0006517483591212958,0.00028674836196840303
150000000000.0,3,-0.058643767,-0.017671583299999998,-0.01983885295,-0.002268,-0.002747,-0.003447,-1.9625067979999997,-9.5776647225,0.7660856913499999,-1.943,1.3543,-2.1427,-5.0000000000105516e-05,9.999999999998899e-05,9.99999999995449e-06,0.00029383002389260504,-6.607272964975763e-05,0.0004116815194494805
150000000000.0,3,-0.0430904201,-0.019064127599999998,-0.0333622233,-0.0055,-0.00379,0.000821,-1.963095197,-9.5776647225,0.7650952196999999,-1.9424,1.3543,-2.1433,-4.999999999988347e-05,9.999999999998899e-05,3.0000000000085514e-05,0.0013972665819075303,0.0006065022826799993,-0.0008275638386061601
150000000000.0,3,-0.05186737185,-0.0083748791,-0.0118072066,-0.005507,-0.005918,-0.001308,-1.9637816625,-9.577566655999998,0.7644872074,-1.942,1.3542,-2.1437,-9.999999999998899e-05,4.999999999988347e-05,-6.0000000000060005e-05,-0.0011166636278221453,0.00010485761839862384,0.0007602991684207971
150000000000.0,3,-0.0652730624,-0.0047856452,0.010885381500000001,-0.004409,-0.002729,-0.002377,-1.9645661945,-9.577370522999999,0.7642420411499999,-1.9418,1.3542,-2.144,-3.333333333332966e-05,5.0000000000105516e-05,4.0000000000040004e-05,0.0003786548164694814,4.299145992758824e-05,-3.882466990257072e-05
150000000000.0,3,-0.07134337874999999,0.0085121722,-0.0035107806999999996,-0.002266,-0.001681,-0.002372,-1.9655468594999999,-9.5772724565,0.76396745495,-1.9415,1.3541,-2.1443,-3.333333333332966e-05,5.0000000000105516e-05,9.99999999995449e-06,-0.0006405140058876047,3.377430836382089e-05,0.00025901820491469607
150000000000.0,3,-0.08401357055,0.0017357770499999998,-0.02085874455,-0.000128,-0.001697,-0.003433,-1.966625591,-9.577076323499998,0.7635065423999999,-1.9411,1.354,-2.1447,-3.333333333332966e-05,4.999999999988347e-05,-7.999999999996898e-05,0.0008069690292760168,0.00015592195529001707,1.4926492227562704e-05
150000000000.0,3,-0.08795584384999999,0.014572681899999999,-0.022741621349999998,0.003074,-0.002786,-0.005556,-1.967606256,-9.5768801905,0.76330060275,-1.9409,1.3539,-2.145,-1.1111111111183902e-05,9.999999999998899e-05,-2.0000000000020002e-05,0.00042289007335449824,7.134144681342214e-05,7.366624957638734e-05
150000000000.0,3,-0.08036549674999999,0.0436395925,-0.011513007099999998,0.004221,0.002541,-0.013032,-1.9679985219999998,-9.576782124,0.76359480225,-1.9409,1.3538,-2.1449,-1.1111111110961858e-05,3.333333333332966e-05,1.0000000000065512e-05,-0.0016110911703348663,-0.00027593078627496936,0.0006836809222292572
150000000000.0,3,-0.0586045404,0.0411683167,-0.00473661195,0.003195,0.00575,-0.016239,-1.967606256,-9.576782124,0.7637026753999999,-1.941,1.3539,-2.1447,-1.1111111111183902e-05,3.333333333332966e-05,-1.0000000000065512e-05,0.0005423658335907966,-0.0002586550649372743,7.956676270159946e-05
150000000000.0,3,-0.05378947525,0.022104189099999998,-0.0261837555,0.004225,0.002543,-0.014094,-1.9672139899999999,-9.5768801905,0.76359480225,-1.9411,1.3539,-2.1446,-1.1111111111183902e-05,3.333333333332966e-05,-3.999999999992898e-05,0.0001649127858029953,-0.00046302965746658487,0.00038716885278544666
150000000000.0,3,-0.07767847464999998,-0.007698220249999999,-0.0301260288,0.005258,0.000401,-0.010884,-1.9674101229999998,-9.5768801905,0.7634967357499999,-1.941,1.3539,-2.1447,-1.1111111110961858e-05,3.333333333332966e-05,5.999999999994898e-05,-0.00046991671714979866,-4.8941090763365835e-05,-7.086519213883591e-05
150000000000.0,3,-0.0916921775,-0.031646059549999994,-0.018583601749999998,0.007356,-0.000687,-0.005538,-1.9680965885,-9.5766840575,0.7637713219499999,-1.941,1.3538,-2.1446,-1.1111111111183902e-05,3.333333333332966e-05,-2.0000000000020002e-05,-0.0002753800087440528,0.000286542180225835,0.0004261779709024971
150000000000.0,3,-0.0944968794,-0.03350932305,-0.013758729949999998,0.004158,0.000405,-0.004474,-1.9689791869999997,-9.5764879245,0.76404590815,-1.9409,1.3537,-2.1447,-1.1111111111183902e-05,3.333333333332966e-05,4.999999999999449e-05,0.0006223888801828448,-0.00033869321881097036,-0.00031793622909592756
150000000000.0,3,-0.0879656505,-0.017681389949999998,-0.032783630949999996,0.003051,-0.003849,-0.003398,-1.9700579185,-9.5762917915,0.7637615153,-1.9407,1.3536,-2.1449,-1.1111111110961858e-05,-4.761904761840796e-06,-2.0000000000020002e-05,2.581253814382123e-05,0.00046662924980322984,0.000497546419633732
150000000000.0,3,-0.07697239585,0.00041187929999999997,-0.04255105435,0.004099,-0.005988,-0.003389,-1.9709405169999998,-9.576193725,0.763349636,-1.9403,1.3536,-2.1453,-1.1111111111183902e-05,-4.761904762062841e-06,0.0001100000000000545,0.0006307058678991506,0.0007058639602073313,-0.001083022698069147
150000000000.0,3,-0.06168382849999999,-0.00940457735,-0.048582144099999995,0.001964,-0.005969,-0.00339,-1.9716269825,-9.5760956585,0.7628004636,-1.94,1.3535,-2.1457,-9.999999999998899e-05,-4.761904761840796e-06,-1.0000000000065512e-05,0.0003785222115872955,-0.0003155949193063279,4.7389613172299505e-05
150000000000.0,3,-0.050729800449999994,-0.004609125499999999,-0.045365562899999996,-0.000147,-0.004882,-0.006596,-1.9717250489999998,-9.5760956585,0.76228071115,-1.9397,1.3535,-2.146,9.999999999998899e-05,-4.761904761840796e-06,3.0000000000085514e-05,-0.0012746848956817214,-0.0004085471139598784,0.0003169679845425044
150000000000.0,3,-0.05426019444999999,0.01309187775,-0.050308114499999994,-0.001205,-0.004871,-0.00873,-1.9718231155,-9.5760956585,0.76153540575,-1.9394,1.3535,-2.1464,2.4999999999941735e-05,-4.761904761840796e-06,9.999999999998899e-05,-0.00021232729263154226,-0.00010539599671943733,0.00023891408089937727
150000000000.0,3,-0.06622430745,0.00314793465,-0.040923150449999994,-0.004396,-0.004841,-0.010868,-1.9718231155,-9.576193725,0.76053512745,-1.9389,1.3536,-2.1469,2.500000000016378e-05,-4.761904762062841e-06,-3.999999999992898e-05,0.001562545935228865,-2.4054104492021722e-05,-0.00048576030565206096
150000000000.0,3,-0.06108562285,0.0061879961500000006,-0.02442836515,-0.004385,-0.002711,-0.009802,-1.971921182,-9.5762917915,0.7597407888,-1.9386,1.3536,-2.1473,2.4999999999941735e-05,-4.761904761840796e-06,-4.0000000000040004e-05,-0.0017149138343452996,-0.0005279718965760516,0.000827338263159394
150000000000.0,3,-0.07753137489999999,0.00031381279999999996,-0.01925045395,-0.003315,-0.001654,-0.008731,-1.9723134479999997,-9.576193725,0.7590543232999999,-1.9382,1.3536,-2.1476,2.4999999999941735e-05,-4.761904761840796e-06,-0.00012000000000000899,-0.0011903989101322843,-0.0011624697660115313,0.0014313525412776862
150000000000.0,3,-0.08498442889999999,0.0084533323,-0.0033832942499999997,-0.00329,0.001543,-0.008734,-1.9729999135,-9.5760956585,0.7586032173999999,-1.9379,1.3535,-2.1479,-9.999999999998899e-05,-4.761904762062841e-06,6.999999999990347e-05,-0.00030381111009747386,-0.00025420346843518793,0.00016696413366679153
150000000000.0,3,-0.08693595224999999,-0.0072176943999999995,-0.0102969825,-0.003275,0.004738,-0.006601,-1.9736863789999999,-9.575997592,0.75804423835,-1.9375,1.3535,-2.1483,-2.4999999999941735e-05,-4.761904761840796e-06,2.0000000000020002e-05,9.497782785361508e-05,-4.795436905347117e-06,-0.00012874558736486463
150000000000.0,3,-0.08033607679999999,-0.02017227905,-0.0132193642,-0.001182,0.000457,-0.00552,-1.9743728445,-9.575899525499999,0.7575146792499999,-1.9372,1.3535,-2.1486,-2.500000000016378e-05,-4.761904761840796e-06,-2.0000000000020002e-05,0.00013482235910089457,0.00022795151194032748,8.51428447425917e-05
150000000000.0,3,-0.0860631604,-0.029625889649999997,-0.007766866799999999,-0.001167,0.003652,-0.003387,-1.9753535094999999,-9.575801459,0.7571518331999999,-1.9368,1.3534,-2.1489,-2.4999999999941735e-05,-4.761904761840796e-06,1.0000000000065512e-05,-0.0008983484872866487,-0.0007373893387716546,0.0005738912356543224
150000000000.0,3,-0.08128732185,-0.032675757799999997,0.01326839745,-9.7e-05,-0.001499,-0.002151,-1.976236108,-9.575605326,0.7573675794999999,-1.9368,1.3533,-2.1489,-2.4999999999941735e-05,-4.761904762062841e-06,-2.0000000000020002e-05,0.0015482902521151143,0.000929604395007777,-0.000675314331644028
150000000000.0,3,-0.06145827555,-0.020603771649999998,0.012444638849999998,0.001984,-0.006846,-1e-06,-1.9770206399999999,-9.575409192999999,0.7577402322,-1.9368,1.3532,-2.149,-9.999999999998899e-05,-4.761904761840796e-06,4.999999999999449e-05,-0.0008379920648429184,-0.0003128539634869032,0.00020748053765595742
150000000000.0,3,-0.05186737185,0.010885381500000001,-0.0042756994,0.004061,-0.013258,0.001083,-1.9780013049999998,-9.5751149935,0.75829921125,-1.9369,1.3531,-2.149,-2.500000000016378e-05,-4.761904761840796e-06,-2.0000000000020002e-05,-0.00020579769456752217,-5.136948596873303e-05,8.95416315227493e-06
150000000000.0,3,-0.04749360595,0.019858466249999998,-0.0214765635,0.002987,-0.015377,-0.001048,-1.9785897039999998,-9.574918860499999,0.7585934107499999,-1.9369,1.353,-2.1491,-2.4999999999941735e-05,-4.761904762062841e-06,3.0000000000085514e-05,0.0005593990228476287,9.998664342614205e-05,-0.0002332436675143157
150000000000.0,3,-0.05563312545,0.024673531399999997,-0.0318323859,-0.001259,-0.01321,-0.002124,-1.9792761695,-9.574820793999999,0.75831882455,-1.9367,1.3529,-2.1495,-2.4999999999941735e-05,-4.761904761840796e-06,-7.00000000000145e-05,-0.0007791640173633319,0.0006337562466411928,0.0005624832236335031
150000000000.0,3,-0.06375303165,0.0089240515,-0.03466650775,-0.006527,-0.006769,-0.005344,-1.9798645684999998,-9.574820793999999,0.7574166127499999,-1.9362,1.3529,-2.15,-2.500000000016378e-05,-4.761904761840796e-06,-7.00000000000145e-05,0.0005634083517418453,0.0008569132359537157,-0.00021984163376265187
150000000000.0,3,-0.07410885405,-0.0036480737999999998,-0.028066632299999998,-0.005403,-0.001446,-0.008551,-1.9802568344999998,-9.574820793999999,0.7563476879,-1.9356,1.3529,-2.1506,-9.999999999998899e-05,-4.761904761840796e-06,-7.00000000000145e-05,0.0006210239780308768,-0.0004043463179468354,0.00024467617365520056
150000000000.0,3,-0.08700459879999999,-0.012042566199999999,-0.00871811185,-0.007466,0.006033,-0.010699,-1.9806491005,-9.574820793999999,0.7554062495,-1.9352,1.3529,-2.151,4.999999999988347e-05,-4.761904762062841e-06,4.999999999999449e-05,0.00016422662512249886,0.00010573981861594639,-6.219003007634782e-05
150000000000.0,3,-0.0921628967,-0.02317311395,0.0160632927,-0.002132,0.005989,-0.010686,-1.9810413664999997,-9.5747227275,0.7551708899,-1.935,1.3529,-2.1511,5.0000000000105516e-05,-4.761904761840796e-06,7.00000000000145e-05,-0.0011329849006416204,-0.0005043376541729039,0.0004883825437969058
150000000000.0,3,-0.0892209017,-0.01069905515,0.01513166095,-0.003192,0.008127,-0.008554,-1.9816297655,-9.574624661,0.75490611035,-1.9348,1.3528,-2.1512,-0.00019999999999997797,9.999999999998899e-05,-6.0000000000060005e-05,0.0013549113087973907,0.0003281996303687862,8.572113951998972e-05
150000000000.0,3,-0.07765886135,-7.845319999999999e-05,0.020270345549999996,-0.004305,0.004935,-0.004278,-1.9824142974999999,-9.5745265945,0.7548570770999999,-1.9346,1.3528,-2.1513,-2.4999999999941735e-05,-5.0000000000105516e-05,-2.999999999997449e-05,-0.0010383165546126172,8.70278701197158e-05,0.00027223923499830605
150000000000.0,3,-0.058182854449999995,0.0020103632499999997,0.00510926465,-0.006499,0.000686,0.001065,-1.983296896,-9.574330461499999,0.7542980980499999,-1.9342,1.3527,-2.1517,-2.500000000016378e-05,-4.999999999988347e-05,7.999999999996898e-05,5.941131196429694e-05,-0.0007689356554085869,-0.00020556066299892706
150000000000.0,3,-0.0380890286,-0.0078649333,0.03190103245,-0.006526,-0.001447,0.003205,-1.9840814279999999,-9.574232395,0.7541411916499999,-1.934,1.3526,-2.1519,-2.4999999999941735e-05,9.999999999998899e-05,9.99999999995449e-06,-0.00018879900581048048,0.0004067289465310431,0.00030143284832906403
150000000000.0,3,-0.0273605535,-0.017779456449999998,0.062144741049999994,-0.005482,-0.004653,0.003213,-1.9847678934999997,-9.574036262,0.754719784,-1.9342,1.3525,-2.1518,-2.4999999999941735e-05,3.333333333332966e-05,1.0000000000065512e-05,0.0006561851987281209,2.3319011786648858e-05,-3.3620723502547634e-05
150000000000.0,3,-0.030812494299999996,-0.026360275199999998,0.06667541335,-0.00653,-0.002514,0.003208,-1.9855524254999999,-9.5737420625,0.7552885697,-1.9343,1.3524,-2.1518,-4.999999999988347e-05,3.333333333332966e-05,1.0000000000065512e-05,5.086703873002918e-06,0.00026549840419765047,-6.07909333796286e-05
150000000000.0,3,-0.0294591766,-0.03384274915,0.0744520868,-0.009697,0.000709,0.00213,-1.9861408244999998,-9.573643996,0.7555925758500001,-1.9343,1.3524,-2.1517,-5.0000000000105516e-05,3.333333333332966e-05,-7.00000000000145e-05,0.00020384984621890645,0.00030069196614723737,0.0005454653572587453
150000000000.0,3,-0.03076346105,-0.0312243736,0.0659203013,-0.008621,-0.000362,-0.001067,-1.9865330904999998,-9.5735459295,0.7557396755999999,-1.9343,1.3523,-2.1517,-9.999999999998899e-05,1.6666666666775853e-05,3.999999999992898e-05,-0.0009471862208940696,0.00010033358918626334,0.00013304922081180948
150000000000.0,3,-0.03837342144999999,-0.0063154826,0.04168806914999999,-0.004358,-0.002527,-0.00319,-1.98682729,-9.573447862999998,0.7558769686999999,-1.9343,1.3523,-2.1518,-2.4999999999941735e-05,1.666666666655381e-05,4.999999999999449e-05,0.000985458381276283,-0.00016567991070082222,-0.0004536269504566981
150000000000.0,3,-0.050906320149999996,0.015406247149999998,0.020329185450000002,-0.001169,-0.004683,-0.004246,-1.9873176224999998,-9.5733497965,0.75614174825,-1.9344,1.3522,-2.1518,-2.4999999999941735e-05,1.666666666655381e-05,-9.999999999998899e-05,-0.0022581966444774615,-0.0008561331056795574,0.0016590990953218032
150000000000.0,3,-0.0672540057,0.021407916949999998,0.014288289049999998,-0.002233,-0.005737,-0.006378,-1.9879060215,-9.573251729999999,0.7563476879,-1.9344,1.3522,-2.1518,-2.500000000016378e-05,1.6666666666775853e-05,-9.99999999995449e-06,-0.0002173993886327441,0.00033254111946190434,0.0003142113404956959
150000000000.0,3,-0.0778255744,0.00903192465,0.010169496049999999,-0.003328,-0.009989,-0.007437,-1.9883963539999998,-9.5731536635,0.7564261411,-1.9343,1.3521,-2.152,-2.4999999999941735e-05,1.6666666666775853e-05,9.99999999995449e-06,0.00034953225319145353,-1.4006919097475645e-05,-0.0005118235669745452
150000000000.0,3,-0.0790808256,0.0008629851999999999,0.013582210249999999,-0.00438,-0.008914,-0.008505,-1.98878862,-9.573055597,0.7564555610499999,-1.9343,1.3521,-2.1521,-0.0019500000000001183,1.666666666655381e-05,3.0000000000085514e-05,-0.0004522740829893124,0.00011425594541236705,0.00028086633838064756
150000000000.0,3,-0.06606740105,-0.0101596894,0.0194760069,-0.002267,-0.014255,-0.012759,-1.9884944205,-9.573055597,0.7566909206499999,-1.9344,1.3521,-2.1521,-0.0019499999999998963,-0.0031999999999998696,0.0016599999999999948,-0.022871178708818274,0.035130742480926846,-0.026905131779650038
150000000000.0,3,-0.05042579429999999,-0.00805125965,0.023271180449999998,-0.000103,-0.013202,-0.017025,-1.9875137554999998,-9.573251729999999,0.7570929933,-1.9348,1.3522,-2.1519,-9.999999999998899e-05,2.4999999999941735e-05,4.999999999921734e-06,-0.00021516032333757096,-1.3278503334213099e-05,0.00018216771178192204
150000000000.0,3,-0.049445129299999994,-0.0020692031499999998,0.013405690549999998,0.003093,-0.01323,-0.01595,-1.9865330904999998,-9.5733497965,0.7578284920499999,-1.9352,1.3523,-2.1515,-5.0000000000105516e-05,2.4999999999941735e-05,5.000000000032756e-06,-4.931238586691755e-05,-0.00015653738162813013,-0.00011195906058159011
150000000000.0,3,-0.0588987399,0.00862004535,-0.0014611908499999999,0.005187,-0.01751,-0.014869,-1.985846625,-9.573447862999998,0.75863263735,-1.9357,1.3523,-2.1512,-4.999999999988347e-05,2.500000000016378e-05,7.999999999996898e-05,-2.4674372806288147e-05,-0.0008789823577359801,3.269522012327997e-05
150000000000.0,3,-0.0633313457,0.024016485849999998,-0.006433162399999999,0.001974,-0.016422,-0.010604,-1.985846625,-9.573447862999998,0.7591033565499999,-1.9359,1.3523,-2.1511,1.999999999990898e-05,2.4999999999941735e-05,-7.999999999996898e-05,-4.96730988202021e-05,0.0007452998446386694,-3.31105677080501e-05
150000000000.0,3,-0.07493261265,0.040040551949999996,0.01226811915,0.000914,-0.014284,-0.008472,-1.9861408244999998,-9.573251729999999,0.7598584686,-1.9362,1.3522,-2.151,2.0000000000131024e-05,3.333333333332966e-05,-5.000000000032756e-06,0.0004808513781089374,-0.00022273444956844024,-0.00015357972464435932
150000000000.0,3,-0.10272465874999999,0.035147033599999995,0.031626446249999995,-0.003301,-0.007855,-0.008486,-1.9871214895,-9.573055597,0.76055474075,-1.9363,1.3521,-2.151,1.999999999990898e-05,3.333333333332966e-05,-4.999999999921734e-06,8.968228974204351e-05,-6.497164686658508e-05,0.0002486068349680792
150000000000.0,3,-0.1470605234,0.0027850886,0.028390251749999998,-0.005374,-0.000379,-0.008498,-1.9886905535,-9.572761397499999,0.7606430005999999,-1.9361,1.3519,-2.1512,2.0000000000131024e-05,3.333333333332966e-05,4.999999999999449e-05,0.00022145730311762257,-0.000328132776749257,-2.957400781600228e-05
150000000000.0,3,-0.15556288894999998,-0.025987622499999998,0.026330855249999997,-0.004281,0.002809,-0.008496,-1.990357684,-9.5723691315,0.76061358065,-1.9358,1.3518,-2.1515,1.999999999990898e-05,1.4285714285744433e-05,-2.0000000000020002e-05,0.0005550578609276879,0.00013957789104046547,-0.00013196888999944534
150000000000.0,3,-0.16442810054999998,-0.03382313585,0.025791489499999997,-0.004271,0.003876,-0.008492,-1.9921228809999998,-9.5719768655,0.7604076409999999,-1.9354,1.3516,-2.1518,-9.999999999998899e-05,1.4285714285744433e-05,-7.00000000000145e-05,-0.0011000048765552606,0.0013035936415237703,0.0005553060535028465
150000000000.0,3,-0.16258445035,-0.0204174453,0.0177500365,-0.003183,0.007063,-0.007422,-1.9939861445,-9.571682666,0.760211508,-1.935,1.3514,-2.1522,4.999999999988347e-05,1.4285714285744433e-05,5.999999999994898e-05,0.00027315170516795106,-0.0003258375512140699,8.513585473712837e-05
150000000000.0,3,-0.1377442059,0.006952914849999999,0.018044235999999998,-0.006392,0.006024,-0.00742,-1.9956532749999998,-9.5713884665,0.75977020875,-1.9346,1.3513,-2.1526,5.0000000000105516e-05,1.4285714285522388e-05,-5.999999999994898e-05,-0.0003455803657397283,0.00011369948222328397,0.0005308962337062795
150000000000.0,3,-0.11233517574999999,0.013474337099999999,-0.0027066354,-0.007469,0.006031,-0.005283,-1.9969281395,-9.571094267,0.7589758701,-1.934,1.3512,-2.1531,-9.999999999998899e-05,1.4285714285744433e-05,4.999999999999449e-05,-0.000770317775727003,-0.00044723090942411226,8.590105550787541e-05
150000000000.0,3,-0.08197378735,0.021751149699999996,-0.008786758399999999,-0.005365,0.001753,-0.006336,-1.997810738,-9.5709962005,0.75802462505,-1.9334,1.3511,-2.1536,1.999999999990898e-05,1.4285714285744433e-05,-4.999999999999449e-05,-0.0001799255338632566,7.151437653618586e-05,-8.671190073572532e-05
150000000000.0,3,-0.05745716234999999,0.0197309798,0.006158576199999999,-0.003256,-0.001461,-0.006324,-1.9983010705,-9.5709962005,0.7577402322,-1.9332,1.3511,-2.1538,2.0000000000131024e-05,1.4285714285744433e-05,-4.999999999999449e-05,-0.00023574913047585966,0.0010744769402399879,9.290242087445222e-05
150000000000.0,3,-0.0494059027,0.01093441475,-0.010914801449999999,-0.001093,-0.000408,-0.01059,-1.9982030039999998,-9.5709962005,0.7574558393499999,-1.9331,1.3511,-2.1539,1.999999999990898e-05,1.1111111111183902e-05,7.999999999996898e-05,0.00033147484155549023,-0.0008775620729937206,-3.081450184261314e-05
150000000000.0,3,-0.02942975665,0.00495235825,-0.00507003805,-0.001077,-0.000404,-0.013791,-1.9975165385,-9.571094267,0.75729893295,-1.9332,1.3512,-2.1538,2.0000000000131024e-05,1.1111111110961858e-05,-9.99999999995449e-06,-0.0005488958323649484,-0.00027790260788451704,0.0004277431486388039
150000000000.0,3,-0.025330576949999996,0.0036284604999999998,-0.021290237150000002,-6.1e-05,-0.004678,-0.010578,-1.9969281395,-9.571290399999999,0.7569164736,-1.9331,1.3513,-2.1539,1.999999999990898e-05,1.1111111111183902e-05,-9.00000000000345e-05,6.166006974739346e-05,0.0009574183187206486,-0.0001084933049555481
150000000000.0,3,-0.04638545449999999,-0.0022751428,-0.021407916949999998,-0.002209,-0.005727,-0.009511,-1.99663394,-9.5713884665,0.7565830474999999,-1.933,1.3513,-2.1541,-9.999999999998899e-05,1.1111111111183902e-05,4.999999999999449e-05,-0.00042241182431901336,-0.0007601205682701284,0.00025128404188912157
150000000000.0,3,-0.06667541335,-0.0033342610000000003,-0.00467777205,-0.001216,-0.01426,-0.008424,-1.99663394,-9.5713884665,0.7566026607999999,-1.933,1.3513,-2.1542,1.999999999990898e-05,1.1111111110961858e-05,4.0000000000040004e-05,-2.4631032045530077e-05,8.880067530858682e-06,-0.00010752783312240055
150000000000.0,3,-0.072373077,-0.0062958693,0.00477583855,-0.001232,-0.014263,-0.005219,-1.9971242724999998,-9.571290399999999,0.7568772469999999,-1.9331,1.3513,-2.1543,2.0000000000131024e-05,1.1111111111183902e-05,-2.999999999997449e-05,0.00042959715432333567,-0.00029249392230967786,0.00013478039436121136
150000000000.0,3,-0.08348401144999999,-0.00644296905,0.01038524235,-0.001229,-0.015326,-0.007349,-1.9977126715,-9.571094267,0.75725970635,-1.9331,1.3512,-2.1544,1.999999999990898e-05,1.1111111111183902e-05,9.99999999995449e-06,-0.0006904685254625065,8.646759217012523e-05,0.0002735526121115939
150000000000.0,3,-0.08145403489999999,-0.00789435325,0.014572681899999999,-0.001201,-0.013193,-0.009484,-1.9981049374999997,-9.5709962005,0.7575637125,-1.9332,1.3511,-2.1544,2.0000000000131024e-05,1.1111111110961858e-05,-2.0000000000020002e-05,3.726080846977453e-05,0.00034027175275297417,-0.00014293778439888882
150000000000.0,3,-0.0461500949,-0.009639936949999999,0.00954187045,-0.001201,-0.013193,-0.009483,-1.9977126715,-9.571094267,0.7577990720999999,-1.9334,1.3512,-2.1544,1.999999999990898e-05,1.1111111111183902e-05,2.999999999997449e-05,0.0005427779157285428,-0.0002848375603698994,-7.061939911334747e-05
150000000000.0,3,-0.023751706299999998,-0.011130547749999999,0.00583495675,-0.003346,-0.015305,-0.010549,-1.9969281395,-9.571192333499999,0.75790694525,-1.9335,1.3512,-2.1544,-9.999999999998899e-05,2.4999999999941735e-05,1.0000000000065512e-05,-0.000538710597317138,-0.00017290959969851194,6.891476933601481e-05
150000000000.0,3,-0.01772061655,-0.00901231135,0.00942419065,-0.006568,-0.017411,-0.009483,-1.9961436074999999,-9.5713884665,0.7579167518999999,-1.9337,1.3513,-2.1544,4.999999999988347e-05,2.4999999999941735e-05,-2.999999999997449e-05,0.00011570102529567805,0.0003210674593838725,-0.00011201354245127249
150000000000.0,3,-0.0023241760499999996,-0.023888999399999996,0.005727083599999999,-0.006577,-0.018476,-0.009481,-1.995064876,-9.5715845995,0.7577206189,-1.9338,1.3514,-2.1545,5.0000000000105516e-05,2.500000000016378e-05,9.99999999995449e-06,0.0001006968155996546,-9.673916222974199e-05,-7.196023947741992e-05
150000000000.0,3,-0.010022396299999998,-0.03086152755,-0.00057859235,-0.00873,-0.019526,-0.007348,-1.994280344,-9.571878799,0.7572891262999999,-1.9337,1.3515,-2.1547,0.0019500000000001183,2.4999999999941735e-05,2.0000000000020002e-05,0.00019138631328852185,0.0003195002611455777,-0.0002639918577016509
150000000000.0,3,-0.0415213561,-0.0216334699,-0.01062060195,-0.008761,-0.022723,-0.006274,-1.9939861445,-9.5719768655,0.7565634341999999,-1.9334,1.3516,-2.1553,0.0019499999999998963,0.0031999999999998696,-0.0018000000000000238,0.02152235532403779,-0.034440053464665166,0.028353050200451868
150000000000.0,3,-0.060742390099999995,0.0006864654999999999,-0.013327237349999998,-0.01087,-0.019509,-0.006281,-1.994280344,-9.5719768655,0.7556808357,-1.933,1.3516,-2.1559,2.4999999999941735e-05,9.999999999998899e-05,-2.999999999997449e-05,0.0014344836337771838,-5.5806117098322616e-05,-0.0005432544059855715
150000000000.0,3,-0.0720396509,0.0033636809499999996,-0.012895744749999999,-0.009798,-0.019516,-0.007343,-1.9945745434999997,-9.5719768655,0.7549453369499999,-1.9326,1.3516,-2.1565,2.4999999999941735e-05,1.0000000000065512e-05,2.999999999997449e-05,-0.0005873341845392677,0.00042298902382831294,0.0004182877596807799
150000000000.0,3,-0.0848863624,-0.0019122967499999998,-0.0159259996,-0.003373,-0.018499,-0.010533,-1.9949668095,-9.571878799,0.7545432643,-1.9324,1.3516,-2.1569,2.500000000016378e-05,1.0000000000065512e-05,7.00000000000145e-05,-0.00042224005841218215,-0.000249028487757208,-0.0001302236820492908
150000000000.0,3,-0.0766095498,0.0009022117999999999,-0.016769371499999998,-0.00337,-0.017434,-0.009464,-1.9951629424999997,-9.571878799,0.75433732465,-1.9323,1.3515,-2.1572,2.4999999999941735e-05,9.999999999843467e-06,7.00000000000145e-05,-0.0005689312770014165,-0.000705198647616978,0.0001358835737517161
150000000000.0,3,-0.06081103665,0.012944777999999999,-0.022319935399999997,-0.00336,-0.017432,-0.011597,-1.9948687429999998,-9.5719768655,0.7540431251499999,-1.9322,1.3516,-2.1574,9.999999999998899e-05,1.0000000000065512e-05,-1.0000000000065512e-05,-0.00010235105201172878,0.00017562825584271913,3.5471464084668725e-05
150000000000.0,3,-0.045159623249999996,0.007286340949999999,-0.0200644059,-0.004431,-0.018487,-0.012662,-1.994280344,-9.572074932,0.75359201925,-1.9321,1.3517,-2.1577,-9.999999999998899e-05,1.0000000000065512e-05,-3.999999999992898e-05,-0.00010006282968899605,5.473004716249896e-05,-7.322698894274282e-05
150000000000.0,3,-0.04285506049999999,-0.00960071035,-0.0053348176,-0.004411,-0.015291,-0.011599,-1.9935938784999998,-9.572271064999999,0.75321936655,-1.932,1.3517,-2.1579,-2.4999999999941735e-05,1.0000000000065512e-05,9.99999999995449e-06,0.00013203863242905456,-0.0002725199651960608,-7.732450684150294e-05
150000000000.0,3,-0.03605905205,-0.012317152399999998,0.009208444349999999,-0.005476,-0.013154,-0.008401,-1.9930054794999998,-9.5723691315,0.7530428468499999,-1.9321,1.3518,-2.158,-2.500000000016378e-05,1.0000000000065512e-05,1.0000000000065512e-05,0.0007556923713674113,0.00044056428566929817,-0.00024004850737968653
150000000000.0,3,-0.037902702249999996,-0.02007421255,-0.0024222425499999998,-0.001276,-0.019585,-0.005179,-1.9928093464999999,-9.572467198,0.7531605266499999,-1.9321,1.3518,-2.1581,-2.4999999999941735e-05,9.999999999843467e-06,-2.0000000000020002e-05,-0.0005175060566096068,0.00013460380046725895,-6.336471342960337e-05
150000000000.0,3,-0.0590948729,-0.03317589695,-0.00022555294999999998,-0.002354,-0.019578,-0.003044,-1.9932016124999998,-9.5723691315,0.75335665965,-1.9322,1.3518,-2.1583,-2.4999999999941735e-05,1.0000000000065512e-05,-1.0000000000065512e-05,0.000300433058380456,0.0002611580861617835,-0.0002135961208651338
150000000000.0,3,-0.0692937889,-0.03745159635,-0.009502643849999999,-0.007661,-0.017401,-0.005189,-1.9937900114999998,-9.572271064999999,0.7529055537499999,-1.9319,1.3517,-2.1588,-9.999999999998899e-05,1.0000000000065512e-05,-9.99999999995449e-06,0.0011556275828110696,-0.00039895833083214427,-0.00021151391114271334
150000000000.0,3,-0.04970010219999999,-0.02480101785,-0.03766734265,-0.008741,-0.019521,-0.006253,-1.9937900114999998,-9.5723691315,0.75188566215,-1.9314,1.3518,-2.1594,-9.999999999998899e-05,-9.090909090847532e-06,9.99999999995449e-06,-0.0014330023840523065,0.000407264111620842,0.00016844765490242608
150000000000.0,3,-0.025781682849999998,-0.0140038962,-0.03847148795,-0.007673,-0.020593,-0.008383,-1.993299679,-9.5725652645,0.7508951905,-1.9311,1.3518,-2.1599,9.999999999998899e-05,-9.090909091069577e-06,2.0000000000020002e-05,0.0008671562719027026,-0.0006349061916295362,-0.00022736439693504806
150000000000.0,3,-0.021966895999999996,0.0023634026499999997,-0.022908334399999997,-0.008761,-0.023779,-0.009446,-1.9926132134999999,-9.572761397499999,0.7501498851,-1.9309,1.3519,-2.1604,-9.999999999998899e-05,-9.090909090847532e-06,2.0000000000020002e-05,-0.00019646463611411313,9.675819275356545e-05,-0.00011051837450892776
150000000000.0,3,-0.02695848085,0.0070313680499999994,-0.01797558945,-0.008773,-0.025909,-0.010508,-1.9919267479999998,-9.572859464,0.74955167945,-1.9307,1.352,-2.1608,-1.999999999990898e-05,-9.090909090847532e-06,-4.0000000000040004e-05,3.163003684636401e-05,1.3924494515205055e-05,0.00023471819546028172
150000000000.0,3,-0.033764295949999995,0.01107170785,-0.01171894675,-0.008787,-0.026975,-0.009437,-1.9914364155,-9.573055597,0.7489828937499999,-1.9305,1.3521,-2.1612,-2.0000000000131024e-05,-9.090909091069577e-06,8.000000000008001e-05,3.86217553161039e-06,-0.0003667006233198933,-0.00023836959046352746
150000000000.0,3,-0.05855550714999999,0.02462449815,-0.012925164699999998,-0.010882,-0.022694,-0.010514,-1.9913383489999998,-9.5731536635,0.748247395,-1.9302,1.3521,-2.1618,-1.999999999990898e-05,-9.090909090847532e-06,-4.999999999999449e-05,0.0003369198304954413,0.0006073926524547968,-0.00022818328300200363
150000000000.0,3,-0.0778255744,0.02195708935,-0.012356378999999999,-0.010848,-0.018431,-0.010518,-1.991534482,-9.5731536635,0.7473746031499999,-1.9298,1.3522,-2.1624,-2.0000000000131024e-05,-9.090909091069577e-06,1.999999999990898e-05,-0.00012441144507402413,-0.00015907457173147677,8.934697793439028e-05
150000000000.0,3,-0.09893929185,0.0107088618,-0.0122583125,-0.00871,-0.018447,-0.011577,-1.9919267479999998,-9.5731536635,0.74653123125,-1.9294,1.3521,-2.163,-1.999999999990898e-05,-9.090909090847532e-06,-8.999999999992347e-05,0.00016980060924898233,-3.349669211782924e-05,-0.00016722255693624177
150000000000.0,3,-0.1219162728,0.0007354987499999999,-0.027929339199999997,-0.006546,-0.015266,-0.012642,-1.9928093464999999,-9.573055597,0.7455995995,-1.9288,1.3521,-2.1637,-2.4999999999941735e-05,-9.090909090847532e-06,3.999999999992898e-05,0.0004894939510438068,-3.46634705619131e-05,-0.00011977361211323867
150000000000.0,3,-0.12408354244999999,-0.00493274495,-0.024565658249999997,-0.003348,-0.014228,-0.010499,-1.9935938784999998,-9.5729575305,0.7450700404,-1.9285,1.352,-2.1642,-2.500000000016378e-05,-9.090909091069577e-06,-2.999999999997449e-05,0.0005321460207832196,-0.00014438641534564312,-0.0002330311065206203
150000000000.0,3,-0.11919983074999999,-0.00196133,0.009433997299999998,0.00627,-0.014304,-0.013679,-1.9941822775,-9.572761397499999,0.74578592585,-1.9287,1.352,-2.1641,-2.4999999999941735e-05,-9.090909090847532e-06,-9.99999999995449e-06,-0.0005282749944364173,-0.00019574751141804292,0.0002175986682360076
150000000000.0,3,-0.10199896665,0.0071392412,0.027233067049999997,0.008405,-0.014321,-0.013672,-1.9944764769999999,-9.5725652645,0.74729614995,-1.9293,1.3519,-2.1636,-2.4999999999941735e-05,-1.999999999990898e-05,-1.0000000000065512e-05,0.00015943605536428151,0.00012699591068288107,-0.0003508278118751207
150000000000.0,3,-0.0789631458,0.029468983249999997,0.0235751866,0.014817,-0.014372,-0.015792,-1.994280344,-9.572467198,0.74929670655,-1.9302,1.3518,-2.1628,4.999999999988347e-05,-2.0000000000131024e-05,1.0000000000065512e-05,0.0007267592759299113,-0.0003615324397125974,-3.687515848005418e-05
150000000000.0,3,-0.07485415945,0.0426785408,0.007462860649999999,0.013751,-0.014363,-0.015791,-1.9939861445,-9.5723691315,0.7512090033,-1.9311,1.3518,-2.1621,5.0000000000105516e-05,-1.999999999990898e-05,-8.000000000008001e-05,-0.0008195853317167767,-0.00037614161057097917,0.0008783375472467547
150000000000.0,3,-0.08329768509999999,0.036529771249999995,0.01013026945,0.012652,-0.016488,-0.012583,-1.9940842109999999,-9.5721729985,0.7530232335499999,-1.9319,1.3517,-2.1615,1.999999999990898e-05,-2.0000000000131024e-05,1.0000000000065512e-05,0.0002982398631252714,-0.0005277851014251489,-1.2956189023860532e-06
150000000000.0,3,-0.08617103355,0.02982202265,0.0135724036,0.007344,-0.013247,-0.012595,-1.994280344,-9.572074932,0.7543667446,-1.9324,1.3516,-2.161,2.0000000000131024e-05,-1.999999999990898e-05,2.999999999997449e-05,-0.0005162004332075476,0.0001291141086388059,0.0002138793490966684
150000000000.0,3,-0.084729456,-0.0103558224,0.024497011699999998,-0.001162,-0.008916,-0.011547,-1.9943784104999998,-9.5719768655,0.75496495025,-1.9327,1.3516,-2.1608,1.999999999990898e-05,-1.999999999990898e-05,-5.999999999994898e-05,0.0008160736733211493,8.490080781253795e-05,-0.0003318845301958362
150000000000.0,3,-0.0872203451,-0.043443459499999997,0.01626923235,-0.007542,-0.005667,-0.010493,-1.9945745434999997,-9.5719768655,0.7546609441,-1.9325,1.3516,-2.1611,2.0000000000131024e-05,-2.0000000000131024e-05,5.000000000032756e-06,0.0002796297439422446,0.0002769644750384437,-0.00028153485750692653
150000000000.0,3,-0.083356525,-0.0585260872,0.026389695149999996,-0.007553,-0.007797,-0.011554,-1.9944764769999999,-9.5719768655,0.7544157778499999,-1.9324,1.3516,-2.1613,1.999999999990898e-05,-1.999999999990898e-05,4.999999999921734e-06,-0.00017648833376426865,-0.000549104598235095,0.0007442938038630942
150000000000.0,3,-0.06457679024999999,-0.03872646085,0.031528379749999995,-0.006508,-0.009938,-0.010479,-1.994280344,-9.572074932,0.7543667446,-1.9324,1.3516,-2.1613,-9.999999999998899e-05,-2.0000000000131024e-05,2.999999999997449e-05,-0.0005426969365944778,0.0003033245608599078,-0.00023361197866167416
150000000000.0,3,-0.0469150136,-0.02185902285,0.02007421255,-0.009747,-0.014175,-0.009408,-1.993888078,-9.5721729985,0.7541509983,-1.9324,1.3517,-2.1615,0.00019999999999997797,-1.999999999990898e-05,8.000000000008001e-05,-0.0004029843378283715,-0.0009422478536051937,2.1149458850899805e-06
150000000000.0,3,-0.0330484105,-0.0114149406,0.0001176798,-0.008756,-0.021645,-0.00619,-1.9934958119999997,-9.572271064999999,0.75361163255,-1.9322,1.3517,-2.1619,-9.999999999998899e-05,2.4999999999941735e-05,-4.0000000000040004e-05,0.0005912056599508553,0.0003593783786972615,0.0001803027761178022
150000000000.0,3,-0.044531997649999995,-0.0013337044,-0.005295591,-0.008768,-0.023775,-0.007252,-1.9933977455,-9.5723691315,0.7531801399499999,-1.9321,1.3518,-2.1623,-9.999999999998899e-05,2.500000000016378e-05,-4.0000000000040004e-05,-1.1013146508753735e-05,8.493456621239126e-05,-0.0004566678995274742
150000000000.0,3,-0.03379371589999999,0.014749201599999998,0.0190445143,-0.008762,-0.023774,-0.008318,-1.9930054794999998,-9.5723691315,0.75323897985,-1.9321,1.3518,-2.1624,1.1111111111183902e-05,2.4999999999941735e-05,-2.0000000000020002e-05,-0.0001620474568546637,0.00038648104014771256,-9.176463640603316e-05
150000000000.0,3,-0.03582369245,0.006413549099999999,0.041384063,-0.008743,-0.021643,-0.00832,-1.9926132134999999,-9.572467198,0.7536410525,-1.9324,1.3518,-2.1624,1.1111111110961858e-05,2.4999999999941735e-05,2.0000000000020002e-05,0.0014532640191440294,-0.00031384661009092873,-0.0008238897309738036
150000000000.0,3,-0.04361017255,-0.005766310199999999,0.026389695149999996,-0.008723,-0.020576,-0.010455,-1.9922209475,-9.5725652645,0.75367047245,-1.9325,1.3519,-2.1626,1.1111111111183902e-05,-4.999999999988347e-05,2.999999999997449e-05,-0.0007916985027587309,0.00021465729361591634,0.0004736613139528778
150000000000.0,3,-0.07156893169999999,-0.0081591328,0.020201699,-0.007661,-0.020585,-0.009383,-1.9922209475,-9.5725652645,0.7535822125999999,-1.9324,1.3519,-2.1628,1.1111111111183902e-05,-5.0000000000105516e-05,-4.999999999999449e-05,-0.000466524666171253,0.00022263222939433724,-0.00015412319173879752
150000000000.0,3,-0.08893650885,0.008227779349999999,0.011817013249999998,-0.005538,-0.022733,-0.01044,-1.992515147,-9.572467198,0.75372931235,-1.9324,1.3518,-2.163,1.1111111110961858e-05,1.1111111111183902e-05,-9.99999999995449e-06,-3.533143047640408e-05,-0.00022028061238676955,0.00019471947330096384
150000000000.0,3,-0.07024503395,0.024193005549999997,0.00208881645,-0.006638,-0.024858,-0.007233,-1.9928093464999999,-9.5723691315,0.7535822125999999,-1.9323,1.3518,-2.1634,1.1111111111183902e-05,1.1111111110961858e-05,9.99999999995449e-06,0.00039579147414503524,7.380300574277854e-05,-0.0006907078763473962
150000000000.0,3,-0.0654299688,0.017142024199999998,-0.0124544455,-0.009861,-0.026963,-0.006164,-1.993103546,-9.5723691315,0.7530134268999998,-1.932,1.3518,-2.1639,1.1111111111183902e-05,1.1111111111183902e-05,-3.999999999992898e-05,0.0008063574146319752,-0.0004940795843644263,-0.00034969510673033
150000000000.0,3,-0.085906254,-0.00734518085,-0.0018142302499999999,-0.0088,-0.026972,-0.005092,-1.9937900114999998,-9.572271064999999,0.7525427077,-1.9317,1.3517,-2.1645,1.1111111110961858e-05,1.1111111111183902e-05,5.999999999994898e-05,-0.0007467986938545224,0.000863791307230688,0.0005817814904460761
150000000000.0,3,-0.09793901354999998,-0.02878251775,0.02109410415,-0.00875,-0.019515,-0.002967,-1.9947706765,-9.572074932,0.7523759946499999,-1.9315,1.3517,-2.165,1.1111111111183902e-05,1.1111111110961858e-05,1.0000000000065512e-05,4.3378571823904366e-05,-0.000226590512067526,-0.0005066522140322327
150000000000.0,3,-0.1075789505,-0.0357550459,0.04555188925,-0.010851,-0.0163,-0.004039,-1.995849408,-9.571878799,0.75231715475,-1.9313,1.3515,-2.1654,-9.999999999998899e-05,1.1111111111183902e-05,-3.0000000000085514e-05,0.00031895133884307647,-0.00012965032566403245,-0.0001357620331878806
150000000000.0,3,-0.11194290974999999,-0.0302829352,0.0395404128,-0.012927,-0.009888,-0.005118,-1.9970262059999997,-9.571682666,0.7518954688,-1.9309,1.3514,-2.1659,9.999999999998899e-05,1.1111111111183902e-05,4.999999999999449e-05,-0.0008441712559894565,0.00023166242883387866,0.0003564958005561891
150000000000.0,3,-0.10825560934999999,-0.02176095635,0.044208378199999995,-0.014994,-0.002411,-0.006198,-1.9980068709999999,-9.571486533,0.7512678432,-1.9304,1.3514,-2.1664,-9.999999999998899e-05,1.1111111110961858e-05,1.0000000000065512e-05,0.0006547816341304635,-0.00026210514003444096,3.6362055871208554e-05
150000000000.0,3,-0.09072131915,-0.007423634049999999,0.038363614799999994,-0.0203,-0.000234,-0.008342,-1.9986933364999997,-9.571486533,0.7500714318999999,-1.9298,1.3514,-2.167,9.999999999998899e-05,1.1111111111183902e-05,9.99999999995449e-06,0.0001443074072875472,0.00027934089565961884,0.00016200170626801125
150000000000.0,3,-0.05875164014999999,-0.0072176943999999995,0.022741621349999998,-0.019294,-0.006638,-0.006192,-1.9988894695,-9.5715845995,0.748639661,-1.9291,1.3514,-2.1678,9.999999999998899e-05,9.999999999998899e-05,1.0000000000065512e-05,0.0010197639202382813,-0.00010356637700836835,0.00014088849329807474
150000000000.0,3,-0.0508965135,-0.01301342455,0.011513007099999998,-0.018268,-0.009846,-0.002981,-1.9992817354999999,-9.5715845995,0.7471490502,-1.9284,1.3514,-2.1686,-5.0000000000105516e-05,-9.999999999998899e-05,9.99999999995449e-06,-0.00041584155820206803,0.00031243243772327567,-0.00024391267329715305
150000000000.0,3,-0.05163201224999999,-0.0150434011,0.018044235999999998,-0.018193,-0.008592,-0.006035,-1.9994778684999999,-9.571682666,0.7458545724,-1.9278,1.3514,-2.1693,-4.999999999988347e-05,9.999999999998899e-05,-7.999999999996898e-05,0.000401500668650856,0.00011676165351315326,-0.00016629068575779726
150000000000.0,3,-0.06102678295,0.008433719,0.04237453465,-0.010733,-0.011847,-0.009216,-1.9996740014999999,-9.5715845995,0.7456192128,-1.9277,1.3514,-2.1696,9.999999999998899e-05,-5.0000000000105516e-05,2.999999999997449e-05,0.00040344987989282544,0.00016288695050481472,0.00030114371787881566
150000000000.0,3,-0.06540054884999999,0.043688625749999994,0.030400614999999995,-0.001137,-0.014055,-0.011328,-1.9997720679999997,-9.5715845995,0.74606051205,-1.9279,1.3514,-2.1695,5.0000000000105516e-05,-4.999999999988347e-05,2.0000000000020002e-05,-0.000646175796404691,-0.0004674936224371429,-0.0005049420795248949
150000000000.0,3,-0.08735763819999999,0.0907703524,0.004354152599999999,0.003189,-0.010887,-0.017726,-1.9997720679999997,-9.571486533,0.7466783309999999,-1.9281,1.3514,-2.1694,4.999999999988347e-05,-4.999999999988347e-05,2.999999999997449e-05,-0.0007056672693954713,-4.6263806058988166e-05,0.0006429513044934332
150000000000.0,3,-0.1230734575,0.105127288,-0.0097085835,0.011782,-0.005626,-0.020917,-2.000164334,-9.5713884665,0.7477178358999998,-1.9285,1.3513,-2.169,9.999999999998899e-05,-5.0000000000105516e-05,2.999999999997449e-05,0.00018565217909682907,-0.00019164903464519156,-0.0001492487467857906
150000000000.0,3,-0.1250544008,0.09038789304999999,-0.00756092715,0.010802,0.001848,-0.026263,-2.0000662675,-9.571290399999999,0.74870830755,-1.929,1.3513,-2.1686,9.999999999998899e-05,-5.0000000000105516e-05,-5.999999999994898e-05,-0.0006417279986195012,-0.00020348073269560452,0.00022497893460027285
150000000000.0,3,-0.10937356744999999,0.04490465034999999,0.02003498595,0.010823,0.005044,-0.025197,-1.9996740014999999,-9.571290399999999,0.75000278535,-1.9296,1.3513,-2.1678,9.999999999998899e-05,-4.999999999988347e-05,2.999999999997449e-05,-0.0004207769471895606,-0.0001657330826654313,0.00017788246029626364
150000000000.0,3,-0.10303847155,-0.0041580196,0.03348970975,0.006538,0.004011,-0.023064,-1.9990856025,-9.571290399999999,0.7512090033,-1.9303,1.3513,-2.1672,9.999999999998899e-05,9.999999999998899e-05,-9.99999999995449e-06,0.0012413374867581428,-0.00018928999022782556,-5.118219456567985e-05
150000000000.0,3,-0.09735061454999999,-0.047081726649999996,0.01515127425,0.006483,-0.000255,-0.018784,-1.99859527,-9.571290399999999,0.75204256855,-1.9307,1.3513,-2.1667,9.999999999998899e-05,-0.00019999999999997797,0.00012000000000000899,-0.001699205156576511,-0.0007067714716524343,0.00025200468259178876
150000000000.0,3,-0.09034866645,-0.0647435033,0.0105323421,0.010712,-0.002425,-0.0145,-1.9983010705,-9.571290399999999,0.7530624601499999,-1.9312,1.3513,-2.1662,9.999999999998899e-05,-3.333333333332966e-05,0.00017000000000000348,0.001192963200177033,4.8703787463910686e-05,-0.0009563812919060055
150000000000.0,3,-0.0634097989,-0.039638479299999994,0.02113333075,0.011758,-0.004566,-0.013425,-1.997810738,-9.571290399999999,0.75459229755,-1.9319,1.3513,-2.1655,4.999999999988347e-05,-3.333333333332966e-05,-8.000000000008001e-05,-0.0011271331708431198,0.0003786240760763615,0.00041917230530819083
150000000000.0,3,-0.04680714045,-0.015357213899999998,0.0106696352,0.009576,-0.009877,-0.01235,-1.997222339,-9.571290399999999,0.7557690955499999,-1.9326,1.3513,-2.1649,5.0000000000105516e-05,-3.333333333332966e-05,-2.999999999997449e-05,-0.0002441897622977862,0.00021113915174519882,0.0002016105148276992
150000000000.0,3,-0.023928225999999997,0.00485429175,-0.0048837117,0.001055,-0.008739,-0.013434,-1.9963397404999998,-9.571486533,0.7560632950499999,-1.9328,1.3514,-2.1647,0.00010000000000021103,2.4999999999941735e-05,4.0000000000040004e-05,-0.0011341719067341494,-7.988161839356245e-05,0.0003221562809119227
150000000000.0,3,-0.0105323421,-0.012042566199999999,-0.02693886755,-0.003191,-0.006572,-0.014512,-1.995064876,-9.571780732499999,0.7555239292999999,-1.9328,1.3515,-2.1648,3.333333333332966e-05,2.4999999999941735e-05,-5.000000000032756e-06,0.00028371768283763643,-0.00022628677706459932,-5.0627543535686215e-05
150000000000.0,3,-0.0039520799499999995,-0.014896301349999998,-0.0293414968,-0.009574,-0.005451,-0.01666,-1.9933977455,-9.572271064999999,0.75433732465,-1.9326,1.3517,-2.1651,3.333333333332966e-05,2.500000000016378e-05,-5.000000000032756e-06,0.001149680895200511,0.0001109862975905429,-0.00046526706693672537
150000000000.0,3,0.00559959715,-0.030273128549999997,-0.0019417166999999998,-0.01172,-0.007563,-0.017727,-1.9914364155,-9.572761397499999,0.7534253061999999,-1.9325,1.3519,-2.1652,3.333333333332966e-05,2.4999999999941735e-05,-9.99999999995449e-06,0.0006735371149937386,0.0002487785899667472,0.00026446319188311307
150000000000.0,3,0.0034127142,-0.05224002455,0.00844352565,-0.014962,-0.010737,-0.014526,-1.989573152,-9.5731536635,0.75231715475,-1.9323,1.3522,-2.1655,4.999999999988347e-05,-9.999999999998899e-05,2.999999999997449e-05,-0.001293132031281452,-0.0005573464740658007,0.0002851316946026472
150000000000.0,3,-0.021349077049999998,-0.0589575798,0.0063350959,-0.01502,-0.016067,-0.011314,-1.9883963539999998,-9.5735459295,0.7512776498499999,-1.932,1.3523,-2.1659,5.0000000000105516e-05,9.999999999998899e-05,-9.99999999995449e-06,0.0007717868596688326,0.00010333805805373686,-0.0002858911819481058
150000000000.0,3,-0.0360492454,-0.05342662919999999,0.01293497135,-0.011875,-0.02036,-0.00703,-1.988004088,-9.573643996,0.7506598309,-1.9318,1.3524,-2.1663,-1.4285714285744433e-05,5.0000000000105516e-05,3.999999999992898e-05,-0.00013687898595504677,-5.511705103056208e-05,-6.107782913522541e-05
150000000000.0,3,-0.030076995549999996,-0.023408473549999996,0.0029910282499999996,-0.013017,-0.027813,-0.003816,-1.9878079549999998,-9.5737420625,0.7499929787,-1.9316,1.3524,-2.1669,-1.4285714285744433e-05,4.999999999988347e-05,1.0000000000065512e-05,0.001087562431122624,0.0004853648475415806,-0.0006113643829803728
150000000000.0,3,-0.023065240799999998,-0.00208881645,-0.011130547749999999,-0.014129,-0.032068,-0.001675,-1.9878079549999998,-9.573840128999999,0.7491496068,-1.9312,1.3525,-2.1676,-1.4285714285744433e-05,1.6666666666775853e-05,-1.0000000000065512e-05,-0.00042215349912533284,0.00019193186216481806,3.6498986289768e-05
150000000000.0,3,-0.013807763199999998,-0.003726527,-0.019348520449999997,-0.017351,-0.035237,-0.002742,-1.9874156889999999,-9.573938195499998,0.7479335822,-1.9307,1.3525,-2.1684,-1.4285714285522388e-05,1.666666666655381e-05,-9.99999999995449e-06,-0.0001922393452837845,-0.0006743096776822277,5.922787176704247e-06
150000000000.0,3,-0.0037069137,-0.01228773245,-0.01850514855,-0.017344,-0.036299,-0.005942,-1.986631157,-9.574232395,0.7466391043999999,-1.9303,1.3527,-2.1692,-1.4285714285744433e-05,1.666666666655381e-05,-2.999999999997449e-05,0.0006763441511941082,0.0008636887409276817,-0.0005369327848452343
150000000000.0,3,-0.01442558215,-0.0317539327,-0.013327237349999998,-0.014145,-0.038453,-0.009134,-1.9856504919999998,-9.5745265945,0.74564863275,-1.93,1.3528,-2.1699,-1.4285714285744433e-05,1.6666666666775853e-05,9.99999999995449e-06,-5.07141308123682e-05,3.1104412409277415e-05,-0.0003045642039056773
150000000000.0,3,-0.022643554849999997,-0.02099603765,-0.01572005995,-0.01414,-0.038452,-0.010201,-1.9845717604999997,-9.574820793999999,0.7447562275999999,-1.9298,1.3529,-2.1705,-1.4285714285744433e-05,1.6666666666775853e-05,-4.0000000000040004e-05,1.0380288082423306e-06,0.00040045884448436375,-0.0002144440823643734
150000000000.0,3,-0.04763089905,0.0065704555,-0.021427530249999997,-0.012011,-0.039533,-0.011261,-1.9839833614999998,-9.575016927,0.7440305355,-1.9296,1.353,-2.1711,9.999999999998899e-05,1.666666666655381e-05,-9.99999999995449e-06,0.0001541046135398183,6.897372864345108e-05,-0.0003801281523765354
150000000000.0,3,-0.07081381965,0.025781682849999998,-0.0191033542,-0.007727,-0.037437,-0.011254,-1.9838852949999999,-9.575016927,0.74364807615,-1.9294,1.353,-2.1716,2.4999999999941735e-05,-3.333333333332966e-05,2.999999999997449e-05,0.0006809392569058215,-0.00048588652835457324,-0.0005240803133630401
150000000000.0,3,-0.08649465299999999,0.0536031489,-0.00383440015,-0.000212,-0.034297,-0.015512,-1.9837872284999998,-9.575016927,0.7440893754,-1.9297,1.353,-2.1718,2.500000000016378e-05,-3.333333333332966e-05,-8.999999999992347e-05,-0.00027301956094616386,0.0003148217790602814,2.2864960257162892e-05
150000000000.0,3,-0.10773585689999998,0.05984017829999999,0.00210842975,0.002029,-0.023654,-0.019792,-1.9837872284999998,-9.575016927,0.7447366142999999,-1.9299,1.353,-2.1717,2.4999999999941735e-05,-3.333333333332966e-05,2.999999999997449e-05,-0.0001551240653969721,-0.0007841781717849994,3.891291957236476e-05
150000000000.0,3,-0.12166129989999999,0.051886985149999995,-0.00640374245,0.004227,-0.018339,-0.024062,-1.9835910955,-9.574918860499999,0.7454721130499999,-1.9303,1.353,-2.1716,2.4999999999941735e-05,-3.333333333332966e-05,-1.0000000000065512e-05,0.000712917937648605,0.000413628664814647,-0.00031916077839966306
150000000000.0,3,-0.11639512884999999,0.03621595845,-0.023212340550000002,0.005335,-0.01302,-0.024065,-1.9831988294999998,-9.575016927,0.7459624455499999,-1.9306,1.353,-2.1714,-9.999999999998899e-05,-3.333333333332966e-05,2.0000000000020002e-05,0.0007853370398267501,0.0007964979275816297,-0.0011329330008189586
150000000000.0,3,-0.10997177309999999,0.022800461249999997,-0.019917306149999998,0.008522,-0.014112,-0.022986,-1.982708497,-9.575016927,0.7465606511999999,-1.9309,1.353,-2.1712,2.4999999999941735e-05,-3.333333333332966e-05,1.0000000000065512e-05,0.00023108874031030346,-0.0006628796025789363,-0.0004078901139314972
150000000000.0,3,-0.09925310464999999,0.011405133949999998,0.0032067745499999994,0.011727,-0.010946,-0.018712,-1.9823162309999998,-9.575016927,0.74782570905,-1.9315,1.353,-2.1706,2.500000000016378e-05,-5.0000000000105516e-05,7.00000000000145e-05,0.0010066655381557599,0.0007606712504930613,-0.0008821063695942932
150000000000.0,3,-0.08305251885,-0.016465365349999997,0.00253992235,0.012769,-0.012023,-0.015503,-1.981923965,-9.575016927,0.7493947730499999,-1.9323,1.353,-2.17,2.4999999999941735e-05,-4.999999999988347e-05,-4.0000000000040004e-05,-0.0003630928159936708,-0.00012577576300043525,4.1697690007058696e-05
150000000000.0,3,-0.08146384155,-0.03176373935,-0.004716998649999999,0.013797,-0.016294,-0.014423,-1.9816297655,-9.574918860499999,0.75080693065,-1.933,1.353,-2.1694,2.4999999999941735e-05,-3.333333333332966e-05,-2.999999999997449e-05,-0.00020043008889958358,-0.0008607891309166948,0.00025553076360695925
150000000000.0,3,-0.0802772369,-0.027429200049999998,-0.0194956202,0.008479,-0.014119,-0.014434,-1.9812374994999997,-9.574918860499999,0.7516797224999999,-1.9334,1.353,-2.1691,3.333333333332966e-05,-3.333333333332966e-05,9.99999999995449e-06,0.0010580783418312478,0.0007184371143893475,-0.0003327764814784473
150000000000.0,3,-0.0838272442,-0.0315970263,-0.010787315,0.004216,-0.014082,-0.015505,-1.9808452335,-9.575016927,0.7523956079499999,-1.9338,1.353,-2.1689,3.333333333332966e-05,-3.333333333332966e-05,-4.999999999999449e-05,-0.000712151278460027,-0.0002620846070398031,4.143512928145299e-05
150000000000.0,3,-0.05995785809999999,-0.027517459899999996,-0.02897865075,-5.6e-05,-0.01511,-0.016576,-1.9800607015,-9.57521306,0.752170055,-1.9338,1.3531,-2.169,3.333333333332966e-05,-3.333333333332966e-05,1.0000000000065512e-05,0.000839010197894785,-0.00045072641517096557,0.0001153627216123887
150000000000.0,3,-0.05586848504999999,-0.0173577705,-0.04833697785,-0.004271,-0.009745,-0.018726,-1.9790800364999999,-9.575409192999999,0.75118939,-1.9336,1.3532,-2.1693,-6.666666666665932e-05,-3.333333333332966e-05,9.99999999995449e-06,0.00018444945470474927,0.0005186316569825156,-0.0001278301497618095
150000000000.0,3,-0.06080122999999999,-0.0051386846,-0.035892338999999995,-0.004307,-0.014006,-0.018716,-1.978197438,-9.5757033925,0.750404858,-1.9334,1.3533,-2.1696,-6.666666666665932e-05,-3.333333333332966e-05,3.999999999992898e-05,-0.0007499822383287835,-0.000372899740628041,2.528339998164597e-05
150000000000.0,3,-0.0382851616,-0.00591340995,-0.007286340949999999,-0.006423,-0.009729,-0.015523,-1.9770206399999999,-9.575997592,0.74994394545,-1.9334,1.3535,-2.1697,-6.666666666665932e-05,-3.333333333332966e-05,-5.999999999994898e-05,0.0019260542418373383,0.001691621143305344,-0.0009052559194944187
150000000000.0,3,-0.036755324199999995,-0.019642719949999998,0.01670072495,-0.002177,-0.011897,-0.014444,-1.976039975,-9.576193725,0.75019891835,-1.9336,1.3536,-2.1696,9.999999999998899e-05,-3.333333333332966e-05,9.99999999995449e-06,-0.0004548293150303806,-0.0006010537219125478,0.00016727218484735573
150000000000.0,3,-0.03064578125,-0.0280077924,0.011003061299999999,-0.001168,-0.017236,-0.011229,-1.9750593099999998,-9.5762917915,0.7505029245,-1.9339,1.3536,-2.1694,-9.999999999998899e-05,-3.333333333332966e-05,4.999999999999449e-05,0.0006789961552264856,0.0011583255636384848,-0.0010270508857113114
150000000000.0,3,-0.036088471999999996,-0.00563882375,-0.01018910935,0.004129,-0.020478,-0.009078,-1.9745689775,-9.576389858,0.7508951905,-1.9342,1.3537,-2.1694,5.0000000000105516e-05,-5.0000000000105516e-05,1.0000000000065512e-05,0.00014119344476926088,0.0001453442133010352,-8.04312859901124e-05
150000000000.0,3,-0.03677493749999999,0.0165732385,-0.0128859381,0.004131,-0.021542,-0.011209,-1.9740786449999999,-9.5764879245,0.7515032028,-1.9345,1.3537,-2.1692,4.999999999988347e-05,-4.999999999988347e-05,-6.0000000000060005e-05,-0.0016921498692892278,-0.0013258625547285519,0.0008845978994176384
150000000000.0,3,-0.03082230095,0.02205515585,-0.01058137535,0.005211,-0.020483,-0.012276,-1.973294113,-9.576585991,0.7523367680499999,-1.935,1.3537,-2.1689,-9.999999999998899e-05,-4.999999999988347e-05,-6.999999999990347e-05,0.0003147000040910619,0.0005235148063018613,-0.0003646529403709131
150000000000.0,3,-0.040815277299999994,0.0243989452,-0.004314926,0.004193,-0.015146,-0.013352,-1.972509581,-9.5766840575,0.752954587,-1.9354,1.3538,-2.1687,5.0000000000105516e-05,-5.0000000000105516e-05,2.999999999997449e-05,-0.0006058491703364588,-0.00036945080744454906,3.743907404407665e-05
150000000000.0,3,-0.044100505049999995,0.0004707192,0.01220927925,-0.004292,-0.01081,-0.016575,-1.9716269825,-9.5768801905,0.7531801399499999,-1.9357,1.3539,-2.1685,4.999999999988347e-05,-5.0000000000105516e-05,3.999999999992898e-05,0.0013926345570205445,-0.00037724784531589783,-5.728569727736499e-05
150000000000.0,3,-0.05526047275,-0.023153500649999995,0.0171224109,-0.004328,-0.014009,-0.014433,-1.9708424505,-9.576978256999999,0.75321936655,-1.9358,1.354,-2.1685,3.333333333332966e-05,-4.999999999988347e-05,-0.00011999999999989797,-0.0013106055963294505,-0.0001247223141054299,0.0006467330342165845
150000000000.0,3,-0.0816501679,-0.033872169099999995,0.017191057449999998,-0.001113,-0.012968,-0.015494,-1.9704501844999998,-9.577076323499998,0.7534449194999999,-1.936,1.354,-2.1685,3.333333333332966e-05,-4.999999999988347e-05,5.999999999994898e-05,0.0017038114050911268,0.0005912213517826892,-0.0013603427145265634
150000000000.0,3,-0.09492837199999998,-0.03029274185,0.0136704701,0.007442,-0.01197,-0.017612,-1.9702540515,-9.577076323499998,0.7542686780999999,-1.9364,1.354,-2.1682,3.333333333332966e-05,-5.0000000000105516e-05,4.0000000000040004e-05,-0.0008557981874868226,-0.00041982740346724334,0.0003052938352801071
150000000000.0,3,-0.07589366435,-0.00034323274999999994,0.0101596894,0.008509,-0.011979,-0.017607,-1.9696656524999998,-9.577076323499998,0.75553373595,-1.9371,1.354,-2.1676,3.333333333332966e-05,-5.0000000000105516e-05,-2.0000000000020002e-05,-0.0003317330637973015,0.00019430867765080073,-0.00013843996677476156
150000000000.0,3,-0.04735631285,0.0283216052,-0.0025889556,0.006348,-0.014094,-0.01547,-1.9688811204999999,-9.57717439,0.7564555610499999,-1.9376,1.354,-2.1672,3.333333333332966e-05,-4.999999999988347e-05,-2.0000000000020002e-05,4.636688071268935e-05,0.00047299658590227445,0.00010254850267443771
150000000000.0,3,-0.045483242699999996,0.0320285189,-0.0032754210999999997,0.003139,-0.015133,-0.015472,-1.9679985219999998,-9.5772724565,0.75714202655,-1.9381,1.3541,-2.1669,3.333333333332966e-05,-4.999999999988347e-05,0.00012999999999996348,0.000767957990539081,-0.0012725585150017427,-0.0006074674057261475
150000000000.0,3,-0.05943810565,0.028331411849999998,-0.00169655045,0.003156,-0.013002,-0.015473,-1.9675081895,-9.5772724565,0.7578186854,-1.9384,1.3541,-2.1666,-9.999999999998899e-05,-5.0000000000105516e-05,-2.999999999997449e-05,-0.0006462438332999199,0.0004638825644773803,4.645805423209026e-05
150000000000.0,3,-0.0657437816,0.016239812399999998,0.0008629851999999999,0.007432,-0.011971,-0.015465,-1.9671159234999998,-9.577370522999999,0.7587012839,-1.9389,1.3541,-2.1662,5.0000000000105516e-05,-9.999999999998899e-05,2.999999999997449e-05,0.0013376583186430757,0.00021714203656331144,-0.000623313591625152
150000000000.0,3,-0.07992419749999999,0.01860321505,-0.0007060788,0.0096,-0.007726,-0.015466,-1.9668217239999997,-9.5772724565,0.7598192419999998,-1.9395,1.3541,-2.1658,4.999999999988347e-05,-9.999999999998899e-05,-9.99999999995449e-06,-0.00176479218323089,-0.0012439879116405983,0.0008901760133790404
150000000000.0,3,-0.09052518614999999,0.011983726299999999,0.004344345949999999,0.008587,-0.002387,-0.017608,-1.9665275245,-9.5772724565,0.7608979735,-1.94,1.3541,-2.1653,9.999999999998899e-05,-5.0000000000105516e-05,7.00000000000145e-05,-0.00010320297991350813,-0.00021049701064290716,0.0002978045590928957
150000000000.0,3,-0.10172438045,-0.023928225999999997,0.00222610955,0.002228,0.002993,-0.017625,-1.966429458,-9.5772724565,0.7612215929499999,-1.9401,1.3541,-2.1651,3.333333333332966e-05,-4.999999999988347e-05,-7.00000000000145e-05,1.4295394517471749e-05,0.00021824959144489675,0.00023118812878486494
150000000000.0,3,-0.1152869774,-0.040158231749999995,0.0065704555,0.001132,0.001933,-0.013351,-1.9668217239999997,-9.57717439,0.7612215929499999,-1.9401,1.3541,-2.1651,3.333333333332966e-05,-9.999999999998899e-05,2.999999999997449e-05,-0.000549152592446811,-0.0001369554674868212,0.0005691081165317691
150000000000.0,3,-0.12116116074999998,-0.04943532265,0.030214288649999997,0.001119,0.000867,-0.012277,-1.9673120565,-9.577076323499998,0.76167269885,-1.9402,1.354,-2.165,3.333333333332966e-05,-5.0000000000105516e-05,-2.0000000000020002e-05,-0.0005765705710731872,-3.1606544363960154e-06,0.000526360526511116
150000000000.0,3,-0.10291098509999999,-0.04150174279999999,0.02705654735,0.003251,0.001913,-0.010137,-1.967802389,-9.5768801905,0.76228071115,-1.9404,1.3539,-2.1648,-9.999999999998899e-05,-4.999999999988347e-05,-7.00000000000145e-05,0.0005290068224841349,0.0004276649660452936,-0.0001986608340311946
150000000000.0,3,-0.08099312235,-0.029508209849999998,0.034176175249999996,0.001065,-0.0034,-0.007994,-1.9681946549999998,-9.576782124,0.7629377567,-1.9406,1.3539,-2.1646,3.333333333332966e-05,-6.666666666665932e-05,-9.99999999995449e-06,-0.0001645568692789645,-0.0001098568171311598,0.0003137848787324593
150000000000.0,3,-0.056349010899999996,-0.0005295590999999999,0.0303810017,-0.003218,-0.005496,-0.007995,-1.9682927215,-9.5766840575,0.76330060275,-1.9407,1.3538,-2.1644,3.333333333332966e-05,-6.666666666688137e-05,-9.99999999995449e-06,0.0005551267684791306,0.0005070755757892176,-0.00024047950847227995
150000000000.0,3,-0.03458805455,0.010522535449999999,0.032705177749999995,-0.002186,-0.008703,-0.005852,-1.9681946549999998,-9.5766840575,0.76381054855,-1.941,1.3538,-2.1643,3.333333333332966e-05,-6.666666666665932e-05,-7.00000000000145e-05,-0.003690144534608031,-0.000755256817415173,0.0021689794154369224
150000000000.0,3,-0.0312047603,0.00354020065,0.02480101785,-0.00327,-0.012954,-0.009047,-1.967802389,-9.576782124,0.76408513475,-1.9412,1.3538,-2.1642,0.00019999999999997797,-1.4285714285744433e-05,-0.0001100000000000545,-9.689167517312747e-05,-0.0009547067872830439,0.0008082591106308712
150000000000.0,3,-0.0242616521,0.0001176798,0.0082179727,-0.003268,-0.014017,-0.011179,-1.9669197904999998,-9.5768801905,0.7642126211999999,-1.9414,1.3539,-2.1642,4.999999999988347e-05,-1.4285714285744433e-05,4.0000000000040004e-05,0.0003159739407661011,-0.0005579071699854943,-6.263445927334743e-05
150000000000.0,3,-0.0007256920999999999,0.0012748644999999999,0.0042462794499999994,-0.004346,-0.016138,-0.012245,-1.965644926,-9.57717439,0.7642910744,-1.9416,1.354,-2.1641,5.0000000000105516e-05,-1.4285714285744433e-05,-7.999999999996898e-05,7.3033556809321e-05,-0.0003775163286201533,0.0003384043967376016
150000000000.0,3,-0.00138273765,-0.0156318001,0.021839409549999998,-0.009674,-0.016093,-0.013322,-1.964271995,-9.577468589499999,0.7640557147999999,-1.9418,1.3542,-2.1641,-9.999999999998899e-05,-1.4285714285522388e-05,-3.0000000000085514e-05,-6.066285042605202e-05,0.0012106737561590197,-0.0004536273343513919
150000000000.0,3,-0.0165340119,-0.01877973475,0.0303810017,-0.007538,-0.017174,-0.01545,-1.962899064,-9.577762789,0.7640361014999999,-1.942,1.3543,-2.164,9.999999999998899e-05,-1.4285714285744433e-05,3.0000000000085514e-05,0.00036236136891631965,-2.385921373138089e-06,3.6874985182233644e-05
150000000000.0,3,-0.03521568015,-0.01726951065,0.0459147353,-0.005391,-0.015062,-0.014382,-1.9618203324999999,-9.577958921999999,0.7645166273499999,-1.9424,1.3544,-2.1638,1.666666666655381e-05,-1.4285714285744433e-05,2.999999999997449e-05,-0.000443518673671095,-0.0005976438619934576,0.00013930423021291105
150000000000.0,3,-0.0429923536,-0.016288845649999998,0.051426072600000004,-0.001166,-0.019362,-0.012231,-1.9611338669999998,-9.578056988499998,0.7654482590999999,-1.9429,1.3544,-2.1634,1.6666666666775853e-05,-1.4285714285744433e-05,9.99999999995449e-06,-0.0005578785322506441,0.0001543779433572645,-0.00020784208029089868
150000000000.0,3,-0.0639981979,-0.0015298374,0.037265269999999996,-0.003314,-0.019348,-0.00903,-1.9610358005,-9.577958921999999,0.7662818243499999,-1.9433,1.3544,-2.1633,1.6666666666775853e-05,9.090909090847532e-06,-7.00000000000145e-05,0.00019365654482994543,0.0003656058909971005,4.1210244523970374e-05
150000000000.0,3,-0.07587405104999999,0.011532620399999999,0.046571780849999994,-0.005426,-0.016135,-0.007969,-1.96133,-9.577860855499999,0.76700751645,-1.9436,1.3544,-2.1632,1.666666666655381e-05,9.090909091069577e-06,3.0000000000085514e-05,0.0006720610160630969,0.00022730247664237702,-0.0003810870783818032
150000000000.0,3,-0.07688413599999999,0.01062060195,0.043737659,-0.002235,-0.016163,-0.005825,-1.9618203324999999,-9.5776647225,0.7677430151999999,-1.9438,1.3543,-2.1631,1.666666666655381e-05,9.090909090847532e-06,-1.0000000000065512e-05,-0.000694774570688228,-0.00015363353393316181,0.00048251528096576735
150000000000.0,3,-0.06498866955,0.0135135637,0.03733391655,-0.001116,-0.011907,-0.009031,-1.9620164654999999,-9.577566655999998,0.76845890065,-1.9441,1.3542,-2.1629,1.6666666666775853e-05,9.090909090847532e-06,1.0000000000065512e-05,0.0004516642630436607,-0.00017895969642722775,-0.00025631255469171776
150000000000.0,3,-0.0636451585,-0.0005295590999999999,0.05427000109999999,-0.001145,-0.015105,-0.007955,-1.962114532,-9.577468589499999,0.7696356986499999,-1.9446,1.3542,-2.1626,4.999999999988347e-05,9.090909090847532e-06,-5.000000000032756e-06,-0.00031535739900512283,-0.00010945568787112947,0.00019021840127031453
150000000000.0,3,-0.06177208835,-0.00507003805,0.046444294399999995,-0.00536,-0.008677,-0.007972,-1.9622125984999998,-9.577370522999999,0.77012603115,-1.9448,1.3542,-2.1625,5.0000000000105516e-05,9.090909091069577e-06,-5.000000000032756e-06,3.848756346602755e-05,0.00028525107427501695,9.553116808902473e-05
150000000000.0,3,-0.0573689025,-0.0274978466,0.03539219984999999,-0.007509,-0.01079,-0.00797,-1.962114532,-9.577468589499999,0.77010641785,-1.9448,1.3542,-2.1626,-9.999999999998899e-05,9.090909090847532e-06,-9.99999999995449e-06,6.347506147896809e-05,0.00032617407786550423,-0.0003792221941925078
150000000000.0,3,-0.057006056449999995,-0.0407564374,0.015367020549999999,-0.008624,-0.01611,-0.006893,-1.9620164654999999,-9.577468589499999,0.7696258919999999,-1.9446,1.3542,-2.1629,9.999999999998899e-05,9.090909090847532e-06,4.999999999999449e-05,0.00012078457335373827,-0.00023192419294382205,0.00010665929233599769
150000000000.0,3,-0.0547407203,-0.027850886,0.018907221199999998,-0.008657,-0.020372,-0.006883,-1.9619183989999998,-9.577566655999998,0.7693807257499999,-1.9445,1.3542,-2.1632,1.999999999990898e-05,9.090909090847532e-06,-2.0000000000020002e-05,-0.00019553317440190732,2.020966038007721e-05,0.00018600503513166444
150000000000.0,3,-0.049955075099999996,-0.006717555249999999,0.020505705149999998,-0.011883,-0.023542,-0.006882,-1.9619183989999998,-9.577566655999998,0.76898845975,-1.9443,1.3542,-2.1636,2.0000000000131024e-05,9.090909091069577e-06,2.999999999997449e-05,0.0011690143418336962,0.00027847831449800964,-0.0008790084020895428
150000000000.0,3,-0.040207265,0.0016475171999999999,0.00013729309999999998,-0.011869,-0.022475,-0.007949,-1.9616241995,-9.5776647225,0.76810586125,-1.944,1.3543,-2.1642,1.999999999990898e-05,9.090909090847532e-06,2.999999999997449e-05,0.0011688005273993163,0.00027950095560203003,-0.0008787052090872827
150000000000.0,3,-0.01572005995,0.012797678249999998,-0.0013140911,-0.01185,-0.021407,-0.010085,-1.9608396674999997,-9.577958921999999,0.7673115225999999,-1.9438,1.3544,-2.1646,2.0000000000131024e-05,1.666666666655381e-05,2.5000000000052758e-05,-9.351972410165388e-05,-0.00017510892491756636,-7.021727195688499e-05
150000000000.0,3,-0.023428086849999998,0.01464132845,0.00954187045,-0.009713,-0.022488,-0.012213,-1.9600551354999998,-9.578155055,0.7669290632499999,-1.9438,1.3545,-2.1649,1.999999999990898e-05,1.6666666666775853e-05,2.5000000000052758e-05,-9.350585453038462e-05,-0.00017511561014016408,-7.019968015686828e-05
150000000000.0,3,-0.0505238608,0.00907115125,-0.00099047165,-0.006521,-0.02358,-0.012204,-1.959564803,-9.5782531215,0.76669370365,-1.9437,1.3545,-2.1651,2.4999999999941735e-05,1.6666666666775853e-05,9.99999999995449e-06,-0.00022180529222559642,4.358386114233781e-07,-0.00011085008019495746
150000000000.0,3,-0.0694703086,0.0078845466,0.015229727449999998,-0.006486,-0.019318,-0.012208,-1.9594667364999998,-9.5782531215,0.7667721568499999,-1.9438,1.3546,-2.1653,2.4999999999941735e-05,1.666666666655381e-05,-4.0000000000040004e-05,0.0002523729922989659,5.68838624113166e-05,7.507355476121802e-05
150000000000.0,3,-0.08316039199999999,-0.005462304049999999,0.021829602899999998,-0.005399,-0.016131,-0.011142,-1.959564803,-9.5782531215,0.7669094499499999,-1.9438,1.3545,-2.1654,2.500000000016378e-05,1.666666666655381e-05,3.500000000000725e-05,-2.4621865706286883e-06,-0.00016950015778727234,-0.0001022175357765498
150000000000.0,3,-0.09178043735,-0.006148769549999999,0.0292042037,-0.001121,-0.0151,-0.011132,-1.9597609359999997,-9.578155055,0.7674684289999999,-1.9441,1.3545,-2.1653,2.4999999999941735e-05,1.6666666666775853e-05,3.500000000000725e-05,0.0005947147251705864,0.00017508729366477738,-0.00039308936916482295
150000000000.0,3,-0.104735022,-0.01738719045,0.028811937699999998,-4.2e-05,-0.012979,-0.010063,-1.9602512685,-9.577958921999999,0.7681548945,-1.9443,1.3544,-2.1653,3.333333333332966e-05,-9.999999999998899e-05,-2.999999999997449e-05,-0.0014003313927357652,-0.00022406202079916504,0.0005080786752404975
150000000000.0,3,-0.10312673139999999,0.0039814999,0.0302633219,-4.1e-05,-0.012978,-0.010059,-1.9608396674999997,-9.577762789,0.7689492331499999,-1.9445,1.3543,-2.1651,3.333333333332966e-05,9.999999999998899e-05,9.99999999995449e-06,8.755008507010942e-05,-4.457586560513427e-05,0.00014152772345843445
150000000000.0,3,-0.10093004180000001,0.0027458619999999995,0.0327738243,-0.002161,-0.010831,-0.008995,-1.961526133,-9.577566655999998,0.7695866654,-1.9447,1.3542,-2.1651,3.333333333332966e-05,1.6666666666775853e-05,-1.4999999999987246e-05,0.0008742164537705044,0.00012454678649964634,-0.00018995258553955452
150000000000.0,3,-0.0661164343,0.012434832199999999,0.0114933938,-0.002192,-0.014028,-0.007919,-1.9616241995,-9.577566655999998,0.7697631850999999,-1.9447,1.3542,-2.1651,3.333333333332966e-05,1.666666666655381e-05,-1.4999999999987246e-05,-0.00014952248182664718,0.00017804837679458174,-0.00012566407169822824
150000000000.0,3,-0.0480721983,-0.00040207264999999996,0.00540346415,-0.002206,-0.017222,-0.010046,-1.9614280665,-9.577566655999998,0.76987105825,-1.9448,1.3542,-2.1652,3.333333333332966e-05,1.6666666666775853e-05,2.999999999997449e-05,-0.0003383684932360964,-0.0002043286305117853,-0.00020693062295507048
150000000000.0,3,-0.04200188195,0.0017455836999999998,0.01036562905,-0.002197,-0.016156,-0.010047,-1.9610358005,-9.5776647225,0.77014564445,-1.945,1.3543,-2.1652,3.333333333332966e-05,1.6666666666775853e-05,-9.99999999995449e-06,-0.0005963389687435594,-0.00021522129567497217,0.0004955093093856888
150000000000.0,3,-0.0364022848,0.006952914849999999,0.00043149259999999994,-0.004334,-0.017203,-0.011114,-1.9605454679999998,-9.577762789,0.7700573846,-1.9451,1.3543,-2.1653,5.0000000000105516e-05,1.666666666655381e-05,-9.99999999995449e-06,0.0006599298262044417,0.0005585133193521941,-0.00026095464680198077
150000000000.0,3,-0.03727507665,0.0014611908499999999,-0.01879934805,-0.005366,-0.013995,-0.013255,-1.9597609359999997,-9.577958921999999,0.7695376321499999,-1.945,1.3544,-2.1655,4.999999999988347e-05,1.6666666666775853e-05,4.999999999999449e-05,0.0003611731557897624,-0.0008651603248559514,-0.00030567843140660855
150000000000.0,3,-0.03762811605,-0.0056486304,-0.02774301285,-0.005366,-0.013995,-0.013254,-1.9589764039999997,-9.578155055,0.7687432934999999,-1.9448,1.3545,-2.1658,3.333333333332966e-05,-2.4999999999941735e-05,-2.0000000000020002e-05,0.0005283843031786972,-6.859997982266997e-05,-0.0003316595599383021
150000000000.0,3,-0.0459735752,-0.010071429549999998,-0.0360296321,-0.003229,-0.01401,-0.014315,-1.9582899384999999,-9.578449254499999,0.7679097282499999,-1.9445,1.3546,-2.1662,3.333333333332966e-05,-2.500000000016378e-05,-2.0000000000020002e-05,-0.0013649770271624284,0.00030205626367840743,0.0008615217599179381
150000000000.0,3,-0.0497589421,-0.0067862018,-0.03881472069999999,-6.3e-05,-0.01617,-0.011102,-1.957799606,-9.578547321,0.76739978245,-1.9444,1.3547,-2.1665,3.333333333332966e-05,-2.500000000016378e-05,-4.999999999999449e-05,0.00036027497148216625,-0.0006655307415948108,0.00011359838612223783
150000000000.0,3,-0.047199406449999995,0.00812971285,-0.027576299799999995,0.001058,-0.015993,-0.012024,-1.9573092734999997,-9.5786453875,0.7672330693999999,-1.9444,1.3547,-2.1666,-9.999999999998899e-05,-2.4999999999941735e-05,5.999999999994898e-05,-0.000473148281010749,0.00038857347964538214,-0.0005046929058365457
150000000000.0,3,-0.033538742999999996,0.0030302548499999997,-0.021937476049999998,-4.3e-05,-0.020246,-0.012017,-1.9566228079999999,-9.578743454,0.76728210265,-1.9445,1.3548,-2.1667,9.999999999998899e-05,5.0000000000105516e-05,1.0000000000065512e-05,0.00030972581356780715,-0.00035189933658985595,-0.00029009007061953085
150000000000.0,3,-0.041011410299999995,-0.01468055505,-0.015406247149999998,-0.002211,-0.022362,-0.008813,-1.9562305419999997,-9.5788415205,0.7671840361499999,-1.9445,1.3549,-2.1668,-1.4285714285744433e-05,5.0000000000105516e-05,9.99999999995449e-06,0.00023733613123511077,0.0005394573207211373,-0.00014320920436716733
150000000000.0,3,-0.0424235679,-0.023908612699999998,-0.015268954049999998,-0.003297,-0.02342,-0.006677,-1.9559363424999998,-9.578939586999999,0.7671938427999999,-1.9446,1.3549,-2.167,-1.4285714285744433e-05,9.090909090847532e-06,-5.000000000032756e-06,-0.0003271443527912421,-7.282793449103764e-05,8.983982102028776e-05
150000000000.0,3,-0.030714427799999996,-0.02784107935,-0.011287454149999999,-0.007534,-0.020187,-0.007756,-1.9555440764999998,-9.5790376535,0.76681138345,-1.9445,1.3549,-2.1673,-1.4285714285744433e-05,9.090909091069577e-06,-4.999999999921734e-06,0.0001766980246797889,-0.0002977341349112983,0.00013123759116240308
150000000000.0,3,-0.025889555999999998,-0.02650737495,-0.011611073599999999,-0.009657,-0.018039,-0.006696,-1.9551518104999999,-9.57913572,0.7662327910999999,-1.9443,1.355,-2.1677,-1.4285714285522388e-05,9.090909090847532e-06,7.00000000000145e-05,6.0946583258836284e-05,6.1008654340444224e-05,-0.0005604406026420428
150000000000.0,3,-0.039177566750000004,-0.0208685512,-0.009718390149999999,-0.00859,-0.018048,-0.006692,-1.9548576109999998,-9.5792337865,0.7655365189499999,-1.944,1.355,-2.1682,-1.4285714285744433e-05,9.090909090847532e-06,-6.0000000000060005e-05,0.00041921431455049785,7.681728448005742e-05,3.103741627752399e-05
150000000000.0,3,-0.06493963629999999,-0.01830901555,-0.0042855060499999995,-0.00964,-0.015907,-0.006696,-1.9551518104999999,-9.579331853,0.7647519869499999,-1.9436,1.355,-2.1687,-1.4285714285744433e-05,9.090909090847532e-06,4.999999999999449e-05,-0.0005854991559401945,-5.783040153417573e-07,9.132697207858698e-05
150000000000.0,3,-0.08610238699999999,-0.02017227905,-0.0027850886,-0.012829,-0.013751,-0.005634,-1.955838276,-9.5792337865,0.7638399684999999,-1.9431,1.355,-2.1694,-1.4285714285744433e-05,9.090909091069577e-06,-2.999999999997449e-05,0.00044512711877287003,0.0003521518623468278,-0.00014608354315859273
150000000000.0,3,-0.08954452115,-0.014915914649999999,0.0091790244,-0.009617,-0.011647,-0.004562,-1.9567208745,-9.57913572,0.7631044697499999,-1.9426,1.355,-2.17,9.999999999998899e-05,9.090909090847532e-06,4.0000000000040004e-05,-0.0009674613795991327,-0.00010819851760612842,0.00039067490165090035
150000000000.0,3,-0.07750195495,-0.01825017565,0.027076160649999997,-0.009577,-0.009511,-0.008832,-1.9571131405,-9.5790376535,0.7627023970999999,-1.9424,1.3549,-2.1703,-5.0000000000105516e-05,9.090909090847532e-06,-1.0000000000065512e-05,0.0004223854539500138,0.0006984695642830996,0.00010220699213991935
150000000000.0,3,-0.056496110649999993,0.004971971549999999,0.013082071099999999,-0.004223,-0.008487,-0.010957,-1.9570150739999999,-9.5790376535,0.7626337505499999,-1.9424,1.3549,-2.1704,-4.999999999988347e-05,9.090909090847532e-06,-2.0000000000020002e-05,0.0002081402751894501,-0.0005288940380345775,-0.00010754551625957731
150000000000.0,3,-0.026134722249999996,0.02009382585,-0.0029027683999999997,-0.001035,-0.010643,-0.012014,-1.9562305419999997,-9.5792337865,0.7626141372499999,-1.9425,1.355,-2.1704,-4.999999999988347e-05,9.090909091069577e-06,-1.999999999990898e-05,0.0002749536230561844,-0.0006315327301635865,-0.00029948148376046646
150000000000.0,3,-0.00214765635,0.0254188368,-0.024948117599999996,0.001052,-0.017053,-0.013066,-1.9551518104999999,-9.579527986,0.76251607075,-1.9427,1.3551,-2.1704,-5.0000000000105516e-05,9.090909090847532e-06,-0.00010000000000010001,-0.0008898641971133436,0.001065310041462153,0.0008228293626895145
150000000000.0,3,0.0087475318,0.0273605535,-0.0225945216,-0.001113,-0.020233,-0.011997,-1.9537788794999997,-9.579724119,0.7623983909500001,-1.9428,1.3553,-2.1704,9.999999999998899e-05,-9.999999999998899e-05,0.00010000000000010001,0.000344672770821175,-0.0004231785228845375,-0.00042129727186956956
150000000000.0,3,-0.0056290171,0.0163182656,-0.0035598139499999995,-0.003263,-0.020218,-0.008798,-1.9527982144999998,-9.579920251999999,0.762368971,-1.943,1.3554,-2.1704,-9.999999999998899e-05,9.999999999998899e-05,-6.0000000000060005e-05,0.0010312759691333273,0.0003160420297330102,-0.000627948610021356
150000000000.0,3,-0.0408545039,-0.02189824945,0.0030204482,-0.005393,-0.019136,-0.007735,-1.952504015,-9.5800183185,0.76222187125,-1.943,1.3554,-2.1706,-2.4999999999941735e-05,1.999999999990898e-05,-4.0000000000040004e-05,-0.0003481216907141871,-0.0002728910357694403,0.00035294539518115897
150000000000.0,3,-0.07939463840000001,-0.042609894249999995,-0.00383440015,-0.004337,-0.019146,-0.005595,-1.9527982144999998,-9.5800183185,0.76204535155,-1.9428,1.3554,-2.1709,-2.500000000016378e-05,2.0000000000131024e-05,-2.0000000000020002e-05,0.0002615233451592758,6.730458050085986e-05,-0.0005388116158702161
150000000000.0,3,-0.1042643028,-0.03725546335,0.00036284604999999996,-0.006447,-0.014868,-0.003468,-1.9538769459999998,-9.5798221855,0.7617413453999999,-1.9425,1.3553,-2.1714,-2.4999999999941735e-05,1.999999999990898e-05,-1.999999999990898e-05,-0.00030107495091202807,0.00015662243809733134,0.0003055578497090927
150000000000.0,3,-0.11034442579999999,-0.03496070725,0.0084141057,-0.003216,-0.011696,-0.004531,-1.955053744,-9.579527986,0.7616236655999999,-1.9423,1.3552,-2.1718,-2.4999999999941735e-05,2.0000000000131024e-05,-2.0000000000020002e-05,-0.00035741809505740463,0.00042562004948920595,0.00019454934847118466
150000000000.0,3,-0.11365907349999999,-0.0337544893,0.029508209849999998,-0.003208,-0.009567,-0.002396,-1.956426675,-9.5792337865,0.76192767175,-1.9422,1.355,-2.172,4.999999999988347e-05,1.999999999990898e-05,6.0000000000060005e-05,0.0013254524726473704,-0.00015235960374693214,-0.0002590849351511437
150000000000.0,3,-0.08285638584999999,-0.0183972754,0.03337202995,-0.003202,-0.009566,-0.00346,-1.9573092734999997,-9.5790376535,0.7622512912,-1.9422,1.3549,-2.1721,5.0000000000105516e-05,-9.999999999998899e-05,5.999999999994898e-05,-0.0015349869207832434,-8.067486605645158e-05,0.00037623044947787676
150000000000.0,3,-0.07924753864999999,0.01301342455,0.01562199345,-0.001006,-0.003188,-0.005599,-1.9580938054999997,-9.5788415205,0.76233955105,-1.9421,1.3549,-2.1722,-0.00019999999999997797,-9.090909090847532e-06,-9.999999999998899e-05,0.0006845931962877749,0.00026085412086795934,-0.00029470298842904086
150000000000.0,3,-0.047817225399999996,0.0346959277,0.018583601749999998,-0.002064,-0.004242,-0.008799,-1.9580938054999997,-9.5788415205,0.76251607075,-1.9422,1.3548,-2.1722,0.00019999999999997797,-9.090909091069577e-06,5.999999999994898e-05,-0.00018507527325217765,-0.00027152437298183507,0.0004455631898054868
150000000000.0,3,-0.030685007849999998,0.0223395487,0.022192448949999995,-0.003139,-0.005298,-0.008798,-1.9577015395,-9.578939586999999,0.76265336385,-1.9423,1.3549,-2.1721,-9.999999999998899e-05,-9.090909090847532e-06,3.0000000000085514e-05,-0.0003207486223724132,-0.0001214774901607818,-0.00023829732371982715
150000000000.0,3,-0.033568162949999994,0.0101793027,0.006864655,-0.003153,-0.008493,-0.010926,-1.957211207,-9.5790376535,0.7625749106499999,-1.9423,1.3549,-2.1721,9.999999999998899e-05,-9.090909090847532e-06,-6.0000000000060005e-05,0.0007853660925198902,0.0002566524789877622,-3.249609750222149e-05
150000000000.0,3,-0.0474445727,0.00189268345,0.00134351105,0.001122,-0.00959,-0.014117,-1.9566228079999999,-9.57913572,0.7627122037499999,-1.9425,1.355,-2.172,-3.333333333332966e-05,-9.090909090847532e-06,4.0000000000040004e-05,-6.205283060412015e-05,-0.00022069429280069386,0.0002252034550518367
150000000000.0,3,-0.0529951366,-0.007119627899999999,-0.013258590799999997,0.004296,-0.012812,-0.014104,-1.956034409,-9.5792337865,0.7629377567,-1.9427,1.355,-2.1719,-3.333333333332966e-05,-9.090909091069577e-06,-4.0000000000040004e-05,6.600766177555784e-05,0.00013075719018851295,-0.00019678543450840635
150000000000.0,3,-0.04747399265,0.0003334261,-0.03060655465,0.003226,-0.01174,-0.011971,-1.9554460099999997,-9.579429919499999,0.7629377567,-1.9428,1.3551,-2.1719,-3.333333333332966e-05,-9.090909090847532e-06,4.0000000000040004e-05,-5.335925032001754e-05,-0.00029088794563492115,-0.0001296746387242642
150000000000.0,3,-0.09374176734999999,0.01166010685,0.013817569850000001,0.003232,-0.00961,-0.009833,-1.9570150739999999,-9.5790376535,0.7630946630999998,-1.9426,1.3549,-2.1722,3.333333333332966e-05,-9.090909090847532e-06,-4.0000000000040004e-05,-0.0012645993286999335,9.21774531759123e-05,0.0006508657641703941
150000000000.0,3,-0.0947518523,0.011846433200000001,0.013552790299999999,4.8e-05,-0.007452,-0.009842,-1.956034409,-9.5792337865,0.7633594426499999,-1.9429,1.355,-2.172,3.333333333332966e-05,-9.090909090847532e-06,2.0000000000020002e-05,0.00011579761909263908,-0.00026329627618260076,-9.823224449156953e-05
150000000000.0,3,-0.10217548634999998,0.00293218835,0.04692482025,0.001146,-0.0032,-0.008777,-1.9568189409999999,-9.5790376535,0.7642616544499999,-1.9431,1.3549,-2.1718,3.333333333332966e-05,-9.090909091069577e-06,4.999999999999449e-05,0.0007335343762941982,-0.00045570998114619066,-0.00027046781204687065
150000000000.0,3,-0.09776249384999999,-0.0033734876,0.03894220715,0.003326,0.001047,-0.010911,-1.9574073399999998,-9.5788415205,0.76506579975,-1.9434,1.3548,-2.1715,-1.4285714285744433e-05,-9.090909090847532e-06,-2.0000000000020002e-05,-0.00020091257328647139,0.0001372758328044288,-4.4357426796093335e-05
150000000000.0,3,-0.08509230205,-0.014464808749999999,0.018917027849999997,0.003285,-0.002153,-0.0077,-1.9578976725,-9.5786453875,0.7657816852,-1.9436,1.3547,-2.1713,-1.4285714285744433e-05,4.999999999988347e-05,9.99999999995449e-06,-0.0010977505872031834,0.00040730167771685366,0.0005605177991192534
150000000000.0,3,-0.0514849125,-0.023349633649999996,-0.025634583099999997,0.002189,-0.004276,-0.005559,-1.9590744704999998,-9.578449254499999,0.7654482590999999,-1.9433,1.3546,-2.1716,-1.4285714285744433e-05,5.0000000000105516e-05,1.0000000000065512e-05,0.001555315712882921,-0.0005285561181183063,-0.000506920200672667
150000000000.0,3,-0.05202427824999999,-0.023251567149999996,-0.025732649599999997,-0.001051,-0.008513,-0.00449,-1.9584860714999999,-9.578547321,0.7655463255999999,-1.9434,1.3547,-2.1716,-1.4285714285522388e-05,-3.333333333332966e-05,-7.999999999996898e-05,-0.0009964685904964021,7.055842418313141e-05,0.0010215190577329558
150000000000.0,3,-0.039510992849999996,-0.03135186005,-0.02234935535,-0.001088,-0.011711,-0.002348,-1.958780271,-9.578547321,0.7651540595999999,-1.9432,1.3547,-2.1719,-1.4285714285744433e-05,-3.333333333332966e-05,4.999999999999449e-05,0.0015936989798004397,0.00025389097364914015,-0.0013858711655063694
150000000000.0,3,-0.0456597624,-0.0213196571,-0.01515127425,-0.00318,-0.008494,-0.005558,-1.9588783375,-9.578547321,0.76483044015,-1.943,1.3547,-2.1721,-1.4285714285744433e-05,-3.333333333332966e-05,9.99999999995449e-06,-0.0018040751144727807,0.0005190237823049504,0.0006727620109536758
150000000000.0,3,-0.0633705723,-0.00177500365,-0.023212340550000002,-0.006387,-0.008468,-0.004494,-1.9594667364999998,-9.578449254499999,0.76406552145,-1.9426,1.3547,-2.1726,-1.4285714285744433e-05,4.999999999988347e-05,4.999999999999449e-05,0.0005892332790837784,-0.0004598628676177885,-7.19531847437338e-06
150000000000.0,3,-0.066096821,0.00328522775,-0.027095773949999995,-0.00745,-0.008457,-0.00556,-1.9599570689999999,-9.578449254499999,0.7630162099,-1.942,1.3546,-2.1733,9.999999999998899e-05,5.0000000000105516e-05,-0.00012999999999996348,-0.00026859166201487206,-7.076556059981698e-05,0.0009370021291088548
150000000000.0,3,-0.05671185694999999,0.0022751428,-0.011611073599999999,-0.007405,-0.004192,-0.0077,-1.9601532019999999,-9.578449254499999,0.7621924512999999,-1.9417,1.3547,-2.1737,-9.999999999998899e-05,-9.999999999998899e-05,5.999999999994898e-05,0.0005457351000761612,0.0005024943195488518,-0.0009845107458303914
150000000000.0,3,-0.044198571549999996,0.006237029399999999,0.0005295590999999999,-0.003167,-0.008488,-0.008751,-1.9598590024999998,-9.578547321,0.7618786384999999,-1.9416,1.3547,-2.1739,-3.333333333332966e-05,-2.0000000000131024e-05,-2.999999999997449e-05,0.0003636625606857624,3.314461794956536e-05,0.0001848300026776606
150000000000.0,3,-0.0537796686,-0.00438357255,0.011287454149999999,-0.004238,-0.00848,-0.007683,-1.9598590024999998,-9.578547321,0.7618884451499999,-1.9416,1.3547,-2.174,-3.333333333332966e-05,-1.999999999990898e-05,-2.0000000000020002e-05,-0.00040537365349768706,-4.394495036197377e-05,0.0003508551631639101
150000000000.0,3,-0.0639197447,-0.005942829899999999,-0.00026477954999999995,-0.003228,-0.014883,-0.0066,-1.9602512685,-9.578547321,0.76177076535,-1.9414,1.3547,-2.1742,-3.333333333332966e-05,-2.0000000000131024e-05,1.0000000000065512e-05,-0.0004919518633830222,0.0002247942292181726,-6.594135744375507e-05
150000000000.0,3,-0.07061768665,-0.012748645,-0.0097478101,-0.003234,-0.014884,-0.00553,-1.960741601,-9.578449254499999,0.7613784993499999,-1.9412,1.3546,-2.1746,9.999999999998899e-05,-1.999999999990898e-05,-4.0000000000040004e-05,-0.0003104659413457611,-0.0011391729685563678,0.0007432481273541569
150000000000.0,3,-0.06882306969999999,-0.01509243435,0.006423355749999999,-0.002149,-0.012761,-0.005529,-1.9611338669999998,-9.578351188,0.76151579245,-1.9412,1.3546,-2.1748,-3.333333333332966e-05,-2.0000000000131024e-05,4.0000000000040004e-05,-0.00032505803919580245,0.0008358085454507336,-0.0004912338393880944
150000000000.0,3,-0.07474628629999999,-0.01083634825,0.0014808041500000001,-0.001055,-0.010636,-0.007663,-1.961526133,-9.5782531215,0.76167269885,-1.9412,1.3545,-2.1749,-3.333333333332966e-05,0.00010000000000021103,9.99999999995449e-06,0.0010463924552959192,-0.00034295557948937905,-0.00020867910568123094
150000000000.0,3,-0.0737656213,-0.00877695175,-0.00473661195,-0.004211,-0.006345,-0.009808,-1.9617222659999998,-9.5782531215,0.7614569525499999,-1.941,1.3545,-2.1751,-3.333333333332966e-05,-0.00010000000000021103,-2.0000000000020002e-05,-0.0008069679757860548,0.0006417967225451626,0.0003458452170614912
150000000000.0,3,-0.0651357693,-0.0136508568,-0.011385520649999998,-0.005253,-0.003139,-0.009813,-1.9617222659999998,-9.5782531215,0.7607704870499999,-1.9408,1.3546,-2.1754,-1.666666666655381e-05,0.00010000000000021103,2.0000000000020002e-05,0.0009033983664559209,-0.0003634345546450479,-0.0002638098155611779
150000000000.0,3,-0.05779058844999999,-0.0140235095,-0.01026756255,-0.003131,-0.005287,-0.010871,-1.961526133,-9.578351188,0.7602507345999999,-1.9405,1.3546,-2.1756,-1.6666666666775853e-05,-0.00010000000000021103,-9.99999999995449e-06,0.0004077996398530459,0.0002039788885046523,-0.00028466048091146945
150000000000.0,3,-0.0578984616,-0.00656064885,0.0080218397,5.1e-05,-0.00638,-0.008726,-1.9616241995,-9.578351188,0.7603684143999999,-1.9406,1.3546,-2.1756,-1.6666666666775853e-05,4.545454545423766e-06,-3.0000000000085514e-05,-0.00023374071346626835,0.00019278854390658573,7.208871472563771e-05
150000000000.0,3,-0.04841543105,-0.00811009955,0.014396162199999998,0.002135,-0.010663,-0.005511,-1.9616241995,-9.5782531215,0.7608783602,-1.9408,1.3546,-2.1755,-1.666666666655381e-05,4.545454545423766e-06,4.999999999999449e-05,-2.8582905716501017e-05,1.667863106535883e-05,-0.000208633490539345
150000000000.0,3,-0.0569374099,0.0016082905999999998,0.0192406473,0.002091,-0.014927,-0.003367,-1.962114532,-9.578155055,0.7617217321,-1.9411,1.3545,-2.1753,-1.666666666655381e-05,4.545454545645811e-06,-4.999999999999449e-05,0.0002977917621604931,0.00020221426477640136,0.00035320971045571525
150000000000.0,3,-0.06785221135,0.00526617105,0.026213175449999997,0.002112,-0.011732,-0.002302,-1.962899064,-9.577860855499999,0.7626827837999999,-1.9414,1.3544,-2.1752,-1.6666666666775853e-05,4.545454545423766e-06,4.0000000000040004e-05,-0.00047904584783498017,-0.0004014036104253993,-0.00040239659463292554
150000000000.0,3,-0.06591049465,-0.00167693715,0.0326365312,0.002116,-0.012795,-0.004432,-1.9634874629999999,-9.5776647225,0.76373209535,-1.9418,1.3543,-2.1749,-1.0526315789460838e-05,4.545454545423766e-06,-4.0000000000040004e-05,-0.00023561827242946087,0.0002508748965917018,0.0002415244177469411
150000000000.0,3,-0.05000410835,-0.0035598139499999995,0.03256788465,-0.001031,-0.007439,-0.00658,-1.9636835959999999,-9.577566655999998,0.7643989475499999,-1.942,1.3542,-2.1748,-1.0526315789460838e-05,4.545454545423766e-06,-2.999999999997449e-05,-0.0011059139595150924,-0.0007276599477581414,0.0010376973658567934
150000000000.0,3,-0.04255105435,-0.0072765343,0.023732092999999996,-0.005295,-0.008468,-0.008719,-1.9634874629999999,-9.577566655999998,0.7645656606,-1.9421,1.3542,-2.1747,-1.0526315789460838e-05,4.545454545423766e-06,2.0000000000020002e-05,0.0011998018897325657,0.0014667082169754764,-0.0007434481614381205
150000000000.0,3,-0.04892537685,-0.030361388399999995,0.0019319100499999998,-0.009537,-0.005235,-0.00873,-1.9632913299999997,-9.577762789,0.7637713219499999,-1.9418,1.3543,-2.1751,-1.0526315789460838e-05,4.545454545423766e-06,2.999999999997449e-05,0.0007610217733791114,-0.0005462973063230514,-0.0003333679834289782
150000000000.0,3,-0.0744717001,-0.026193562150000002,0.012915358049999999,-0.009542,-0.005236,-0.00766,-1.9635855294999998,-9.5776647225,0.7631044697499999,-1.9415,1.3543,-2.1755,-1.0526315789460838e-05,4.545454545645811e-06,2.999999999997449e-05,-0.0009470973024761076,0.0002501590528922737,0.00013074275336677488
150000000000.0,3,-0.09495779195,-0.013778343249999998,0.0225356817,-0.006308,6.3e-05,-0.005526,-1.9644681279999998,-9.577566655999998,0.762761237,-1.9411,1.3542,-2.1758,-1.0526315789460838e-05,4.545454545423766e-06,-9.99999999995449e-06,-8.969015143156511e-05,-0.0001630099911755778,0.00045201619077461785
150000000000.0,3,-0.10756914384999999,-0.0034127142,0.025114830649999996,0.001152,-0.001064,-0.005506,-1.965644926,-9.5772724565,0.76302601655,-1.9411,1.3541,-2.1759,-1.0526315789460838e-05,4.545454545423766e-06,9.99999999995449e-06,0.00045583611271404756,-4.0691441000939577e-05,-0.0002381968287177294
150000000000.0,3,-0.1113839307,0.01028717585,0.0390500803,0.002215,-0.001073,-0.004433,-1.9671159234999998,-9.5768801905,0.7638988084,-1.9412,1.3539,-2.1758,-1.0526315789460838e-05,4.545454545423766e-06,-2.999999999997449e-05,-0.00013034272483847253,0.00048664092063122055,0.00033748602359340296
150000000000.0,3,-0.10827522265,0.01846592195,0.03333280335,0.005431,-3.3e-05,-0.005492,-1.968390788,-9.576585991,0.76498734655,-1.9415,1.3538,-2.1755,-1.0526315789460838e-05,4.545454545423766e-06,6.0000000000060005e-05,-0.00019585510107056336,-0.0003783397017602663,-0.00013485626374976079
150000000000.0,3,-0.0824739265,0.027517459899999996,0.016896857949999997,0.00437,-2.3e-05,-0.006558,-1.96917532,-9.576389858,0.76571303865,-1.9416,1.3536,-2.1753,-1.0526315789682883e-05,4.545454545645811e-06,-1.0000000000065512e-05,0.00028442445955967344,-0.00013583860524879476,1.6408395620004512e-06
150000000000.0,3,-0.050415987649999994,0.023692866400000002,-0.0101793027,0.00332,0.002117,-0.006561,-1.9695675859999997,-9.5762917915,0.76585033175,-1.9416,1.3536,-2.1753,-1.0526315789460838e-05,4.545454545423766e-06,-7.00000000000145e-05,0.00039512989255108266,0.000144164040517758,0.0003625303352885467
150000000000.0,3,-0.0390696936,0.01173856005,-0.0037461403,0.003283,-0.003209,-0.007617,-1.969371453,-9.5762917915,0.7661543379,-1.9418,1.3536,-2.1751,-1.0526315789460838e-05,4.545454545423766e-06,9.00000000000345e-05,0.00020236690863706386,-0.00042809092882434285,-0.0001401385986201653
150000000000.0,3,-0.0213392704,-0.007502087249999999,0.00134351105,8.5e-05,-0.002118,-0.006557,-1.9689791869999997,-9.576389858,0.76630143765,-1.9419,1.3536,-2.175,-1.0526315789460838e-05,4.545454545423766e-06,-0.00010999999999994348,-0.001168239803275073,0.0007085164546920542,0.0005445740306360136
150000000000.0,3,-0.01466094175,-0.03192064575,0.00973800345,-0.00423,-0.007412,-0.005487,-1.9684888544999999,-9.5764879245,0.7661347246,-1.942,1.3537,-2.1751,-1.0526315789460838e-05,4.545454545423766e-06,6.999999999990347e-05,0.0011737068066877132,-0.0003570433370010395,-0.0002948053552422891
150000000000.0,3,-0.021966895999999996,-0.0432277132,0.01275845165,-0.00636,-0.00633,-0.004425,-1.9681946549999998,-9.5764879245,0.7659582048999999,-1.9419,1.3537,-2.1752,-1.0526315789460838e-05,4.545454545423766e-06,-9.99999999995449e-06,-0.0007669351108923195,4.6471337571407645e-06,0.00021681230814607488
150000000000.0,3,-0.06037954405,-0.0197309798,0.0013925443,-0.007441,-0.007387,-0.003354,-1.96917532,-9.576389858,0.7653501925999999,-1.9415,1.3537,-2.1757,-1.0526315789460838e-05,4.545454545645811e-06,-9.99999999995449e-06,-0.00011022452350650802,0.00031417539338085554,-1.2578223913095599e-05
150000000000.0,3,-0.06059529034999999,-0.01962310665,0.0021378497,-0.009576,-0.006306,-0.001225,-1.9689791869999997,-9.5764879245,0.7646048871999999,-1.9412,1.3537,-2.176,-1.0526315789460838e-05,4.545454545423766e-06,3.999999999992898e-05,-0.00014382888080266554,-0.000390937039706607,0.00011308112568819695
150000000000.0,3,-0.08786758399999998,-0.00818855275,-0.0025301156999999997,-0.009587,-0.006307,0.000913,-1.9703521179999997,-9.5762917915,0.763741902,-1.9406,1.3536,-2.1768,-1.0526315789460838e-05,4.545454545423766e-06,3.0000000000085514e-05,0.0013520824909207807,0.00036466658070088975,-0.00010876237066215211
150000000000.0,3,-0.08950529454999999,-0.0102185293,0.0108461549,-0.012762,-0.003084,0.000906,-1.971921182,-9.575997592,0.7627808503,-1.9399,1.3535,-2.1775,-1.0526315789460838e-05,3.333333333332966e-05,0.00018999999999991246,0.0024289180825136647,0.001544005286343797,-0.0027927520842196962
150000000000.0,3,-0.044620257499999996,-0.0229867876,0.041619422600000004,-0.013828,-0.005203,-0.002293,-1.9723134479999997,-9.575997592,0.7622316779,-1.9396,1.3535,-2.1779,-2.4999999999941735e-05,3.333333333332966e-05,-9.999999999998899e-05,-0.0021529363247045907,-6.784891316802266e-05,0.0017781875858249307
150000000000.0,3,0.00385401345,-0.040256298249999996,0.06508673605,-0.01489,-0.004131,-0.00123,-1.9720192484999999,-9.5760956585,0.7619570917,-1.9395,1.3535,-2.178,-2.4999999999941735e-05,3.333333333332966e-05,2.999999999997449e-05,0.0009605093570719259,-0.00013897630599735145,-0.0005665118378361811
150000000000.0,3,0.032165811999999995,-0.0379713488,0.0537992819,-0.01173,-0.009486,-0.001217,-1.97113665,-9.576193725,0.7618786384999999,-1.9396,1.3536,-2.178,-2.500000000016378e-05,9.999999999998899e-05,3.0000000000085514e-05,0.0005857421845343325,-0.00012445775418190586,0.000287156588019144
150000000000.0,3,0.056143071249999996,-0.02882174435,0.0272821003,-0.009628,-0.014829,-0.003341,-1.9696656524999998,-9.576585991,0.7616138589499999,-1.9398,1.3538,-2.178,-2.4999999999941735e-05,3.333333333332966e-05,2.999999999997449e-05,-0.00020387038206859387,-0.00027460335207685205,7.738052304695486e-05
150000000000.0,3,0.0906330593,-0.014837461449999999,-0.0043737659,-0.007498,-0.018039,-0.007605,-1.9674101229999998,-9.577076323499998,0.7610941065,-1.9399,1.354,-2.178,-9.999999999998899e-05,3.333333333332966e-05,-4.0000000000040004e-05,-0.0007025031321190589,0.00037543861021194225,2.1663922124659507e-05
150000000000.0,3,0.0829250324,0.00128467115,-0.03401926885,-0.009662,-0.022283,-0.008672,-1.965056527,-9.5776647225,0.76006440825,-1.9399,1.3543,-2.1783,-9.999999999998899e-05,3.333333333332966e-05,-2.999999999997449e-05,0.0012711594806120718,0.00014606107884418407,-0.0007637617213576142
150000000000.0,3,0.0426393142,-0.00508965135,-0.03525490675,-0.013963,-0.027573,-0.010807,-1.963095197,-9.578155055,0.75875031715,-1.9396,1.3545,-2.1788,-5.0000000000105516e-05,5.0000000000105516e-05,4.999999999999449e-05,-0.0007444241765597326,-0.00013355522210534154,-0.00011483379074395117
150000000000.0,3,-0.028890390899999997,-0.0315577997,-0.0563293976,-0.013996,-0.03077,-0.009733,-1.9622125984999998,-9.578449254499999,0.75708318665,-1.939,1.3547,-2.1797,-4.999999999988347e-05,4.999999999988347e-05,4.999999999999449e-05,4.953082965819533e-05,-0.00049754716915551,-1.1798722523437277e-06
150000000000.0,3,-0.09680144214999999,-0.033342609999999995,-0.0375986961,-0.012933,-0.029714,-0.007594,-1.962702931,-9.578449254499999,0.75571025565,-1.9383,1.3547,-2.1807,-4.999999999988347e-05,-9.999999999998899e-05,-2.999999999997449e-05,-0.00018966535817677155,-7.560383363802714e-08,-0.0003163231731728722
150000000000.0,3,-0.14268675749999998,-0.0127682583,-0.0324600115,-0.007596,-0.028693,-0.006514,-1.964075862,-9.5782531215,0.754915917,-1.9378,1.3546,-2.1816,-5.0000000000105516e-05,9.999999999998899e-05,-2.999999999997449e-05,0.00023782070650035791,0.0005395340490854661,-0.00039781737411903606
150000000000.0,3,-0.15279741365,0.02113333075,-0.0219276694,-0.003332,-0.027664,-0.004367,-1.9659391255,-9.577860855499999,0.7547001707,-1.9373,1.3544,-2.1822,-9.999999999998899e-05,2.4999999999941735e-05,-2.0000000000020002e-05,0.000491383172775528,-6.076371259711166e-05,-0.00017996708998246902
150000000000.0,3,-0.1518657819,0.04255105435,0.0046189321499999995,-0.004373,-0.024457,-0.004368,-1.9679004554999997,-9.577468589499999,0.7549453369499999,-1.9371,1.3542,-2.1827,-4.999999999988347e-05,2.4999999999941735e-05,7.999999999996898e-05,-0.0004992456446957227,-0.0005484460167013427,-0.00048592867986352317
150000000000.0,3,-0.1334685065,0.03219523195,-0.015278760699999998,-0.001128,-0.020219,-0.006499,-1.9695675859999997,-9.577076323499998,0.7549355302999999,-1.9368,1.354,-2.1832,-5.0000000000105516e-05,2.500000000016378e-05,-7.999999999996898e-05,-0.0005810581006815418,0.00024340250119880835,0.0007623533725733544
150000000000.0,3,-0.1036955171,0.011052094549999999,-0.031724512749999996,-5e-05,-0.018097,-0.005429,-1.9705482509999999,-9.576978256999999,0.7546217175,-1.9365,1.3539,-2.1837,-5.0000000000105516e-05,2.4999999999941735e-05,9.00000000000345e-05,0.0015823810185171538,-9.975195059586106e-05,-0.000927026485059379
150000000000.0,3,-0.08977988075,-0.0013337044,-0.0416782625,-0.00429,-0.0138,-0.004373,-1.9714308494999997,-9.576782124,0.75380776555,-1.936,1.3539,-2.1843,-4.999999999988347e-05,-5.0000000000105516e-05,-4.0000000000040004e-05,0.0001233854385769284,0.0005825591654655682,-0.00022762773025464256
150000000000.0,3,-0.0920648302,-0.013807763199999998,-0.0502688879,-0.00425,-0.010599,-0.007577,-1.9722153815,-9.576782124,0.7526701941499999,-1.9354,1.3538,-2.1851,-3.333333333332966e-05,-4.999999999988347e-05,-4.0000000000040004e-05,-0.00180054803530183,-0.0004890611351315854,0.0012459710825964976
150000000000.0,3,-0.08673981925,-0.0042953127,-0.02774301285,-0.002059,-0.005285,-0.010781,-1.972705714,-9.5766840575,0.75198372865,-1.935,1.3538,-2.1855,-3.333333333332966e-05,-3.333333333332966e-05,0.0001100000000000545,0.0012024636548093603,0.0003266999360995726,-0.0011502612546725466
150000000000.0,3,-0.08071853615,0.009002504699999999,-0.010895188149999999,0.000114,-0.001039,-0.011849,-1.972901847,-9.5766840575,0.75174836905,-1.9348,1.3538,-2.1857,-3.333333333332966e-05,-3.333333333332966e-05,-0.0001300000000000745,0.0009968966385232036,0.0006905906921250704,-0.00021128767288036698
150000000000.0,3,-0.06878384309999999,0.0015298374,-0.0088063717,0.001163,-0.003178,-0.011841,-1.972901847,-9.5766840575,0.7517581757,-1.9349,1.3538,-2.1857,0.00019999999999997797,-3.333333333332966e-05,7.00000000000145e-05,-0.0022194604108256577,-0.0011341868256222742,0.0011127989612709221
150000000000.0,3,-0.08201301395,1.9613299999999997e-05,-0.02025073225,0.00226,1.1e-05,-0.012909,-1.9729999135,-9.5766840575,0.7516797224999999,-1.9348,1.3538,-2.1857,-0.00019999999999997797,9.999999999998899e-05,-9.999999999998899e-05,0.000584082388494167,0.000668753435368874,0.0003346907228447549
150000000000.0,3,-0.09817437315000001,0.00363826715,-0.01626923235,0.003319,0.001066,-0.009702,-1.9735883125,-9.576585991,0.7517385623999999,-1.9347,1.3537,-2.1858,9.999999999998899e-05,-9.999999999998899e-05,4.0000000000040004e-05,-0.0005248144434082391,-0.0005831588012312761,-4.367742143962516e-06
150000000000.0,3,-0.10699055149999999,0.009992976349999998,0.0019024901,0.004381,0.001056,-0.008629,-1.9744709109999998,-9.5762917915,0.7522779281499999,-1.9348,1.3536,-2.1856,-9.999999999998899e-05,-3.333333333332966e-05,-4.999999999999449e-05,5.620291613661621e-06,0.000547381461393881,-0.00013314505992534365
150000000000.0,3,-0.1295850731,0.0193583271,0.02448720505,0.005454,0.001049,-0.009689,-1.9758438419999997,-9.575997592,0.7533272396999999,-1.9351,1.3535,-2.1854,-3.333333333332966e-05,-3.333333333332966e-05,2.999999999997449e-05,0.00021493101084346655,-0.00021313547177825853,0.0003094464148096776
150000000000.0,3,-0.13496892394999999,0.01999575935,0.029351303449999998,0.007587,0.002095,-0.007547,-1.9773148395,-9.575605326,0.75459229755,-1.9354,1.3533,-2.1851,-3.333333333332966e-05,-3.333333333332966e-05,4.0000000000040004e-05,-0.00044699997898289823,-0.00023021497577069283,-0.0002756899180611505
150000000000.0,3,-0.10349938409999998,0.01397447625,0.031528379749999995,0.00754,-0.003234,-0.006466,-1.978393571,-9.57521306,0.7560142617999999,-1.9358,1.3531,-2.1846,-3.333333333332966e-05,-4.999999999988347e-05,-4.999999999999449e-05,-0.0001453223251615121,0.0005940718494790165,0.0007013002739895136
150000000000.0,3,-0.074726673,0.01583773975,0.01601425945,0.009675,-0.003251,-0.006459,-1.9790800364999999,-9.575016927,0.75716163985,-1.9362,1.353,-2.1842,9.999999999998899e-05,-5.0000000000105516e-05,4.999999999999449e-05,-0.0007882234919556197,-0.0005766051366493663,-5.314447827053925e-05
150000000000.0,3,-0.0365984178,0.0040011132,0.0025693423,0.008639,-4.5e-05,-0.007532,-1.9788839034999999,-9.574918860499999,0.75788733195,-1.9366,1.353,-2.1839,-2.4999999999941735e-05,-5.0000000000105516e-05,-4.500000000007276e-05,0.00031083191961389645,0.00041437782361897213,-1.28968611692315e-05
150000000000.0,3,-0.039618866,-0.00987529655,-0.016945891199999997,0.006556,-0.000906,-0.009533,-1.9784916375,-9.575016927,0.7582501779999999,-1.9368,1.353,-2.1837,-2.500000000016378e-05,-4.999999999988347e-05,-4.499999999996174e-05,-0.0023944485055142906,-0.0009278700204415902,0.0018065766139363504
150000000000.0,3,-0.056780503499999996,-0.0154160538,-0.014141189299999999,0.004436,0.000178,-0.010603,-1.9784916375,-9.575016927,0.7585934107499999,-1.9369,1.353,-2.1835,-2.4999999999941735e-05,-0.00010000000000021103,5.999999999994898e-05,0.0004118781940456451,-0.0007456222571515791,-0.0002788592727527295
150000000000.0,3,-0.07306934914999999,-0.01844630865,0.0019024901,0.004489,0.005508,-0.012745,-1.9784916375,-9.574918860499999,0.7589954834,-1.9371,1.353,-2.1833,-2.4999999999941735e-05,-3.333333333332966e-05,-6.999999999990347e-05,-0.00010919047396473758,0.0006037625157306881,0.000439744281568899
150000000000.0,3,-0.08187572085,-0.016504591949999998,0.012415218899999999,0.007689,0.008674,-0.007405,-1.97898197,-9.574820793999999,0.7597113688499999,-1.9373,1.3529,-2.183,-9.999999999998899e-05,-3.333333333332966e-05,-6.0000000000060005e-05,-0.00024337896249404523,0.0002888575637896018,0.00038197237707260356
150000000000.0,3,-0.109049948,-0.01109132115,0.0175931301,0.004523,0.012962,-0.007414,-1.9800607015,-9.5745265945,0.7602311212999999,-1.9374,1.3528,-2.1828,-2.0000000000131024e-05,-3.333333333332966e-05,-2.0000000000020002e-05,-0.00015615529223644842,0.00035705734999069705,0.00046466114022258864
150000000000.0,3,-0.11570866335,-0.01830901555,0.027154613850000002,0.001338,0.016183,-0.005286,-1.9814336325,-9.574232395,0.7606822271999999,-1.9373,1.3526,-2.1827,-1.999999999990898e-05,1.1111111111183902e-05,3.0000000000085514e-05,0.0006482048942633156,-0.00010759261064707815,-9.912177458382132e-05
150000000000.0,3,-0.10741223744999999,-0.0042560861,0.05096516005,-0.002915,0.018348,-0.004225,-1.9829046299999997,-9.573938195499998,0.7609666200499999,-1.9372,1.3525,-2.1826,-2.0000000000131024e-05,1.1111111110961858e-05,-3.0000000000085514e-05,6.733701494177069e-06,7.310208206035007e-05,0.0003794542619139918
150000000000.0,3,-0.08740667145,-0.0030008349,0.06583204145,-0.007164,0.020514,-0.004233,-1.9839833614999998,-9.573643996,0.7610646865499999,-1.9371,1.3524,-2.1826,-1.999999999990898e-05,1.1111111111183902e-05,-3.999999999992898e-05,1.0247073580549326e-05,0.00031535437035956626,0.00044161612980708753
150000000000.0,3,-0.06745994535,-0.0078845466,0.040893730499999996,-0.01139,0.024812,-0.005313,-1.9847678934999997,-9.5735459295,0.7601134414999999,-1.9365,1.3523,-2.1829,-2.0000000000131024e-05,1.1111111111183902e-05,-4.0000000000040004e-05,0.0002475328941204946,0.00039696293927371507,0.00037516551582106317
150000000000.0,3,-0.05879086675,-0.022525875049999998,0.0250069575,-0.014593,0.023774,-0.006382,-1.985258226,-9.5735459295,0.7586424439999999,-1.9358,1.3523,-2.1834,0.00010000000000021103,1.1111111110961858e-05,7.999999999996898e-05,-0.001134785379736325,-0.00012999715015693525,0.0009312481708767528
150000000000.0,3,-0.046287388,-0.0350685804,0.02807643895,-0.013567,0.020566,-0.003171,-1.9856504919999998,-9.573643996,0.7573675794999999,-1.9352,1.3524,-2.1838,-3.333333333332966e-05,1.1111111111183902e-05,7.00000000000145e-05,0.0031105561749043,0.0003516051874994375,-0.0017101044931426834
150000000000.0,3,-0.043051193499999994,-0.03182257925,0.037716375899999995,-0.007216,0.01412,-0.003147,-1.986042758,-9.5735459295,0.75686744035,-1.9349,1.3523,-2.184,-3.333333333355171e-05,1.1111111111183902e-05,-0.00012000000000000899,-0.0022206829647730686,-0.00022979797281630354,0.0020796023939047004
150000000000.0,3,-0.0356373661,-0.0260660757,0.0542307745,-0.001956,0.004485,-0.00312,-1.986238891,-9.573447862999998,0.7572498996999999,-1.935,1.3523,-2.1838,-3.333333333332966e-05,1.1111111110961858e-05,2.0000000000020002e-05,7.294114684563979e-05,0.00018826414985162465,-0.00014086583425454435
150000000000.0,3,-0.0033538743,-0.01232695905,0.05322068955,0.001224,0.002326,-0.002043,-1.986042758,-9.573447862999998,0.7581128849,-1.9354,1.3523,-2.1834,-3.333333333332966e-05,1.1111111111183902e-05,0.00012999999999996348,0.003289772006694669,0.00043366203791639357,-0.0018470805530350631
150000000000.0,3,0.01521011415,0.013876409749999999,0.04959222905,0.000108,-0.004059,-0.002035,-1.9856504919999998,-9.573447862999998,0.7590543232999999,-1.9359,1.3523,-2.1829,-3.333333333332966e-05,5.0000000000105516e-05,-9.999999999998899e-05,-0.0009686415575174134,0.0002402624220267935,0.0007483445729681293
150000000000.0,3,0.0158671597,0.032587497949999995,0.05367179544999999,-0.000957,-0.004051,-0.002037,-1.985258226,-9.573447862999998,0.7600546015999999,-1.9364,1.3523,-2.1824,-3.333333333332966e-05,5.0000000000105516e-05,4.0000000000040004e-05,0.0003150696926874641,0.00018904463967350793,-0.0002318112859116539
150000000000.0,3,0.01515127425,0.022908334399999997,0.049229383,-0.002068,-0.010434,-0.003096,-1.9846698269999998,-9.5735459295,0.7609077801499999,-1.9369,1.3523,-2.1821,2.4999999999941735e-05,4.999999999988347e-05,5.999999999994898e-05,0.0009350611013791976,0.00019428045335967425,-0.0008954933428002576
150000000000.0,3,0.0036676871,-6.864654999999999e-05,0.036010018799999995,-0.007449,-0.01572,-0.002028,-1.9842775609999999,-9.5735459295,0.7611039131499999,-1.9371,1.3523,-2.1821,2.4999999999941735e-05,5.0000000000105516e-05,-9.99999999995449e-06,0.0012798687987114477,0.00040901813087201866,-0.0002256446394550693
150000000000.0,3,-0.01779906975,-0.02737036015,0.01893664115,-0.009554,-0.013569,-0.00417,-1.9840814279999999,-9.573643996,0.7606822271999999,-1.9369,1.3524,-2.1824,2.500000000016378e-05,2.4999999999941735e-05,2.0000000000020002e-05,-0.00048125352084937845,-0.00016026567151006255,0.00013579734693536238
