Time,placement_label,user_acc_x(m/s^2),user_acc_y(m/s^2),user_acc_z(m/s^2),rotation_rate_x(rad/s),rotation_rate_y(rad/s),rotation_rate_z(rad/s),gravity_x(m/s^2),gravity_y(m/s^2),gravity_z(m/s^2),attitude_roll(rad),attitude_pitch(rad),attitude_yaw(rad),target_delta_x,target_delta_y,target_delta_z,target_delta_roll,target_delta_pitch,target_delta_yaw
150000000000.0,3,0.0217315364,-0.047728965549999995,0.0284196717,-0.004186,0.055067,0.023323,-2.56345831,-9.444784615,0.6277432798,-1.8109,1.2983,-1.9328,0.0,0.0,0.0,0.0,0.0,0.0
150000000000.0,3,0.0680385377,-0.08051259649999999,0.0035696206,-0.009574,0.047653,0.022252,-2.5646351079999996,-9.4446865485,0.6256544633499999,-1.8101,1.2982,-1.9332,5.0000000000105516e-05,0.00010000000000021103,-1.0000000000065512e-05,-0.0010910023748351705,0.00042644765234167714,4.979708500307822e-05
150000000000.0,3,0.11774844655,-0.06981354135,-0.06905842929999999,-0.011737,0.042346,0.019045,-2.5646351079999996,-9.4448826815,0.6221240693499999,-1.8088,1.2983,-1.9341,4.999999999988347e-05,0.0002999999999997449,2.0000000000020002e-05,0.0021886099670758163,0.00016069248212580156,-0.00045395054086272424
150000000000.0,3,0.146903617,-0.045463629400000004,-0.11231556244999999,-0.0076,0.025265,0.016934,-2.5639486425,-9.4452749475,0.61853483545,-1.8075,1.2985,-1.9351,4.999999999988347e-05,0.00010000000000021103,4.0000000000040004e-05,-0.0005465837764138115,-0.0001853812985463943,0.00012127353052093781
150000000000.0,3,0.15095376345,-0.02076067805,-0.14562875249999999,0.004043,0.012386,0.013762,-2.5629679775,-9.445765279999998,0.6157889734499999,-1.8066,1.2987,-1.9358,5.0000000000105516e-05,0.00019999999999997797,2.999999999997449e-05,0.0002209092757381459,-0.0003974350994877529,0.00037503505686053984
150000000000.0,3,0.14237294469999998,-0.01189546645,-0.17358751165,0.010415,0.007011,0.009501,-2.561693113,-9.4462556125,0.6135236373,-1.8059,1.2988,-1.9364,8.333333333387927e-06,9.999999999976694e-05,2.999999999997449e-05,4.381186140989257e-05,9.65702636213095e-05,0.0006075772655336209
150000000000.0,3,0.1212886472,-0.02021150565,-0.18612041035,0.009302,-0.000434,0.005231,-2.5604182484999995,-9.446745945,0.61123868785,-1.8051,1.299,-1.9371,8.333333333165882e-06,0.00019999999999997797,-9.99999999995449e-06,-0.0009415419954492688,-2.2448859127166543e-05,0.0006374659716263942
150000000000.0,3,0.0785512665,-0.0135920169,-0.19602512684999998,0.00927,-0.002564,0.006295,-2.5597317829999997,-9.447138210999999,0.6088752851999999,-1.8043,1.2992,-1.9378,8.333333333387927e-06,0.00010000000000021103,-9.99999999995449e-06,-0.0004993894507459018,1.2852678773267456e-05,0.00021632216424372075
150000000000.0,3,0.03499993385,0.0009708583499999999,-0.17356789834999997,0.012469,-0.00046,0.008427,-2.5600259825,-9.447138210999999,0.6069139551999999,-1.8036,1.2992,-1.9385,8.333333333387927e-06,9.999999999976694e-05,-1.0000000000065512e-05,-0.0014683094604612812,9.750674148967242e-05,0.0006155432923384829
150000000000.0,3,0.0037559469499999997,0.0333818366,-0.15092434349999997,0.015742,0.010169,0.009481,-2.561104714,-9.446942078,0.6056783173,-1.803,1.2991,-1.939,8.333333333387927e-06,0.00010000000000021103,2.0000000000020002e-05,-5.478119534574333e-05,0.00046441264825047845,-0.00018415558500484153
150000000000.0,3,-0.0234378935,0.037461403,-0.1394309497,0.024311,0.016492,0.01162,-2.5627718445,-9.446549811999999,0.6049526251999999,-1.8026,1.299,-1.9392,8.333333333387927e-06,0.00010000000000021103,-4.999999999999449e-05,0.0005846548236423388,0.0004081201942520707,-0.00022403227813061477
150000000000.0,3,-0.04641487445,0.0020397832,-0.14332418975,0.027596,0.029251,0.013741,-2.5649293075,-9.445961413,0.6043642262,-1.8022,1.2987,-1.9393,8.333333333165882e-06,9.999999999976694e-05,1.0000000000065512e-05,-0.0006711924111786338,2.1135171855313217e-05,9.48170331427356e-05
150000000000.0,3,-0.05471130034999999,-0.05650591729999999,-0.12327939715,0.026601,0.040979,0.016922,-2.5673809699999994,-9.445373014,0.60376602055,-1.8018,1.2985,-1.9393,8.333333333387927e-06,0.00010000000000021103,9.99999999995449e-06,0.0005487436874687113,0.0006930695493181371,-9.374085267532806e-05
150000000000.0,3,-0.054574007249999994,-0.13339005329999998,-0.1079123766,0.019193,0.050629,0.019028,-2.5697345659999997,-9.444784615,0.6026186425,-1.8011,1.2983,-1.9394,8.333333333387927e-06,4.999999999988347e-05,-3.0000000000085514e-05,-0.00026938261651032747,0.0001899301376389051,0.00036844378332556715
150000000000.0,3,-0.026585828149999997,-0.17170463484999998,-0.08395473064999999,0.012857,0.061335,0.022199,-2.571892029,-9.4442942825,0.6008044122499999,-1.8003,1.2981,-1.9396,8.333333333165882e-06,4.999999999988347e-05,5.000000000032756e-06,0.0004041486167745134,0.0001358291430764158,0.0006708732396569772
150000000000.0,3,0.007462860649999999,-0.14736452954999998,-0.0830819388,0.008648,0.069894,0.02324,-2.5737552925,-9.4439020165,0.5982841031999999,-1.7992,1.298,-1.94,8.333333333387927e-06,3.333333333355171e-05,5.000000000032756e-06,7.905001676666856e-05,0.00031907404937236983,0.00046925975887956994
150000000000.0,3,0.046336421249999996,-0.06751878524999999,-0.10135172775,0.010783,0.072007,0.02537,-2.5757166225,-9.443607816999998,0.5956068877499999,-1.798,1.2978,-1.9404,8.333333333387927e-06,3.333333333310762e-05,9.99999999995449e-06,-2.1662713756143148e-07,-5.1398620632747694e-05,0.0007729366233943935
150000000000.0,3,0.08690653229999999,0.0032950343999999998,-0.101793027,0.01397,0.070916,0.025371,-2.5771876199999997,-9.4433136175,0.59335135825,-1.7971,1.2977,-1.9406,-1.4285714285744433e-05,3.333333333355171e-05,4.0000000000040004e-05,0.00043363090019221673,0.00021082959607343632,0.0008011889240111536
150000000000.0,3,0.11625783574999998,0.0160632927,-0.11566943675,0.012875,0.066665,0.023233,-2.5780702185,-9.443215551,0.5909193090499999,-1.7961,1.2977,-1.9408,-1.4285714285744433e-05,-1.4285714285744433e-05,-5.000000000032756e-06,0.0010944949708595608,9.129207871128031e-05,0.0007268946130198906
150000000000.0,3,0.14599159855,-0.013131104349999999,-0.1167972015,0.007455,0.056056,0.022164,-2.5781682850000003,-9.443411683999999,0.58831074015,-1.7951,1.2978,-1.9412,-1.4285714285744433e-05,-1.4285714285744433e-05,-5.000000000032756e-06,-0.0004257550502699825,0.00010395557745512818,0.0006679971178353838
150000000000.0,3,0.17393074439999998,-0.05767290864999999,-0.12095522109999998,0.003094,0.044372,0.021096,-2.577579886,-9.4437058835,0.5854373917,-1.7941,1.2979,-1.9417,-1.4285714285522388e-05,-1.4285714285744433e-05,2.0000000000020002e-05,9.816592444455985e-05,6.088501658996215e-05,0.000649391224471163
150000000000.0,3,0.19706463174999997,-0.08809313695,-0.11618918919999999,0.004107,0.036908,0.018961,-2.5761088885,-9.4442942825,0.58276017625,-1.7933,1.2981,-1.9422,-1.4285714285744433e-05,-1.4285714285744433e-05,-2.0000000000020002e-05,-6.118929267273643e-06,0.00039720899666662035,0.00046252549384906416
150000000000.0,3,0.22976000284999998,-0.09193734375,-0.09791940025,0.005111,0.026249,0.013627,-2.573657226,-9.4450788145,0.58079884625,-1.7927,1.2984,-1.9424,-1.4285714285744433e-05,-1.4285714285744433e-05,-9.99999999995449e-06,0.000143565615208896,0.00031208212515476674,0.0003741040015374786
150000000000.0,3,0.25370784215,-0.07774712119999999,-0.08564147444999999,0.003965,0.013478,0.008292,-2.5702248985,-9.4460594795,0.57928862215,-1.7925,1.2988,-1.9425,-1.4285714285744433e-05,-1.4285714285744433e-05,2.999999999997449e-05,0.0004610651004468558,-8.657454268656828e-05,0.0001439857779268472
150000000000.0,3,0.24609788174999997,-0.06334115235,-0.069431082,0.000721,0.004985,0.002946,-2.5664983715,-9.447138210999999,0.5780431776,-1.7923,1.2992,-1.9425,-9.999999999998899e-05,-1.4285714285744433e-05,-1.4999999999987246e-05,-0.000612377045276169,3.324477412003368e-05,0.0006952858531237283
150000000000.0,3,0.22322877394999996,-0.05074941374999999,-0.06450814369999999,0.001719,-0.004611,0.000814,-2.5627718445,-9.4482169425,0.57701347935,-1.7923,1.2996,-1.9426,-9.999999999998899e-05,4.999999999988347e-05,-1.4999999999987246e-05,-0.00021823510886154196,9.080870638333849e-05,0.00012884362638665436
150000000000.0,3,0.20116381144999998,-0.026036655749999995,-0.05641765745,0.007001,-0.011048,0.00082,-2.5594375835,-9.4491976075,0.5768565729499999,-1.7925,1.3,-1.9425,-9.999999999998899e-05,5.000000000032756e-05,-9.99999999995449e-06,0.0009508614369071466,0.00018643356346559337,-0.0002548495957732655
150000000000.0,3,0.14836480785,-0.01371950335,-0.0469542402,0.010131,-0.014279,0.00936,-2.5575743199999996,-9.449687939999999,0.5774155519999999,-1.7928,1.3001,-1.9422,-9.999999999998899e-05,-0.00010000000000021103,1.999999999990898e-05,-0.0007963869259919321,-0.0006289349780284059,0.00033639413818775665
150000000000.0,3,0.0750797124,-0.037853669,-0.0302437086,0.010047,-0.020679,0.015769,-2.557378187,-9.449589873499999,0.5785138968,-1.7933,1.3001,-1.942,-0.00010000000000021103,-4.999999999988347e-05,1.0000000000065512e-05,0.00011700093435917935,-6.446874184851126e-05,-0.00023474500378783958
150000000000.0,3,0.0167301449,-0.09046634625,-0.011640493549999999,0.005778,-0.017452,0.02109,-2.5586530514999994,-9.4491976075,0.5795141750999999,-1.7935,1.3,-1.9419,-0.00019999999999997797,-4.999999999988347e-05,-2.0000000000020002e-05,-0.0014731333419693016,-0.00025187103613322215,-0.00017720186591496656
150000000000.0,3,-0.014808041499999999,-0.1220143393,-0.0035107806999999996,0.003605,-0.01957,0.025359,-2.5606143814999998,-9.448609208499999,0.58021044725,-1.7936,1.2998,-1.942,-9.999999999998899e-05,3.333333333310762e-05,-9.99999999995449e-06,0.0002119747219662127,-0.0002393880314643937,-0.00029734145919491084
150000000000.0,3,0.0010787315,-0.13585152245,0.0068842683,-0.002796,-0.019517,0.025345,-2.5624776449999995,-9.448118875999999,0.5805929066,-1.7936,1.2996,-1.9423,-0.00019999999999997797,3.333333333355171e-05,-1.0000000000065512e-05,0.0002783937453483265,-5.4456483209452955e-06,-0.00039185914612627215
150000000000.0,3,0.040246491599999996,-0.1248190412,-0.0019122967499999998,-0.008141,-0.019475,0.027466,-2.5637525095,-9.4478246765,0.5802594805,-1.7934,1.2994,-1.9427,-9.999999999998899e-05,3.333333333310762e-05,-2.0000000000020002e-05,0.0016897181435544528,0.000581856779807044,-0.0008375284898649582
150000000000.0,3,0.072765343,-0.08458235625,-0.00505042475,-0.012389,-0.018372,0.025316,-2.5645370415,-9.447628543499999,0.5795141750999999,-1.793,1.2994,-1.9433,-0.00019999999999997797,-4.999999999988347e-05,3.0000000000085514e-05,0.00045743303542500335,0.0003161931055215561,-0.0002171144157872007
150000000000.0,3,0.09057421939999999,-0.020790097999999996,0.015759286549999998,-0.015527,-0.011951,0.023158,-2.5651254405,-9.447530476999999,0.5786021566499999,-1.7926,1.2993,-1.9438,-0.00019999999999997797,-4.999999999988347e-05,3.999999999992898e-05,-0.0016894521101962212,-0.0008075823089763734,0.0007441756709205549
150000000000.0,3,0.08317019865,0.022908334399999997,0.029292463549999998,-0.01545,-0.004489,0.019938,-2.5658119059999995,-9.4474324105,0.57793530445,-1.7923,1.2993,-1.9442,-9.999999999998899e-05,9.999999999976694e-05,-9.99999999995449e-06,0.0009472976982656256,0.0003902699838156387,-0.00037744193731148457
150000000000.0,3,0.05180853195,0.0301652554,0.04608144835,-0.015366,0.002973,0.015654,-2.5667925709999997,-9.447138210999999,0.5773076788499999,-1.792,1.2992,-1.9446,-0.00019999999999997797,4.999999999988347e-05,4.999999999999449e-05,-0.00012296459912497504,-0.0002714696789072324,-0.00010456533190650319
150000000000.0,3,0.00914960445,0.00589379665,0.045051750099999996,-0.01956,0.012597,0.016697,-2.5682635685,-9.4468440115,0.57609165425,-1.7915,1.2991,-1.9451,-9.999999999998899e-05,5.000000000032756e-05,1.333333333330966e-05,0.00022094986870935251,-0.0002118886947350962,0.00012411684200808182
150000000000.0,3,-0.03807922195,-0.0185737951,0.028792324399999996,-0.023761,0.02222,0.01881,-2.570715231,-9.4462556125,0.57379689815,-1.7904,1.2989,-1.946,-9.999999999998899e-05,2.0000000000131024e-05,1.333333333330966e-05,-0.0002307016908651427,-0.00025060318659875236,0.0005789440227990106
150000000000.0,3,-0.04542440279999999,-0.0400307453,0.014945334599999999,-0.024882,0.02009,0.026287,-2.573657226,-9.4456672135,0.57118832925,-1.7892,1.2986,-1.947,-0.00019999999999997797,1.9999999999686935e-05,1.333333333330966e-05,-0.00040390877556495397,-8.09267030794647e-05,0.0002887473374042493
150000000000.0,3,-0.0453851762,-0.060301090849999996,0.00789435325,-0.019625,0.013648,0.031646,-2.5771876199999997,-9.444784615,0.56895241305,-1.7881,1.2983,-1.948,-9.999999999998899e-05,2.0000000000131024e-05,5.000000000032756e-06,0.0003589950415032739,0.00013780985265476886,7.835654047516627e-05
150000000000.0,3,-0.039403119699999996,-0.03955021945,0.0127094184,-0.01644,0.013618,0.034856,-2.5810122134999998,-9.4439020165,0.5671381828,-1.7871,1.298,-1.9489,-0.00020000000000020002,1.9999999999686935e-05,5.000000000032756e-06,-0.0008151129850981764,0.00010226757176745593,0.0006593219926376293
150000000000.0,3,0.00099047165,-0.018210949049999998,0.024497011699999998,-0.015353,0.014677,0.032722,-2.5843464744999998,-9.443117484499998,0.56567699195,-1.7863,1.2976,-1.9496,-9.999999999998899e-05,2.0000000000131024e-05,9.99999999995449e-06,0.0009229947975955,0.0006597010685713833,-0.00017217135821567808
150000000000.0,3,0.0409721837,0.0048640984,0.029253236949999997,-0.010005,0.013571,0.028461,-2.586602004,-9.4425290855,0.5646571003499999,-1.7857,1.2974,-1.9501,-9.999999999998899e-05,5.000000000032756e-05,2.999999999997449e-05,-0.000896764588956378,0.00016687241751323079,0.0005255958837633301
150000000000.0,3,0.0338133292,0.021103910799999997,0.0449340703,-0.003535,0.017787,0.022059,-2.5885633339999994,-9.4419406865,0.5643923207999999,-1.7855,1.2972,-1.9502,-0.00019999999999997797,4.999999999988347e-05,-1.999999999990898e-05,8.309428219055448e-06,0.0005631598311996999,2.0536570684015487e-05
150000000000.0,3,0.03478418755,0.025271737049999996,0.059624432,0.002914,0.021998,0.019927,-2.590132398,-9.4415484205,0.56497091315,-1.7856,1.2971,-1.9499,-9.999999999998899e-05,4.999999999988347e-05,-2.0000000000020002e-05,-0.000312769494982712,0.0008047713081662522,-4.6570511206933674e-05
150000000000.0,3,0.0340486888,0.0207116448,0.06006573125,0.004095,0.032649,0.014572,-2.5914072624999998,-9.4411561545,0.56571621855,-1.7857,1.2969,-1.9494,-9.999999999998899e-05,4.999999999988347e-05,2.0000000000020002e-05,0.001058844423817984,0.0001273703135689086,0.00014317163970245517
150000000000.0,3,0.0221826423,0.0009414384,0.07932599185,0.003108,0.040119,0.011354,-2.5923879274999995,-9.440861954999999,0.5663634574499999,-1.7859,1.2968,-1.9489,-9.999999999998899e-05,0.00010000000000021103,-1.0000000000065512e-05,5.735140395035643e-06,0.00044239174948113025,0.00022003243124180116
150000000000.0,3,0.0103558224,-0.0189856744,0.08316039199999999,0.002036,0.039061,0.011354,-2.5933685925,-9.440469688999999,0.56701069635,-1.786,1.2967,-1.9484,-0.00019999999999997797,-0.00010000000000021103,-2.0000000000020002e-05,-0.0017204881762888924,7.729941174594579e-05,0.0009111906275456327
150000000000.0,3,0.00542307745,-0.035588332849999994,0.05831034089999999,0.005174,0.034766,0.017771,-2.5949376565,-9.440077423,0.5674716088999999,-1.7861,1.2965,-1.948,-9.999999999998899e-05,4.999999999988347e-05,6.0000000000060005e-05,-0.0009411717573921674,-0.00019618611823002396,0.00047284796872837376
150000000000.0,3,0.03323473685,-0.0361669252,0.0608404566,0.008298,0.026213,0.019924,-2.5962125209999996,-9.4395870905,0.5685405337499999,-1.7864,1.2963,-1.9474,-9.999999999998899e-05,5.000000000032756e-05,-4.0000000000040004e-05,0.00043699391099427665,0.00017313301669608094,0.0001928451820467636
150000000000.0,3,0.062144741049999994,-0.03635325154999999,0.07057846005,0.006112,0.019835,0.020995,-2.597193186,-9.439292891,0.56987423815,-1.7868,1.2962,-1.9468,-9.999999999998899e-05,0.00019999999999997797,2.0000000000020002e-05,0.0014040244344308839,0.0002617497407151337,7.76010614775835e-05
150000000000.0,3,0.09971401719999999,-0.029253236949999997,0.0478368387,0.000757,0.015618,0.018851,-2.5972912525,-9.4391948245,0.5704724438,-1.787,1.2962,-1.9464,-9.999999999998899e-05,0.0001499999999996504,9.99999999995449e-06,-0.0003196882124028022,-0.0003238139608705559,0.0008539604836661496
150000000000.0,3,0.11866046499999999,-0.03437230825,0.0102577559,-0.008847,0.014632,0.01776,-2.5970951195,-9.439292891,0.5695898453,-1.7867,1.2962,-1.9466,-9.999999999998899e-05,0.0001500000000000945,-1.999999999990898e-05,0.0027377160247605836,0.000661680661292019,-0.0007342466381001778
150000000000.0,3,0.12096502775,-0.039726739149999996,0.018044235999999998,-0.013125,0.012537,0.016679,-2.5967028535,-9.439489023999998,0.5683836273499999,-1.7863,1.2963,-1.9469,-9.999999999998899e-05,-9.999999999976694e-05,2.999999999997449e-05,-0.0013967790187847662,-0.000561146105278576,0.0006352858896856439
150000000000.0,3,0.08571012099999999,-0.0159259996,0.027135000549999996,-0.013137,0.01147,0.017742,-2.5968989865,-9.439489023999998,0.5672166359999999,-1.7858,1.2963,-1.9473,-9.999999999998899e-05,9.999999999976694e-05,9.99999999995449e-06,-0.0009450373864887673,8.807886434025747e-05,-8.777743354171363e-05
150000000000.0,3,0.028831550999999997,-0.005491723999999999,0.025409030149999998,-0.014213,0.011476,0.019873,-2.5983699839999996,-9.4391948245,0.56610848455,-1.7853,1.2962,-1.9477,-0.00019999999999997797,0.00010000000000021103,-2.999999999997449e-05,0.000431327319699637,0.000253819090533014,0.00026890797592438176
150000000000.0,3,-0.02978279605,-0.01154242705,0.019309293849999996,-0.014183,0.017865,0.024134,-2.6011158459999995,-9.438508359,0.5645688405,-1.7845,1.2959,-1.9484,-9.999999999998899e-05,0.00019999999999997797,-2.999999999997449e-05,0.0008706880284212737,-8.258405422623127e-05,0.00021410393177001552
150000000000.0,3,-0.05450536069999999,-0.040020938650000004,0.03486264075,-0.010981,0.017839,0.024143,-2.604253974,-9.437723827,0.56353914225,-1.7839,1.2956,-1.9489,-0.00010000000000021103,9.999999999976694e-05,-1.0000000000065512e-05,0.00030307571142174083,0.00029546904494259785,0.0002063587618152951
150000000000.0,3,-0.04833697785,-0.07075497975,0.05271074374999999,-0.008847,0.018884,0.026283,-2.6072940355,-9.436939295,0.5630488097499999,-1.7835,1.2953,-1.9491,-9.999999999998899e-05,0.00010000000000021103,2.0000000000020002e-05,-0.0013098369115953634,-0.00017285163030078543,0.0007102124488933548
150000000000.0,3,-0.0205547384,-0.09897851844999998,0.0521909913,-0.013166,0.013589,0.02842,-2.6099418309999995,-9.436252829499999,0.5623721508999999,-1.783,1.2951,-1.9495,-9.999999999998899e-05,0.00010000000000021103,1.0000000000065512e-05,-0.0002992410072024665,-0.00022135040889481594,0.0006601547914653061
150000000000.0,3,0.03221484525,-0.0955952242,0.0120229529,-0.016464,0.004021,0.032696,-2.6120992939999996,-9.435762496999999,0.5607834735999999,-1.7823,1.2949,-1.9502,-9.999999999998899e-05,4.999999999988347e-05,4.999999999999449e-05,-0.0017840970826537017,-2.6284451152491783e-05,0.00039077594647363156
150000000000.0,3,0.0878479707,-0.0577611685,-0.010473502199999998,-0.021886,-0.005527,0.034831,-2.6137664244999996,-9.435370231,0.5585965906499999,-1.7813,1.2948,-1.9512,-9.999999999998899e-05,4.999999999988347e-05,5.999999999994898e-05,-0.0006945144113115198,-0.00013359158631476298,0.0003128747429745893
150000000000.0,3,0.10046912925,-0.03325435015,-0.0166516917,-0.021934,-0.010856,0.035899,-2.6154335549999996,-9.4350760315,0.5563900944,-1.7804,1.2946,-1.9523,0.00029999999999996696,0.00010000000000021103,0.0009400000000000519,0.0015819662629334985,-0.014409254454128995,0.0011371654271119525
150000000000.0,3,0.0847490693,-0.00995374975,-0.0292826569,-0.024039,-0.009768,0.031618,-2.6171987519999997,-9.434683765499999,0.55377171885,-1.7793,1.2945,-1.9535,-9.999999999998899e-05,0.00019999999999997797,7.00000000000145e-05,0.0008168936480226208,-6.502731958724084e-05,-0.00014424121061029638
150000000000.0,3,0.03727507665,0.010983447999999998,-0.024850051099999996,-0.023959,-0.002305,0.027332,-2.6194542815,-9.4342914995,0.5511239233499999,-1.7782,1.2943,-1.9547,-0.00019999999999997797,0.00019999999999997797,-4.999999999999449e-05,-2.9906025627690624e-05,0.0010797816780683256,-0.000111238333849073
150000000000.0,3,0.004834678449999999,0.0063154826,-0.013954862949999999,-0.013222,0.00294,0.022005,-2.621513678,-9.433801166999999,0.5492116266,-1.7773,1.2942,-1.9556,-5.0000000000105516e-05,0.00019999999999997797,4.499999999996174e-05,0.0019024781589689344,-0.00018022425881092374,-0.0005779667705860803
150000000000.0,3,-0.0221434157,0.0082179727,0.00442279915,-0.005715,0.007142,0.020945,-2.6240634069999995,-9.4331147015,0.54833883475,-1.7768,1.2939,-1.956,-4.999999999988347e-05,0.00019999999999997797,4.499999999996174e-05,0.0005202941011268614,-0.0012309508944305936,-0.0001446035412571156
150000000000.0,3,-0.049445129299999994,0.00540346415,0.010591182,0.003893,0.009192,0.023097,-2.6271034685,-9.432232102999999,0.54845651455,-1.7766,1.2936,-1.9561,-4.999999999988347e-05,0.0002999999999997449,-9.99999999995449e-06,0.002591901336843172,0.0002656850574405123,-0.0005760942458978846
150000000000.0,3,-0.0471307599,-0.005952636549999999,0.008571012099999999,0.007114,0.012361,0.024168,-2.63014353,-9.4313495045,0.54898607365,-1.7766,1.2933,-1.9561,-5.0000000000105516e-05,0.00010000000000021103,-7.00000000000145e-05,7.665418361080256e-05,0.0012413566895561612,-0.00021827986639832986
150000000000.0,3,-0.029017877349999995,-0.0043345393,-0.01832862885,0.001787,0.013471,0.024159,-2.6329874584999997,-9.430663038999999,0.5486428409,-1.7762,1.293,-1.9563,-0.0005999999999999339,0.00039999999999995595,-0.0008700000000000374,-0.0006542261609832067,0.015498988330393093,-0.0016061141792471645
150000000000.0,3,0.00589379665,-0.0318912258,-0.047934905199999996,-0.00572,0.008206,0.023086,-2.6350468549999997,-9.430172706499999,0.5471326168,-1.7755,1.2928,-1.9569,-9.999999999998899e-05,9.999999999976694e-05,2.0000000000020002e-05,8.89172989029241e-05,0.00019518777723348535,-0.00036114487281091456
150000000000.0,3,0.04714056654999999,-0.04659139415,-0.04978836204999999,-0.015356,0.00296,0.020939,-2.6361255865,-9.4299765735,0.5447888274499999,-1.7746,1.2927,-1.9578,-9.999999999998899e-05,0.00020000000000042206,2.0000000000020002e-05,0.00027331057055968166,0.0006963929227949972,-0.0006955931606635879
150000000000.0,3,0.053936574999999994,-0.032587497949999995,-0.06948011525,-0.015374,-0.000234,0.018805,-2.6370081849999996,-9.429878507,0.5420331588,-1.7735,1.2927,-1.9588,-9.999999999998899e-05,9.999999999976694e-05,0.00010999999999994348,-0.00021037756216357728,-0.0003430827390260571,0.00019900673230388577
150000000000.0,3,0.0405799177,-0.00028439285,-0.05832014755,-0.010046,-0.001342,0.017745,-2.63798885,-9.4297804405,0.54000318225,-1.7727,1.2926,-1.9597,-9.999999999998899e-05,0.00010000000000021103,2.0000000000020002e-05,-0.00046896377000216205,0.0005213662605347835,6.547977524817838e-05
150000000000.0,3,0.0040795664,0.0211235241,-0.023153500649999995,-0.007868,0.005033,0.018805,-2.6397540469999994,-9.429290108,0.53880677095,-1.7721,1.2925,-1.9602,-5.0000000000105516e-05,0.00019999999999997797,2.0000000000020002e-05,0.0005988280049749051,0.000268459419736633,-0.0003222688609554325
150000000000.0,3,-0.02028995885,-0.00909076455,-0.0316950928,-0.010041,0.002916,0.023076,-2.6422057094999998,-9.428701708999998,0.5373259668,-1.7714,1.2923,-1.9609,-4.999999999988347e-05,0.00019999999999997797,-4.999999999999449e-05,0.001441501493814279,0.0008486724112697352,-0.0005660475755195904
150000000000.0,3,-0.0200644059,-0.0712158923,-0.02933169015,-0.013222,0.008266,0.027331,-2.644853505,-9.42811331,0.5354038633999999,-1.7705,1.292,-1.9618,-9.999999999998899e-05,9.999999999976694e-05,2.999999999997449e-05,-0.00036554692438350855,0.00015555698276337182,0.0001977823179810656
150000000000.0,3,0.0023732093,-0.11711101429999998,-0.0076688003,-0.016423,0.01042,0.030521,-2.647207101,-9.427524910999999,0.5333444668999999,-1.7696,1.2918,-1.9626,-9.999999999998899e-05,0.00019999999999997797,2.999999999997449e-05,-7.21706026733937e-05,-2.1557379071612814e-05,0.00024153354418210427
150000000000.0,3,0.04192342875,-0.12363243654999999,-0.0045306723,-0.012215,0.002927,0.030536,-2.6488742315,-9.427132645,0.53170675635,-1.7689,1.2917,-1.9633,-4.999999999988347e-05,0.00019999999999997797,-4.999999999999449e-05,0.001194211692014946,0.0006984671735299486,0.00013975420096556945
150000000000.0,3,0.067665885,-0.0842391235,-0.041962655349999996,-0.011139,0.00292,0.028397,-2.6502471625,-9.4268384455,0.5296375531999999,-1.768,1.2916,-1.9641,-5.0000000000105516e-05,0.000300000000000189,4.999999999999449e-05,0.0031618533859794073,0.0012570134279730194,-0.0009561997517111287
150000000000.0,3,0.0951441183,-0.042099948449999994,-0.08246411984999999,-0.008974,0.003974,0.023053,-2.6509336279999998,-9.4268384455,0.5271858907,-1.7671,1.2916,-1.965,-5.0000000000105516e-05,0.00019999999999997797,-2.999999999997449e-05,0.000303710788011724,0.00019209375079309865,0.0007345920465371414
150000000000.0,3,0.13149736985,0.00608992965,-0.06794047119999999,-0.00899,-0.000284,0.018781,-2.6508355614999997,-9.426936512,0.52523436735,-1.7664,1.2916,-1.9657,-5.0000000000105516e-05,9.999999999976694e-05,8.000000000008001e-05,-0.0003176258053785297,-0.0003111554777925907,0.00032406337341539526
150000000000.0,3,0.1426279176,0.03809883525,-0.04588531535,-0.011115,-0.002392,0.013434,-2.650149096,-9.4272307115,0.52352801025,-1.7658,1.2917,-1.9663,-9.999999999998899e-05,0.00010000000000021103,1.999999999990898e-05,-0.0010956431146373902,-0.00024438860991438105,0.0002899149679009838
150000000000.0,3,0.12977139945,0.03146953985,-0.05557428555,-0.008889,0.00612,0.008077,-2.6490703644999996,-9.4276229775,0.52154706695,-1.7652,1.2919,-1.9669,-4.999999999988347e-05,0.00019999999999997797,2.0000000000020002e-05,0.0004637831931859626,1.8333535618531016e-05,-0.00035673533993429984
150000000000.0,3,0.11927828395,0.01801481605,-0.04253144104999999,-0.003518,0.008212,0.003805,-2.6476974335,-9.42811331,0.52017413595,-1.7648,1.292,-1.9672,-5.0000000000105516e-05,0.00010000000000021103,1.0000000000065512e-05,-0.0012076720466935864,0.00020215468850870444,6.617900337513305e-05
150000000000.0,3,0.08267005949999999,-0.0033146476999999994,-0.0219276694,0.000685,0.002845,0.008085,-2.6470109679999996,-9.428309443,0.51962496355,-1.7646,1.2921,-1.9674,-9.999999999998899e-05,9.999999999976694e-05,-1.0000000000065512e-05,0.0004410887774550787,-4.102112369119837e-06,8.095124171347834e-05
150000000000.0,3,0.014886494699999999,-0.00803164635,-0.01832862885,0.011259,-0.003645,0.016652,-2.648187766,-9.428015243499999,0.5203604623,-1.7648,1.292,-1.9672,-9.999999999998899e-05,0.00019999999999997797,-9.99999999995449e-06,0.0006733532381191232,-0.000267391260837746,0.0003676250698458894
150000000000.0,3,-0.01048330885,-0.0270467407,-0.020025179299999998,0.018676,-0.007971,0.019875,-2.6500510295,-9.427328778,0.521909913,-1.7652,1.2918,-1.9668,-9.999999999998899e-05,0.00019999999999997797,-1.0000000000065512e-05,0.0007189772376512416,0.0005013027870712783,-0.0004535240799712348
150000000000.0,3,0.00469738535,-0.05475052695,-0.053357982649999997,0.011214,-0.006844,0.019859,-2.6516200935,-9.4268384455,0.5224688920499999,-1.7653,1.2916,-1.9668,-9.999999999998899e-05,0.00010000000000021103,-2.999999999997449e-05,-0.0009449760842006327,-0.0003092507219288887,0.00038872005226586737
150000000000.0,3,0.014925721299999998,-0.07516797224999999,-0.05951655884999999,-0.003703,-0.006716,0.01556,-2.6526007584999998,-9.4266423125,0.52160590685,-1.765,1.2915,-1.9672,-9.999999999998899e-05,9.999999999976694e-05,1.4999999999987246e-05,-0.0003239136014490107,0.00027763797686741754,-0.00031560709059919034
150000000000.0,3,0.0246539181,-0.08972104084999999,-0.05443671415,-0.02188,-0.011893,0.014466,-2.6531891575,-9.4266423125,0.5192032776,-1.764,1.2915,-1.9683,-9.999999999998899e-05,-0.00019999999999997797,1.4999999999987246e-05,-0.005073944528740881,-0.0009019757356023561,0.0018306346788952155
150000000000.0,3,-0.0009610516999999999,-0.06800911775,-0.046660040699999995,-0.026201,-0.01825,0.014468,-2.6541698224999997,-9.426544245999999,0.51636915575,-1.7629,1.2914,-1.9696,-9.999999999998899e-05,0.00010000000000021103,1.0000000000065512e-05,-0.0006166994477272425,-0.0002260610541962027,0.00021754298656340154
150000000000.0,3,-0.01589657965,-0.0077472535,-0.057221802749999995,-0.025162,-0.019327,0.017675,-2.656033086,-9.42615198,0.5133192876,-1.7617,1.2913,-1.971,-9.999999999998899e-05,0.00019999999999997797,-2.0000000000020002e-05,0.0012884025482726713,0.0001541105764264472,-0.0003808503466586899
150000000000.0,3,-0.016553625199999998,0.04285506049999999,-0.08788719729999998,-0.017684,-0.018321,0.01662,-2.6580924825,-9.425759714,0.5104557458,-1.7605,1.2912,-1.9724,-5.0000000000105516e-05,0.00019999999999997797,9.99999999995449e-06,0.0009560279692508722,3.6594609817752755e-05,-0.0001636969552012424
150000000000.0,3,-0.0375006296,0.057221802749999995,-0.10437217594999999,-0.00809,-0.017335,0.018773,-2.6606422115,-9.425171314999998,0.5082394428999999,-1.7595,1.2909,-1.9735,-4.999999999988347e-05,0.00019999999999997797,-1.999999999990898e-05,0.0008746436884949915,-0.000185002537467005,-5.4344918189563884e-05
150000000000.0,3,-0.028027405699999997,0.04041320464999999,-0.10030241619999998,-0.006953,-0.009881,0.015562,-2.6627996745,-9.424680982499998,0.50626830625,-1.7587,1.2908,-1.9745,0.00039999999999995595,-0.00019999999999997797,0.0010299999999999754,0.0011867753197902786,-0.016979154904140703,0.0016415047334934485
150000000000.0,3,-0.01997614605,-0.0182207557,-0.10680422514999999,-0.013273,0.002956,0.018731,-2.6648590709999995,-9.42419065,0.5033459245499999,-1.7575,1.2906,-1.9757,-4.999999999988347e-05,9.999999999976694e-05,9.99999999995449e-06,0.0001774472386912862,-0.0004156024677366421,-6.476453401393911e-05
150000000000.0,3,-0.0127094184,-0.07239269029999999,-0.09627188304999999,-0.017486,0.010451,0.018709,-2.6665262014999995,-9.4238964505,0.4998449505,-1.7561,1.2905,-1.977,-5.0000000000105516e-05,0.00010000000000021103,-9.00000000000345e-05,-0.0002597161530917269,0.0016071053045096928,-0.0003946042445570619
150000000000.0,3,-0.00016671305,-0.08586702739999999,-0.06269391345,-0.0121,0.017865,0.019771,-2.6681933319999995,-9.423602251,0.49694218209999996,-1.7549,1.2904,-1.978,-5.0000000000105516e-05,9.999999999976694e-05,9.00000000000345e-05,-8.574514769721375e-05,-0.001304245087174305,0.00016222174921720622
150000000000.0,3,-0.0039422733,-0.10865768199999999,-0.08471964935000001,-0.005671,0.023139,0.021905,-2.669958529,-9.4233080515,0.4939805738,-1.7537,1.2903,-1.9789,-4.999999999988347e-05,0.00010000000000021103,-2.999999999997449e-05,-1.051322879108696e-05,0.0009902781931174776,-5.583726351554574e-05
150000000000.0,3,-0.01581812645,-0.11469857839999999,-0.10012589649999999,0.001833,0.026279,0.018709,-2.6716256595,-9.422915785499999,0.49143084479999993,-1.7527,1.2901,-1.9797,-4.999999999988347e-05,4.999999999988347e-05,2.0000000000020002e-05,-0.00013968469369807224,0.0004422379325013104,0.00020376990864789946
150000000000.0,3,-0.0153376006,-0.0809244758,-0.0886913426,0.000746,0.026285,0.021908,-2.6737831224999997,-9.422425452999999,0.48927338179999996,-1.7518,1.2899,-1.9803,-5.0000000000105516e-05,4.999999999988347e-05,-0.0001300000000000745,-6.914834738891429e-05,0.0020918502258737703,2.6329867489405245e-05
150000000000.0,3,-0.008070872949999999,-0.044012245199999994,-0.0712355056,-0.006721,0.026349,0.020827,-2.6759405855,-9.421935120499999,0.48692959245,-1.7508,1.2898,-1.9811,-9.999999999998899e-05,2.4999999999941735e-05,4.0000000000040004e-05,0.0002027453361201914,3.797063558197422e-05,0.00022535487337327353
150000000000.0,3,0.022231675549999996,-0.02083913125,-0.0539169617,-0.017324,0.034961,0.020792,-2.6777057825,-9.421640921,0.48368359129999994,-1.7495,1.2896,-1.982,-4.999999999988347e-05,2.4999999999941735e-05,0.0001100000000000545,-0.00020560670385094681,-0.0010700194583730394,0.0003651212173227947
150000000000.0,3,0.0361276986,-0.033862362449999996,-0.06714613254999999,-0.024734,0.041419,0.018629,-2.6789806469999995,-9.421444788,0.47924117885,-1.7478,1.2896,-1.9833,-5.0000000000105516e-05,2.5000000000385825e-05,-4.999999999999449e-05,-0.00017754747343246002,0.0015419332636859018,0.00019352241801806613
150000000000.0,3,0.042609894249999995,-0.051141679749999995,-0.0664694737,-0.025795,0.042494,0.018622,-2.680157445,-9.421346721499999,0.47453398685,-1.746,1.2896,-1.9847,-5.0000000000105516e-05,2.4999999999941735e-05,2.999999999997449e-05,0.001077159924397053,-0.0002147770310896302,0.0003563670165300792
150000000000.0,3,0.04745437935,-0.04786625864999999,-0.0419136221,-0.024757,0.037161,0.015426,-2.680941977,-9.421346721499999,0.47031712735,-1.7445,1.2896,-1.9859,-4.999999999988347e-05,3.333333333310762e-05,2.0000000000020002e-05,-0.000281510986850364,0.0005877951041493024,0.000318082237711792
150000000000.0,3,0.07246133684999999,-0.025879749349999998,-0.07904159899999999,-0.024841,0.026508,0.014372,-2.6812361764999997,-9.421444788,0.46570800185,-1.7428,1.2896,-1.9873,-4.999999999988347e-05,3.333333333355171e-05,2.5000000000052758e-05,0.00017550470769034376,0.00017780901919972614,0.0004752220856669709
150000000000.0,3,0.13162485629999998,-0.0264387284,-0.11197232969999998,-0.023808,0.01692,0.004774,-2.679765179,-9.4221312535,0.46092235665,-1.7411,1.2898,-1.9888,-5.0000000000105516e-05,3.333333333310762e-05,2.4999999999941735e-05,0.0005341166209293924,7.541933154775471e-05,0.00043975838342946716
150000000000.0,3,0.17336195869999999,-0.010071429549999998,-0.10525477444999999,-0.029202,0.007379,0.0005,-2.67721545,-9.4231119185,0.4563034245,-1.7396,1.2902,-1.9902,-5.0000000000105516e-05,2.4999999999941735e-05,3.999999999992898e-05,-8.698711287280503e-06,-0.0002595211095117733,6.583959552752816e-05
150000000000.0,3,0.1869735889,-0.00287334845,-0.08964258765,-0.031428,-0.004322,-0.000564,-2.674273455,-9.42419065,0.45191004529999995,-1.7382,1.2906,-1.9917,-4.999999999988347e-05,2.5000000000385825e-05,-9.99999999995449e-06,0.0001370952832782102,0.0005451106087970281,0.00010850321088140547
150000000000.0,3,0.15489603675,-0.0121798593,-0.0816697812,-0.027313,-0.020344,0.00373,-2.6718217925000003,-9.424975182,0.4482815848,-1.737,1.2909,-1.9931,-0.00019999999999997797,2.4999999999941735e-05,2.999999999997449e-05,0.0008563913910759613,0.00034167425905273774,-0.00023570012643681082
150000000000.0,3,0.1154438838,-0.0223983886,-0.05875164014999999,-0.011458,-0.03327,0.012311,-2.6706449945,-9.425465514499999,0.44661445429999996,-1.7365,1.291,-1.9939,-4.999999999988347e-05,2.4999999999941735e-05,-9.99999999995449e-06,0.001199168566456299,0.00012154332018421421,-0.0003331367533805363
150000000000.0,3,0.09297684865,-0.04243337455,-0.026203368799999998,0.00228,-0.045112,0.019821,-2.6704488614999997,-9.425465514499999,0.4472813065,-1.7367,1.2911,-1.9941,-5.0000000000105516e-05,-4.999999999988347e-05,7.999999999996898e-05,0.0008094673787579776,-0.0015529462684096274,-0.0003595541987344575
150000000000.0,3,0.04490465034999999,-0.050484634199999996,-0.00408937305,0.001159,-0.050433,0.021963,-2.6722140585,-9.4248771155,0.44882095055,-1.7372,1.2908,-1.9941,-5.0000000000105516e-05,-5.000000000032756e-05,0.00019000000000002348,-0.00015981220127625484,-0.002762732737689344,-8.82221148308382e-05
150000000000.0,3,0.02001537265,-0.04349249274999999,0.0061781894999999995,-0.011642,-0.0482,0.025137,-2.673881189,-9.424386783,0.44946818944999994,-1.7373,1.2907,-1.9945,-4.999999999988347e-05,2.4999999999941735e-05,3.999999999992898e-05,0.0007323632806077729,-0.0001011341756944617,-0.0004886779824944121
150000000000.0,3,0.02544825675,-0.0401876517,-0.00681562175,-0.023366,-0.045973,0.026178,-2.6755483195,-9.4238964505,0.44870327074999994,-1.737,1.2905,-1.9954,-0.00020000000000020002,2.5000000000385825e-05,-7.00000000000145e-05,-0.0009933326274802479,0.00045712824236887606,-0.0007265052399629823
150000000000.0,3,0.011159967699999999,-0.022231675549999996,-0.0112384209,-0.029706,-0.039525,0.024019,-2.6774115829999996,-9.423504184499999,0.44683020059999995,-1.7362,1.2903,-1.9966,-0.00019999999999997797,2.4999999999941735e-05,-0.00010999999999994348,-8.368424026605759e-05,0.0027410700698689006,-0.0008080236760603654
150000000000.0,3,-0.015661220049999997,-0.0140823494,-0.00204958985,-0.029602,-0.027802,0.021865,-2.6795690459999997,-9.423013851999999,0.44482964399999997,-1.7353,1.2901,-1.9979,-0.00019999999999997797,2.4999999999941735e-05,-0.00022999999999995246,0.0009881147388601796,0.0037265733168840853,-0.0009612400225273987
150000000000.0,3,-0.0417959423,-0.0353235533,0.0072961475999999996,-0.016642,-0.010854,0.01759,-2.681922642,-9.4223273865,0.44341748639999995,-1.7347,1.2899,-1.9987,-0.0004999999999999449,0.00019999999999997797,-0.0006400000000000849,-0.0003229543959248904,0.012033518099660467,-0.0017875478274809176
150000000000.0,3,-0.05104361325,-0.04149193615,0.027007514099999998,-0.011142,0.005092,0.010102,-2.683687839,-9.421935120499999,0.4425545012,-1.7342,1.2898,-1.9991,-9.999999999998899e-05,-6.666666666665932e-05,-9.99999999995449e-06,0.0005169289013318146,-8.679638143260782e-05,-0.00042770399314440155
150000000000.0,3,-0.0719415844,-0.0131997509,0.047091533299999995,-0.013162,0.01577,0.004748,-2.6854530359999997,-9.421444788,0.44176996919999995,-1.7338,1.2896,-1.9994,-9.999999999998899e-05,-6.666666666665932e-05,2.0000000000020002e-05,0.0007908888230561129,-6.0021673430554756e-05,-0.00024578603209057803
150000000000.0,3,-0.11239401565,0.005668243699999999,0.02221206225,-0.01412,0.028566,0.003664,-2.6878066319999996,-9.420856388999999,0.44001457884999995,-1.7331,1.2894,-1.9999,-9.999999999998899e-05,-6.666666666665932e-05,2.999999999997449e-05,-0.002094076316756066,-0.0002738841821197102,0.0007482155175217997
150000000000.0,3,-0.12736877019999998,0.007992419749999998,0.0076295737,-0.014092,0.032827,0.004733,-2.6904544274999997,-9.4201699235,0.43783750255,-1.7321,1.2891,-2.0006,-5.0000000000105516e-05,-4.999999999988347e-05,4.999999999999449e-05,0.00018554696149264416,-0.00015538781909096855,1.1881862481910588e-05
150000000000.0,3,-0.148080415,0.0390500803,0.03092036745,-0.003461,0.030604,0.009036,-2.6939848215,-9.4191892585,0.4370039372999999,-1.7316,1.2888,-2.0008,-4.999999999988347e-05,-5.000000000032756e-05,2.0000000000020002e-05,0.0005422293923516008,0.0003255775776294101,0.0001937646355241185
150000000000.0,3,-0.1691647125,0.0649984762,0.017416610399999997,0.007186,0.030512,0.013337,-2.6984958805,-9.417914393999999,0.43687645084999993,-1.7313,1.2883,-2.0008,1.6666666666775853e-05,-4.999999999988347e-05,2.0000000000020002e-05,0.00026994137068525603,1.178636201148997e-05,0.0003955136736668585
150000000000.0,3,-0.1523757277,0.0892601283,-0.0060408964,0.018919,0.031479,0.015502,-2.7030069395,-9.4166395295,0.43744523655,-1.7312,1.2878,-2.0005,1.666666666655381e-05,-4.999999999988347e-05,2.999999999997449e-05,-0.00027012571720619327,-0.00020799683567096494,0.00039077050832059257
150000000000.0,3,-0.11759154014999999,0.09835089285,-0.0336760361,0.024323,0.037833,0.011241,-2.7066354,-9.415560798,0.4381415087,-1.7313,1.2874,-2.0,1.666666666655381e-05,-0.00010000000000021103,9.99999999995449e-06,-0.0010777734978233422,0.00020249929670956845,0.00013312742710258618
150000000000.0,3,-0.08713208525,0.09756636084999999,-0.04265892749999999,0.028677,0.0442,0.003774,-2.7092831955,-9.414776265999999,0.43889662075,-1.7314,1.2871,-1.9994,1.6666666666775853e-05,-9.999999999976694e-05,-5.999999999994898e-05,-0.000978798078488996,0.0002977403155766112,0.0012328315878131768
150000000000.0,3,-0.05877125345,0.13081090435,-0.01560238015,0.035169,0.051612,-0.002626,-2.7110483924999995,-9.414187867,0.44057355789999997,-1.7319,1.2869,-1.9984,1.6666666666775853e-05,-0.00019999999999997797,9.999999999998899e-05,-0.00021663309757391502,-0.0007274147245208695,0.0004940061311971
150000000000.0,3,-0.06451795034999999,0.12747664335,0.01413138265,0.041708,0.065417,-0.007969,-2.712323257,-9.413697534499999,0.44301541375,-1.7327,1.2867,-1.9969,1.666666666655381e-05,-0.00010000000000021103,-9.99999999995449e-06,-0.0003645736193356175,-0.0004952226727106268,0.0006891736567347095
150000000000.0,3,-0.06475330995,0.07983593765000001,0.058702606899999996,0.049319,0.080276,-0.012246,-2.7130097225,-9.4133052685,0.4464771612,-1.7339,1.2866,-1.9949,9.999999999998899e-05,-0.00019999999999997797,9.99999999995449e-06,-0.0004278704503755115,-0.00047212261084039753,0.0009483125440574725
150000000000.0,3,-0.08056162975,0.00438357255,0.09068209255,0.049426,0.093062,-0.012263,-2.713500055,-9.413011069,0.45040962784999994,-1.7353,1.2865,-1.9925,9.999999999998899e-05,-9.999999999976694e-05,9.99999999995449e-06,-0.0007617195044791192,-0.0005367016890056586,0.0011012149446703035
150000000000.0,3,-0.0789239192,-0.08516094860000001,0.1145612853,0.046299,0.10161,-0.01228,-2.7135981215,-9.412814936,0.45405770165,-1.7366,1.2864,-1.9902,9.999999999998899e-05,-0.00019999999999997797,3.0000000000085514e-05,-5.445977334406216e-05,-0.0008050627156690471,0.0009788653494533506
150000000000.0,3,-0.04923918965,-0.13925443,0.11002080634999999,0.042075,0.1091,-0.008031,-2.7134019885,-9.412716869499999,0.45696047004999996,-1.7376,1.2864,-1.988,0.00019999999999997797,-9.999999999976694e-05,-0.00010000000000010001,0.0012877262516695076,0.0008874827168370292,0.0003490084973982732
150000000000.0,3,0.01711260425,-0.13728329334999997,0.07718814214999999,0.042092,0.11336,-0.003773,-2.7124213234999996,-9.4129130025,0.4591179330499999,-1.7385,1.2865,-1.986,0.00019999999999997797,-0.00010000000000021103,-1.999999999990898e-05,-0.0003802401171013603,0.0004465578610284293,0.0013309200804383359
150000000000.0,3,0.060546257099999994,-0.1243287087,0.0721181041,0.040978,0.1091,-0.000572,-2.7112445254999997,-9.4131091355,0.46118713619999996,-1.7393,1.2865,-1.9841,9.999999999998899e-05,3.333333333310762e-05,4.999999999999449e-05,0.00021006711394089272,-0.00018247649227109974,0.0007631756169623749
150000000000.0,3,0.1036955171,-0.10787314999999999,0.06483176315,0.032398,0.10703,0.005811,-2.7099696609999997,-9.413403335,0.46279542679999996,-1.7399,1.2867,-1.9823,0.00019999999999997797,3.333333333355171e-05,-1.0000000000065512e-05,0.0008687893295775684,0.00026122771758663177,0.0011464796047371273
150000000000.0,3,0.17182231464999997,-0.10609814635,0.057006056449999995,0.023708,0.093237,0.015412,-2.7083025305,-9.4138936675,0.46358976545,-1.7403,1.2868,-1.981,0.00019999999999997797,3.333333333310762e-05,-2.0000000000020002e-05,0.002908830139651153,0.0006419910284913843,-0.00023040440419253017
150000000000.0,3,0.23376111605,-0.11653242194999999,0.04641487445,0.009678,0.079488,0.026067,-2.7066354,-9.414383999999998,0.4632465327,-1.7403,1.287,-1.9802,9.999999999998899e-05,-9.999999999976694e-05,5.000000000032756e-06,0.0007854623888923218,0.0004989781356594669,0.00098630839185887
150000000000.0,3,0.26473051675,-0.13164446959999998,0.0528382302,0.004143,0.059277,0.034611,-2.7051644025,-9.414776265999999,0.46281504009999996,-1.7402,1.2871,-1.9796,0.00010000000000021103,-0.00010000000000021103,5.000000000032756e-06,-0.0004909763027352021,0.0001367723263236975,0.00115707013485844
150000000000.0,3,0.2557966586,-0.13463549784999998,0.10224413289999999,0.001883,0.043308,0.035682,-2.7039876044999995,-9.4150704655,0.46353092555000003,-1.7406,1.2873,-1.9789,9.999999999998899e-05,4.999999999988347e-05,2.999999999997449e-05,-0.00030922268952560117,0.00042876683864911946,0.0009997343297212247
150000000000.0,3,0.24551928939999998,-0.11790535295,0.10132230779999998,-0.000214,0.041202,0.026055,-2.7024185404999996,-9.415560798,0.46415855114999993,-1.7409,1.2874,-1.9782,9.999999999998899e-05,5.000000000032756e-05,2.999999999997449e-05,0.0008539080276479538,0.00033288158324507044,0.00041716076214282083
150000000000.0,3,0.27632197705,-0.11272744174999999,0.047179793149999996,-0.007643,0.037014,0.012151,-2.6990842794999996,-9.416541463,0.46354073219999997,-1.7409,1.2878,-1.9779,3.333333333332966e-05,3.333333333310762e-05,3.0000000000085514e-05,-0.0007185758855661195,0.0003696223205642557,0.0007054757143283297
150000000000.0,3,0.2757041581,-0.08895612214999998,-0.0082179727,-0.018362,0.025388,0.003591,-2.6948674199999996,-9.4178163275,0.46102042314999997,-1.7402,1.2883,-1.9782,3.333333333332966e-05,3.333333333355171e-05,2.999999999997449e-05,-5.393377551698997e-05,-0.0006087387020938806,0.0004816443381252533
150000000000.0,3,0.23115254715,-0.05490743334999999,-0.0252227038,-0.03017,0.013768,-0.000697,-2.6910428265,-9.419091192,0.457382156,-1.7392,1.2887,-1.9792,3.333333333332966e-05,3.333333333310762e-05,9.99999999995449e-06,0.0005973506138665652,0.00036694698503958456,0.0004901585594789815
150000000000.0,3,0.2049001451,-0.0407564374,-0.02601704245,-0.030278,0.00098,0.000376,-2.6877085654999995,-9.42026799,0.4538321487,-1.7381,1.2891,-1.9803,5.0000000000105516e-05,0.00010000000000021103,0.0001100000000000545,-0.0005732384172814076,-0.001177891293258737,0.0005243793581368728
150000000000.0,3,0.18840535979999998,-0.02393803265,-0.034087915399999995,-0.024024,-0.013996,0.005736,-2.6847665705,-9.4211505885,0.45096860689999996,-1.7372,1.2895,-1.9813,4.999999999988347e-05,-0.00010000000000021103,9.99999999995449e-06,-0.002602481357001807,-0.0002695644471075731,0.0011656221198652617
150000000000.0,3,0.14536397294999998,0.005452497399999999,-0.05879086675,-0.0167,-0.027916,0.012166,-2.6833936394999998,-9.4217389875,0.44889940375,-1.7366,1.2897,-1.9822,4.999999999988347e-05,0.00010000000000021103,7.999999999996898e-05,0.0001819176296553593,-0.00019772841988929812,-1.3436037413327995e-05
150000000000.0,3,0.1145024454,0.0102969825,-0.06305675949999999,-0.011458,-0.036488,0.016451,-2.6829033069999997,-9.421935120499999,0.44747743949999996,-1.7361,1.2898,-1.983,5.0000000000105516e-05,9.999999999976694e-05,4.999999999999449e-05,0.0005323479209635718,-0.0005795613600387828,-0.00010765753173869186
150000000000.0,3,0.09330046809999999,0.0006080123,-0.0334014499,-0.005072,-0.037607,0.017525,-2.6828052404999996,-9.421935120499999,0.4473009198,-1.736,1.2898,-1.9835,5.0000000000105516e-05,0.00010000000000021103,-3.999999999992898e-05,-0.0009011214941834211,0.0002465221811172036,-0.00024610039590555743
150000000000.0,3,0.0790808256,0.00489351835,0.0002941995,0.004577,-0.034486,0.013261,-2.6828052404999996,-9.421837054,0.44846791115,-1.7364,1.2897,-1.9834,4.999999999988347e-05,-0.00010000000000021103,0.0010799999999999699,0.0020250955017464545,-0.01566790620802161,0.0012671918715492225
150000000000.0,3,0.0605854837,0.0028635417999999997,0.03264633785,0.012131,-0.02602,0.010053,-2.682707174,-9.421837054,0.45083131379999997,-1.7373,1.2897,-1.9828,-3.333333333332966e-05,0.00019999999999997797,-0.00012999999999996348,-0.00021664716916847127,0.0020650185817581157,-0.0007268010955123749
150000000000.0,3,0.03747120965,-0.03709855695,0.040285718199999994,0.016421,-0.02286,0.011119,-2.6828052404999996,-9.421640921,0.45366543564999995,-1.7383,1.2897,-1.982,-3.333333333332966e-05,0.00010000000000021103,4.999999999999449e-05,-0.00025924401560484256,-0.0013523676181586008,-0.0003616732275038004
150000000000.0,3,0.0032165811999999997,-0.03429385505,0.046777720499999995,0.011115,-0.01962,0.011104,-2.683491706,-9.421346721499999,0.45615632475,-1.7392,1.2895,-1.9814,-3.333333333332966e-05,9.999999999976694e-05,9.99999999995449e-06,5.130585258461551e-05,0.0005467745603093821,-0.0005082280782917614
150000000000.0,3,-0.0033832942499999997,-0.022790654599999998,0.012974197949999999,0.007949,-0.015332,0.011091,-2.6843743044999995,-9.4209544555,0.45763712889999997,-1.7397,1.2894,-1.981,9.999999999998899e-05,4.999999999988347e-05,9.999999999998899e-05,4.45411370897375e-06,-0.001928238226345913,-0.00013383326234883697
150000000000.0,3,0.0043737659,-0.012650578499999999,-0.018240369,0.002681,-0.008891,0.007867,-2.6849627034999997,-9.4207583225,0.45801958825,-1.7398,1.2893,-1.981,-9.999999999998899e-05,5.000000000032756e-05,-7.00000000000145e-05,-0.0008322187828231353,0.0013148517095058487,-6.402146590911428e-05
150000000000.0,3,0.023339827,-0.0259680092,-0.0578200084,-0.002668,-0.010977,0.006791,-2.6850607699999998,-9.420856388999999,0.45720563629999994,-1.7395,1.2894,-1.9814,5.0000000000105516e-05,9.999999999976694e-05,-9.99999999995449e-06,0.00018036280641919866,2.1691281433477982e-05,-0.00032994255648510773
150000000000.0,3,0.020623384949999997,-0.042178401649999996,-0.08089505585,-0.009102,-0.015185,0.005717,-2.6850607699999998,-9.420856388999999,0.45544043929999994,-1.7388,1.2894,-1.9822,4.999999999988347e-05,0.00010000000000021103,-0.000260000000000038,-0.00037529329307695036,0.0015869231612952728,-0.0010256357158207052
150000000000.0,3,0.020593965,-0.061889768149999996,-0.10632369929999999,-0.017636,-0.015112,0.004631,-2.684864637,-9.421052522,0.45258670414999996,-1.7378,1.2895,-1.9834,-9.999999999998899e-05,4.999999999988347e-05,2.0000000000020002e-05,-0.000980679619360325,7.268209355482114e-05,0.00043186337337974834
150000000000.0,3,0.0170047311,-0.06905842929999999,-0.0978507537,-0.025111,-0.013986,0.006747,-2.684864637,-9.421248655,0.44905631014999997,-1.7365,1.2895,-1.9848,9.999999999998899e-05,4.999999999988347e-05,4.0000000000040004e-05,0.0005907080756599736,-0.0009995269730549428,8.311646184200328e-06
150000000000.0,3,-0.01493552795,-0.06755801185,-0.07666838969999999,-0.02404,-0.012929,0.006746,-2.6854530359999997,-9.421248655,0.44567301589999997,-1.7353,1.2895,-1.9862,2.4999999999941735e-05,0.00019999999999997797,-4.0000000000040004e-05,0.001242627592315415,0.00042529627451393104,-0.0005737112101753539
150000000000.0,3,-0.0359707922,-0.01840708205,-0.04994526845,-0.01976,-0.009769,0.008885,-2.6867279004999998,-9.421052522,0.44304483370000003,-1.7342,1.2894,-1.9874,2.4999999999941735e-05,0.00010000000000021103,4.0000000000040004e-05,0.0002715264382746607,-0.0008173425505295651,-0.00017061560153885935
150000000000.0,3,-0.04468890405,0.034529214649999994,-0.0181815291,-0.010145,-0.006653,0.011034,-2.688591164,-9.4205621895,0.4418091958,-1.7337,1.2893,-1.9881,2.500000000016378e-05,0.00010000000000021103,-0.00014999999999998348,0.0017995657956457745,0.002002003378188677,-0.000985812045896317
150000000000.0,3,-0.03943253965,0.0602716709,-0.012925164699999998,0.000569,-0.000349,0.012113,-2.690748627,-9.4199737905,0.44148557635,-1.7334,1.289,-1.9883,2.4999999999941735e-05,0.00010000000000021103,0.00019999999999997797,-0.0010761951774802547,-0.0022548228633128,0.0006164336506793155
150000000000.0,3,-0.01058137535,0.0489547968,-0.0120033396,0.008055,0.000658,0.009992,-2.6920234914999996,-9.4195815245,0.44190726229999994,-1.7335,1.2889,-1.9882,1.999999999990898e-05,9.999999999976694e-05,-0.00017000000000000348,0.0013857667471190993,0.0017945499475127136,-0.0008486137284133832
150000000000.0,3,0.03517645355,0.04555188925,-0.00579573015,0.010279,0.009169,0.005709,-2.692317691,-9.419483458,0.44259372779999995,-1.7337,1.2889,-1.9879,2.0000000000131024e-05,4.999999999988347e-05,-4.999999999999449e-05,2.9319450168596717e-05,0.0006288499947273429,-0.00014410983290913393
150000000000.0,3,0.06116407605,0.029194397049999998,0.0126113519,0.01141,0.014492,0.001428,-2.6918273585,-9.4195815245,0.44348613294999994,-1.7341,1.2889,-1.9874,1.999999999990898e-05,4.999999999988347e-05,-2.999999999997449e-05,0.000219698956247516,0.00019341364955671736,-8.446186930521904e-05
150000000000.0,3,0.07032348715,0.0024320492,-0.009414384,0.010376,0.016635,-0.001784,-2.6906505605,-9.419875723999999,0.4438097523999999,-1.7343,1.289,-1.987,2.0000000000131024e-05,0.00010000000000021103,4.999999999999449e-05,0.0004914265434168286,-0.00022396590829010243,0.00010113173520487351
150000000000.0,3,0.0626644935,-0.03427424175,-0.061075816199999994,0.013529,0.010217,-0.002841,-2.6892776294999994,-9.42026799,0.44355477949999994,-1.7343,1.2892,-1.9869,1.999999999990898e-05,6.666666666665932e-05,-6.0000000000060005e-05,0.00014707803528102303,-0.0003865995252423371,-8.986224322438119e-06
150000000000.0,3,0.041570389349999994,-0.0575061956,-0.0698037347,0.011359,0.0081,0.000357,-2.6883950309999998,-9.4205621895,0.4432998066,-1.7342,1.2893,-1.9868,4.999999999988347e-05,6.666666666665932e-05,-4.999999999999449e-05,-0.000845045331321792,0.0007962288139253815,0.00015698872684843934
150000000000.0,3,0.0264191151,-0.05975191845,-0.06783259805,0.01021,-0.000417,0.002501,-2.6879046984999997,-9.420660256,0.44312328689999997,-1.7342,1.2893,-1.9868,5.0000000000105516e-05,6.666666666665932e-05,-0.00010999999999994348,0.003336495272153961,0.0005074977175323347,-0.0012252311256393256
150000000000.0,3,0.009002504699999999,-0.0245362383,-0.0767664562,0.011212,-0.004692,0.007846,-2.6882969644999997,-9.4205621895,0.4429271538999999,-1.7341,1.2893,-1.9869,-0.00034999999999985043,0.0001499999999996504,-1.0000000000065512e-05,-9.045327947720949e-05,-0.00015527103220125404,0.00014414104205595635
150000000000.0,3,0.0025693423,-0.0116503002,-0.0770018158,0.020774,-0.007969,0.010002,-2.689179563,-9.42026799,0.44346651964999995,-1.7342,1.2892,-1.9868,-0.0003500000000000725,0.0001500000000000945,-0.00046999999999997044,-0.0006903387980381481,0.016056414482213954,-0.0016733958010162198
150000000000.0,3,0.01844630865,-0.00548191735,-0.05165162555,0.029298,-0.009104,0.010017,-2.689767962,-9.420071857,0.44534939645,-1.7349,1.2891,-1.9862,4.999999999988347e-05,0.00010000000000021103,-4.999999999999449e-05,0.00010195768520571136,5.078519832379946e-05,-4.6872776668038796e-05
150000000000.0,3,0.0269879008,-0.00734518085,-0.056133264599999996,0.036783,-0.008098,0.007891,-2.6900621614999998,-9.419875723999999,0.44803641855,-1.7358,1.289,-1.9853,5.0000000000105516e-05,-0.00010000000000021103,2.0000000000020002e-05,-0.00038318289011796125,-0.0001265586037964006,0.0001304673176476534
150000000000.0,3,0.03072423445,-0.0141608026,-0.07357929495,0.040066,-0.000659,0.002544,-2.6899640949999997,-9.4197776575,0.45066460075,-1.7368,1.289,-1.9842,1.666666666655381e-05,0.00010000000000021103,-2.999999999997449e-05,-0.00023704204198526924,0.0001987427329888103,-0.00016908899426582025
150000000000.0,3,0.04819968475,-0.01569064,-0.07729601529999999,0.031627,0.005815,-0.007093,-2.6886892305,-9.4199737905,0.45243960440000003,-1.7375,1.2891,-1.9834,1.6666666666775853e-05,-0.00010000000000021103,-3.3333333333551707e-06,-0.0008386356087959346,-3.7530358834692024e-05,0.00017862651781852534
150000000000.0,3,0.0566039838,-0.00495235825,-0.10152824744999998,0.025279,0.009071,-0.013519,-2.6866298339999997,-9.4205621895,0.45301819675,-1.7378,1.2893,-1.9829,1.6666666666775853e-05,-0.00019999999999997797,-3.3333333333551707e-06,-0.0037249911876646724,-0.0006596699877703394,0.001332257677844062
150000000000.0,3,0.0480918116,0.0037755602499999997,-0.09826263299999999,0.015737,0.014483,-0.017819,-2.6843743044999995,-9.421248655,0.4527534172,-1.7379,1.2895,-1.9827,1.666666666655381e-05,-4.999999999988347e-05,-3.3333333333551707e-06,7.923184491609447e-05,-0.00017280250751694481,-5.690926141177499e-05
150000000000.0,3,0.025154057249999997,0.00856120545,-0.051573172349999995,0.006175,0.01989,-0.017847,-2.6824129744999996,-9.421837054,0.45215521155,-1.7378,1.2897,-1.9826,1.666666666655381e-05,-4.999999999988347e-05,-4.0000000000040004e-05,-0.0004892270968603896,-0.00012404243465358178,0.00022045287510774614
150000000000.0,3,0.0034029075499999997,0.0042462794499999994,-0.02366344645,0.000826,0.018868,-0.016787,-2.6808439104999997,-9.4223273865,0.4514785527,-1.7376,1.2899,-1.9825,1.6666666666775853e-05,-2.7272727272542596e-05,1.0000000000065512e-05,1.2925906590632863e-05,-0.0005818599167943805,0.00011502450484890403
150000000000.0,3,-0.0044914457,-0.019603493349999997,-0.0033440676499999996,0.000758,0.012472,-0.013574,-2.6795690459999997,-9.4227196525,0.4510666734,-1.7376,1.29,-1.9825,9.999999999998899e-05,-2.7272727272986685e-05,-2.999999999997449e-05,-0.0003316163213777923,-0.00026185714101800706,0.0003546840718633426
150000000000.0,3,-0.014896301349999998,-0.03283266419999999,0.0012356379,0.001736,0.003935,-0.009287,-2.6786864475,-9.422915785499999,0.45096860689999996,-1.7376,1.2901,-1.9824,5.0000000000105516e-05,-2.7272727272542596e-05,1.999999999990898e-05,0.0005369935222638844,-0.000334301058898534,8.14396030639486e-05
150000000000.0,3,-0.004020726499999999,-0.03086152755,-0.00285373515,0.007031,0.001755,-0.005005,-2.6780980485,-9.4231119185,0.4513216463,-1.7378,1.2902,-1.9822,4.999999999988347e-05,-2.7272727272986685e-05,-9.99999999995449e-06,0.00048027335018052675,-0.0005185403045699921,8.248044056591297e-05
150000000000.0,3,0.02766455965,-0.04819968475,-0.00042168595,0.015483,-0.010034,-0.007108,-2.6767251175,-9.423406117999999,0.4527730305,-1.7384,1.2903,-1.9816,4.999999999988347e-05,-2.7272727272542596e-05,-2.999999999997449e-05,-5.6360779810971096e-05,-9.561755673770378e-05,0.00013982085859431947
150000000000.0,3,0.04847427095,-0.045287109699999994,-0.0101596894,0.018585,-0.021782,-0.006018,-2.675057987,-9.423798384,0.4547343605,-1.7392,1.2904,-1.981,5.0000000000105516e-05,-2.7272727272986685e-05,-1.0000000000065512e-05,0.00044052068084665663,-7.284303760624056e-06,-0.0002010811358297282
150000000000.0,3,0.063154826,-0.028086245599999997,-0.026115108949999997,0.020677,-0.02819,-0.008143,-2.673096657,-9.42419065,0.45692124345,-1.7401,1.2906,-1.9803,9.999999999998899e-05,-2.7272727272542596e-05,5.000000000032756e-06,5.680361740489914e-05,-0.000536035840688287,-0.0001404299599667702
150000000000.0,3,0.07589366435,-0.007374600799999999,-0.018112882549999997,0.020665,-0.03032,-0.009213,-2.670939194,-9.424680982499998,0.45940232589999996,-1.7411,1.2908,-1.9795,9.999999999998899e-05,-2.7272727272986685e-05,5.000000000032756e-06,-0.0006151274783092742,-0.00016688800355613154,-0.000219793683527314
150000000000.0,3,0.09668376235,0.01424906245,-0.019848659600000002,0.022734,-0.040989,-0.013466,-2.6680952654999994,-9.425367448,0.46217760784999995,-1.7423,1.291,-1.9787,5.0000000000105516e-05,-2.7272727272542596e-05,-7.00000000000145e-05,-5.470035362731274e-05,-0.00013353087254008855,-0.00017820520136790918
150000000000.0,3,0.0840626038,0.0365591912,-0.02544825675,0.024799,-0.049531,-0.013453,-2.6653494034999996,-9.426053913499999,0.46538438239999996,-1.7437,1.2913,-1.9778,4.999999999988347e-05,-2.7272727272986685e-05,2.0000000000020002e-05,-2.5507204866048738e-05,-0.0005631969625545796,-0.00028238592552787267
150000000000.0,3,0.05099458,0.029537629799999996,-0.028311798549999996,0.025792,-0.058065,-0.012372,-2.663093874,-9.4264461795,0.46899322959999995,-1.7451,1.2914,-1.9768,0.0005999999999999339,-2.7272727272542596e-05,0.0005300000000000304,-0.0004896583584117487,-0.014307917032060802,0.0015286735266637486
150000000000.0,3,0.00422666615,0.0020299765499999997,-0.04231569475,0.02786,-0.063414,-0.00809,-2.6618190095,-9.4266423125,0.47267072334999993,-1.7465,1.2915,-1.976,-0.0004999999999999449,0.00010000000000021103,-0.0006099999999999994,-0.002169147109974734,0.013060291881171748,-0.0013499051517729121
150000000000.0,3,-0.0146511351,-0.044826197150000004,-0.03399965555,0.023633,-0.05805,-0.008107,-2.660740278,-9.4268384455,0.4760344043,-1.7478,1.2916,-1.9752,9.999999999998899e-05,-0.00010000000000021103,-3.0000000000085514e-05,-0.0009503473826730779,-0.00030124827123056974,-0.0004746145540868163
150000000000.0,3,-0.02221206225,-0.07073536644999999,-0.00526617105,0.014017,-0.059038,-0.007055,-2.659759613,-9.426936512,0.47901562589999996,-1.749,1.2916,-1.9746,9.999999999998899e-05,-3.999999999981796e-05,-3.999999999992898e-05,-0.0010646273911427695,-0.0003315929986453803,-0.0005106457241295104
150000000000.0,3,-0.033342609999999995,-0.06608701435,-0.01583773975,0.00336,-0.054692,-0.00281,-2.6593673469999994,-9.426936512,0.48076120959999996,-1.7496,1.2916,-1.9745,5.0000000000105516e-05,-4.000000000026205e-05,-1.0000000000065512e-05,-0.00010616152631071074,-0.0005922758460039645,-0.0006980112891263879
150000000000.0,3,-0.01352337035,-0.07582501779999999,-0.0446790974,-0.004076,-0.050368,-0.002832,-2.6588770145,-9.427034578499999,0.48102598914999994,-1.7498,1.2917,-1.9749,4.999999999988347e-05,-3.999999999981796e-05,-4.999999999999449e-05,-0.0006597760461151125,0.00012809137791913727,-0.00047340204931245466
150000000000.0,3,0.007374600799999999,-0.08458235625,-0.02672312125,-0.007271,-0.048212,-0.000708,-2.6580924825,-9.427328778,0.48117308889999993,-1.7499,1.2917,-1.9753,9.999999999998899e-05,-4.000000000026205e-05,-3.999999999992898e-05,-0.0002374008464753885,-0.00011841018515501567,-0.0005311463079653578
150000000000.0,3,0.003530394,-0.07832571355,-0.0095124505,-0.00935,-0.043928,-0.004991,-2.657013751,-9.427524910999999,0.48132018865,-1.75,1.2918,-1.9756,0.000600000000000156,-3.999999999981796e-05,0.0005299999999999194,0.0012461744030809463,-0.01343929138836919,0.0006394197796395495
150000000000.0,3,0.0073353742,-0.06797969779999999,-0.009051537949999999,-0.008216,-0.035412,-0.005006,-2.6559350194999998,-9.427917177,0.481310382,-1.7501,1.292,-1.9759,9.999999999998899e-05,1.6666666666775853e-05,-2.999999999997449e-05,-0.000453294901025858,0.00018138755701979647,-0.0005161189475009209
150000000000.0,3,0.026213175449999997,-0.04655216755,-0.03060655465,-0.008179,-0.033277,-0.009282,-2.6542678889999998,-9.428309443,0.48086908275,-1.75,1.2921,-1.9763,0.00019999999999997797,1.6666666666775853e-05,7.00000000000145e-05,9.306732897207404e-05,-0.0024392942690565356,-0.0002989386232559177
150000000000.0,3,0.02731152025,-0.01589657965,-0.0461697082,-0.002857,-0.033322,-0.007141,-2.6528949579999996,-9.4287997755,0.4805650766,-1.75,1.2923,-1.9767,9.999999999998899e-05,1.6666666666775853e-05,-2.0000000000020002e-05,6.0982121242725285e-05,0.00014621290635319362,-0.0004666910888082576
150000000000.0,3,0.0012552511999999998,0.017632356699999997,-0.0440710851,0.003543,-0.031247,-0.003931,-2.6522084925000002,-9.428897842,0.48086908275,-1.7502,1.2924,-1.9768,4.999999999988347e-05,1.6666666666331764e-05,-4.999999999999449e-05,-0.00011804058994568933,0.0012111097857909758,-0.0002329135356848866
150000000000.0,3,-0.015425860449999999,0.009208444349999999,-0.03937369975,0.003537,-0.029119,0.000336,-2.6523065589999995,-9.428897842,0.4812515421,-1.7503,1.2923,-1.9769,5.0000000000105516e-05,1.6666666666775853e-05,-9.99999999995449e-06,-5.54129190908359e-05,-0.0005773960372108533,-0.00020490623754287896
150000000000.0,3,0.0030204482,-0.023712479699999997,-0.020525318449999996,0.000307,-0.031226,0.002468,-2.6522084925000002,-9.428897842,0.48185955439999995,-1.7505,1.2923,-1.977,-0.0004999999999999449,1.6666666666775853e-05,-0.0005900000000000905,-0.0015742053324920846,0.013197779907894835,-0.0013042547576960217
150000000000.0,3,0.0317931593,-0.039716932499999996,-0.054426907499999996,-0.000774,-0.033347,0.001399,-2.6516200935,-9.429093974999999,0.48179090784999995,-1.7505,1.2924,-1.9773,0.00019999999999997797,9.999999999976694e-05,-2.999999999997449e-05,0.0012853437013380375,-0.00019303300522865996,-0.00068464190159645
150000000000.0,3,0.0663910205,-0.041325223099999996,-0.1047546353,0.002449,-0.033367,-0.003938,-2.6500510295,-9.429584307499999,0.48109463569999994,-1.7504,1.2926,-1.9778,9.999999999998899e-05,-9.999999999976694e-05,-2.999999999997449e-05,-0.0001284904771972073,2.9949175129884154e-05,-0.00022227789579520874
150000000000.0,3,0.08610238699999999,-0.04039359135,-0.13388038579999997,0.003564,-0.031236,-0.011419,-2.6475013004999997,-9.430270773,0.4799962909,-1.7502,1.2929,-1.9783,9.999999999998899e-05,-2.4999999999941735e-05,-9.99999999995449e-06,0.0005364925517543639,-0.0003496554993691614,-9.712920555404736e-05
150000000000.0,3,0.08452351635,-0.0296553096,-0.14336341635,0.008868,-0.035538,-0.013544,-2.6445593055,-9.431153371499999,0.47915291899999995,-1.75,1.2932,-1.9787,9.999999999998899e-05,-2.4999999999941735e-05,-2.0000000000020002e-05,-0.00024276883012386286,-0.0002264759035348618,7.61818357180033e-05
150000000000.0,3,0.06153672875,-0.0009022117999999999,-0.15547462909999998,0.013156,-0.033438,-0.015681,-2.6419115099999995,-9.4319379035,0.4785449067,-1.75,1.2935,-1.9791,9.999999999998899e-05,-2.5000000000385825e-05,-2.999999999997449e-05,0.00018958432717508522,0.00010867829776528559,-0.0006467735135222696
150000000000.0,3,0.0369906838,0.026732927899999998,-0.15645529409999998,0.018489,-0.031352,-0.013543,-2.6399501799999996,-9.4325263025,0.4784664535,-1.7501,1.2937,-1.9792,9.999999999998899e-05,-2.4999999999941735e-05,-2.0000000000020002e-05,-0.00034894896593518077,-0.0004338560175369821,-0.0003080951336107418
150000000000.0,3,0.00952225715,0.03060655465,-0.1447069274,0.026999,-0.03036,-0.008194,-2.6387733819999997,-9.432820501999998,0.47915291899999995,-1.7504,1.2938,-1.9792,9.999999999998899e-05,-9.999999999976694e-05,-6.0000000000060005e-05,-0.00032510450632372567,-2.463088298498839e-05,-0.0001214502420978647
150000000000.0,3,-0.02272200805,0.0116306869,-0.12553492665,0.02915,-0.026116,-0.006062,-2.6383811159999997,-9.432820501999998,0.48063372314999997,-1.751,1.2938,-1.9788,9.999999999998899e-05,-0.00010000000000021103,2.0000000000020002e-05,0.0004949005935768191,-0.0007119122679672962,-0.0005304593539867675
150000000000.0,3,-0.03411733535,-0.0250657974,-0.08651426629999999,0.027083,-0.016509,-0.005014,-2.6382830494999996,-9.432820501999998,0.48230085364999997,-1.7516,1.2938,-1.9783,9.999999999998899e-05,-0.00019999999999997797,1.4999999999987246e-05,-0.0003278430353399475,-0.0004928906118215615,-0.0003402307998396914
150000000000.0,3,-0.010875574849999998,-0.02884135765,-0.07202003759999999,0.023924,-0.012218,-0.007162,-2.6375965839999997,-9.4329185685,0.48383069105,-1.7522,1.2938,-1.9778,9.999999999998899e-05,-0.00010000000000021103,1.4999999999987246e-05,0.0005970095594005631,-0.0005272687777826413,-0.0003639145058182969
150000000000.0,3,0.024693144699999996,-0.0211627507,-0.0939869336,0.025062,-0.004763,-0.010378,-2.6361255865,-9.433212767999999,0.4846936762499999,-1.7526,1.294,-1.9774,0.0005999999999999339,-0.00039999999999995595,0.0007900000000000684,0.0005688839257604883,-0.014621184909115792,0.0013964983907053252
150000000000.0,3,0.05323049619999999,-0.032283491799999994,-0.0941046134,0.028311,0.000541,-0.012521,-2.63406619,-9.433801166999999,0.4857135678499999,-1.7531,1.2942,-1.9768,0.00019999999999997797,-0.00019999999999997797,-2.0000000000020002e-05,0.0006366200013636636,-0.001067341709359626,0.00016870565697457707
150000000000.0,3,0.06355689865,-0.07151989845,-0.10210683979999999,0.02408,0.003777,-0.015743,-2.6313203279999997,-9.4344876325,0.48622351365,-1.7535,1.2944,-1.9764,-9.999999999998899e-05,-0.00039999999999995595,7.00000000000145e-05,-0.00419506760930366,-0.00023428492571886395,0.0013315637113655576
150000000000.0,3,0.07841397339999999,-0.1007927487,-0.14701149015,0.016616,0.003842,-0.017899,-2.6280841335,-9.435468297499998,0.48534091515,-1.7534,1.2948,-1.9764,9.999999999998899e-05,-0.00019999999999997797,0.00010999999999994348,-0.0005353753665728878,-0.0022143095432591853,0.0004082762530575046
150000000000.0,3,0.07502087249999999,-0.09911581154999999,-0.13500815054999998,0.012326,0.003876,-0.014711,-2.6250440719999997,-9.436350895999999,0.48410527724999997,-1.7532,1.2951,-1.9765,-0.00039999999999995595,-9.999999999976694e-05,-0.0010899999999999244,-0.0038487894470615736,0.016535375533960783,-0.0011181104826816224
150000000000.0,3,0.06817583079999999,-0.06748936529999999,-0.0841214437,0.012348,0.007074,-0.014723,-2.6222001435,-9.4372334945,0.48365417135,-1.7532,1.2954,-1.9764,9.999999999998899e-05,-0.000300000000000189,-0.00012000000000000899,-0.001403342576636435,0.0005526043146462101,0.00025594238911841316
150000000000.0,3,0.06675386655,-0.0173969971,-0.02656621485,0.017637,0.004894,-0.009377,-2.6200426805,-9.437723827,0.48445831665,-1.7536,1.2956,-1.9759,0.0001500000000000945,-0.00039999999999995595,0.00012999999999996348,-0.003163692586801936,-0.0012841054663799145,0.001213670257296684
150000000000.0,3,0.04670907395,0.007129434549999999,0.007502087249999999,0.018684,0.00488,-0.005109,-2.6186697494999995,-9.4380180265,0.4861548671,-1.7544,1.2957,-1.9751,0.00014999999999987246,-0.000300000000000189,0.0012799999999999478,0.0019791775697868275,-0.01557620173914609,0.001498521868445124
150000000000.0,3,0.042560861,-0.010424468949999998,0.020309572149999996,0.023958,0.000569,0.000242,-2.617787151,-9.438116093,0.48860652959999995,-1.7553,1.2958,-1.9741,0.00010000000000021103,-0.0002999999999997449,-7.999999999996898e-05,0.0011210301688524549,0.0007169434027738397,-0.0010687033733822737
150000000000.0,3,0.05620191115,-0.04061914429999999,0.0165732385,0.028198,-0.003727,-0.000814,-2.616610353,-9.438312225999999,0.4914504581,-1.7564,1.2959,-1.9729,-0.00010000000000021103,0.0004999999999997229,-0.0012499999999999734,0.008140799577968316,0.016544770785414054,-0.005516955213762387
150000000000.0,3,0.0910253253,-0.0629979196,0.01701453775,0.023929,-0.004757,-0.001894,-2.614845156,-9.438704492,0.49414728685,-1.7576,1.296,-1.9719,0.00010000000000021103,-0.00019999999999997797,-7.00000000000145e-05,-0.0002947939425046453,0.00024592816776203286,-9.20254359360051e-05
150000000000.0,3,0.12206337255,-0.06969586154999999,0.0176911966,0.021804,-0.005802,-0.005107,-2.6120012274999995,-9.439292891,0.4967656624,-1.7587,1.2962,-1.9707,3.333333333332966e-05,-0.00019999999999997797,-2.0000000000020002e-05,-0.00041699367841685486,0.0005732504717719245,0.0003725425141305472
150000000000.0,3,0.134743371,-0.05591751829999999,0.0192602606,0.018621,-0.005772,-0.008324,-2.6088630994999997,-9.440077423,0.49908983845,-1.7598,1.2965,-1.9697,3.333333333332966e-05,-0.0002999999999997449,-4.999999999999449e-05,-0.00040059673703574106,0.0002879342196282497,0.0002104782007936734
150000000000.0,3,0.09578155055,-0.029370916749999997,0.01972117315,0.016513,-0.004686,-0.011539,-2.6061172375,-9.4407638885,0.50101194185,-1.7607,1.2968,-1.9688,3.333333333332966e-05,-0.00010000000000021103,-4.999999999999449e-05,0.0009027091330306991,0.00010377875586220497,-0.00043933706470067335
150000000000.0,3,0.0351862602,0.004167826249999999,-0.0053544309,0.020838,0.003801,-0.009414,-2.6046462399999997,-9.441058088,0.5027477188999999,-1.7615,1.2969,-1.968,3.333333333332966e-05,-0.0002999999999997449,-4.0000000000040004e-05,-0.0004384129171086659,0.00037243976451195593,-0.00016448796281842704
150000000000.0,3,-0.02789991925,0.032038325549999996,0.013101684399999999,0.028407,0.017589,-0.007287,-2.6045481734999996,-9.440960021499999,0.505238608,-1.7624,1.2968,-1.9669,3.333333333332966e-05,-0.00019999999999997797,-9.99999999995449e-06,-0.0001755111012582411,-0.0007654291415850611,-0.00014327148155990344
150000000000.0,3,-0.06902900935,0.029400336699999995,0.044836003799999996,0.033849,0.031395,-0.00623,-2.6053327055,-9.4405677555,0.5085238357499999,-1.7636,1.2967,-1.9654,3.333333333332966e-05,-0.000300000000000189,-4.999999999999449e-05,-0.0005733434387129588,-0.00040934642756562667,-7.49623886444617e-05
150000000000.0,3,-0.07130415215,0.0094732239,0.06881326304999999,0.036021,0.037767,-0.00303,-2.6063133705,-9.440077423,0.51223074945,-1.7649,1.2965,-1.9637,9.999999999998899e-05,-0.00010000000000021103,9.99999999995449e-06,0.0004019930452512366,-0.00042355500223356657,0.00029012230757397006
150000000000.0,3,-0.07281437624999999,-0.040177845049999994,0.06285081984999999,0.034974,0.039906,-0.003031,-2.6071959689999997,-9.439685157,0.5154963639,-1.766,1.2964,-1.9622,9.999999999998899e-05,-0.00039999999999995595,-4.999999999999449e-05,-0.004157596706526601,-0.0015560664352276543,0.0028995992360587586
150000000000.0,3,-0.0312439869,-0.08612200029999999,0.08475887594999999,0.036074,0.040967,-0.007299,-2.606999836,-9.439489023999998,0.5191836643,-1.7674,1.2963,-1.9603,9.999999999998899e-05,-0.0002999999999997449,-0.00012999999999996348,-0.0007360304198367196,0.0007606794243613102,0.0009326677602827793
150000000000.0,3,0.0358334991,-0.10738281749999999,0.10611775965,0.03929,0.038813,-0.012631,-2.6051365724999997,-9.4397832235,0.5235574301999999,-1.7691,1.2964,-1.9582,9.999999999998899e-05,-0.00019999999999997797,2.999999999997449e-05,0.0004619718199581069,-0.00027443218003941894,0.00028232264444882915
150000000000.0,3,0.1057549136,-0.09589923034999999,0.09842934605,0.039206,0.024964,-0.016885,-2.601508112,-9.440469688999999,0.5282450088999999,-1.7711,1.2967,-1.9558,9.999999999998899e-05,-0.00019999999999997797,-2.999999999997449e-05,-5.403842647355717e-06,0.00034110907532469703,-7.189438789101388e-05
150000000000.0,3,0.1506889839,-0.04896460345,0.05855550714999999,0.034839,0.010085,-0.020079,-2.5970951195,-9.441450353999999,0.5323638019,-1.773,1.2971,-1.9538,9.999999999998899e-05,-0.00019999999999997797,-2.0000000000020002e-05,-0.001188202023789442,-0.0004622666038620604,0.0010233273378208452
150000000000.0,3,0.16269232349999999,-0.0037167203499999996,0.0117875933,0.032526,-0.014402,-0.023254,-2.5923879274999995,-9.442627151999998,0.5358941959,-1.7746,1.2975,-1.9522,9.999999999998899e-05,-0.00019999999999997797,-2.0000000000020002e-05,0.000733735970060545,0.00032060944895562216,0.0002326088798629833
150000000000.0,3,0.1954073079,0.05857512045,-0.0268309944,0.028321,-0.007972,-0.02542,-2.586798137,-9.444000082999999,0.5384439249,-1.776,1.298,-1.9508,0.00019999999999997797,-5.000000000032756e-05,-1.999999999990898e-05,0.0026364708528852088,-0.00030963037670916904,-0.0008986843794791533
150000000000.0,3,0.1263292653,0.11765038005,0.033107250399999996,0.021898,-0.008989,-0.022234,-2.5829735435,-9.4448826815,0.54165069945,-1.7775,1.2983,-1.9494,4.999999999988347e-05,-4.999999999988347e-05,9.99999999995449e-06,0.0004551917315918086,-0.0003780584296639855,-0.000955011390167293
150000000000.0,3,0.07308896245,-0.037284883299999995,0.0637824516,0.012208,-0.016375,-0.015838,-2.5798354155000003,-9.445569147,0.54449462795,-1.7788,1.2986,-1.9483,5.0000000000105516e-05,-9.999999999976694e-05,-9.00000000000345e-05,0.0003111509056767936,-0.00011529107229013569,-0.00024239707976336788
150000000000.0,3,0.06387071144999999,-0.10460753554999999,0.02352615335,0.013307,-0.013187,-0.016916,-2.5765992209999995,-9.446353679,0.54659325105,-1.7798,1.2989,-1.9474,9.999999999998899e-05,-0.00019999999999997797,3.0000000000085514e-05,-0.0013888270878248399,-0.0006951631806497716,7.99081265827617e-05
150000000000.0,3,0.1112662509,-0.07265746984999999,0.0342055952,0.016521,-0.007893,-0.010524,-2.5735591595,-9.446942078,0.5492312399,-1.7811,1.2991,-1.9462,4.999999999988347e-05,-0.000300000000000189,-2.0000000000020002e-05,-0.0021346005370790344,-0.000642563572673005,0.0004814076388082178
150000000000.0,3,0.039197180049999995,-0.17687273939999998,0.16599716455,0.016594,0.004885,-0.003079,-2.5717939624999997,-9.4472362775,0.5533108063,-1.7827,1.2992,-1.9446,5.0000000000105516e-05,-0.00010000000000021103,-1.0000000000065512e-05,1.2069144661897013e-05,-0.0002950532267405048,-0.00036426316247561985
150000000000.0,3,-0.019819239649999997,-0.17906942899999997,0.21408897614999997,0.017657,0.003807,-0.002009,-2.5712055634999995,-9.447138210999999,0.558194518,-1.7846,1.2992,-1.9427,5.0000000000105516e-05,-9.999999999976694e-05,-9.99999999995449e-06,0.0004962835137822807,-5.711138192387999e-05,-0.00016804565063299748
150000000000.0,3,0.02468333805,-0.09330046809999999,0.11189387649999999,0.019603,-0.019654,-0.000899,-2.5701268319999997,-9.447138210999999,0.56222505115,-1.7862,1.2992,-1.9412,4.999999999988347e-05,-4.999999999988347e-05,-2.0000000000020002e-05,0.0018100943477616926,0.00011413542510507746,-0.0005657237944127758
150000000000.0,3,0.14720762315,-0.023643833149999998,0.016455558699999998,0.023716,-0.039934,-0.001935,-2.5674790364999995,-9.447628543499999,0.5657848651,-1.7877,1.2994,-1.94,9.999999999998899e-05,-5.000000000032756e-05,4.0000000000040004e-05,-0.00014675919773332602,-3.275217166698319e-05,-0.00016642455685111912
150000000000.0,3,0.2011736181,0.0281646988,0.00114737805,0.012961,-0.054758,-0.008346,-2.5633602435,-9.448609208499999,0.5688249266,-1.7892,1.2997,-1.9391,5.0000000000105516e-05,-9.999999999976694e-05,9.99999999995449e-06,-0.0002963400440698649,-0.0001854441927409134,-1.7641736658191576e-05
150000000000.0,3,0.2415966294,0.0503669544,-0.024408751849999997,0.005436,-0.063219,-0.010496,-2.5582607855,-9.449884073,0.57073722335,-1.7903,1.3002,-1.9385,4.999999999988347e-05,-5.000000000032756e-05,-2.0000000000020002e-05,-0.00014834872183167036,-0.00011036151112953085,-0.0005183259246321903
150000000000.0,3,0.18286460255,0.010875574849999998,-0.05629997764999999,4e-06,-0.073833,-0.008366,-2.5541419925,-9.4509628045,0.5716492418,-1.791,1.3006,-1.9385,3.333333333332966e-05,-4.999999999988347e-05,-2.999999999997449e-05,-9.717131416464575e-05,-7.46525380195262e-05,-0.0006566806477947829
150000000000.0,3,0.07993400415,-0.0471503732,-0.032803244249999995,-9.6e-05,-0.085555,-0.007285,-2.5514941970000002,-9.4515512035,0.5731398526,-1.7918,1.3009,-1.9386,3.333333333332966e-05,-4.999999999988347e-05,-2.999999999997449e-05,0.00012429702619054517,-0.0002883352192322164,-0.0006862375277800759
150000000000.0,3,0.0234575068,-0.055829258449999995,-0.007649186999999999,-9.8e-05,-0.084491,-0.005155,-2.5499251329999995,-9.451845403,0.5752188624,-1.7927,1.301,-1.9385,3.333333333332966e-05,-4.999999999988347e-05,-2.0000000000020002e-05,-4.7224863807482365e-05,-0.0003723260655834615,-0.0006623962650622595
150000000000.0,3,-0.01554354025,-0.05215176469999999,-0.02125101055,-0.00417,-0.06314,-0.010537,-2.5488464014999996,-9.452041536,0.57640546705,-1.7932,1.3011,-1.9387,2.4999999999941735e-05,9.999999999976694e-05,-5.999999999994898e-05,0.00015245578830169748,0.00033741276678256327,-0.0009443079686506373
150000000000.0,3,-0.07605057074999999,-0.016073099349999998,-0.021103910799999997,-0.007172,-0.037542,-0.009515,-2.548748335,-9.452041536,0.57640546705,-1.7932,1.3011,-1.9391,2.500000000016378e-05,-9.999999999976694e-05,-1.0000000000065512e-05,-0.0007068181004450391,-1.8827927962705715e-05,-0.0009151239806839406
150000000000.0,3,-0.24290091384999998,-0.027164420499999998,0.046238354749999995,-0.001801,-0.034386,-0.011629,-2.551298064,-9.4513550705,0.57760187835,-1.7934,1.3008,-1.9392,2.4999999999941735e-05,-0.00010000000000021103,-9.99999999995449e-06,-0.0004191557968964421,-0.00044455651180053124,-0.000620340971850819
150000000000.0,3,-0.09669356900000001,-0.04543420945,-0.04315906665,0.01098,-0.03875,-0.014796,-2.551101931,-9.4513550705,0.5785629300499999,-1.7938,1.3008,-1.9392,2.4999999999941735e-05,-3.333333333310762e-05,-1.0000000000065512e-05,0.0005892486472940384,0.00029147084119718336,-0.0002444550766882436
150000000000.0,3,0.04733669954999999,0.03955021945,-0.10228335949999999,0.015257,-0.037718,-0.015861,-2.5488464014999996,-9.4519434695,0.5791807489999999,-1.7942,1.301,-1.9391,5.0000000000105516e-05,-3.333333333355171e-05,1.0000000000065512e-05,0.0006017717068922401,-0.000200892338328984,-0.00036843595568525345
150000000000.0,3,0.0195936867,0.048170264799999994,-0.039844418949999995,0.006786,-0.028059,-0.013759,-2.5470812045,-9.4523357355,0.5801810273,-1.7948,1.3012,-1.9389,5.0000000000105516e-05,-3.333333333310762e-05,2.999999999997449e-05,-0.0007431946739400175,-0.0002474718524894115,-0.0003618690472926289
150000000000.0,3,0.0040011132,0.034382114899999996,0.014847268099999998,0.00357,-0.024845,-0.005231,-2.5462966724999996,-9.452433802,0.58160299155,-1.7954,1.3012,-1.9385,4.999999999988347e-05,-0.00010000000000021103,-9.99999999995449e-06,0.00012878750998335242,-0.00027207325976275065,-0.0003230212686129441
150000000000.0,3,-0.06280178659999999,0.006982334799999999,0.03666706435,0.009976,-0.021706,-0.000951,-2.546983138,-9.452139602499999,0.5837310346,-1.7961,1.3011,-1.938,5.0000000000105516e-05,-3.333333333310762e-05,1.999999999990898e-05,-0.0004567113904663245,-0.0006447016534150141,-0.0001809416533591346
150000000000.0,3,-0.10415642965,-0.0077374468499999995,0.01152281375,0.021782,-0.009022,0.005459,-2.5489444679999997,-9.451453137,0.58597675745,-1.7968,1.3008,-1.9375,9.999999999998899e-05,-3.333333333355171e-05,-3.999999999992898e-05,0.0009495941922570417,0.0003426626499329899,-0.0005900866475272437
150000000000.0,3,-0.13467472445,-0.0413056098,-0.02085874455,0.022927,0.001624,0.006519,-2.5514941970000002,-9.450668604999999,0.58784002095,-1.7972,1.3005,-1.937,9.999999999998899e-05,-3.333333333310762e-05,-1.0000000000065512e-05,-4.529574043066198e-05,-0.000520989567760477,-3.391547174524945e-05
150000000000.0,3,-0.11994513614999999,-0.0544072942,-0.07695278254999999,0.024023,0.005879,0.00652,-2.5537497264999995,-9.4499821395,0.5887128128,-1.7974,1.3003,-1.9367,9.999999999998899e-05,-0.00010000000000021103,1.0000000000065512e-05,-6.421866208783378e-05,-0.0007331994109509576,-4.351956618631192e-06
150000000000.0,3,-0.03747120965,-0.04235492135,-0.10617659954999999,0.018662,0.000601,0.002252,-2.5545342585,-9.449786006499998,0.5887618460499999,-1.7973,1.3002,-1.9367,9.999999999998899e-05,-9.999999999976694e-05,-5.000000000032756e-06,-0.0001526306345316364,5.2604620076390773e-05,-0.0001432106794982957
150000000000.0,3,0.07112763244999999,-0.014327515649999999,-0.10368571045,0.011263,0.009188,0.001151,-2.5534555269999997,-9.450080205999999,0.5880655738999999,-1.7972,1.3003,-1.9368,9.999999999998899e-05,-0.00010000000000021103,-5.000000000032756e-06,0.0001895557484630217,0.0001239065112532689,-0.00020467427562564922
150000000000.0,3,0.06691077295,0.004903325,-0.03678474415,0.012368,0.013443,7.3e-05,-2.5525729285,-9.450276338999998,0.58834996675,-1.7973,1.3004,-1.9364,-9.999999999998899e-05,-9.999999999976694e-05,0.0009200000000000319,5.5355964190040297e-05,-0.006973597419622335,0.0005073637244872309
150000000000.0,3,0.0337544893,-0.027605719749999997,0.01379795655,0.017791,0.022991,-0.002072,-2.5518864629999998,-9.450472472,0.5895365714,-1.7978,1.3004,-1.9357,5.0000000000105516e-05,-0.00019999999999997797,9.999999999998899e-05,-0.001063695158260991,0.00019070062348403027,-0.0002563445789789398
150000000000.0,3,0.005540757249999999,0.0121014061,0.03227368515,0.023263,0.039995,-0.002093,-2.5517883964999997,-9.4503744055,0.59140964155,-1.7985,1.3004,-1.9346,4.999999999988347e-05,-5.000000000032756e-05,2.999999999997449e-05,8.378225823424401e-05,-0.00018802374055759685,-0.00012132771599127068
150000000000.0,3,-0.032705177749999995,0.006688135299999999,0.04893518349999999,0.020083,0.04428,0.001099,-2.5525729285,-9.4499821395,0.5931650318999999,-1.7991,1.3003,-1.9336,0.00019999999999997797,-4.999999999988347e-05,-0.00026999999999999247,-0.00015961250782003944,0.0017914792740456598,0.00019154730347858973
150000000000.0,3,-0.012415218899999999,-0.0438553388,0.01587696635,0.017741,0.020851,0.005406,-2.5532593939999995,-9.449786006499998,0.59448892965,-1.7996,1.3002,-1.9329,9.999999999998899e-05,-0.00010000000000021103,-1.999999999990898e-05,7.35194961438701e-05,4.895830182616301e-05,0.000553288497498361
150000000000.0,3,0.16433003405,-0.08859327609999999,-0.09138817134999999,0.017604,0.004868,0.006488,-2.5510038644999997,-9.4503744055,0.5944791229999999,-1.7997,1.3004,-1.9326,0.00019999999999997797,-9.999999999976694e-05,-7.00000000000145e-05,0.0020689637689397244,0.0003928760706304324,-0.00025112324134024533
150000000000.0,3,0.241439723,0.0053642375499999995,-0.13730290665,0.016714,0.022999,-0.001036,-2.5474734705,-9.4513550705,0.59325329175,-1.7996,1.3008,-1.9325,9.999999999998899e-05,-5.000000000032756e-05,7.00000000000145e-05,3.811354070926143e-05,-0.0001295550532269818,0.0004720819876808946
150000000000.0,3,0.11410037274999998,0.05271074374999999,-0.0341663686,0.013624,0.033686,-0.006404,-2.5456102069999997,-9.4519434695,0.5933611648999999,-1.7998,1.301,-1.932,0.00019999999999997797,-4.999999999988347e-05,-0.0001300000000000745,0.0008477777989477353,6.667098715862352e-05,-4.896270114551626e-05
150000000000.0,3,-0.08353304469999999,-0.16705628275,0.15121854299999998,0.010627,0.055027,-0.011781,-2.545414074,-9.451747336499999,0.5954695946499999,-1.8006,1.301,-1.9307,9.999999999998899e-05,-0.00019999999999997797,-3.999999999992898e-05,-0.0011403499284554641,0.0002687520443391822,0.0005861253134593625
150000000000.0,3,-0.015278760699999998,-0.22418982564999998,0.10180283365,0.021396,0.070915,-0.005388,-2.5444334090000003,-9.4519434695,0.5970092387,-1.8013,1.301,-1.9293,9.999999999998899e-05,-9.999999999976694e-05,-2.0000000000020002e-05,-0.0006818226426246188,0.0002268574253161404,0.0004888278454968642
150000000000.0,3,0.013395883899999999,-0.15811261794999998,0.06908784925,0.029881,0.065514,-0.003233,-2.543648877,-9.452041536,0.5990490219,-1.8021,1.3011,-1.9278,0.00029999999999996696,-0.00010000000000021103,-0.0007300000000000084,-0.0009392383072046595,0.005028438810127822,0.000318016595934445
150000000000.0,3,0.10885381499999999,-0.06461601685,0.006952914849999999,0.027797,0.072987,-0.001124,-2.5417856134999997,-9.452433802,0.60011794675,-1.8027,1.3012,-1.9265,0.00020000000000020002,-9.999999999976694e-05,2.999999999997449e-05,0.00035540745059670087,-0.0006021818271069179,0.0008334718566773702
150000000000.0,3,0.12416199565,0.05173007875,-0.017426417049999997,0.021396,0.07304,-0.001143,-2.5404126825,-9.452826068,0.6002650465,-1.8028,1.3014,-1.9256,9.999999999998899e-05,-0.00010000000000021103,4.999999999999449e-05,-0.00044989788674243414,0.00031007220686873893,0.000778714911550793
150000000000.0,3,0.11682662144999999,0.056231331100000004,-0.02262394155,0.021206,0.050661,0.001023,-2.5391378179999995,-9.453218334,0.6005200194,-1.803,1.3015,-1.9248,9.999999999998899e-05,-0.00019999999999997797,9.99999999995449e-06,-0.0014763054389426156,-0.0003709425631472918,0.0010460967365908402
150000000000.0,3,0.2346142946,0.04311984005,-0.07329490209999999,0.02739,0.025034,0.003197,-2.5359996899999997,-9.454002866,0.6009122854,-1.8035,1.3018,-1.924,9.999999999998899e-05,-9.999999999976694e-05,-9.99999999995449e-06,-0.0010159745933464581,2.360625309583142e-05,0.0006828697147307494
150000000000.0,3,0.3597471486,0.04502233014999999,-0.11017771274999999,0.032578,0.003684,-0.00212,-2.5304098994999995,-9.4554738635,0.60188314375,-1.8043,1.3024,-1.923,9.999999999998899e-05,-4.999999999988347e-05,-2.0000000000020002e-05,-8.381303485993641e-05,-0.00020564203766770817,0.0002651699349414116
150000000000.0,3,0.35387296524999995,0.0178677163,-0.10201857995000001,0.027163,-0.00799,-0.005337,-2.52423171,-9.4570429275,0.60315800825,-1.8053,1.303,-1.922,-0.0004999999999999449,-5.000000000032756e-05,0.0013500000000000734,0.0005011944150621339,-0.008966012732871675,0.000738667634777368
150000000000.0,3,0.24374428574999998,-0.0367945508,-0.047297472949999995,0.024994,-0.012235,-0.005352,-2.5194264515,-9.458121659,0.60500165845,-1.8065,1.3034,-1.9209,5.0000000000105516e-05,-9.999999999976694e-05,1.999999999990898e-05,-0.0019181751005381553,-0.0010587172095319897,0.001000713605502579
150000000000.0,3,0.1162676424,-0.11671874829999998,-0.011640493549999999,0.020714,-0.011139,-0.001102,-2.5167786559999996,-9.458710058,0.6070512482999999,-1.8075,1.3036,-1.92,4.999999999988347e-05,-0.00019999999999997797,-5.999999999994898e-05,-0.0006898740229459577,-0.00027169144034666637,-1.1712740949576528e-05
150000000000.0,3,0.03035158175,-0.15222862795,0.0114149406,0.019669,-0.005807,0.003151,-2.515797991,-9.458808124499999,0.6092773578499999,-1.8084,1.3037,-1.9192,4.999999999988347e-05,-9.999999999976694e-05,2.0000000000020002e-05,-0.0001648129819233901,-0.00043676125739056104,-6.615132675413804e-05
150000000000.0,3,-0.035147033599999995,-0.16063292699999998,0.020270345549999996,0.017621,0.004866,0.003128,-2.515994124,-9.458710058,0.6111994612499999,-1.8091,1.3036,-1.9184,5.0000000000105516e-05,-0.00010000000000021103,-0.00017000000000000348,-0.001336506621496536,-0.0009295808648102089,0.0006872431544167057
150000000000.0,3,-0.048386011099999994,-0.12174955975,0.02197670265,0.015545,0.013406,0.005246,-2.5168767224999997,-9.458317791999999,0.61278813855,-1.8096,1.3035,-1.9178,0.0004999999999999449,-5.000000000032756e-05,-0.0014300000000000423,1.4097016430403286e-05,0.009766413503829563,-0.0011058404947528189
150000000000.0,3,-0.0443456713,-0.0691564958,0.008571012099999999,0.009251,0.024118,0.000948,-2.517563188,-9.458121659,0.6131705979,-1.8097,1.3034,-1.9174,2.4999999999941735e-05,-4.999999999988347e-05,5.000000000032756e-06,-0.0009063259666899359,-0.0006612188831280896,0.0005083513429324782
150000000000.0,3,0.0170243444,-0.03350932305,-0.047395539449999996,0.01035,0.025181,-0.004391,-2.516974789,-9.458317791999999,0.612719492,-1.8096,1.3035,-1.9173,2.4999999999941735e-05,-3.333333333310762e-05,5.000000000032756e-06,0.001981562421305094,0.00046929397746242607,-0.0007254305540529415
150000000000.0,3,0.059467525599999994,0.009943943099999998,-0.0702352273,0.009287,0.022,-0.010797,-2.5153076585,-9.458808124499999,0.61192515335,-1.8094,1.3037,-1.9172,2.500000000016378e-05,-3.333333333355171e-05,2.999999999997449e-05,-0.00010363560717197018,0.0001230515961914147,0.00017836260081649513
150000000000.0,3,0.07201023094999999,0.03070462115,-0.075118939,0.014623,0.021957,-0.01186,-2.5133463285,-9.459396523499999,0.61141520755,-1.8094,1.3039,-1.917,2.4999999999941735e-05,-3.333333333310762e-05,-9.999999999998899e-05,0.0004958422890284364,-0.0005431345921280695,0.00047940503970300696
150000000000.0,3,0.045610729149999994,0.040373978049999995,-0.055495832349999996,0.021031,0.02297,-0.011854,-2.5117772645,-9.4597887895,0.6116996003999999,-1.8097,1.304,-1.9164,2.4999999999941735e-05,-4.999999999988347e-05,5.999999999994898e-05,0.0002497045985994095,-0.0002687151942633026,4.2553163010605743e-05
150000000000.0,3,0.00942419065,0.034529214649999994,-0.024016485849999998,0.027456,0.026114,-0.011849,-2.5108946659999996,-9.459886856,0.6131411779499999,-1.8103,1.3041,-1.9155,2.500000000016378e-05,-5.000000000032756e-05,-7.00000000000145e-05,-0.00011733618498555032,-7.849935792991758e-05,0.00022584589065965943
150000000000.0,3,-0.0401876517,0.013484143749999998,-0.039403119699999996,0.034954,0.031379,-0.009708,-2.5107965994999994,-9.4597887895,0.6149063749499999,-1.811,1.304,-1.9145,2.4999999999941735e-05,-0.00010000000000021103,-9.99999999995449e-06,-0.00024823287904451874,-0.00033068844477868176,0.00020593614797936866
150000000000.0,3,-0.0695291485,-0.02160404995,-0.05653533725,0.038201,0.03881,-0.007576,-2.5112869319999995,-9.4595926565,0.61663234535,-1.8116,1.304,-1.9134,2.4999999999941735e-05,-0.00019999999999997797,-1.0000000000065512e-05,-0.00178352385882663,-0.000538908103106861,0.0010203320600417065
150000000000.0,3,-0.05033753445,-0.052406737599999996,-0.06895055615,0.036075,0.040958,-0.006514,-2.5114830649999997,-9.45949459,0.61781895,-1.812,1.3039,-1.9125,2.4999999999941735e-05,-9.999999999976694e-05,-5.999999999994898e-05,0.0001354018355856912,0.0003128790635125167,0.00014463218675864198
150000000000.0,3,-0.04969029555,-0.05851628055,-0.08274851269999998,0.029667,0.042075,-0.004391,-2.5117772645,-9.459298457,0.6182994758499999,-1.8122,1.3039,-1.9119,2.4999999999941735e-05,-0.00019999999999997797,4.999999999999449e-05,-0.0014578491376744385,-0.0008469256222460864,0.0011915119456187284
150000000000.0,3,-0.03851071455,-0.0481310382,-0.07098053269999999,0.02429,0.037857,-0.003324,-2.512071464,-9.4592003905,0.6185054154999999,-1.8122,1.3038,-1.9114,2.500000000016378e-05,-0.00010000000000021103,-4.0000000000040004e-05,0.001268442203871567,0.0008738400389012302,-0.0002790059816843993
150000000000.0,3,-0.0480918116,-0.0173577705,-0.042806027249999996,0.017881,0.037909,-0.002265,-2.5127579294999998,-9.4590042575,0.61861328865,-1.8122,1.3037,-1.911,2.4999999999941735e-05,-4.999999999988347e-05,-1.999999999990898e-05,0.0011374023574577397,-0.00025441061568387546,0.00017550163393176277
150000000000.0,3,-0.03425462845,-0.013454723799999999,-0.025722842949999998,0.013595,0.035813,-0.002267,-2.5133463285,-9.458906190999999,0.6185936753499999,-1.8121,1.3037,-1.9106,5.0000000000105516e-05,-4.999999999988347e-05,4.999999999999449e-05,0.0006113673467493808,-0.0007083129126523868,0.0005171291681951296
150000000000.0,3,-0.0145530686,-0.0506807672,0.0089436648,0.015476,0.008085,0.004189,-2.5135424614999997,-9.458808124499999,0.61937820735,-1.8124,1.3037,-1.9101,4.999999999988347e-05,-0.00010000000000021103,-8.000000000008001e-05,0.0005824051617293602,0.0008518905830467993,0.00017041548933516282
150000000000.0,3,0.13492969735,-0.12143574694999999,0.0020790098,0.016888,-0.083566,0.002207,-2.5109927324999997,-9.459298457,0.6225065287,-1.8138,1.3038,-1.9093,4.999999999988347e-05,-9.999999999976694e-05,7.00000000000145e-05,-0.00044510629577265703,-0.0006286799208059524,0.0007374078977151477
150000000000.0,3,0.5971759517499999,-0.24370505915000001,-0.10437217594999999,0.000277,-0.045036,-0.028891,-2.4980479545,-9.4627307845,0.622722275,-1.8151,1.3052,-1.9087,5.0000000000105516e-05,-0.00010000000000021103,-3.999999999992898e-05,6.3892717255154e-05,-0.0002639912976560854,0.0005155558942013805
150000000000.0,3,0.08793623055,-0.13199750899999999,0.136116302,-0.016463,-0.001215,-0.023668,-2.4935368954999997,-9.463809516,0.6237421665999999,-1.8159,1.3056,-1.908,3.333333333332966e-05,-9.999999999976694e-05,-9.99999999995449e-06,-0.000724212085207121,0.000279471935171971,-0.0006279709320642368
150000000000.0,3,-0.24003737204999998,-0.28567752115,0.17422494389999998,-0.010124,-0.004474,-0.015099,-2.4943214275,-9.4635153165,0.6251445175499999,-1.8164,1.3055,-1.9076,3.333333333332966e-05,-2.4999999999941735e-05,-1.0000000000065512e-05,0.0015953159651029836,0.0002081206665649482,-0.0011500703258624512
150000000000.0,3,0.22162048335,0.034715541,-0.17611762734999997,0.015414,0.003815,0.010531,-2.491281366,-9.464397915,0.6230851210499999,-1.8159,1.3058,-1.9081,3.333333333332966e-05,-2.5000000000385825e-05,3.999999999992898e-05,0.00039566571616234114,-0.00012985913878305055,0.00015883617888245993
150000000000.0,3,-0.1353513833,0.33658384129999996,-0.05511337299999999,0.023964,0.008004,0.013757,-2.4964788905,-9.463024984,0.6244776653499999,-1.8159,1.3053,-1.9079,1.6666666666775853e-05,-2.4999999999941735e-05,9.00000000000345e-05,0.0002553542064993586,-0.0005378898539989407,-0.0002041547936992849
150000000000.0,3,-0.13575345595,0.23811526865,0.043541526000000004,0.016602,0.019789,0.011603,-2.5009899494999996,-9.461652053,0.62683126135,-1.8164,1.3047,-1.9073,1.666666666655381e-05,-2.4999999999941735e-05,1.0000000000065512e-05,-0.0008390122144223966,6.328188985182948e-05,5.6031459815031326e-05
150000000000.0,3,0.02654660155,0.13548867639999998,0.012170052649999999,0.01118,0.008113,0.010548,-2.5022648139999997,-9.4611617205,0.6281355458,-1.8167,1.3046,-1.9068,1.666666666655381e-05,-9.999999999976694e-05,-3.0000000000085514e-05,-0.0002817097659491008,0.00022530107280505085,0.00014437765225272514
150000000000.0,3,0.038569554449999995,-0.014837461449999999,0.011944499699999998,0.013168,-0.014275,0.004184,-2.5021667474999996,-9.461063653999998,0.62985170955,-1.8174,1.3045,-1.9062,1.6666666666775853e-05,-0.00019999999999997797,-2.999999999997449e-05,-0.00033685142733985707,-0.0007679318027564719,0.0004313884970033044
150000000000.0,3,0.13339005329999998,-0.11590479634999999,0.0571139296,0.015233,-0.02601,-7.3e-05,-2.4994208854999997,-9.461652053,0.6327152513500001,-1.8187,1.3048,-1.9051,1.6666666666775853e-05,-5.000000000032756e-05,-2.999999999997449e-05,-0.00016084790711623498,0.000494647606853249,7.90391413811875e-05
150000000000.0,3,0.17088087624999998,-0.1240933491,0.09870393224999999,0.014147,-0.03239,-0.005414,-2.4954982254999996,-9.462436584999999,0.6364613916499999,-1.8205,1.3051,-1.9037,1.666666666655381e-05,-4.999999999988347e-05,9.99999999995449e-06,-0.00033041543021883335,-0.00021050029447144958,7.811031371307564e-05
150000000000.0,3,0.11406114615,-0.10997177309999999,0.07053923344999999,0.010969,-0.031297,-0.007566,-2.4922620309999997,-9.4631230505,0.6394916465,-1.822,1.3053,-1.9025,1.999999999990898e-05,-9.999999999976694e-05,-9.99999999995449e-06,-0.0005933812711720332,-0.0007663982315497808,0.00016234261021930152
150000000000.0,3,0.027801852749999998,-0.0816501679,0.059663658599999995,0.004625,-0.025915,-0.009724,-2.4903987675,-9.46341725,0.6416883361,-1.823,1.3055,-1.9018,2.0000000000131024e-05,-4.999999999988347e-05,5.999999999994898e-05,-1.58008475246163e-05,-0.0007641029643321584,-0.000263050806428744
150000000000.0,3,-0.050818060299999995,-0.050376761049999996,0.050925933449999995,-0.001768,-0.023734,-0.007601,-2.4900065015,-9.46341725,0.6430906870499999,-1.8235,1.3055,-1.9015,1.999999999990898e-05,-5.000000000032756e-05,-3.999999999992898e-05,-0.0008436561203262194,0.00014321875195477674,-0.00015570960343014306
150000000000.0,3,-0.09382022055,-0.031038047249999996,0.04555188925,-0.008203,-0.024752,-0.002267,-2.4908891,-9.463221117,0.64367908605,-1.8237,1.3053,-1.9016,2.0000000000131024e-05,2.0000000000131024e-05,2.999999999997449e-05,-1.1884291833075267e-05,-6.208198819002142e-05,-0.0002970262977566307
150000000000.0,3,-0.07158854499999999,-0.042099948449999994,0.03670629095,-0.014652,-0.026837,0.004133,-2.4919678315,-9.462926917499999,0.64354179295,-1.8235,1.3052,-1.9021,1.999999999990898e-05,2.0000000000131024e-05,2.999999999997449e-05,0.00021878589151991257,-0.0004886300941160382,-0.00028646508846286167
150000000000.0,3,0.00495235825,-0.050484634199999996,0.051975244999999996,-0.015882,-0.042819,0.01163,-2.4925562305,-9.4627307845,0.64383599245,-1.8236,1.3052,-1.9024,4.999999999988347e-05,1.9999999999686935e-05,-2.0000000000020002e-05,0.00018625787912718295,0.0001828582033143178,-0.0002958666691652567
150000000000.0,3,0.09927271794999999,-0.0370299104,0.0413448364,-0.012831,-0.059898,0.01486,-2.4918697649999997,-9.462828851,0.6445911044999999,-1.8239,1.3052,-1.9026,5.0000000000105516e-05,2.0000000000131024e-05,3.0000000000085514e-05,-0.0002157263550750521,-0.000349871535351598,-0.00014637920857518694
150000000000.0,3,0.09927271794999999,-0.0370299104,0.0413448364,-0.012831,-0.059898,0.01486,-2.4918697649999997,-9.462828851,0.6445911044999999,-1.8239,1.3052,-1.9026,5.0000000000105516e-05,2.0000000000131024e-05,-7.00000000000145e-05,-9.670110713333457e-05,0.00045766232600485957,-0.0005182666752503451
150000000000.0,3,0.20083038535,-0.0226337482,0.00534462425,-0.011849,-0.072691,0.011667,-2.4892219695,-9.4635153165,0.64527757,-1.8244,1.3055,-1.9029,4.999999999988347e-05,4.999999999988347e-05,3.999999999992898e-05,-0.000196658957522855,-0.00023151789275432932,-0.0006646120389954824
150000000000.0,3,0.2120589996,-0.053063783149999995,0.030851720899999997,-0.01293,-0.074814,0.011653,-2.4862799744999995,-9.464201782,0.64656224115,-1.8252,1.3057,-1.9029,1.4285714285744433e-05,4.999999999988347e-05,-2.999999999997449e-05,-0.00018896819700153777,0.00020809707202706917,-0.0008688146560813514
150000000000.0,3,0.15046343095,-0.06318424595,0.01013026945,-0.006452,-0.067406,0.008436,-2.484024445,-9.4646921145,0.64768019925,-1.8259,1.3059,-1.903,1.4285714285744433e-05,4.999999999988347e-05,4.999999999999449e-05,-0.0006744076900799811,-0.0006175419864868914,-0.0005952059305185387
150000000000.0,3,0.052083118149999996,-0.0150434011,-0.013258590799999997,-0.002041,-0.051455,0.005209,-2.483436046,-9.464790181,0.64862163765,-1.8263,1.306,-1.9031,1.4285714285744433e-05,5.000000000032756e-05,-2.999999999997449e-05,-0.00013714801970587942,0.0003403462595659157,-0.0005487551027090198
150000000000.0,3,-0.08804410369999999,0.0073157609,0.037716375899999995,-0.001826,-0.024816,0.00517,-2.4851031765,-9.4642998485,0.6498670821999999,-1.8266,1.3058,-1.9031,1.4285714285522388e-05,2.4999999999941735e-05,-2.999999999997449e-05,-0.00037789510076580157,9.40312479420502e-05,-0.0004812793909887425
150000000000.0,3,-0.1617704984,0.00995374975,0.014974754549999999,0.000394,-0.015241,0.003034,-2.4880451714999996,-9.46341725,0.6504554812,-1.8265,1.3055,-1.9034,1.4285714285744433e-05,2.4999999999941735e-05,1.999999999990898e-05,-9.305058001185529e-05,-4.993025613675428e-05,-0.0001558359042341806
150000000000.0,3,-0.14263772425,0.007247114349999999,-0.042815833899999996,0.003599,-0.016329,-0.00015,-2.4903987675,-9.462828851,0.65034760805,-1.8262,1.3052,-1.9038,1.4285714285744433e-05,2.4999999999941735e-05,5.0000000000105516e-05,-0.0017041478440922297,-0.0006693352213362758,0.0005824900766460139
150000000000.0,3,-0.05276958365,-0.0216334699,-0.0703725204,0.002477,-0.022712,-0.000138,-2.491085233,-9.4627307845,0.6499259221,-1.826,1.3052,-1.9042,1.4285714285744433e-05,2.4999999999941735e-05,1.666666666666483e-05,0.001749876835947184,0.0002442853191555461,-0.0008413614364224387
150000000000.0,3,0.04918034975,-0.0353823932,-0.09519315155,-0.000852,-0.037604,0.000945,-2.4901045679999996,-9.463024984,0.64915119675,-1.8258,1.3053,-1.9047,5.0000000000105516e-05,-9.999999999976694e-05,1.666666666666483e-05,-0.0020930913147454433,-0.00030559319227019266,0.0006064639046989839
150000000000.0,3,0.14803138175,-0.06556726189999999,-0.12428948209999999,-0.007355,-0.048208,0.003074,-2.4874567725,-9.463809516,0.6475723260999999,-1.8255,1.3056,-1.9055,4.999999999988347e-05,3.333333333310762e-05,1.666666666666483e-05,0.0002520134426540199,-0.0005021514765899404,-0.0003426283524854412
150000000000.0,3,0.17614704729999997,-0.0710982125,-0.09841953939999999,-0.014866,-0.05241,0.004121,-2.484416711,-9.4646921145,0.6459444221999999,-1.8252,1.3059,-1.9063,1.6666666666775853e-05,3.333333333355171e-05,-3.0000000000085514e-05,-0.0001285829528578919,0.00030611025625626453,-0.0005758626848164639
150000000000.0,3,0.16468307344999997,-0.08479810254999999,-0.0292042037,-0.022297,-0.047022,0.005153,-2.481670849,-9.465476646499999,0.64465975105,-1.8249,1.3063,-1.9071,1.666666666655381e-05,3.333333333310762e-05,-1.999999999990898e-05,8.578563644334736e-05,0.0001312968285154259,-0.0006241415961802943
150000000000.0,3,0.0771587222,-0.10327383115,-0.00718827445,-0.026515,-0.037403,0.010458,-2.4805921175,-9.4658689125,0.64299262055,-1.8244,1.3064,-1.9081,1.6666666666775853e-05,5.000000000032756e-05,-1.0000000000065512e-05,0.00021420127074289752,-0.00014438927775128896,-0.0005722208995777578
150000000000.0,3,-0.035784465849999995,-0.10258736565,-0.0078060934,-0.02215,-0.022524,0.014709,-2.481866982,-9.4656727795,0.6413745233,-1.8237,1.3063,-1.9091,1.6666666666775853e-05,4.999999999988347e-05,2.999999999997449e-05,0.0002650800320893598,0.00010831001148092767,-0.0006526763959211479
150000000000.0,3,-0.10349938409999998,-0.08560224785000001,0.036206151799999996,-0.012379,-0.000229,0.016828,-2.4846128439999995,-9.464986313999999,0.6406096045999999,-1.8231,1.3061,-1.9098,1.666666666655381e-05,4.999999999988347e-05,6.0000000000060005e-05,0.0005207819499100097,-6.047546624010636e-05,-0.00022970838517366587
150000000000.0,3,-0.09890006525,-0.0691172692,0.04314926,-0.003662,0.021013,0.014677,-2.4874567725,-9.4642998485,0.6403938583,-1.8228,1.3058,-1.91,1.6666666666775853e-05,4.999999999988347e-05,2.999999999997449e-05,-0.00011354491993409432,3.645933304419202e-05,-7.115583761763133e-05
150000000000.0,3,-0.06220358094999999,-0.034313468349999994,0.0195936867,-0.000295,0.039105,0.010385,-2.4896142354999995,-9.463809516,0.6397073928,-1.8223,1.3056,-1.9101,3.333333333332966e-05,-1.6666666666775853e-05,2.0000000000020002e-05,8.567306077589265e-05,4.8497465520158656e-05,0.0002328424096531556
150000000000.0,3,-0.01346453045,0.027036934049999996,-0.024369525249999996,0.006235,0.053973,0.008237,-2.4909871665,-9.4635153165,0.6384913682,-1.8217,1.3055,-1.9102,3.333333333332966e-05,-1.6666666666331764e-05,4.999999999999449e-05,-0.0001650816458984572,-2.0269978185494253e-05,0.00019311307656133536
150000000000.0,3,-0.0079629998,0.0732164489,-0.02464411145,0.010513,0.056068,0.00931,-2.492654297,-9.4631230505,0.63755973645,-1.8212,1.3053,-1.9101,3.333333333332966e-05,-1.6666666666775853e-05,9.99999999995449e-06,0.0002485217498719994,0.00017270833170135447,0.0003434645323476815
150000000000.0,3,0.0068450417,0.05151433245,-0.024232232149999998,0.011596,0.05819,0.009309,-2.4939291614999997,-9.462828851,0.636843851,-1.8208,1.3052,-1.9099,3.333333333332966e-05,-1.6666666666775853e-05,1.0000000000065512e-05,0.00026698150328852144,-3.018640064778033e-05,0.0007355396305439577
150000000000.0,3,-0.0012748644999999999,0.0173577705,-0.0319304524,0.012621,0.053919,0.010386,-2.495400159,-9.462436584999999,0.63616719215,-1.8204,1.3051,-1.9097,3.333333333332966e-05,-1.6666666666331764e-05,-5.000000000032756e-06,0.0008500949862928486,0.0004293524702512208,-9.370978388689721e-05
150000000000.0,3,-0.0136312435,-0.013258590799999997,-0.0473072796,0.012583,0.050721,0.012527,-2.4971653559999996,-9.462044319,0.6352355604,-1.8199,1.3049,-1.9097,3.333333333332966e-05,-1.6666666666775853e-05,-5.000000000032756e-06,-0.0004874845085454105,0.00027033122948583177,0.0009383573709311754
150000000000.0,3,-0.0290080707,-0.04670907395,-0.05067096054999999,0.01149,0.04647,0.010399,-2.4988324864999996,-9.4617501195,0.6342548953999999,-1.8194,1.3048,-1.9098,9.999999999998899e-05,-2.0000000000131024e-05,1.0000000000065512e-05,-6.904463765922131e-05,5.832437632924403e-05,0.0007356954170822938
150000000000.0,3,0.0052857843499999994,-0.06577320155,-0.0557213853,0.012584,0.049659,0.009326,-2.499911218,-9.461553986499998,0.6331761639,-1.8189,1.3047,-1.9098,5.0000000000105516e-05,-1.9999999999686935e-05,9.99999999995449e-06,0.0003850140620493825,0.00040390246616972547,0.00021160699186895116
150000000000.0,3,0.02023111895,-0.0642139442,-0.03213639205,0.011615,0.06139,0.008233,-2.5004996169999996,-9.461455919999999,0.6321856922499999,-1.8184,1.3047,-1.9096,4.999999999988347e-05,-2.0000000000131024e-05,-2.999999999997449e-05,0.00022083192755339986,0.00015203817342057668,0.000613191291055859
150000000000.0,3,0.00752170055,-0.05120051965,-0.006246836049999999,0.005307,0.073164,0.0082,-2.5013822155,-9.461259787,0.63083237455,-1.8178,1.3046,-1.9095,9.999999999998899e-05,-2.0000000000131024e-05,2.0000000000020002e-05,0.00039198859463085434,0.00035280424087980045,0.0006447526272799209
150000000000.0,3,0.0177892631,-0.01083634825,-0.00846313895,0.003171,0.074245,0.010328,-2.5025590134999995,-9.461063653999998,0.6291554374,-1.8171,1.3045,-1.9095,9.999999999998899e-05,-1.9999999999686935e-05,2.4999999999941735e-05,-0.00028713448927986107,0.0002955780252349438,0.0008089266037116793
150000000000.0,3,0.044855617099999995,0.043884758749999996,-0.00787473995,0.003124,0.071044,0.014601,-2.5037358114999995,-9.460867520999999,0.62738043375,-1.8163,1.3045,-1.9095,9.999999999998899e-05,-2.0000000000131024e-05,2.5000000000052758e-05,0.0008090888182610279,-0.00013671164944795144,0.0005551936822150161
150000000000.0,3,0.12202414594999998,0.04637564784999999,0.01705376435,0.009539,0.06993,0.010336,-2.5035396785,-9.460965587499999,0.6266841616,-1.8161,1.3045,-1.9091,9.999999999998899e-05,-2.0000000000131024e-05,3.999999999992898e-05,0.00042967560982942743,0.00010877545626319929,0.0006154692242996695
150000000000.0,3,0.1457856589,-0.014464808749999999,0.09724274139999999,0.008498,0.067813,0.002856,-2.5019706145000002,-9.4613578535,0.6274490802999999,-1.8165,1.3046,-1.908,4.999999999988347e-05,-2.0000000000131024e-05,-1.999999999990898e-05,-0.00020252318935165547,0.0002681183268620213,0.0007444201892234936
150000000000.0,3,0.15105182995,-0.09021137335,0.09883141869999999,0.008429,0.057159,0.000728,-2.4996170185,-9.461946252499999,0.6282630322499999,-1.817,1.3049,-1.9068,5.0000000000105516e-05,-1.9999999999686935e-05,0.0006049999999999667,0.00010255585664387112,0.00010119068982095136,0.0009391986408604502
150000000000.0,3,0.1436674225,-0.13224267525,0.034489988049999996,0.005096,0.042263,0.003938,-2.4973614889999998,-9.4625346515,0.6281061258499999,-1.8172,1.3051,-1.9062,0.0004999999999999449,-2.0000000000131024e-05,0.0006049999999999667,0.0011246166828602355,-0.01861306757253134,0.002316679367416974
150000000000.0,3,0.15436647765,-0.09227076985,-0.0213196571,0.006063,0.030532,0.005015,-2.4951059594999996,-9.4631230505,0.62736082045,-1.8171,1.3053,-1.906,4.999999999988347e-05,0.00013333333333331865,4.0000000000040004e-05,2.1589982262426588e-05,-0.00031609357055617515,0.0004922279471042401
150000000000.0,3,0.13667528104999999,-0.03658861115,-0.06330192574999999,0.008065,0.015595,0.007168,-2.493634962,-9.463613383,0.6265468685,-1.817,1.3055,-1.9059,5.0000000000105516e-05,0.00013333333333331865,-2.0000000000020002e-05,0.00011226929270335972,6.282881350205827e-05,0.00025090378637582234
150000000000.0,3,0.1468447771,0.0062566426999999996,-0.0725299834,0.009008,0.00386,0.012517,-2.492458164,-9.4639075825,0.6260369227,-1.8169,1.3057,-1.9059,-0.0004999999999999449,0.00013333333333331865,-0.0011600000000000499,-7.570682396096373e-05,0.019534151844810665,-0.002193655070427347
150000000000.0,3,0.15464106384999998,0.020947004399999997,-0.06644986039999999,0.003476,-0.020603,0.012539,-2.491281366,-9.4642998485,0.6258015630999999,-1.8169,1.3058,-1.906,-3.333333333332966e-05,3.333333333310762e-05,3.0000000000085514e-05,-0.000766524236612387,-0.0004159984692648777,0.0004490352378803131
150000000000.0,3,0.21687406474999998,-0.0091397978,-0.05608423135,-0.004131,-0.039718,0.009341,-2.4885355039999997,-9.464986313999999,0.6254485236999999,-1.817,1.3061,-1.9062,-3.333333333332966e-05,3.333333333355171e-05,9.99999999995449e-06,-0.00010357773634872558,-6.329515013536735e-05,-0.0001374767488790951
150000000000.0,3,0.21440278894999998,-0.048572337449999996,-0.030979207349999996,-0.003105,-0.046119,0.007203,-2.4852993094999998,-9.4658689125,0.6257819497999999,-1.8175,1.3064,-1.9063,-3.333333333332966e-05,3.333333333310762e-05,1.0000000000065512e-05,-2.1969389602860545e-05,-7.586818310745258e-05,-0.0003551877255683067
150000000000.0,3,0.1626530969,-0.09352602104999999,-0.0035892338999999997,-0.00201,-0.043995,0.005053,-2.4824553809999994,-9.466555377999999,0.6265272552,-1.818,1.3067,-1.9062,-2.4999999999941735e-05,0.00010000000000021103,1.999999999990898e-05,0.00014385739179689772,-0.0002671774714009256,-0.0006002954191957066
150000000000.0,3,0.11490451804999999,-0.09154507775,-0.01905432095,0.001267,-0.034432,0.005031,-2.480494051,-9.467045710499999,0.6270372009999999,-1.8184,1.3068,-1.9062,-2.500000000016378e-05,9.999999999976694e-05,-9.99999999995449e-06,0.0009442226343709947,0.00019457660566168933,-0.0009213438889785763
150000000000.0,3,0.05057289405,-0.05802594805,-0.0263014353,0.003389,-0.034452,0.007165,-2.4798075854999997,-9.467143777,0.62769424655,-1.8187,1.3069,-1.9062,-2.4999999999941735e-05,0.00010000000000021103,9.99999999995449e-06,1.8114487697173942e-05,-9.751563940363361e-05,-0.00057566947666432
150000000000.0,3,0.0331857036,-0.0405210778,-0.040697597499999995,-0.000897,-0.03442,0.010356,-2.4798075854999997,-9.467143777,0.6278707662499999,-1.8188,1.3069,-1.9065,-2.4999999999941735e-05,9.999999999976694e-05,2.0000000000020002e-05,0.0006390119279400253,4.071082917000979e-05,-0.0007660882072704212
150000000000.0,3,0.03586291905,-0.02346731345,-0.04570879565,-0.009476,-0.039677,0.010347,-2.479905652,-9.467143777,0.6273510138,-1.8186,1.3069,-1.9071,-4.999999999988347e-05,5.000000000032756e-05,-2.999999999997449e-05,-0.00014845301135246736,0.00011580998312887836,-0.00030289914856940214
150000000000.0,3,0.049847201949999996,-0.035892338999999995,-0.0481310382,-0.015922,-0.044951,0.01034,-2.4797095189999996,-9.46733991,0.6261840224499999,-1.8182,1.307,-1.908,-5.0000000000105516e-05,4.999999999988347e-05,4.0000000000040004e-05,-0.00084678138390748,-0.000616508300037566,-0.00013238994854214425
150000000000.0,3,0.0764330301,-0.05950675219999999,-0.060605097,-0.020158,-0.040654,0.010318,-2.4788269205,-9.467634109499999,0.62428153235,-1.8175,1.3071,-1.909,-9.999999999998899e-05,9.999999999976694e-05,1.999999999990898e-05,-0.00021106338596110774,-2.2449371064325874e-05,-0.00029041593176470926
150000000000.0,3,0.046777720499999995,-0.0529166834,-0.03862839435,-0.01909,-0.039598,0.011381,-2.478728854,-9.4678302425,0.6226634350999999,-1.8169,1.3071,-1.9101,-9.999999999998899e-05,0.00010000000000021103,-1.999999999990898e-05,0.0013087653188246229,0.0003220416972782303,-0.0008007690914815235
150000000000.0,3,0.0112188076,-0.0532501095,-0.03839303475,-0.019084,-0.038532,0.011377,-2.4792191864999995,-9.467732175999998,0.6210845644499999,-1.8163,1.3071,-1.9111,-5.0000000000105516e-05,9.999999999976694e-05,8.999999999992347e-05,0.0002875429108304406,-0.00045828153311111564,-0.0003371413388042477
150000000000.0,3,-0.0028439284999999996,-0.041207543299999996,-0.05408367475,-0.016936,-0.036418,0.011376,-2.479905652,-9.467634109499999,0.6194174339499999,-1.8156,1.3071,-1.9122,-4.999999999988347e-05,0.00010000000000021103,-3.999999999992898e-05,-8.715914508727884e-05,0.0003852121195313529,-0.00039828033640487703
150000000000.0,3,-0.0022555294999999998,-0.024016485849999998,-0.060310897499999995,-0.015857,-0.033232,0.013506,-2.4809843834999996,-9.467536042999999,0.61771107685,-1.8148,1.307,-1.9133,-9.999999999998899e-05,9.999999999976694e-05,9.99999999995449e-06,0.0015939349139553194,0.00032561313703860506,-0.0011239997633967214
150000000000.0,3,-0.01919161405,-0.014915914649999999,-0.05086709354999999,-0.0116,-0.032205,0.016714,-2.4825534474999995,-9.467143777,0.6163479525,-1.8141,1.3069,-1.9143,-9.999999999998899e-05,4.999999999988347e-05,-9.99999999995449e-06,0.0004050248199540807,0.0006557507261879536,-0.0003461010065857195
150000000000.0,3,-0.01779906975,-0.026644668049999997,-0.035500073,-0.010535,-0.032213,0.016717,-2.4841225115,-9.4668495775,0.61549477395,-1.8137,1.3068,-1.9151,-4.999999999988347e-05,5.000000000032756e-05,-2.0000000000020002e-05,-0.0001887426224238542,0.00015065710123840503,-0.0003568889432790101
150000000000.0,3,-0.0085906254,-0.048837117,-0.012121019399999999,-0.01049,-0.025821,0.017772,-2.485593509,-9.4664573115,0.61500444145,-1.8134,1.3066,-1.9157,-5.0000000000105516e-05,5.000000000032756e-05,3.999999999992898e-05,-6.976233159194933e-05,0.0002500469954989093,-0.00029608461683805487
150000000000.0,3,0.009590903699999999,-0.03893240049999999,-0.0027752819499999998,-0.01051,-0.029016,0.016709,-2.4866722405,-9.466163112,0.6146415954,-1.8131,1.3065,-1.9162,-9.999999999998899e-05,4.999999999988347e-05,-9.99999999995449e-06,0.0005759789273924731,0.0004187323060784731,-0.00046790162855758766
150000000000.0,3,0.011983726299999999,-0.009296704199999999,-0.0468365604,-0.012751,-0.040721,0.01886,-2.4880451714999996,-9.4658689125,0.6136609304,-1.8126,1.3064,-1.9172,-0.00010000000000021103,3.333333333310762e-05,4.999999999999449e-05,-0.001677358297363707,-0.00032944408810453574,0.0003924187693429282
150000000000.0,3,0.05976172509999999,0.0073157609,-0.06286062649999999,-0.01271,-0.038584,0.013514,-2.488339371,-9.4658689125,0.612327226,-1.8121,1.3064,-1.9181,-4.999999999988347e-05,3.333333333355171e-05,-9.99999999995449e-06,0.00011172229953171353,0.0001060123810383562,-0.00044820302044712435
150000000000.0,3,0.04393379199999999,0.018966061099999997,-0.08411163705,-0.00839,-0.032225,0.01244,-2.4888297035,-9.4658689125,0.6106895154499999,-1.8114,1.3064,-1.9191,-5.0000000000105516e-05,3.333333333310762e-05,9.99999999995449e-06,3.642681390148006e-05,-4.279038851673356e-05,-0.0002944926129733183
150000000000.0,3,0.010463695549999999,0.013876409749999999,-0.06388051809999999,-0.002971,-0.022676,0.010297,-2.4896142354999995,-9.465770846,0.6097578837,-1.811,1.3063,-1.9198,-9.999999999998899e-05,0.00010000000000021103,2.0000000000020002e-05,0.00037694257303333423,-0.0001670248127279006,-0.0005547775421970158
150000000000.0,3,-0.007119627899999999,0.00440318585,-0.0352058735,0.002289,-0.029117,0.014587,-2.4908891,-9.46537858,0.60996382335,-1.8109,1.3062,-1.9201,-4.999999999988347e-05,2.0000000000131024e-05,9.99999999995449e-06,-3.976301056418663e-06,-0.00015992379467077988,-0.00031866866995411414
150000000000.0,3,0.028635417999999996,-0.01485707475,0.0022163028999999997,0.000125,-0.032297,0.015654,-2.4916736319999995,-9.465182447,0.6108464218499999,-1.8112,1.3061,-1.9201,-5.0000000000105516e-05,1.9999999999686935e-05,-7.00000000000145e-05,-0.00042464674079756293,0.0006118774852674758,-0.00036100555570151016
150000000000.0,3,0.0193583271,-0.0029714149499999996,0.023486926749999998,-0.002075,-0.038676,0.018863,-2.49285043,-9.464790181,0.61202321985,-1.8115,1.306,-1.9202,-9.999999999998899e-05,2.0000000000131024e-05,5.000000000032756e-06,0.00015905483403022558,0.0002102037369513532,-0.0005220564735046729
150000000000.0,3,0.01826978895,0.01056176205,-0.02478140455,0.002231,-0.034448,0.017794,-2.4941252945,-9.464397915,0.6125625856,-1.8116,1.3058,-1.9205,-9.999999999998899e-05,1.9999999999686935e-05,5.000000000032756e-06,-0.000514713944255174,-0.000506151386117093,-0.0002444426490186835
150000000000.0,3,0.013395883899999999,0.02095681105,-0.0514064593,0.010825,-0.028123,0.015662,-2.495400159,-9.464005648999999,0.6132882776999999,-1.8118,1.3057,-1.9206,-5.0000000000105516e-05,2.0000000000131024e-05,-4.999999999999449e-05,0.00044648878725039864,0.00013452350769393995,-0.00035848433451013406
150000000000.0,3,-0.02164327655,0.0371475902,-0.049974688399999995,0.011921,-0.022806,0.017791,-2.4973614889999998,-9.46341725,0.6142591360499999,-1.812,1.3054,-1.9206,-4.999999999988347e-05,0.00010000000000021103,-2.0000000000020002e-05,0.00043775661646305863,0.00040532457141928546,-0.0007248102041237381
150000000000.0,3,-0.0551918262,0.04588531535,-0.043541526000000004,0.01194,-0.022801,0.013526,-2.499715085,-9.4627307845,0.6153084475999999,-1.8121,1.3052,-1.9207,-4.999999999988347e-05,-3.333333333355171e-05,-4.0000000000040004e-05,-0.00021165363714281682,0.0002145480000628197,-0.0001798096252043635
150000000000.0,3,-0.0559763582,0.03388197575,-0.07052942679999999,0.007692,-0.023824,0.00712,-2.5014802819999997,-9.462240452,0.61551438725,-1.8121,1.305,-1.9209,-5.0000000000105516e-05,-3.333333333310762e-05,-5.999999999994898e-05,8.544133905186158e-05,-1.741887127071351e-05,-0.00033589661746447064
150000000000.0,3,-0.04166845585,-0.00252030905,-0.06859751675,0.009919,-0.016374,-0.000358,-2.5021667474999996,-9.462044319,0.61567129365,-1.8121,1.3049,-1.9211,-9.999999999998899e-05,-3.333333333355171e-05,4.999999999999449e-05,-0.0008591755235016763,-0.00016410217660589588,-0.0002389507269429103
150000000000.0,3,-0.048493884249999994,-0.030400614999999995,-0.039001047049999994,0.014213,-0.017467,-0.007818,-2.5020686809999995,-9.462044319,0.61675002515,-1.8125,1.3049,-1.9208,4.999999999988347e-05,-2.0000000000131024e-05,-4.999999999999449e-05,7.76947127212324e-06,-0.0001768928021697036,-0.0002258446485705612
150000000000.0,3,-0.023545766649999997,-0.06338037895,-0.01126784085,0.015228,-0.023869,-0.007805,-2.501284149,-9.4621423855,0.61849560885,-1.8132,1.3049,-1.9203,5.0000000000105516e-05,-1.9999999999686935e-05,-2.0000000000020002e-05,0.00012150902275021025,-0.0006101432392029427,4.466160218363768e-05
150000000000.0,3,0.0147295883,-0.07422653385,-0.01717144415,0.01943,-0.031364,-0.00672,-2.499911218,-9.4623385185,0.6206628784999999,-1.8141,1.305,-1.9196,-9.999999999998899e-05,-2.0000000000131024e-05,-9.99999999995449e-06,-1.2973109656755355e-05,0.00027746960073415927,-0.0003940943970466293
150000000000.0,3,-0.00705098135,-0.04919015639999999,-0.0456401491,0.021551,-0.031383,-0.004582,-2.4992247525,-9.4623385185,0.6226438218,-1.815,1.305,-1.9191,1.2499999999970868e-05,-1.9999999999686935e-05,1.999999999990898e-05,-0.0001979307581656542,-4.983818595372114e-05,-0.0003470068039757024
150000000000.0,3,0.01083634825,-0.0369906838,-0.0404622379,0.023751,-0.022876,-0.004595,-2.4984402205,-9.462436584999999,0.6248012848,-1.8158,1.3051,-1.9184,1.2499999999970868e-05,-2.0000000000131024e-05,-3.999999999992898e-05,-0.00026777231142194324,-0.00042811844698320556,-0.00024196553275768196
150000000000.0,3,-0.0339113957,-0.0197505931,-0.038049802,0.019491,-0.019647,-0.001404,-2.4984402205,-9.4623385185,0.62657628845,-1.8165,1.305,-1.9179,1.2499999999970868e-05,-0.00010000000000021103,2.999999999997449e-05,-0.000978494471649105,-0.00020123643066294328,0.0001008234869730451
150000000000.0,3,-0.06102678295,-0.028047019,-0.05292649005,0.007835,-0.007831,0.000693,-2.499126686,-9.4621423855,0.62692932785,-1.8166,1.3049,-1.9179,1.2499999999970868e-05,-4.999999999988347e-05,2.999999999997449e-05,-0.00021627835348625446,-0.00021467297824839804,6.833226545888138e-05
