Time,placement_label,user_acc_x(m/s^2),user_acc_y(m/s^2),user_acc_z(m/s^2),rotation_rate_x(rad/s),rotation_rate_y(rad/s),rotation_rate_z(rad/s),gravity_x(m/s^2),gravity_y(m/s^2),gravity_z(m/s^2),attitude_roll(rad),attitude_pitch(rad),attitude_yaw(rad),target_delta_x,target_delta_y,target_delta_z,target_delta_roll,target_delta_pitch,target_delta_yaw
150000000000.0,3,-0.043884758749999996,-0.14057832775,0.0085121722,0.016569,0.015049,-0.0053,-1.7790243764999998,-9.595610892,0.96443499425,-2.0676,1.363,2.423,0.0,0.0,0.0,0.0,0.0,0.0
150000000000.0,3,-0.06763646505,-0.13457665795,0.02089797115,0.019737,0.012889,-0.002087,-1.7796127754999997,-9.595316692499999,0.9661119314,-2.0681,1.3628,2.4237,-2.8571428571488866e-05,0.00019999999999997797,-9.999999999998899e-05,-0.00017780372252063081,0.0009098789794910189,-0.00161274253165411
150000000000.0,3,-0.054976079899999995,-0.11845452534999999,0.03379371589999999,0.019749,0.015019,-0.001022,-1.780299241,-9.595022492999998,0.9681811345499999,-2.0689,1.3626,2.4246,-2.857142857126682e-05,-9.999999999998899e-05,4.0000000000040004e-05,0.00018428831674555113,-0.0003389980875931897,0.0005595771227868696
150000000000.0,3,-0.02240819525,-0.0837291777,0.05984998495,0.015465,0.013986,0.001108,-1.7805934405,-9.594630227,0.97055434385,-2.0699,1.3625,2.4258,-2.8571428571488866e-05,-1.999999999990898e-05,-4.0000000000040004e-05,-0.00024347579146910547,0.00040514976432359795,6.350135800614609e-05
150000000000.0,3,0.0437964989,-0.0599382448,0.059653851949999996,0.010115,0.00977,-0.002099,-1.7796127754999997,-9.594630227,0.9723979940499999,-2.0709,1.3625,2.4269,-2.8571428571488866e-05,-2.0000000000131024e-05,-2.0000000000020002e-05,-0.00023813793526761273,9.903373332553755e-05,-0.0004085292537001628
150000000000.0,3,0.1212886472,-0.022192448949999995,0.052200797949999996,0.002586,-0.00082,-0.006368,-1.7770630465,-9.595022492999998,0.9737218918,-2.0721,1.3627,2.4281,-2.8571428571488866e-05,-1.999999999990898e-05,7.00000000000145e-05,-0.00011146697231478875,-0.0005873867923515963,0.00010073679862054874
150000000000.0,3,0.14657019089999998,0.02480101785,0.036421898099999996,0.008937,-0.009395,-0.009551,-1.7737287855,-9.595512825499998,0.97528114915,-2.0735,1.3629,2.4295,-2.857142857126682e-05,-2.0000000000131024e-05,5.999999999994898e-05,-0.0004212490145267811,-0.0002469507888267497,0.00025709546575480857
150000000000.0,3,0.1502182647,0.0638216782,-0.018112882549999997,0.012133,-0.012614,-0.013816,-1.7700022585,-9.596003157999998,0.9763991072499999,-2.0749,1.3632,2.4307,-2.8571428571488866e-05,-1.999999999990898e-05,-3.999999999992898e-05,-0.00010852126781757399,-0.00021852770761654483,0.0002638839766619938
150000000000.0,3,0.1537094321,0.06987238125,-0.05455439395,0.015304,-0.017965,-0.01701,-1.7658834655,-9.5966896235,0.9773699656,-2.0763,1.3635,2.432,-3.333333333332966e-05,9.999999999998899e-05,-4.0000000000040004e-05,-0.0004612044570275753,5.989077332557713e-05,-0.0010506326362156315
150000000000.0,3,0.14493248035,0.03115572705,-0.0685877101,0.007793,-0.024294,-0.019153,-1.761470473,-9.5974741555,0.9776347451499999,-2.0775,1.3639,2.4329,-3.333333333332966e-05,-9.999999999998899e-05,6.0000000000060005e-05,0.00012421875564694318,-0.001037748102855618,0.000636240725773618
150000000000.0,3,0.10465656879999999,-0.032999377249999996,-0.0740009809,0.003505,-0.026389,-0.019162,-1.7574497465,-9.5982586875,0.9772130591999999,-2.0783,1.3643,2.4335,-3.333333333332966e-05,-5.0000000000105516e-05,8.999999999992347e-05,-7.603368531450272e-05,-0.000795493693962035,-0.00018700716379482785
150000000000.0,3,0.03727507665,-0.0855924412,-0.04074663075,0.001291,-0.03277,-0.01382,-1.7547038845,-9.5988470865,0.9770365394999999,-2.0789,1.3645,2.4338,-0.00019999999999997797,-4.999999999988347e-05,0.00012000000000000899,-0.000148025844293187,-0.0002723690878565499,0.0005115034520084549
150000000000.0,3,-0.015504313649999999,-0.08498442889999999,0.017475450299999997,0.004437,-0.037063,-0.009537,-1.7532328869999998,-9.598945152999999,0.9780564311,-2.0797,1.3646,2.4342,-9.999999999998899e-05,9.999999999998899e-05,-7.00000000000145e-05,5.173849035866596e-06,1.4984967068532029e-05,-0.001181137179573799
150000000000.0,3,-0.06387071144999999,-0.0226141349,0.054338647649999995,0.007677,-0.031763,-0.008471,-1.7530367539999998,-9.59874902,0.98010602095,-2.0806,1.3645,2.4348,-9.999999999998899e-05,5.0000000000105516e-05,-3.999999999992898e-05,-0.0004956085322782577,-0.00018245475251554844,0.00023735933212210014
150000000000.0,3,-0.07685471605,0.0542896144,0.051455492549999995,0.00776,-0.021109,-0.007418,-1.7535270864999999,-9.598454820499999,0.9822340639999999,-2.0814,1.3644,2.4354,-3.333333333332966e-05,4.999999999988347e-05,-2.0000000000020002e-05,-0.0004517925436902104,-0.00027072865021016135,-0.0007064854987710589
150000000000.0,3,-0.0681954441,0.09623265645,0.0197702064,0.008881,-0.015789,-0.009547,-1.7539193525,-9.5982586875,0.9839992609999999,-2.0821,1.3643,2.4359,-3.333333333332966e-05,-3.333333333332966e-05,-0.00014999999999998348,0.00021821156101387018,0.0006798638483929142,-0.0001463305979672036
150000000000.0,3,-0.0732360622,0.0911233918,-0.0077374468499999995,0.007901,-0.006188,-0.011696,-1.7543116184999998,-9.598062554499998,0.984979926,-2.0824,1.3642,2.4362,-3.333333333332966e-05,-3.333333333332966e-05,4.999999999999449e-05,0.00041884574067063696,-0.0007399950326389959,-5.663291611979204e-05
150000000000.0,3,-0.09931194455,0.04189400879999999,-0.03496070725,0.000552,0.005601,-0.017062,-1.7545077515,-9.598062554499998,0.98458766,-2.0822,1.3642,2.436,-9.999999999998899e-05,-3.333333333332966e-05,-1.0000000000065512e-05,0.0004375070767221878,0.0004995118532400422,0.0014476768197062562
150000000000.0,3,-0.13194847575,-0.026272015349999997,-0.0725888233,-0.005812,0.012045,-0.014944,-1.7552922835,-9.598160621,0.9825282635,-2.0811,1.3642,2.4351,-3.333333333332966e-05,-5.0000000000105516e-05,-2.999999999997449e-05,-0.00021455770839517996,-0.0006062244075517587,-0.00020530378503780256
150000000000.0,3,-0.17229303385,-0.11449263874999999,-0.05186737185,-0.004775,0.012032,-0.009598,-1.7568613475,-9.598062554499998,0.980665,-2.0799,1.3642,2.434,-3.333333333332966e-05,-4.999999999988347e-05,4.999999999999449e-05,-0.00014106499732302602,0.00015007582796511265,0.00012301033826433994
150000000000.0,3,-0.2173742039,-0.17482314954999997,-0.00401091985,0.003682,0.007692,-0.001028,-1.7596072095,-9.597572222,0.98024331405,-2.0791,1.3639,2.4333,-3.333333333332966e-05,4.999999999988347e-05,7.00000000000145e-05,-0.0001864060909115839,-0.0001248676380669611,5.456305260187477e-05
150000000000.0,3,-0.22161067669999998,-0.17764746474999998,0.02211399575,0.012146,0.003353,0.006474,-1.7632356699999998,-9.59678769,0.981057266,-2.0785,1.3636,2.4328,9.999999999998899e-05,5.0000000000105516e-05,-0.00010999999999994348,-7.73686944017804e-05,0.000309105304169055,-0.0005772095949869716
150000000000.0,3,-0.19146503459999997,-0.12559376654999999,0.04782703205,0.017438,0.001172,0.011832,-1.766962197,-9.595905091499999,0.983214729,-2.0785,1.3631,2.4329,-9.999999999998899e-05,-2.4999999999941735e-05,-6.0000000000060005e-05,8.495503114991365e-06,0.000486137382454066,-0.00023399607795226984
150000000000.0,3,-0.13890139059999998,-0.0259680092,0.04778780544999999,0.02604,0.008562,0.010773,-1.770296458,-9.595022492999998,0.9862547905,-2.0791,1.3627,2.4335,-1.6666666666775853e-05,-2.500000000016378e-05,-4.0000000000040004e-05,-0.0002935796282130809,0.0005858728497225574,-9.779892152561587e-05
150000000000.0,3,-0.06707748599999999,0.04892537685,0.05141626595,0.024023,0.018176,0.003284,-1.772257788,-9.5943360275,0.9892948519999999,-2.0799,1.3623,2.4345,-1.666666666655381e-05,-2.4999999999941735e-05,4.0000000000040004e-05,-0.00035169838179616164,-0.0006236159706523026,7.441499771587701e-05
150000000000.0,3,-0.008227779349999999,0.07701162245,0.03923640665,0.016678,0.029964,-0.002085,-1.7729442535,-9.5939437615,0.9914523149999999,-2.0807,1.3622,2.4356,-1.666666666655381e-05,-2.4999999999941735e-05,-4.0000000000040004e-05,4.246494642834442e-05,0.000539992842939041,0.0010904298526717149
150000000000.0,3,0.008865211599999999,0.07444228015,-0.0007256920999999999,0.008227,0.038561,-0.005317,-1.7727481204999997,-9.5939437615,0.9919426474999999,-2.0809,1.3621,2.4362,-1.6666666666775853e-05,-6.666666666665932e-05,-3.999999999992898e-05,7.252430811965915e-05,0.0003156008150733136,-0.0004800977538326201
150000000000.0,3,-0.015367020549999999,0.04947454925,-0.0212215906,0.006132,0.042842,-0.006395,-1.7729442535,-9.5939437615,0.9914523149999999,-2.0807,1.3621,2.4364,-1.6666666666775853e-05,-6.666666666665932e-05,9.99999999995449e-06,9.934745728967798e-05,-0.0003510780671738267,0.00033871282341024767
150000000000.0,3,-0.05020024135,0.0335975829,-0.018161915799999998,0.011424,0.039599,-0.003175,-1.7739249185,-9.5937476285,0.9914523149999999,-2.0804,1.3621,2.4365,-1.666666666655381e-05,-6.666666666665932e-05,-5.999999999994898e-05,0.0002125086573361301,0.0007221693166543641,0.0018181444350755527
150000000000.0,3,-0.06251739375,0.025330576949999996,-0.02448720505,0.022069,0.037379,-0.002082,-1.7751997829999997,-9.593453429,0.9923349134999999,-2.0805,1.3619,2.437,1.999999999990898e-05,-5.0000000000105516e-05,-4.0000000000040004e-05,-9.459346778784017e-05,0.00024074486955183438,1.561026627960871e-07
150000000000.0,3,-0.04935686945,0.0236144132,-0.0158671597,0.027369,0.033074,-0.002063,-1.7762785145,-9.593061163,0.994002044,-2.081,1.3617,2.4379,2.0000000000131024e-05,-5.0000000000105516e-05,-2.0000000000020002e-05,-0.0005882152928722295,-2.4198874879255428e-05,-0.0001844404419926171
150000000000.0,3,-0.00885540495,0.00962032365,-0.00487390505,0.026318,0.033086,-0.005266,-1.7762785145,-9.592865029999999,0.9960614404999999,-2.0819,1.3616,2.4391,1.999999999990898e-05,-4.999999999988347e-05,-3.500000000000725e-05,-1.4840273598215603e-05,-3.24428707498825e-05,0.0011706864681975127
150000000000.0,3,0.0083944924,-0.02074106475,-0.00608992965,0.019965,0.035276,-0.011686,-1.7754939824999998,-9.592865029999999,0.9974343714999999,-2.0826,1.3616,2.4402,2.0000000000131024e-05,-5.0000000000105516e-05,-3.500000000000725e-05,-1.4878451222610778e-05,-3.242562310057373e-05,0.001170683932067984
150000000000.0,3,0.017622550049999998,-0.049641262299999996,-0.010787315,0.01787,0.039557,-0.012766,-1.7742191179999998,-9.5929630965,0.9984150365,-2.0834,1.3617,2.4413,1.999999999990898e-05,9.999999999998899e-05,-0.00012999999999996348,7.497328764705102e-05,0.0005097346014224513,-0.0021720267054115006
150000000000.0,3,0.0159259996,-0.05427000109999999,-0.01115016105,0.021042,0.035269,-0.013822,-1.7728461869999999,-9.5931592295,0.9993957014999999,-2.0841,1.3618,2.4425,-9.999999999998899e-05,-4.999999999988347e-05,9.99999999995449e-06,-9.586789367688198e-06,3.35151489327945e-05,0.0008128281563681838
150000000000.0,3,0.00946341725,-0.0298710559,-0.0010885381499999998,0.020998,0.033133,-0.008482,-1.772061655,-9.5931592295,1.000670566,-2.0849,1.3618,2.4436,-2.4999999999941735e-05,-5.0000000000105516e-05,1.0000000000065512e-05,-0.0001764087239812806,-7.102951515203237e-05,0.0003775020274567886
150000000000.0,3,0.00505042475,-0.0011081514499999999,0.0024908890999999996,0.019896,0.032071,-0.003145,-1.771865522,-9.593061163,1.0021415635,-2.0856,1.3617,2.4446,-2.500000000016378e-05,-5.0000000000105516e-05,-2.0000000000020002e-05,0.00014996020063073878,-9.167035547452684e-05,0.0005247687685603353
150000000000.0,3,0.0031773546,0.01766177665,0.013817569850000001,0.023078,0.030977,-0.001003,-1.772061655,-9.592865029999999,1.004004827,-2.0863,1.3616,2.4457,-2.4999999999941735e-05,-4.999999999988347e-05,-2.0000000000020002e-05,0.00014990980533324816,-9.17482906257483e-05,0.0005247480801560123
150000000000.0,3,0.008306232549999999,0.021427530249999997,0.00879656505,0.026299,0.034146,6.5e-05,-1.7723558545,-9.5925708305,1.0060642235,-2.0871,1.3615,2.4469,-2.4999999999941735e-05,9.999999999998899e-05,-4.999999999999449e-05,-3.039323980558173e-05,0.00039000420245249856,0.0005769408265572373
150000000000.0,3,0.010404855650000001,-0.01589657965,0.007639380349999999,0.022058,0.037378,5.1e-05,-1.7725519874999998,-9.592374697499999,1.0078294205,-2.0878,1.3613,2.448,0.00019999999999997797,9.999999999998899e-05,-0.00020999999999993246,0.00024600112341666147,0.0012384439670045655,-0.002434643518209434
150000000000.0,3,0.01632807225,-0.07587405104999999,-0.00214765635,0.016707,0.037418,0.003243,-1.7726500539999999,-9.5921785645,1.0088100855,-2.0882,1.3613,2.4487,-9.999999999998899e-05,-4.999999999988347e-05,5.000000000032756e-06,0.00031841512805796945,0.00014547571800083148,0.0004497546424997445
150000000000.0,3,-0.0056094038,-0.11141335064999999,-0.021584436649999997,0.011312,0.030004,0.003246,-1.7729442535,-9.5921785645,1.0089081519999998,-2.0881,1.3613,2.449,-9.999999999998899e-05,-5.0000000000105516e-05,4.999999999921734e-06,0.0003184861098595171,0.00014533333461375086,0.0004498085211479541
150000000000.0,3,-0.017426417049999997,-0.12810426895,-0.010463695549999999,0.004907,0.03112,0.005367,-1.7736307189999998,-9.592080498,1.0085158859999999,-2.0878,1.3612,2.4491,-5.0000000000105516e-05,-0.00019999999999997797,0.00019999999999997797,-0.00044001924447378826,-0.00044610643295395214,0.0008326764565644851
150000000000.0,3,-0.009669356899999999,-0.11229594914999999,0.0122583125,0.000623,0.029024,0.005363,-1.7741210514999999,-9.5919824315,1.0081236199999999,-2.0875,1.3612,2.449,-5.0000000000105516e-05,-2.4999999999941735e-05,4.0000000000040004e-05,-0.000489446787685921,0.0002628839664622351,0.0002453088279938953
150000000000.0,3,0.00212804305,-0.04969029555,0.00638412915,0.001664,0.025819,0.00537,-1.7749055835,-9.591884364999999,1.007731354,-2.0872,1.3611,2.4489,-6.666666666665932e-05,-2.500000000016378e-05,9.99999999995449e-06,0.00018013073352030062,-0.0001289835384339355,-0.00010020117514297766
150000000000.0,3,0.032587497949999995,0.022643554849999997,-0.0052857843499999994,0.008082,0.027897,0.005376,-1.7752978494999998,-9.591786298499999,1.0078294205,-2.0871,1.3611,2.4492,-6.666666666665932e-05,-2.4999999999941735e-05,1.0000000000065512e-05,0.00018014226016571655,-0.00012896647014248863,-0.00010022373763529657
150000000000.0,3,0.03629441165,0.05757484215,-0.0243793319,0.012334,0.024668,0.003253,-1.7754939824999998,-9.591688232,1.0082216865,-2.0872,1.3611,2.4495,-6.666666666665932e-05,-2.4999999999941735e-05,2.999999999997449e-05,0.0008500580881205533,0.0009299543984591097,0.0003066548687238324
150000000000.0,3,0.0211627507,0.05769252195,-0.0548387868,0.011292,0.02681,0.001113,-1.7757881819999999,-9.591688232,1.0080255535,-2.0871,1.361,2.4497,-6.666666666665932e-05,-9.999999999998899e-05,2.999999999997449e-05,-0.00034286300113639534,-0.0003790887472991944,0.00015009932614029609
150000000000.0,3,0.0019221033999999998,0.0029223816999999997,-0.05959501204999999,0.007022,0.026846,0.001105,-1.7761804479999999,-9.591688232,1.0074371545,-2.0867,1.361,2.4496,-6.666666666665932e-05,-3.333333333332966e-05,-4.999999999999449e-05,0.00040979054572432005,0.00019623141017244272,0.0003572106508418216
150000000000.0,3,-0.011934693049999999,-0.06878384309999999,-0.0749031927,-0.001565,0.021588,0.002167,-1.7765727139999998,-9.591786298499999,1.0056719575,-2.0859,1.3611,2.449,-6.666666666665932e-05,-3.333333333332966e-05,-4.999999999999449e-05,0.0004098713782285657,0.00019608641800039628,0.00035730054738802863
150000000000.0,3,-0.0291649771,-0.11389443309999998,-0.057869041649999994,-0.003775,0.013081,0.003246,-1.7770630465,-9.591884364999999,1.0039067605,-2.085,1.3611,2.4483,-0.00019999999999997797,-3.333333333332966e-05,-4.500000000007276e-05,0.00010603755712157437,0.0006702675453158502,5.868749856841049e-05
150000000000.0,3,-0.05343643585,-0.11510065104999999,-0.013935249649999999,-0.002773,0.007741,0.007528,-1.7784359775,-9.591688232,1.003024162,-2.0843,1.3611,2.4477,9.999999999998899e-05,9.999999999998899e-05,-4.499999999996174e-05,-0.00012101722565427409,0.0003575544271916531,-0.0010538276245557476
150000000000.0,3,-0.0437180457,-0.06150730879999999,0.019848659600000002,0.000417,0.007713,0.00967,-1.7799069749999998,-9.591492099,1.0031222285,-2.084,1.3609,2.4474,-0.00019999999999997797,-9.999999999998899e-05,3.0000000000085514e-05,-0.00012542755714739506,0.0003662920015088389,0.00019400951326442595
150000000000.0,3,-0.0375986961,0.02266316815,0.01783829635,0.003636,0.009817,0.009674,-1.781672172,-9.591099833,1.003416428,-2.0837,1.3607,2.4472,-5.0000000000105516e-05,-9.999999999998899e-05,2.999999999997449e-05,-0.00010509949009751551,0.00014786644518594017,-0.0002349286136276163
150000000000.0,3,-0.042806027249999996,0.08388608410000001,0.0157298666,0.005849,0.018326,0.007531,-1.7836335019999998,-9.590707566999999,1.0041028934999998,-2.0835,1.3605,2.4472,-4.999999999988347e-05,-9.999999999998899e-05,2.999999999997449e-05,0.00046383778630487704,-0.0009059581793340321,0.0013549306810478612
150000000000.0,3,-0.06408645774999999,0.08913264185,0.0048640984,0.005946,0.028983,0.005381,-1.7858890314999998,-9.590217234499999,1.0042990265,-2.0831,1.3603,2.447,-0.0001500000000000945,-9.999999999998899e-05,2.999999999997449e-05,0.0002856910017037251,0.0006025029408909255,0.0004486160088550406
150000000000.0,3,-0.0697645081,0.03667687099999999,-0.008090486249999999,0.005937,0.027918,0.005387,-1.787948428,-9.5898249685,1.00420096,-2.0825,1.3601,2.4468,-0.00014999999999987246,-9.999999999998899e-05,2.999999999997449e-05,0.00028598250136413483,0.0006023734525628655,0.00044881970217369727
150000000000.0,3,-0.07117666569999999,-0.043482686099999994,-0.004707192,0.004789,0.020464,0.00967,-1.7902039574999997,-9.5894327025,1.0041028934999998,-2.082,1.3599,2.4465,-0.00019999999999997797,-0.00019999999999997797,9.00000000000345e-05,0.0018172878978748308,0.0012610560245691627,0.0010577596434218073
150000000000.0,3,-0.0635274787,-0.10790256995,-0.00350097405,0.002565,0.011954,0.013953,-1.792263354,-9.5890404365,1.004004827,-2.0814,1.3598,2.4461,-9.999999999998899e-05,-9.999999999998899e-05,4.999999999999449e-05,5.2037953999661823e-05,0.0005097672428486799,-0.00038460671307971595
150000000000.0,3,-0.0353235533,-0.127682583,0.011640493549999999,-0.002803,0.009863,0.01715,-1.7941266175,-9.588746236999999,1.003808694,-2.0809,1.3596,2.4457,-9.999999999998899e-05,-5.0000000000105516e-05,7.500000000004725e-05,0.0001425814847282325,-0.00014269228857055616,0.0009701956217771368
150000000000.0,3,0.01572005995,-0.11949403025,0.02686041435,-0.003898,0.005611,0.016087,-1.795205349,-9.588550104,1.0037106274999998,-2.0806,1.3595,2.4454,-9.999999999998899e-05,-4.999999999988347e-05,7.499999999993623e-05,0.00014243909061972815,-0.0001428291103287016,0.00097015542419987
150000000000.0,3,0.06294888635,-0.08049298319999999,0.050818060299999995,-0.004952,0.005621,0.013947,-1.7954995484999998,-9.5884520375,1.003808694,-2.0806,1.3595,2.4455,-9.999999999998899e-05,-9.999999999998899e-05,-3.999999999992898e-05,-0.00029515642054045443,0.00037821375059077234,-0.00037233714665374507
150000000000.0,3,0.0936142809,-0.0202801522,0.04851349755,-0.004917,0.007755,0.010736,-1.795009216,-9.588550104,1.004004827,-2.0808,1.3595,2.4457,-9.999999999998899e-05,-5.0000000000105516e-05,7.999999999996898e-05,6.361943888366639e-05,-0.0002645619969940949,-0.0003054244906235404
150000000000.0,3,0.08638677985,0.03949137955,0.035794272499999995,-0.005954,0.009896,0.008592,-1.7946169499999998,-9.588648170499999,1.004004827,-2.0809,1.3595,2.4459,-9.999999999998899e-05,-4.999999999988347e-05,9.999999999998899e-05,-9.871222898016896e-05,-0.000667996073510313,1.223037910058622e-05
150000000000.0,3,0.0583495675,0.05667263035,0.0346370878,-0.009206,0.004592,0.010729,-1.7949111494999999,-9.588550104,1.003808694,-2.0807,1.3595,2.4458,-0.0001500000000000945,-4.999999999988347e-05,9.999999999998899e-05,-0.00048120738311618894,-0.0001499963947388938,0.0006614951791736878
150000000000.0,3,0.0074922806,0.051269166199999994,0.03572562595,-0.010266,0.004602,0.00966,-1.795989881,-9.5884520375,1.0035144945,-2.0803,1.3594,2.4454,-0.0001500000000000945,-5.0000000000105516e-05,9.999999999998899e-05,-0.00048126053209740505,-0.00014966844901564968,0.000661503645596806
150000000000.0,3,-0.043051193499999994,0.0319304524,0.013140911,-0.016632,0.008917,0.009643,-1.797755078,-9.588255904499999,1.002043497,-2.0793,1.3593,2.4444,-0.00029999999999996696,-9.999999999998899e-05,4.999999999999449e-05,0.0005855055258159325,0.00028314269923468416,0.0011541958716581036
150000000000.0,3,-0.06069335685,0.00012748645,0.0261249156,-0.015516,0.014237,0.008571,-1.7997164079999999,-9.5880597715,1.000670566,-2.0782,1.3592,2.4435,-4.999999999988347e-05,2.4999999999941735e-05,4.999999999999449e-05,-0.00032458605608276514,-0.000991086845585576,-0.0012398320924145168
150000000000.0,3,-0.06877403644999999,-0.01764216335,0.02784107935,-0.011251,0.013137,0.007516,-1.8016777379999998,-9.587765571999999,0.999689901,-2.0774,1.3591,2.4427,-5.0000000000105516e-05,2.4999999999941735e-05,-4.999999999999449e-05,-1.1549028454904686e-05,0.00041404063253547285,6.558175716575576e-05
150000000000.0,3,-0.0811598354,-0.0048248718,0.039814999,-0.008026,0.015243,0.006454,-1.8038352009999998,-9.587373305999998,0.999297635,-2.0767,1.3589,2.4421,-5.0000000000105516e-05,2.500000000016378e-05,-2.999999999997449e-05,0.00030184444131009514,0.00013841362846545024,-2.6629202110051153e-05
150000000000.0,3,-0.07512874565,0.01711260425,0.04959222905,-0.003698,0.020538,0.003254,-1.8056984644999998,-9.58698104,0.9993957014999999,-2.0763,1.3588,2.4419,-4.999999999988347e-05,2.4999999999941735e-05,-2.999999999997449e-05,0.00030184549464573607,0.00013842150768850203,-2.6587546483103353e-05
150000000000.0,3,-0.0452282698,0.029400336699999995,0.08105196225,-0.001491,0.025853,-0.002086,-1.8066791295,-9.586784907,1.0002783,-2.0764,1.3586,2.4423,-0.00019999999999997797,-9.999999999998899e-05,2.0000000000020002e-05,0.0001494017256664648,-0.0004207642339135731,0.0008566758733525859
150000000000.0,3,-0.0347743809,0.03325435015,0.09050557285,-0.001439,0.029053,-0.006359,-1.8070713954999997,-9.586588773999999,1.001258965,-2.0768,1.3585,2.4429,-3.333333333332966e-05,9.999999999998899e-05,-0.0001100000000000545,-3.704822648531447e-05,0.0010223931791510932,-0.0005246051431107013
150000000000.0,3,-0.0621937743,0.0263014353,0.0864554264,0.000732,0.031169,-0.009559,-1.8076597945,-9.586392641,1.0023376965,-2.0771,1.3584,2.4435,-3.333333333332966e-05,-5.0000000000105516e-05,9.99999999995449e-06,-2.215819749373793e-05,-0.0002789530849356403,0.00028209462715711453
150000000000.0,3,-0.11070727185,0.0083552658,0.051122066449999996,0.006139,0.038586,-0.011692,-1.8088365924999998,-9.586098441499999,1.0029260955,-2.0771,1.3583,2.4439,-3.333333333332966e-05,-4.999999999988347e-05,1.0000000000065512e-05,-2.2236678566489587e-05,-0.0002789465092412069,0.000282091099937265
150000000000.0,3,-0.11236459569999999,-0.030459454899999995,0.02260432825,0.009385,0.042824,-0.013824,-1.809719191,-9.5859023085,1.0033183614999999,-2.077,1.3582,2.4443,-9.999999999998899e-05,-2.4999999999941735e-05,2.0000000000020002e-05,3.5498985492266044e-05,-0.0002135215773313437,0.0006931617050991434
150000000000.0,3,-0.11233517574999999,-0.0311263071,0.03329357675,0.00828,0.03857,-0.012746,-1.810503723,-9.585608108999999,1.004004827,-2.0771,1.3581,2.4448,-3.333333333332966e-05,-2.4999999999941735e-05,-1.0000000000065512e-05,4.291916655474459e-05,-3.382604637125475e-05,0.0003006120517476951
150000000000.0,3,-0.13049709155,-0.012621158549999999,0.06139943565,0.003982,0.03647,-0.009542,-1.8119747204999999,-9.5853139095,1.0047893589999999,-2.0771,1.3579,2.4452,-3.333333333332966e-05,-2.500000000016378e-05,-9.99999999995449e-06,0.00014011458361062878,0.00015402087215266036,-1.753274994387155e-05
150000000000.0,3,-0.13514544365,-0.00936535075,0.08377821095,0.005032,0.036457,-0.005264,-1.813837984,-9.584823577,1.0058680905,-2.0771,1.3577,2.4456,-3.333333333332966e-05,-2.4999999999941735e-05,4.999999999999449e-05,-0.0003903787718064766,-0.0001391291916232884,0.0010409039915426632
150000000000.0,3,-0.12222027895,-0.00318716125,0.08955432779999999,0.00828,0.043886,-0.002064,-1.815995447,-9.584235177999998,1.007339088,-2.0772,1.3574,2.4461,3.333333333332966e-05,3.333333333332966e-05,4.499999999996174e-05,0.000263094288938337,-1.0713405588891334e-05,0.0007249849057009428
150000000000.0,3,-0.12588796605,0.0008727918499999999,0.07771770125,0.006213,0.052426,-0.001009,-1.8184471095,-9.583646779,1.0083197529999999,-2.0771,1.3571,2.4464,3.333333333332966e-05,3.333333333332966e-05,4.500000000007276e-05,0.00026308418284126667,-1.0902728049266841e-05,0.000724975937782979
150000000000.0,3,-0.12855537485,0.01442558215,0.07723717539999998,-0.000123,0.058874,-0.00316,-1.820898772,-9.5831564465,1.0088100855,-2.0767,1.3569,2.4466,3.333333333332966e-05,3.333333333332966e-05,-7.00000000000145e-05,-0.0008763327644694119,0.0005524025413037315,-0.0005062851412009906
150000000000.0,3,-0.12526034044999998,0.008237586,0.08649465299999999,-0.002215,0.064218,-0.0021,-1.8234485009999999,-9.582666114,1.0090062185,-2.0762,1.3567,2.4467,4.999999999988347e-05,2.4999999999941735e-05,5.999999999994898e-05,0.0007996855696499328,-0.00018626962816958859,0.0013468476107902916
150000000000.0,3,-0.11553214364999999,0.0022555294999999998,0.0793554118,-0.002211,0.064217,-0.002095,-1.8259001634999998,-9.5821757815,1.0090062185,-2.0756,1.3564,2.4468,5.0000000000105516e-05,2.4999999999941735e-05,-9.99999999995449e-06,-0.0001834105652891438,-7.494207584235468e-05,0.00026127724859748014
150000000000.0,3,-0.101793027,-0.010424468949999998,0.0796496113,-0.002235,0.062084,4.8e-05,-1.8280576265,-9.5817835155,1.0088100855,-2.0751,1.3562,2.4469,5.0000000000105516e-05,2.500000000016378e-05,-9.99999999995449e-06,7.527856991895732e-05,0.0006987828700573129,0.00048223434304706103
150000000000.0,3,-0.07740388845,-0.0263798885,0.0755308183,-0.002287,0.057817,0.004329,-1.8302150894999998,-9.5813912495,1.0087120189999998,-2.0745,1.3561,2.4469,4.999999999988347e-05,2.4999999999941735e-05,-1.0000000000065512e-05,-0.0007643266644952185,0.0007024125728256614,-0.00032816116102418746
150000000000.0,3,-0.06914668915,-0.0258699427,0.055927324949999996,-0.000213,0.051404,0.006482,-1.832274486,-9.580998983499999,1.0086139525,-2.074,1.3559,2.4469,6.666666666665932e-05,5.0000000000105516e-05,-4.999999999999449e-05,-0.00010490488062453451,0.00011744836331328834,0.0005078577874244594
150000000000.0,3,-0.06239971394999999,-0.008168939449999999,0.05459362054999999,-0.003403,0.052495,0.006477,-1.8345300154999997,-9.580606717499998,1.0083197529999999,-2.0733,1.3557,2.4468,6.666666666665932e-05,4.999999999988347e-05,9.00000000000345e-05,-0.0002933263856226276,-0.0014073025634753211,0.0008906866805560298
150000000000.0,3,-0.04374746565,0.020790097999999996,0.03303860385,-0.006555,0.056785,0.004334,-1.8373739439999999,-9.580116385,1.0081236199999999,-2.0726,1.3554,2.4466,6.666666666665932e-05,0.00019999999999997797,-0.00019000000000002348,-0.0004791243435484649,0.0012064494618608812,-0.001558608449628629
150000000000.0,3,-0.04314926,0.02089797115,0.03515684025,-0.012912,0.058974,-0.001018,-1.8379623429999998,-9.580214451499998,1.0060642235,-2.0716,1.3555,2.4462,9.999999999998899e-05,9.999999999998899e-05,-0.000140000000000029,0.0009006562752873482,0.00037366403478245047,0.0003329661719559951
150000000000.0,3,-0.03156760635,0.025634583099999997,-0.0072373077,-0.015044,0.057929,-0.003153,-1.8388449414999999,-9.580312518,1.003416428,-2.0703,1.3555,2.4454,0.00019999999999997797,0.00039999999999995595,-0.00031999999999998696,-0.0025877331185581998,0.0001498357748677126,-0.002348878749452332
150000000000.0,3,-0.05386792844999999,0.0183188222,-0.0077374468499999995,-0.010816,0.053631,-0.002068,-1.840119806,-9.580312518,1.001062832,-2.069,1.3555,2.4447,0.00019999999999997797,0.00019999999999997797,-9.00000000000345e-05,0.0010480415275710975,0.0005970270222512841,-0.00018447491529638427
150000000000.0,3,-0.10484289515,0.0284981249,0.023192727249999996,-0.003325,0.055702,-0.003121,-1.8422772689999998,-9.5800183185,0.9998860339999999,-2.0681,1.3554,2.4443,-9.999999999998899e-05,-0.00019999999999997797,0.0001500000000000945,0.0023239770713534558,0.0012294158804033728,0.0017012937797624694
150000000000.0,3,-0.1466486441,0.046660040699999995,0.0631744393,0.003158,0.064175,-0.005252,-1.8450231309999998,-9.579429919499999,0.9999841005,-2.0675,1.3551,2.4443,4.999999999988347e-05,-5.0000000000105516e-05,1.666666666666483e-05,0.00018495606861357317,-0.0001275387228585334,0.00028222325658688874
150000000000.0,3,-0.16315323604999998,0.05832014755,0.0553683459,0.012884,0.075822,-0.010585,-1.8478670594999997,-9.5788415205,1.000670566,-2.0671,1.3548,2.4447,5.0000000000105516e-05,-4.999999999988347e-05,1.666666666666483e-05,0.00018491532216668993,-0.00012758943482182872,0.0002821926573486344
150000000000.0,3,-0.1768531261,0.07167680485,0.028184312099999997,0.024757,0.087455,-0.019115,-1.850122589,-9.578351188,1.0017492975,-2.0671,1.3546,2.4455,9.999999999998899e-05,-4.999999999988347e-05,1.666666666666483e-05,-0.0006854640852738125,0.0003197204408258436,0.0010725191543183854
150000000000.0,3,-0.17526444879999997,0.07561907814999999,0.0193191005,0.038793,0.10333,-0.026582,-1.851887786,-9.577762789,1.003808694,-2.0675,1.3543,2.447,0.000400000000000178,-5.0000000000105516e-05,-3.0000000000085514e-05,0.0017948784699504117,0.00030475233105753397,0.0033128558302273348
150000000000.0,3,-0.16985117799999996,0.051131873099999996,0.0481506515,0.044237,0.11395,-0.030852,-1.8530645839999997,-9.57717439,1.0066526225,-2.0684,1.3541,2.4491,9.999999999998899e-05,-0.0002500000000000835,9.00000000000345e-05,0.0011285295462715172,-0.00041631530839292274,0.003556583739467989
150000000000.0,3,-0.14654077094999998,0.0040403398,0.0363434449,0.04646,0.12352,-0.032994,-1.853652983,-9.576782124,1.009496551,-2.0695,1.3539,2.4514,9.999999999998899e-05,-0.00024999999999986144,9.00000000000345e-05,0.0011269734759904448,-0.00042029619749173186,0.003555927835786399
150000000000.0,3,-0.0991844581,-0.049778555399999994,0.04870963055,0.047526,0.12458,-0.030855,-1.853260717,-9.576585991,1.0125366125,-2.0708,1.3537,2.4541,9.999999999998899e-05,-0.0012000000000000899,0.0012050000000000116,-0.003255481828065232,-0.016374744477728465,0.013245707848282162
150000000000.0,3,-0.0393050532,-0.07803151405,0.0673716855,0.047465,0.11924,-0.026575,-1.8520839189999998,-9.576389858,1.0158708735,-2.0725,1.3537,2.457,9.999999999998899e-05,-0.0012000000000000899,0.0012050000000000116,-0.003467751047254497,-0.016330431227107756,0.013278037525480624
150000000000.0,3,0.01303303785,-0.08109118885,0.05216157135,0.046295,0.11072,-0.019091,-1.850710988,-9.576389858,1.018910935,-2.0741,1.3537,2.4598,-0.0013000000000000789,0.00020000000000020002,0.00029999999999996696,-0.0023054000639946004,0.017959996808465384,-0.002272984944557521
150000000000.0,3,0.02772339955,-0.0799830374,0.022702394749999997,0.045137,0.10326,-0.012678,-1.849730323,-9.5762917915,1.021656797,-2.0754,1.3536,2.4622,0.0018000000000000238,0.0022999999999999687,-0.0028000000000000247,0.008089466096495412,0.0141700591305427,-0.020362857813104984
150000000000.0,3,0.027164420499999998,-0.057015863099999994,0.012876131449999998,0.03763,0.099062,-0.011618,-1.8490438574999999,-9.576193725,1.0237161934999999,-2.0764,1.3536,2.4643,0.00024999999999986144,3.333333333332966e-05,5.500000000002725e-05,3.899358264369823e-05,0.00015793096324179245,0.000389660626099797
150000000000.0,3,0.030596747999999997,-0.02740958675,-0.01595541955,0.027952,0.091679,-0.008421,-1.8485535249999998,-9.576193725,1.0246968585,-2.0769,1.3536,2.4657,0.0002500000000000835,3.333333333332966e-05,5.500000000002725e-05,3.9056232539413926e-05,0.00015791547852472831,0.0003896733829722443
150000000000.0,3,0.029527823149999997,-0.012817291549999998,-0.05804556135,0.023608,0.08319,-0.007348,-1.8482593255,-9.5762917915,1.024598792,-2.077,1.3536,2.4667,0.00029999999999996696,3.333333333332966e-05,-8.000000000008001e-05,-0.0006942757244241538,0.0008596186224334446,-0.000616001313906267
150000000000.0,3,0.0355196863,-0.0058055367999999994,-0.0785512665,0.024603,0.074657,-0.007332,-1.8477689929999999,-9.576389858,1.0241084594999998,-2.0769,1.3537,2.4674,0.00010000000000021103,-0.00019999999999997797,0.0001100000000000545,-0.00028124823315156533,-0.0006954790193478555,0.0018018610013319503
150000000000.0,3,0.05353450235,-0.00187307015,-0.0663125673,0.024594,0.072529,-0.009466,-1.8467883279999997,-9.576585991,1.0241084594999998,-2.0771,1.3538,2.4684,9.999999999998899e-05,9.999999999998899e-05,-2.999999999997449e-05,-0.00038354101863369294,-9.630881562028293e-05,-0.00017994185087033543
150000000000.0,3,0.05899680639999999,-0.008688691899999998,-0.03937369975,0.022415,0.067219,-0.009463,-1.8455134635,-9.576782124,1.024402659,-2.0775,1.3539,2.4695,0.0002500000000000835,0.0002500000000000835,-0.00017000000000000348,-0.0029337554899802054,-0.0007380986846354798,-0.0012752158083495502
150000000000.0,3,0.0723338504,-0.0410702502,-0.0477976121,0.018141,0.064062,-0.013738,-1.8436502,-9.57717439,1.024206526,-2.0779,1.354,2.4705,0.00024999999999986144,0.00024999999999986144,-0.00017000000000000348,-0.0029325580998282863,-0.000741812489268634,-0.0012729218399050168
150000000000.0,3,0.09660530915,-0.0742755671,-0.08480790919999999,0.013818,0.057705,-0.013739,-1.8411004709999998,-9.577762789,1.0230297279999998,-2.078,1.3543,2.4713,0.00019999999999997797,9.999999999998899e-05,-0.00012000000000000899,0.00030400332842495104,-3.666582109618233e-05,0.0005140780749353091
150000000000.0,3,0.10122424129999999,-0.10858903544999998,-0.0937319607,0.009481,0.050281,-0.012672,-1.8383546089999998,-9.578547321,1.0213625975,-2.0779,1.3547,2.4717,4.999999999988347e-05,9.999999999998899e-05,-8.500000000000174e-05,0.0004294390926444791,0.0001549220424099662,-0.00015214012462116955
150000000000.0,3,0.10803986305,-0.11212923609999999,-0.11996474945,0.002991,0.040744,-0.011605,-1.835608747,-9.579331853,1.0188128685,-2.0775,1.355,2.4718,5.0000000000105516e-05,9.999999999998899e-05,-8.500000000000174e-05,0.0004294053618101312,0.00015498037987393687,-0.0001520695619521284
150000000000.0,3,0.10603930645,-0.09791940025,-0.13672431429999998,-0.005585,0.036553,-0.011618,-1.832862885,-9.580214451499998,1.0153805409999999,-2.0767,1.3555,2.4714,5.0000000000105516e-05,-2.4999999999941735e-05,-3.500000000000725e-05,0.00037647748635416534,0.00013869122135767853,-0.00018257396395338077
150000000000.0,3,0.0857689609,-0.08209146715,-0.14400084859999998,-0.007806,0.025918,-0.012675,-1.8304112225,-9.581097049999999,1.0116540139999999,-2.0757,1.3559,2.4707,4.999999999988347e-05,-2.500000000016378e-05,-3.500000000000725e-05,0.00037647503847870745,0.00013876561509618135,-0.00018253253696220995
150000000000.0,3,0.048690017249999995,-0.0520340849,-0.13524351015,-0.007866,0.020589,-0.010524,-1.8286460254999999,-9.5817835155,1.007927487,-2.0746,1.3562,2.4698,9.999999999998899e-05,-2.4999999999941735e-05,7.00000000000145e-05,-0.00020493111039154854,-0.0004893427446535092,0.0010075403717584308
150000000000.0,3,0.0173185439,-0.043570945949999995,-0.11619899585,-0.005747,0.019507,-0.010519,-1.8274692274999997,-9.5823719145,1.0048874255,-2.0735,1.3565,2.469,5.0000000000105516e-05,-2.4999999999941735e-05,4.999999999999449e-05,-0.0002556456251716632,4.760599233222251e-05,-0.00020563597835421277
150000000000.0,3,-0.01862282835,-0.03776540915,-0.07306934914999999,-0.002592,0.016281,-0.007305,-1.827175028,-9.582568047499999,1.0029260955,-2.0728,1.3566,2.4684,4.999999999988347e-05,-3.333333333332966e-05,-4.0000000000040004e-05,0.0006412183157344931,9.601998123853761e-05,0.0001463530625844811
150000000000.0,3,-0.0339506223,-0.018818961349999996,-0.04394359864999999,0.001671,0.01731,-0.005164,-1.8272730944999998,-9.582666114,1.0019454305,-2.0724,1.3567,2.4682,4.999999999988347e-05,-3.333333333332966e-05,2.4999999999941735e-05,-0.0006151867541148714,-0.00029761542605721836,0.0003637016702833229
150000000000.0,3,-0.03388197575,-0.0037755602499999997,-0.0168478247,0.011267,0.01723,-0.004078,-1.8274692274999997,-9.582568047499999,1.0022396299999998,-2.0724,1.3566,2.4684,5.0000000000105516e-05,-3.333333333332966e-05,2.5000000000052758e-05,-0.0006152715282723431,-0.00029739218625013386,0.00036387169872087455
150000000000.0,3,-0.00867888525,-0.00069627215,-0.0027752819499999998,0.014481,0.018271,-0.005141,-1.827175028,-9.582568047499999,1.003220295,-2.0729,1.3566,2.4691,5.0000000000105516e-05,-3.333333333332966e-05,-2.0000000000020002e-05,-0.00018203335576383317,0.00037545689657147996,-0.0005849074136321519
150000000000.0,3,0.0029714149499999996,-0.005099457999999999,0.01573967325,0.014522,0.022534,-0.006216,-1.826782762,-9.582469981,1.004593226,-2.0736,1.3566,2.47,4.999999999988347e-05,-3.333333333332966e-05,-1.999999999990898e-05,-0.00018226219377837083,0.0003753498626650753,-0.0005850008530705608
150000000000.0,3,0.0109638347,-0.04288448045,0.026468148349999998,0.004946,0.025809,-0.006239,-1.8260962964999998,-9.582568047499999,1.0052796915,-2.074,1.3566,2.4707,9.999999999998899e-05,-3.333333333332966e-05,0.00012000000000000899,0.000246056369444414,-0.0003682808901825929,0.0009995698346725312
150000000000.0,3,0.0291649771,-0.08888747559999999,0.01448442205,-0.003599,0.025877,-0.004122,-1.8251156315,-9.5827641805,1.0046912925,-2.074,1.3567,2.4709,5.0000000000105516e-05,2.4999999999941735e-05,2.5000000000052758e-05,-0.000115124484775464,0.00010706004219640519,0.0002086578926920879
150000000000.0,3,0.04329635974999999,-0.11645396875,-0.00459931885,-0.01538,0.02171,-0.002003,-1.8239388334999997,-9.5831564465,1.002828029,-2.0735,1.3569,2.4706,4.999999999988347e-05,2.4999999999941735e-05,2.4999999999941735e-05,-0.00011510286471771991,0.00010708332323594583,0.00020864707867218613
150000000000.0,3,0.057653295349999995,-0.1083242559,-0.026772154499999996,-0.022936,0.014307,0.003331,-1.8229581684999998,-9.583744845499998,0.9999841005,-2.0725,1.3572,2.4698,-9.999999999998899e-05,2.500000000016378e-05,8.999999999992347e-05,0.000383964774367751,-0.0003104412171355264,0.0002563548885290423
150000000000.0,3,0.07552101165,-0.08519036854999999,-0.027076160649999997,-0.02836,0.004759,0.005469,-1.8219775035,-9.584235177999998,0.996551773,-2.0713,1.3574,2.4686,9.999999999998899e-05,2.4999999999941735e-05,3.500000000000725e-05,0.0009188065254628341,0.0008481291638846589,-0.0011516761060770264
150000000000.0,3,0.07687432935,-0.0578200084,-0.01862282835,-0.026283,0.000476,0.009745,-1.8213891045,-9.584725510499998,0.9935117115,-2.0702,1.3576,2.4674,-6.666666666665932e-05,3.333333333332966e-05,3.500000000000725e-05,0.0001489655328392736,8.163572072228398e-05,-0.00030954765594470857
150000000000.0,3,0.0996747906,-0.038363614799999994,0.014788428199999998,-0.019983,-0.010236,0.012972,-1.8206045725,-9.58501971,0.9918445809999998,-2.0696,1.3578,2.4668,-6.666666666665932e-05,3.333333333332966e-05,-8.500000000000174e-05,-5.43499880059084e-05,0.0004135237578759554,-0.00040026138228510533
150000000000.0,3,0.0951637316,-0.006943108199999999,0.043580752599999995,-0.013645,-0.017749,0.01406,-1.8202123064999998,-9.585117776499999,0.9913542485,-2.0695,1.3578,2.4665,-6.666666666665932e-05,3.333333333332966e-05,-8.500000000000174e-05,-5.451946076306946e-05,0.0004135019457736089,-0.0004003040804758662
150000000000.0,3,0.06862693669999999,0.017730423199999998,0.05847705395,-0.012604,-0.02202,0.012999,-1.8201142399999997,-9.585117776499999,0.9915503815,-2.0696,1.3578,2.4663,-9.999999999998899e-05,-4.999999999988347e-05,8.500000000000174e-05,-0.0002622753703995784,-0.0006542329727594609,0.0004443032528005375
150000000000.0,3,0.05163201224999999,0.02007421255,0.019348520449999997,-0.013646,-0.02307,0.006592,-1.819918107,-9.585215842999999,0.9909619825,-2.0694,1.3579,2.4659,-9.999999999998899e-05,-5.0000000000105516e-05,8.500000000000174e-05,-0.00026254766117528305,-0.0006541180970658367,0.0004444413767421551
150000000000.0,3,0.03672590425,0.0045698989,0.0166516917,-0.020003,-0.020881,0.001238,-1.8193297079999997,-9.585411976,0.9899813175,-2.0691,1.358,2.4653,-9.999999999998899e-05,9.999999999998899e-05,-2.999999999997449e-05,0.0010386431176834243,0.0004123471371333398,0.00032940730581954014
150000000000.0,3,0.0211627507,-0.030753654399999997,0.0300279623,-0.022077,-0.015533,-0.001978,-1.8186432424999999,-9.585706175499999,0.9886083864999999,-2.0687,1.3581,2.4647,-3.333333333332966e-05,9.999999999998899e-05,-1.0000000000065512e-05,-0.0007174052447327384,2.932272609457165e-05,-0.0014722592865448192
150000000000.0,3,0.009483030549999999,-0.0615661487,0.014435388799999999,-0.018871,-0.015559,-0.003041,-1.8178587105,-9.586000375,0.9869412559999998,-2.0682,1.3583,2.464,-3.333333333332966e-05,-5.0000000000105516e-05,6.499999999998174e-05,0.00018304166613081208,-1.1656046614350046e-05,0.00030242254742329777
150000000000.0,3,-0.012121019399999999,-0.038255741649999994,0.0448752304,-0.013569,-0.019865,-0.003024,-1.8174664445,-9.586098441499999,0.9864509235,-2.068,1.3583,2.4637,-3.333333333332966e-05,-4.999999999988347e-05,6.500000000009276e-05,0.00018303693378540764,-1.171093865637296e-05,0.0003024184550799447
150000000000.0,3,-0.02593858925,0.024722564649999997,0.042364728,-0.007169,-0.020982,-0.004077,-1.8174664445,-9.586098441499999,0.986745123,-2.0682,1.3583,2.4636,-6.666666666665932e-05,1.999999999990898e-05,5.999999999994898e-05,0.0005118401821009311,2.8924832103038867e-05,-0.00023475900990588272
150000000000.0,3,-0.029792602699999997,0.055623318799999995,0.017142024199999998,-0.002885,-0.017823,-0.001938,-1.8176625774999997,-9.586000375,0.9870393224999999,-2.0683,1.3583,2.4635,-6.666666666665932e-05,2.0000000000131024e-05,-2.0000000000020002e-05,-0.0002499093780699013,-0.00021262802162591576,-0.00046605566448576496
150000000000.0,3,-0.0186522483,0.05963423864999999,-0.0060703163499999995,-0.001835,-0.019963,-0.001931,-1.8176625774999997,-9.586000375,0.9872354554999999,-2.0683,1.3583,2.4634,-6.666666666665932e-05,1.999999999990898e-05,2.0000000000020002e-05,-0.00014515129945991134,0.000521434214374672,-0.00017224301677831733
150000000000.0,3,-0.03243059155,0.014808041499999999,0.013101684399999999,-0.002929,-0.022087,0.000207,-1.8179567769999998,-9.5859023085,0.9875296549999999,-2.0684,1.3582,2.4633,-4.999999999988347e-05,2.0000000000131024e-05,-1.333333333330966e-05,-0.0002010725592693774,5.0183701915784695e-05,-3.0696940791052896e-05
150000000000.0,3,-0.050818060299999995,-0.03990325885,0.07075497975,-0.004009,-0.022082,0.003409,-1.818741309,-9.585706175499999,0.9885103199999999,-2.0687,1.3581,2.4633,-5.0000000000105516e-05,1.999999999990898e-05,-1.333333333330966e-05,-0.00020106669157637924,5.017541544494186e-05,-3.070597219778648e-05
150000000000.0,3,-0.06751878524999999,-0.04802316505,0.0855924412,-0.000785,-0.021041,0.001281,-1.819721974,-9.5853139095,0.9899813175,-2.0691,1.358,2.4635,-5.0000000000105516e-05,9.999999999998899e-05,-1.333333333330966e-05,-0.00035498109917764253,-0.0001421761955042733,-0.0011187333732687321
150000000000.0,3,-0.0511514864,-0.0402661049,0.0535639223,0.002513,-0.012539,-0.004064,-1.819918107,-9.585215842999999,0.9913542485,-2.0696,1.3579,2.4639,-4.999999999988347e-05,-9.999999999998899e-05,0.00015999999999993797,-0.0007310886541991302,4.31822352100486e-05,0.00021208582383058783
150000000000.0,3,-0.0023143694,-0.006080123,0.022643554849999997,0.001507,-0.008263,-0.00941,-1.8190355084999998,-9.585215842999999,0.992236847,-2.0701,1.3579,2.4643,-3.333333333332966e-05,5.0000000000105516e-05,-4.999999999999449e-05,4.420736050958496e-05,0.00033413186035002873,-0.0004551236893175492
150000000000.0,3,0.0051779112,0.0380890286,0.01115016105,-0.001718,-0.011433,-0.00941,-1.8180548435,-9.585411976,0.9924329799999999,-2.0705,1.358,2.4646,-3.333333333332966e-05,4.999999999988347e-05,-4.999999999999449e-05,4.4055788504859805e-05,0.0003341505352005836,-0.00045512570291394994
150000000000.0,3,-0.019387747049999998,0.04123696325,0.0040011132,-0.004891,-0.009273,-0.011553,-1.8172703115,-9.585608108999999,0.9923349134999999,-2.0706,1.3581,2.4646,-3.333333333332966e-05,2.4999999999941735e-05,9.00000000000345e-05,-0.00020030039490759322,-0.0005416593144293991,0.0005100433554856565
150000000000.0,3,-0.05312262305,0.0327934376,0.00304986815,-0.007007,-0.007124,-0.011557,-1.8170741785,-9.585706175499999,0.9919426474999999,-2.0705,1.3581,2.4644,-9.999999999998899e-05,2.4999999999941735e-05,3.500000000000725e-05,0.00026027005842399475,1.8301668500697588e-06,0.0004136333392730229
150000000000.0,3,-0.0758446311,0.0087475318,-0.02095681105,-0.008113,-0.009251,-0.007282,-1.817368378,-9.585706175499999,0.990863916,-2.07,1.3581,2.4638,-4.999999999988347e-05,2.500000000016378e-05,3.500000000000725e-05,-9.536791024777891e-05,-0.0008406192799508272,-0.0002971101463926651
150000000000.0,3,-0.0931827883,-0.0221826423,-0.035588332849999994,-0.006066,-0.014604,0.001274,-1.8185451759999998,-9.585608108999999,0.9896871179999999,-2.0692,1.3581,2.4629,-5.0000000000105516e-05,2.4999999999941735e-05,-2.0000000000020002e-05,-7.292141986270373e-05,0.0005312910980357355,-0.00031882206888189657
150000000000.0,3,-0.10673557859999999,-0.039089306899999995,-0.016475172,-0.008245,-0.016722,0.006616,-1.8206045725,-9.5853139095,0.9888045194999999,-2.0683,1.3579,2.4619,-5.0000000000105516e-05,2.4999999999941735e-05,4.999999999999449e-05,-9.120739250523258e-05,-0.00010605303366983954,0.0002476720763091578
150000000000.0,3,-0.09762520075,-0.0384028414,0.0007649187,-0.006117,-0.01674,0.007691,-1.822663969,-9.5849216435,0.9885103199999999,-2.0677,1.3578,2.4611,-4.999999999988347e-05,2.500000000016378e-05,4.999999999921734e-06,-0.000248474264372911,-5.561586177815769e-06,-5.652192095206843e-05
150000000000.0,3,-0.06594972125,-0.04511059,0.02782146605,-0.007152,-0.013534,0.006619,-1.8241349665,-9.584627443999999,0.9885103199999999,-2.0674,1.3576,2.4607,-4.999999999988347e-05,2.4999999999941735e-05,5.000000000032756e-06,-0.0002527220374475281,-8.654437335775533e-05,-0.000547763853754546
150000000000.0,3,-0.0336760361,-0.02560516315,0.01876012145,-0.011405,-0.01456,0.002345,-1.8248214319999998,-9.5845293775,0.988118054,-2.0671,1.3576,2.4602,-5.0000000000105516e-05,2.4999999999941735e-05,2.0000000000020002e-05,-0.00012067732323295388,0.0003110205225815843,-0.0012076417820772178
150000000000.0,3,-0.03054771475,-0.01679879145,0.025507096649999998,-0.010304,-0.012435,-0.000858,-1.8251156315,-9.5845293775,0.9878238545,-2.0669,1.3576,2.4598,-2.4999999999941735e-05,-4.999999999988347e-05,-9.99999999995449e-06,0.00020742201679180283,7.123766597794123e-05,0.00027457928125773634
150000000000.0,3,-0.0389520138,-0.0007649187,0.02017227905,-0.010217,-0.004971,-0.006206,-1.825213698,-9.5845293775,0.987333522,-2.0667,1.3576,2.4595,-2.500000000016378e-05,-5.0000000000105516e-05,-1.0000000000065512e-05,0.00020744380730342016,7.118122610161315e-05,0.00027459693172637856
150000000000.0,3,-0.05551544565,0.02160404995,-0.0069234948999999995,-0.006956,-0.000729,-0.011542,-1.8253117644999999,-9.584627443999999,0.9866470565,-2.0663,1.3576,2.4592,-2.4999999999941735e-05,5.0000000000105516e-05,1.0000000000065512e-05,-4.189478552518722e-05,-0.00010396798817247088,-0.0001730623927977959
150000000000.0,3,-0.0626644935,0.0117875933,-0.0018436501999999997,-0.003764,-0.001821,-0.011531,-1.825213698,-9.584725510499998,0.9861567239999999,-2.0662,1.3576,2.459,-2.4999999999941735e-05,4.999999999988347e-05,9.99999999995449e-06,-4.187635288221969e-05,-0.00010397574091980388,-0.00017305674051470987
150000000000.0,3,-0.07538371854999999,-0.01568083335,-0.0021378497,-0.00804,-0.002851,-0.011534,-1.8251156315,-9.584725510499998,0.985568325,-2.0659,1.3577,2.4588,9.999999999998899e-05,0.0001500000000000945,2.999999999997449e-05,0.00032535905487041106,-0.00023329031626939667,3.19778567892115e-05
150000000000.0,3,-0.09548735105,-0.0360688587,-0.010502922149999998,-0.008093,-0.006053,-0.006187,-1.8259001634999998,-9.584725510499998,0.9846857265,-2.0654,1.3577,2.4582,9.999999999998899e-05,0.00014999999999987246,-0.00024999999999997247,0.00042449277731382296,0.0015194457983369603,-0.0032506708939363804
150000000000.0,3,-0.11310990110000001,-0.0357746592,-3.9226599999999995e-05,-0.006998,-0.0018,-0.00512,-1.8270769615,-9.5845293775,0.9839011945,-2.0648,1.3576,2.4575,-4.0000000000040004e-05,-4.0000000000040004e-05,2.4999999999941735e-05,-9.371705622562843e-05,-0.00016144217560221108,-4.7391673686725255e-05
150000000000.0,3,-0.10072410215,-0.0130624578,0.03095959405,-0.005893,0.00139,-0.007254,-1.828155693,-9.584431311,0.9837050614999999,-2.0645,1.3575,2.4573,-4.0000000000040004e-05,-4.0000000000040004e-05,2.5000000000052758e-05,-9.370905118677442e-05,-0.00016144927368832995,-4.73762798365307e-05
150000000000.0,3,-0.08826965665,0.02984163595,0.048778277099999996,-0.005871,0.004585,-0.006188,-1.8290382915,-9.584235177999998,0.9839011945,-2.0643,1.3574,2.4571,-3.999999999981796e-05,-3.999999999981796e-05,1.4999999999987246e-05,0.00011850312775685268,-7.555327443919957e-05,1.2615449405117829e-05
150000000000.0,3,-0.093751574,0.03466650775,0.057623875399999996,-0.003731,0.005632,-0.005114,-1.830117023,-9.5839409785,0.9844895934999999,-2.0643,1.3573,2.4572,-4.0000000000040004e-05,-4.0000000000040004e-05,1.4999999999987246e-05,0.00011849894878213085,-7.555340550058354e-05,1.26060865883737e-05
150000000000.0,3,-0.09311414174999999,0.03180296595,0.057221802749999995,-0.003699,0.009893,-0.00405,-1.831489954,-9.583646779,0.984979926,-2.0642,1.3571,2.4572,-4.0000000000040004e-05,-4.0000000000040004e-05,0.000140000000000029,-0.0004021330728105621,-0.0009293092822433291,0.002635427109602073
150000000000.0,3,-0.0848863624,0.02017227905,0.03076346105,-0.000511,0.0088,-0.002971,-1.8327648184999998,-9.5833525795,0.9852741254999999,-2.0641,1.357,2.4571,0.00019999999999997797,0.00019999999999997797,-0.00017999999999995797,0.0003522683618064626,0.0011078196801375118,-0.00261025983122698
150000000000.0,3,-0.0834545915,0.0178284897,0.0039618866,0.001609,0.007716,-0.001894,-1.8340396829999999,-9.583058379999999,0.9852741254999999,-2.0638,1.3569,2.457,4.999999999988347e-05,-4.0000000000040004e-05,9.99999999995449e-06,-1.3498399506595149e-05,1.2737575689536484e-05,-0.00015313729930621633
150000000000.0,3,-0.057869041649999994,0.01468055505,0.01099325465,0.000553,0.007727,-0.004027,-1.8347261485,-9.5829603135,0.9854702584999999,-2.0637,1.3568,2.4569,5.0000000000105516e-05,-4.0000000000040004e-05,-9.99999999995449e-06,-0.0001993623886176188,0.0002454636349926709,-0.000256045909244218
150000000000.0,3,-0.04782703205,-0.019073934249999997,0.021721729749999998,-0.003696,0.009893,-0.004036,-1.835216481,-9.582862247,0.9853721919999999,-2.0635,1.3568,2.4569,-3.333333333332966e-05,-3.999999999981796e-05,4.999999999999449e-05,0.00029130710655000946,-0.00013716853086753744,0.00023237271385001534
150000000000.0,3,-0.0409525704,-0.05045521425,0.005952636549999999,-0.003657,0.014156,-0.00511,-1.8353145475,-9.5829603135,0.9846857265,-2.0632,1.3568,2.4567,-3.333333333332966e-05,-4.0000000000040004e-05,8.500000000000174e-05,-0.0001768016219469981,-0.0005116395423461206,0.0014503140922839108
150000000000.0,3,-0.04027591155,-0.04361017255,0.036196345149999996,0.001693,0.015179,-0.006168,-1.8354126139999998,-9.582862247,0.984979926,-2.0633,1.3568,2.4569,-3.333333333332966e-05,-4.0000000000040004e-05,8.500000000000174e-05,-0.00017755024616583626,-0.0005114199169444777,0.0014504151041077051
150000000000.0,3,-0.031106693799999998,-0.012915358049999999,0.05010217484999999,0.007013,0.013003,-0.006154,-1.8355106804999999,-9.5827641805,0.9861567239999999,-2.0638,1.3567,2.4576,9.999999999998899e-05,0.00019999999999997797,-0.00017000000000000348,-7.005526017622721e-05,0.0007076546253019789,-0.002463640512692322
150000000000.0,3,-0.00887501825,0.008090486249999999,0.03360738955,0.010196,0.011909,-0.004011,-1.8353145475,-9.582666114,0.987333522,-2.0644,1.3567,2.4583,-9.999999999998899e-05,-0.00019999999999997797,0.00019000000000002348,-0.00022032683389405783,-0.0011182203727884144,0.0030252646268338346
150000000000.0,3,-0.0032263878499999995,0.00250069575,0.012464252149999999,0.004795,0.005557,-0.000807,-1.835216481,-9.582568047499999,0.9880199875,-2.0647,1.3566,2.4586,9.999999999998899e-05,9.999999999998899e-05,-9.00000000000345e-05,-1.1737587570781471e-05,0.0002595708941612873,-0.001458422960028738
150000000000.0,3,-0.0165732385,-0.0079826131,-0.018691474899999998,0.001604,0.005585,-0.002947,-1.8353145475,-9.582568047499999,0.9879219209999999,-2.0646,1.3566,2.4586,7.1428571428722165e-06,-9.999999999998899e-05,-2.999999999997449e-05,0.00015247825528019732,0.000586410602972709,0.0007853919456954905
150000000000.0,3,-0.02407532575,-0.02272200805,-0.04982758864999999,0.000514,0.002399,-0.004009,-1.8353145475,-9.582666114,0.9871373889999999,-2.0643,1.3567,2.4584,7.1428571428722165e-06,-1.2499999999970868e-05,4.999999999999449e-05,-0.00016431171751141171,-0.00042310427926484095,0.0001374290270210743
150000000000.0,3,-0.010149882749999999,-0.0263210486,-0.0352058735,0.000489,-0.00186,-0.006136,-1.8349222815,-9.582862247,0.9866470565,-2.0641,1.3567,2.4582,7.1428571428722165e-06,-1.2499999999970868e-05,5.000000000032756e-06,-0.0001754571373269176,-0.00011937630096547913,-6.978302579252471e-05
150000000000.0,3,-0.0029223816999999997,-0.0360688587,-0.01301342455,-0.000623,-0.006116,-0.003996,-1.8343338824999997,-9.5829603135,0.986352857,-2.0642,1.3568,2.4582,7.1428571428722165e-06,-1.2499999999970868e-05,4.999999999921734e-06,-0.0001754448415831611,-0.00011938753087981091,-6.976037266381852e-05
150000000000.0,3,0.0036284604999999998,-0.0192014207,-0.0071392412,0.001515,-0.006132,-0.00506,-1.8337454834999998,-9.583058379999999,0.9865489899999998,-2.0644,1.3568,2.4584,7.1428571428722165e-06,-1.2500000000192912e-05,-4.999999999999449e-05,-5.127989783115794e-05,0.00046580455743794325,-0.000995968071634934
150000000000.0,3,0.006158576199999999,0.001569064,-0.00824739265,0.002584,-0.007204,-0.007192,-1.8329609514999998,-9.5831564465,0.986745123,-2.0646,1.3569,2.4586,7.1428571428722165e-06,-1.2499999999970868e-05,2.0000000000020002e-05,4.436834917465049e-05,-1.4053259877577773e-05,0.000344940460740073
150000000000.0,3,0.02558554985,-0.0020593965,-0.006639102049999999,-0.000606,-0.007176,-0.009333,-1.8315880205,-9.583450646,0.986745123,-2.065,1.357,2.4588,7.1428571428722165e-06,-1.2499999999970868e-05,2.0000000000020002e-05,4.436076835689917e-05,-1.406761978883786e-05,0.00034491887937759813
150000000000.0,3,0.0346763144,-0.006982334799999999,-0.0065508421999999995,-0.003807,-0.007149,-0.009341,-1.8300189564999998,-9.583744845499998,0.9865489899999998,-2.0652,1.3572,2.459,7.142857142650172e-06,-1.2499999999970868e-05,1.999999999990898e-05,-6.1290559567162e-05,-0.0003993156263875086,5.1468998632842045e-05
150000000000.0,3,0.015180694199999997,-0.0145530686,0.0012748644999999999,-0.001707,-0.009301,-0.006132,-1.828940225,-9.5839409785,0.9864509235,-2.0654,1.3573,2.4591,7.1428571428722165e-06,-1.2499999999970868e-05,2.0000000000020002e-05,-6.131176291468421e-05,-0.00039933511041567726,5.1494073002977814e-05
150000000000.0,3,-0.0082179727,-0.0197702064,-0.02107449085,-0.001708,-0.009301,-0.006132,-1.8282537595,-9.584137111499999,0.9860586575,-2.0654,1.3574,2.459,7.1428571428722165e-06,3.333333333332966e-05,7.00000000000145e-05,0.0004371541430852055,-0.00061542249849178,-0.00010536556848927958
150000000000.0,3,-0.02352615335,-0.054642653799999996,-0.0250069575,-0.003823,-0.006087,-0.005073,-1.82795956,-9.584235177999998,0.9853721919999999,-2.0652,1.3574,2.4587,7.1428571428722165e-06,3.333333333332966e-05,-4.499999999996174e-05,-0.00032749929026820723,0.00031195268234052165,-0.0005550728343637346
150000000000.0,3,-0.0392266,-0.09434977964999999,-0.011101127799999999,-0.010232,-0.004972,-0.001883,-1.82795956,-9.5843332445,0.9843915269999999,-2.0648,1.3575,2.4582,7.1428571428722165e-06,3.333333333332966e-05,-4.499999999996174e-05,-0.0003276854264284701,0.0003117715625304829,-0.0005551956525873258
150000000000.0,3,-0.03466650775,-0.11653242194999999,0.0033636809499999996,-0.014547,-0.008137,0.002386,-1.828155693,-9.584431311,0.9829205295,-2.0641,1.3575,2.4575,7.1428571428722165e-06,9.999999999998899e-05,1.999999999990898e-05,0.0006521487257127312,-2.4625511727549565e-05,0.0001479025374959697
150000000000.0,3,-0.0358334991,-0.09161372429999999,-0.0081395195,-0.017751,-0.007047,0.004514,-1.8288421584999999,-9.5845293775,0.9809591994999999,-2.0631,1.3576,2.4564,7.1428571428722165e-06,9.999999999998899e-05,-7.999999999996898e-05,-0.0003048858240664032,0.0012739599064544027,-0.0024090102750013997
150000000000.0,3,-0.0215354034,-0.06281159324999999,0.0016867438,-0.016713,-0.011317,0.003456,-1.8292344244999998,-9.584627443999999,0.9794882019999999,-2.0624,1.3576,2.4556,-9.999999999998899e-05,3.333333333332966e-05,-4.999999999999449e-05,0.0012212612181679017,0.0008985950363173956,-0.00034775789293028936
150000000000.0,3,0.0192994872,-0.0097478101,0.027801852749999998,-0.012487,-0.01668,0.003472,-1.8290382915,-9.584725510499998,0.9789586428999999,-2.0622,1.3576,2.4553,5.0000000000105516e-05,3.333333333332966e-05,2.999999999997449e-05,-0.00033657772202522196,-0.00048046670675772063,-0.0003329679258152751
150000000000.0,3,0.03831458155,0.049415709349999996,0.019505426849999997,-0.007169,-0.018856,0.003484,-1.828744092,-9.584725510499998,0.9788801897,-2.0623,1.3577,2.4551,4.999999999988347e-05,3.333333333332966e-05,2.999999999997449e-05,-0.00033639490283099427,-0.00048057533460443835,-0.0003327835910345023
150000000000.0,3,0.025624776449999997,0.04461045085,0.026870220999999996,-0.005008,-0.015677,0.003481,-1.8286460254999999,-9.584725510499998,0.979292069,-2.0625,1.3577,2.4551,-9.999999999998899e-05,-1.6666666666775853e-05,1.0000000000065512e-05,0.00022157716601300947,0.0003868483257019051,-0.0006286130354067332
150000000000.0,3,0.008335652499999999,0.021260817199999997,0.0319108391,-0.005963,-0.003944,0.000256,-1.8285479589999998,-9.584725510499998,0.9794882019999999,-2.0626,1.3577,2.4551,-9.999999999998899e-05,-1.666666666655381e-05,-1.0000000000065512e-05,-0.0006855912442556011,0.0001538054414185197,0.00016818149824837647
150000000000.0,3,-0.0127682583,-0.0007354987499999999,0.0334799031,-0.012303,0.003567,0.000233,-1.8288421584999999,-9.584725510499998,0.97896844955,-2.0623,1.3577,2.4548,-3.333333333332966e-05,-1.666666666655381e-05,3.0000000000085514e-05,0.0009021106471500673,0.00023405258091169223,0.0005426882523762444
150000000000.0,3,-0.057663101999999994,-0.04404166515,0.03331319005,-0.018671,0.008945,0.002349,-1.8299208899999997,-9.584725510499998,0.9776347451499999,-2.0615,1.3576,2.4541,-3.333333333332966e-05,-1.6666666666775853e-05,-5.000000000032756e-06,0.00022297916008851004,0.00023569663454137135,5.846748902849086e-05
150000000000.0,3,-0.07962019135,-0.07773731454999999,0.0079629998,-0.028284,0.009022,0.00447,-1.8313918875,-9.584627443999999,0.9750065629499999,-2.06,1.3576,2.4527,-3.333333333332966e-05,-1.6666666666775853e-05,-5.000000000032756e-06,0.0002229998363745267,0.00023568400058637806,5.8522224538393175e-05
150000000000.0,3,-0.0740205942,-0.09736042119999999,-0.01554354025,-0.040031,0.009117,0.006587,-1.8329609514999998,-9.584823577,0.9708289300499999,-2.0579,1.3577,2.4506,-9.999999999998899e-05,-1.666666666655381e-05,9.999999999998899e-05,-3.449655471055024e-05,-0.0006069928720906503,0.0011870105654363527
150000000000.0,3,-0.05767290864999999,-0.10213625975,-0.034823414149999996,-0.050699,0.01027,0.007636,-1.8343338824999997,-9.585117776499999,0.96512145975,-2.0551,1.3578,2.448,-0.00019999999999997797,9.999999999998899e-05,-3.999999999992898e-05,0.00105901139824649,-5.872098400705461e-05,-0.00012937905011600748
150000000000.0,3,-0.04253144104999999,-0.08332710504999999,-0.04770935225,-0.057018,0.020979,0.007607,-1.8357068134999999,-9.5855100425,0.9584039044999999,-2.052,1.358,2.4449,-0.00020000000000020002,-0.00039999999999995595,0.00042999999999993044,0.006810970092618884,0.002127280461330372,0.003034355585156856
150000000000.0,3,-0.039393313049999996,-0.07157873834999999,-0.01630845895,-0.050605,0.027312,0.015081,-1.8376681435,-9.585706175499999,0.9524414613,-2.049,1.3581,2.4421,-5.0000000000105516e-05,9.999999999998899e-05,2.5000000000052758e-05,0.00018227204812304443,0.0001207098550330965,-0.0001369844014509347
150000000000.0,3,-0.031842192549999995,-0.049857008599999995,0.02609549565,-0.041072,0.025092,0.025776,-1.8406101384999998,-9.585608108999999,0.9480382754499999,-2.0464,1.3581,2.4398,-4.999999999988347e-05,9.999999999998899e-05,2.4999999999941735e-05,0.00018225844808217317,0.00012073483048857803,-0.00013696452935185732
150000000000.0,3,-0.038687234249999994,-0.04774857885,0.08713208525,-0.041092,0.02615,0.03218,-1.8443366654999998,-9.585215842999999,0.9450668604999999,-2.0443,1.3579,2.4379,-9.999999999998899e-05,-9.999999999998899e-05,8.500000000000174e-05,-0.000129530909598774,-0.00016843368276164838,0.0011350490836408156
150000000000.0,3,-0.022270902149999997,-0.05439748755,0.09779191379999999,-0.043157,0.033627,0.031097,-1.8478670594999997,-9.584823577,0.9418895059,-2.0422,1.3577,2.436,-9.999999999998899e-05,-9.999999999998899e-05,8.500000000000174e-05,-0.00012972056919680064,-0.00016828743645036504,0.0011350454079326333
150000000000.0,3,-0.0080610663,-0.05141626595,0.04861156404999999,-0.044144,0.040034,0.025747,-1.8509071209999999,-9.584627443999999,0.9376530331,-2.0397,1.3576,2.4338,-0.00019999999999997797,-9.999999999998899e-05,0.0002300000000000635,0.0003702194174488582,-0.0005162526255131361,0.002893738926492695
150000000000.0,3,-0.00226533615,-0.02407532575,0.01093441475,-0.038783,0.039995,0.020419,-1.8533587834999998,-9.584627443999999,0.9331321674499999,-2.0372,1.3576,2.4317,-4.999999999988347e-05,9.999999999998899e-05,-0.0001100000000000545,0.00036388692689648394,0.0005340031744880402,-0.0006760447036828765
150000000000.0,3,-0.00140235095,0.0131212977,-0.006992141449999999,-0.027057,0.036705,0.017243,-1.8556143129999998,-9.5845293775,0.9293566072,-2.0351,1.3576,2.4299,-5.0000000000105516e-05,9.999999999998899e-05,-7.999999999996898e-05,0.0006855597946420211,0.001143341584176616,-0.0001071845774931468
150000000000.0,3,0.00204958985,0.05680992345,-0.01738719045,-0.023885,0.029227,0.010858,-1.8572814435,-9.5845293775,0.92613021935,-2.0334,1.3576,2.4285,9.999999999998899e-05,9.999999999998899e-05,-4.0000000000040004e-05,-7.436990026210566e-05,0.00042464060910218926,-0.001031844297163964
150000000000.0,3,0.044728130649999996,0.07059807335,-0.055829258449999995,-0.024963,0.022851,0.002327,-1.8574775764999998,-9.584823577,0.92238407905,-2.0317,1.3577,2.427,-0.00019999999999997797,-4.999999999988347e-05,4.999999999999449e-05,0.00023369387294436272,-7.418868819941693e-06,0.0004115616543627354
150000000000.0,3,0.09109397185,0.060752196749999994,-0.07236327035,-0.023975,0.010062,-0.00299,-1.8561046454999999,-9.5855100425,0.9185692921999999,-2.0304,1.358,2.4258,-9.999999999998899e-05,-5.0000000000105516e-05,0.00010000000000010001,0.0011912463715921806,-0.0005289219577075954,0.001193123348961933
150000000000.0,3,0.11060920535,0.030331968449999996,-0.050827866949999995,-0.018701,0.001496,-0.005105,-1.8538491160000001,-9.586196507999999,0.91573517035,-2.0296,1.3584,2.4251,-5.0000000000105516e-05,-5.0000000000105516e-05,7.999999999996898e-05,-0.00022429803193602105,-0.0007857840351588319,0.0005990733145573301
150000000000.0,3,0.12955565315,-0.01118938765,-0.0254188368,-0.008108,-0.009245,-0.007209,-1.8510051875,-9.5868829735,0.9144112725999999,-2.0296,1.3587,2.425,-4.999999999988347e-05,-4.999999999988347e-05,7.999999999996898e-05,-0.0002247503526968675,-0.0007856505790067025,0.0005991920976837761
150000000000.0,3,0.16066234695,-0.031165533699999998,0.01220927925,-0.003982,-0.02633,-0.006112,-1.8473767269999999,-9.587569439,0.9146466322,-2.0305,1.359,2.4257,-9.999999999998899e-05,3.333333333332966e-05,-5.999999999994898e-05,-0.0004030069350886567,0.0005629559570183851,-0.000809463414795708
150000000000.0,3,0.16021124105,-0.0074040207499999995,0.04169787579999999,-0.000913,-0.042342,-0.005019,-1.8437482665,-9.588157837999999,0.9159803366,-2.0319,1.3593,2.4266,-0.00019999999999997797,3.333333333332966e-05,7.00000000000145e-05,0.0012637582154864102,-0.00033495243484216175,0.0005504582367010791
150000000000.0,3,0.1368616074,0.035558912899999996,0.07028426054999999,0.005388,-0.054118,-0.002859,-1.8408062714999998,-9.5884520375,0.9186673586999999,-2.0337,1.3594,2.4279,-0.00029999999999996696,3.333333333332966e-05,-0.00010000000000010001,-0.0001779870930409544,-0.0007942210808919992,-0.0015111953186632832
150000000000.0,3,0.10656886554999999,0.0572512227,0.0859847072,0.009592,-0.062679,-0.002841,-1.8383546089999998,-9.588550104,0.92212910615,-2.0357,1.3595,2.4293,-0.00010000000000021103,-5.0000000000105516e-05,3.0000000000085514e-05,-5.391994648284992e-05,8.570213079228672e-05,-0.00023019857314121595
150000000000.0,3,0.09939039775,0.05386792844999999,0.08181688094999999,0.014854,-0.072314,-0.002819,-1.8359029464999999,-9.588648170499999,0.9262871257499999,-2.0381,1.3595,2.4309,-9.999999999998899e-05,-4.999999999988347e-05,2.999999999997449e-05,-5.393799699904278e-05,8.568599604608096e-05,-0.00023019543002567033
150000000000.0,3,0.08354285135,0.03580407915,0.04393379199999999,0.016942,-0.077662,-0.001733,-1.8337454834999998,-9.588648170499999,0.9302097857499999,-2.0403,1.3596,2.4324,-0.00019999999999997797,9.999999999998899e-05,-2.0000000000020002e-05,-0.0003270410460984863,-0.0007762603316652239,-0.000968460729476206
150000000000.0,3,0.05074941374999999,0.00493274495,0.0162201991,0.008407,-0.079719,-0.004949,-1.8317841535,-9.588746236999999,0.9330831341999999,-2.0419,1.3596,2.4333,-0.00019999999999997797,9.999999999998899e-05,-9.00000000000345e-05,-0.0011725148121675133,0.0007124744650464088,-0.0015478142651428328
150000000000.0,3,0.0272036471,-0.0432277132,-0.007472667299999999,0.001928,-0.089256,-0.004945,-1.8299208899999997,-9.58894237,0.9349267844,-2.0431,1.3597,2.4336,-0.0011999999999998678,-0.0022999999999999687,0.0022600000000000398,-0.010064481577757745,-0.023273460349429786,0.02441934674677615
150000000000.0,3,0.0090417313,-0.09443803949999999,-0.0195936867,-0.006707,-0.10091,-0.003873,-1.8280576265,-9.589236569499999,0.9358289961999999,-2.0439,1.3598,2.4334,-9.999999999998899e-05,9.999999999998899e-05,9.99999999995449e-06,0.00032205737055091,-0.0006940761443465782,-0.0011872453501866609
150000000000.0,3,-0.00289296175,-0.10300905159999998,-0.017426417049999997,-0.012116,-0.10939,-0.002801,-1.8263904959999997,-9.5894327025,0.93634874865,-2.0445,1.3599,2.4329,-9.999999999998899e-05,5.0000000000105516e-05,2.999999999997449e-05,-5.3753729664318683e-05,0.0001863752932766971,-0.0007811524302199224
150000000000.0,3,-0.03668667765,-0.065312289,-0.030586941349999997,-0.015346,-0.1115,-0.000667,-1.8257040304999999,-9.5896288355,0.93634874865,-2.0447,1.36,2.4319,-9.999999999998899e-05,4.999999999988347e-05,3.0000000000085514e-05,-5.390117286641072e-05,0.00018633393588873837,-0.0007811790947114261
150000000000.0,3,-0.09034866645,-0.02180018295,-0.0315577997,-0.018489,-0.10401,-0.000681,-1.8260962964999998,-9.589530769,0.9359662892999999,-2.0444,1.36,2.4306,0.00039999999999995595,3.333333333332966e-05,0.00019000000000002348,0.0030912787788630602,-0.007041029167164314,-0.0014957857180672995
150000000000.0,3,-0.12908493394999998,0.018152109149999998,-0.041952848699999996,-0.016253,-0.092304,-0.002827,-1.827175028,-9.5894327025,0.93544653685,-2.044,1.3599,2.4292,-0.00019999999999997797,3.333333333332966e-05,-1.0000000000065512e-05,-0.0008096248997560007,0.0009391801698870328,-0.0009036606425900651
150000000000.0,3,-0.1919945937,0.05490743334999999,-0.027909725899999998,-0.01287,-0.07208,-0.007117,-1.8291363579999997,-9.5890404365,0.9350150442499999,-2.0433,1.3598,2.4278,-9.999999999998899e-05,3.333333333332966e-05,2.999999999997449e-05,0.0010142648012891886,-0.00014484981381301942,-0.001177065959820034
150000000000.0,3,-0.24589194209999998,0.06771491824999999,0.00556037055,-0.010513,-0.047584,-0.012481,-1.8317841535,-9.588550104,0.9350640775,-2.0428,1.3595,2.4267,-0.00020000000000020002,9.999999999998899e-05,-7.999999999996898e-05,0.0009721675236655791,0.000682197598906642,-0.0006169997790688164
150000000000.0,3,-0.26361255865,0.03837342144999999,0.0114933938,-0.00924,-0.025211,-0.017842,-1.8343338824999997,-9.5880597715,0.9349660109999999,-2.0422,1.3593,2.4258,-9.999999999998899e-05,-1.6666666666775853e-05,-2.0000000000020002e-05,0.0005196048279676457,0.00014293808841769895,-0.0005206443826692997
150000000000.0,3,-0.28591288075,0.0074922806,8.825985e-05,-0.009166,-0.014557,-0.015712,-1.8372758774999998,-9.587569439,0.93425012555,-2.0412,1.359,2.4247,-9.999999999998899e-05,-1.666666666655381e-05,4.500000000007276e-05,0.00031627090937869085,-0.00019842234411404647,-0.0004437654350146758
150000000000.0,3,-0.2927088892,-0.02317311395,0.00246146915,-0.007042,-0.012448,-0.010362,-1.8407082049999999,-9.58698104,0.9336715332,-2.0402,1.3587,2.4236,-0.0008999999999999009,-1.666666666655381e-05,4.499999999996174e-05,-0.0006067579498234554,0.008807764545438301,-0.002311357864785979
150000000000.0,3,-0.2774497418,-0.032754211,0.012650578499999999,0.000403,-0.011449,-0.003934,-1.8444347319999999,-9.5862945745,0.93395592605,-2.0395,1.3584,2.4229,-5.0000000000105516e-05,-1.6666666666775853e-05,-4.999999999921734e-06,-0.00031684602679327156,4.480961696118335e-05,3.851803239030005e-05
150000000000.0,3,-0.2533057695,-0.0091397978,0.0028439284999999996,0.008938,-0.011519,-0.003907,-1.8480631925,-9.5855100425,0.9347796846499999,-2.0391,1.358,2.4223,-4.999999999988347e-05,-1.6666666666775853e-05,-5.000000000032756e-06,-0.00031684577924884216,4.4821756723711914e-05,3.850393768489724e-05
150000000000.0,3,-0.21538345395,0.05212234475,0.0012650578499999998,0.019618,-0.009476,-0.002814,-1.8513974535,-9.584627443999999,0.9366625614499999,-2.0392,1.3576,2.4223,-4.999999999988347e-05,-1.666666666655381e-05,9.99999999995449e-06,-0.0010272527789967345,0.000186467219712938,9.924050441023624e-05
150000000000.0,3,-0.16817424085,0.09862547904999999,-0.01897586775,0.030303,-0.007432,-0.00279,-1.8541433154999998,-9.583842912,0.93925151705,-2.0397,1.3572,2.4228,-5.0000000000105516e-05,-9.999999999998899e-05,-9.99999999995449e-06,-0.0009397151867949205,0.00037559850928792216,1.0460719442662025e-05
150000000000.0,3,-0.14353993605,0.11894485784999999,-0.02005459925,0.034627,-0.001072,-0.003853,-1.8566930444999998,-9.583058379999999,0.94227196525,-2.0404,1.3569,2.4236,-2.4999999999941735e-05,-9.999999999998899e-05,-4.0000000000040004e-05,-0.0006441011028472943,-0.0002442661794117562,2.7601389733789006e-06
150000000000.0,3,-0.12830040194999998,0.10341112425,0.00026477954999999995,0.035773,0.007445,-0.005994,-1.8585563079999998,-9.5823719145,0.945753326,-2.0415,1.3565,2.4248,-2.500000000016378e-05,-9.999999999998899e-05,-2.999999999997449e-05,-0.00017649805259911666,0.00013948265296281903,-7.46335372068252e-05
150000000000.0,3,-0.11548311039999999,0.06876422979999999,0.00980665,0.03906,0.018075,-0.006001,-1.8601253719999997,-9.581685449,0.9495190795999999,-2.0428,1.3562,2.4262,-2.4999999999941735e-05,-9.999999999998899e-05,-4.999999999999449e-05,-0.00040972367656433306,0.0002804373674281102,0.00010770254666869761
150000000000.0,3,-0.10588240004999999,0.009669356899999999,0.0014709974999999999,0.038067,0.026609,-0.00708,-1.8615963695,-9.581097049999999,0.9527748874,-2.0439,1.3559,2.4276,-2.4999999999941735e-05,-0.00019999999999997797,2.0000000000020002e-05,-0.0008742665288452578,-0.0009689278651199285,0.0005153173955951829
150000000000.0,3,-0.07368716809999999,-0.04859195075,-0.00811009955,0.029574,0.032007,-0.007101,-1.8621847685,-9.580704784,0.95502061025,-2.0447,1.3557,2.4288,9.999999999998899e-05,-9.999999999998899e-05,-3.0000000000085514e-05,-0.00020305929155362001,-0.00032952913840844644,0.00011391916793179746
150000000000.0,3,-0.0321069721,-0.0825327664,-0.02968472955,0.025265,0.02778,-0.006033,-1.8621847685,-9.580606717499998,0.95639354125,-2.0453,1.3557,2.4297,-9.999999999998899e-05,-0.00019999999999997797,-2.999999999997449e-05,-0.00037755397910421706,-0.00017451623914466197,0.0005822183108281642
150000000000.0,3,0.013435110499999998,-0.0769233626,-0.055093759699999995,0.017704,0.017186,-0.004961,-1.8614983029999999,-9.580704784,0.9569623269499999,-2.0457,1.3557,2.4303,-9.999999999998899e-05,-9.999999999998899e-05,5.999999999994898e-05,-0.0010759121413519424,0.00016366176181370484,0.0003926130609404055
150000000000.0,3,0.04502233014999999,-0.0646454368,-0.0733341287,0.013406,0.011897,-0.008164,-1.8600273054999998,-9.580998983499999,0.9567956138999999,-2.0459,1.3559,2.4307,-9.999999999998899e-05,-0.0002500000000000835,6.0000000000060005e-05,-0.0016444122566663388,0.000389196073637077,0.00020541939507312534
150000000000.0,3,0.08479810254999999,-0.028439284999999995,-0.08329768509999999,0.00918,0.013006,-0.01565,-1.8572814435,-9.581587382499999,0.95613856835,-2.0462,1.3561,2.4312,-9.999999999998899e-05,-0.00024999999999986144,5.999999999994898e-05,-0.0016444004465654416,0.00038953210162206986,0.00020478425202608008
150000000000.0,3,0.09159411099999999,0.0144550021,-0.07630554364999999,0.008157,0.016216,-0.019931,-1.854045249,-9.582273848,0.9554324895499999,-2.0466,1.3565,2.4318,-2.4999999999941735e-05,-9.999999999998899e-05,-1.999999999990898e-05,0.0002808437004346853,-0.00024198730989954953,0.0002737283904217236
150000000000.0,3,0.049327449499999995,0.03677493749999999,-0.06901920269999999,0.002898,0.024787,-0.022092,-1.8513974535,-9.582862247,0.95427530485,-2.0467,1.3568,2.4321,-2.500000000016378e-05,-3.333333333332966e-05,-1.5000000000098268e-05,0.0005798460298445107,6.76246484083709e-05,1.770206490459003e-05
150000000000.0,3,-0.026036655749999995,0.038020382049999996,-0.07958096475,-0.000321,0.026939,-0.015696,-1.8506129214999998,-9.583254513,0.9524120413499999,-2.0461,1.3569,2.4318,-2.4999999999941735e-05,-3.333333333332966e-05,-1.4999999999987246e-05,0.0005798497805897807,6.761425045609393e-05,1.7741561458617383e-05
150000000000.0,3,-0.10611775965,-0.009483030549999999,-0.07991439084999999,0.006045,0.029009,-0.006077,-1.8516916529999998,-9.5831564465,0.9508037507499999,-2.0452,1.3569,2.4312,-2.4999999999941735e-05,-3.333333333332966e-05,-3.999999999992898e-05,0.00047500779456299824,0.00010928142695743048,9.368900231887523e-05
150000000000.0,3,-0.14015664179999998,-0.05608423135,-0.0404230113,0.014618,0.035331,-0.003932,-1.8537510495,-9.582862247,0.9505193579,-2.0446,1.3567,2.431,-2.4999999999941735e-05,-0.00010000000000021103,2.0000000000020002e-05,0.00028123887313169504,8.365652255859501e-05,0.00014913981963848855
150000000000.0,3,-0.10902052805,-0.0640374245,0.023271180449999998,0.017812,0.036367,-0.000722,-1.8556143129999998,-9.5823719145,0.95176480245,-2.0447,1.3565,2.4315,-2.4999999999941735e-05,-0.00019999999999997797,-3.0000000000085514e-05,0.00019289133788169543,0.0007196394374477944,-0.000207758080555287
150000000000.0,3,-0.052749970349999994,-0.04231569475,0.014013702849999999,0.026303,0.032032,0.001438,-1.856791111,-9.581881582,0.9536967125,-2.0453,1.3563,2.4324,-2.500000000016378e-05,-9.999999999998899e-05,-8.999999999992347e-05,8.963466187683622e-05,0.0011338200155472933,-0.00010011952422495085
150000000000.0,3,-0.036549384549999994,-0.023065240799999998,-0.0137489233,0.037962,0.024474,0.004675,-1.8579679089999999,-9.5813912495,0.95631508805,-2.0461,1.3561,2.4336,-2.4999999999941735e-05,-0.00019999999999997797,-3.0000000000085514e-05,-0.00029670505255130486,-0.00012591987719390296,-5.183036800593399e-05
150000000000.0,3,-0.008835791649999999,0.0076295737,0.028831550999999997,0.045476,0.028676,0.002546,-1.8587524409999998,-9.5808028505,0.9605711741499999,-2.0478,1.3558,2.4355,0.00019999999999997797,-5.0000000000105516e-05,-0.00032999999999994145,0.0031843761388794523,-0.0011622577961312164,-4.6110914419639215e-05
150000000000.0,3,0.044836003799999996,0.01968194655,0.0301652554,0.043389,0.032958,0.000398,-1.8584582415,-9.580508651,0.9649253267499999,-2.0497,1.3556,2.4378,-9.999999999998899e-05,-4.999999999988347e-05,-6.0000000000060005e-05,0.00017040561551096012,-0.00019693628928574292,0.00027074662633630453
150000000000.0,3,0.0714904785,0.013582210249999999,-0.0283216052,0.039117,0.031928,-0.000678,-1.8575756429999999,-9.5804105845,0.9677398353,-2.0511,1.3556,2.4395,-3.333333333332966e-05,-0.00039999999999995595,-0.00014999999999998348,0.0003753059389575153,0.000862851704548806,0.0006202257913905385
150000000000.0,3,0.0244381718,-0.0048640984,-0.047415152749999995,0.034859,0.034094,0.000377,-1.8574775764999998,-9.580214451499998,0.9697796185,-2.052,1.3555,2.4408,-3.333333333332966e-05,-9.999999999998899e-05,4.0000000000040004e-05,-0.00016787615677604784,-0.0003486309341085292,0.0002629080738612011
150000000000.0,3,0.0017259703999999998,-0.017063571,-0.0536619888,0.02847,0.037342,0.002495,-1.8579679089999999,-9.579920251999999,0.9710839029499999,-2.0524,1.3554,2.4416,-3.333333333332966e-05,-9.999999999998899e-05,4.0000000000040004e-05,-0.0001679609506859414,-0.0003485844553987594,0.00026295539559795245
150000000000.0,3,-0.0029910282499999996,-0.03511761365,-0.060732583449999995,0.029537,0.038398,0.003562,-1.8586543745,-9.579724119,0.9721724410999999,-2.0527,1.3552,2.4424,-0.00010000000000021103,-0.00029999999999996696,-3.0000000000085514e-05,-0.002132734068269082,0.0006887386796283756,0.0008215724860161089
150000000000.0,3,0.0061781894999999995,-0.023192727249999996,-0.060546257099999994,0.028498,0.041605,0.002487,-1.8591447069999998,-9.579527986,0.97318252605,-2.053,1.3551,2.4431,0.000600000000000156,0.0005999999999999339,-0.0015899999999999803,0.016149117611113484,0.014514946391928518,-0.0064232663098593434
150000000000.0,3,0.0512887795,-0.008649465299999999,-0.06239971394999999,0.022079,0.038464,0.000344,-1.8587524409999998,-9.579527986,0.97369247185,-2.0533,1.3552,2.4438,-9.999999999998899e-05,-0.00019999999999997797,-2.999999999997449e-05,0.0010357223830572693,0.0007630968192526844,-0.00038083813987110915
150000000000.0,3,0.10030241619999998,-0.00858081875,-0.0853766949,0.019892,0.034217,0.003545,-1.8576737094999998,-9.579724119,0.9736238252999999,-2.0536,1.3553,2.4444,-9.999999999998899e-05,-0.00019999999999997797,-9.99999999995449e-06,-0.0013069520033548443,-0.0012186997299494795,0.0010066326042306173
150000000000.0,3,0.127290317,-0.02576206955,-0.0834349782,0.025096,0.022447,0.009973,-1.8564969114999998,-9.579920251999999,0.9740749312,-2.054,1.3553,2.4452,-0.00019999999999997797,-0.00019999999999997797,-2.0000000000020002e-05,-0.001129298963471026,0.0006328363244836321,-3.70650722989474e-05
150000000000.0,3,0.15740653915,-0.06099736299999999,-0.0615661487,0.029161,0.002159,0.01748,-1.8553201135,-9.5800183185,0.97555573535,-2.0549,1.3554,2.4461,-0.000500000000000167,-0.000600000000000156,0.00021999999999999797,-0.0023925549123835488,-0.001283244574077358,0.0007280547179777663
150000000000.0,3,0.17136140209999998,-0.06851906355,-0.05586848504999999,0.027909,-0.015953,0.024973,-1.8545355815,-9.5800183185,0.9774876454,-2.0559,1.3554,2.447,-9.999999999998899e-05,-0.0005999999999999339,0.0005549999999999722,-0.006665670611546215,-0.011537374153009372,0.0034242432569420167
150000000000.0,3,0.19599570689999998,-0.07348122844999999,-0.08809313695,0.02987,-0.033025,0.031401,-1.853652983,-9.579920251999999,0.9793312955999999,-2.0568,1.3554,2.4477,-9.999999999998899e-05,-0.0005999999999999339,0.0005549999999999722,-0.006697548117154284,-0.011514379078700676,0.003497427301790701
150000000000.0,3,0.18553201134999997,-0.06625372739999999,-0.13002637235,0.031874,-0.045832,0.035688,-1.8533587834999998,-9.5798221855,0.9808611329999999,-2.0576,1.3553,2.448,-0.0003500000000000725,0.00024999999999986144,-0.0006049999999999667,0.0057222766678268755,0.012704561717273632,-0.004277039035796015
150000000000.0,3,0.17079261639999999,-0.06729323229999999,-0.15846565734999998,0.030721,-0.054349,0.037827,-1.85345685,-9.579724119,0.982037931,-2.058,1.3552,2.448,-0.00034999999999985043,0.0002500000000000835,-0.0006049999999999667,0.005675840016837519,0.01272860943266596,-0.004209981583453981
150000000000.0,3,0.1563376143,-0.0753346853,-0.1647321067,0.031732,-0.057557,0.042096,-1.8541433154999998,-9.579429919499999,0.9834108619999998,-2.0585,1.3551,2.4478,-0.00029999999999996696,-9.999999999998899e-05,-0.00043000000000004146,0.001485000837063044,0.0020489924099607038,-0.0016618114181592425
150000000000.0,3,0.11868007829999999,-0.09690931529999999,-0.14591314535,0.03708,-0.054404,0.043161,-1.8555162464999997,-9.578939586999999,0.9853721919999999,-2.059,1.3549,2.4478,-0.00029999999999996696,-0.00029999999999996696,-2.999999999997449e-05,-0.002072138592158712,0.0005137451142802618,-7.064359329556069e-05
150000000000.0,3,0.1014399876,-0.10496057495,-0.1031855713,0.02968,-0.045817,0.04206,-1.8572814435,-9.578351188,0.9875296549999999,-2.0595,1.3546,2.4479,-0.0008000000000001339,-0.0005999999999999339,2.0000000000020002e-05,-0.00039747990599914296,-3.0252447648759784e-05,-0.0005946542995762805
150000000000.0,3,0.10323460455,-0.10789276329999999,-0.08755377119999999,0.026473,-0.044726,0.044182,-1.8590466404999997,-9.577860855499999,0.9893929184999999,-2.0599,1.3544,2.4478,-9.999999999998899e-05,-5.0000000000105516e-05,-0.0001300000000000745,0.0013120968016064882,-0.00026566631758995207,-0.0005793014011881148
150000000000.0,3,0.08584741409999999,-0.11815051919999998,-0.1193861571,0.024319,-0.045774,0.045242,-1.8613021699999999,-9.577370522999999,0.99047165,-2.0598,1.3541,2.4473,-9.999999999998899e-05,-4.999999999988347e-05,-0.00012999999999996348,0.0013122163913230622,-0.0002649132290397649,-0.0005796365515742252
150000000000.0,3,0.06436104395,-0.12285771119999998,-0.10192051344999999,0.023236,-0.045766,0.047371,-1.864048032,-9.5766840575,0.991648448,-2.0597,1.3538,2.4468,-0.0004999999999999449,-0.000300000000000189,-9.999999999998899e-05,0.0019161115200829748,0.002595249133406252,-0.002115922672728754
150000000000.0,3,0.069038816,-0.09277090899999998,-0.09138817134999999,0.027505,-0.043672,0.049506,-1.8668919605,-9.575899525499999,0.993413645,-2.0598,1.3534,2.4464,-0.00029999999999996696,-0.00019999999999997797,-0.00019000000000002348,0.0014677222253052236,0.0005376180663621,-0.0010007067138886327
150000000000.0,3,0.0789435325,-0.04914112314999999,-0.11204097625,0.033839,-0.050119,0.051659,-1.8699320219999997,-9.5751149935,0.9954730414999999,-2.06,1.3531,2.4462,-0.00039999999999995595,-0.00029999999999996696,-9.99999999995449e-06,-0.0003445286814462989,-6.002256770942793e-06,-0.00018691409439774986
150000000000.0,3,0.0949087587,-0.0118268199,-0.12391682939999998,0.04546,-0.059811,0.058096,-1.8733643494999999,-9.5741343285,0.998709236,-2.0606,1.3526,2.4462,-0.000500000000000167,-0.00029999999999996696,-0.00014999999999998348,-0.0018413827105863145,0.0009722560186564699,3.963811269880324e-05
150000000000.0,3,0.1042643028,0.00556037055,-0.12430909539999999,0.051781,-0.065197,0.064517,-1.877188943,-9.5729575305,1.0027299625,-2.0614,1.352,2.4464,-0.0009999999999998899,-0.0006999999999999229,-0.000320000000000098,-0.002080106443341334,-0.00011730888027638997,-0.0017009165734074294
150000000000.0,3,0.13983302235,0.0044522191,-0.12687843769999999,0.050686,-0.067319,0.065579,-1.880523204,-9.571878799,1.006946822,-2.0624,1.3515,2.4467,-0.000300000000000189,-0.00029999999999996696,0.00010999999999994348,-0.0007885221500265605,3.353615313739233e-05,-0.00040762577508113296
150000000000.0,3,0.16999827774999998,-0.028664837949999997,-0.15641606749999998,0.049606,-0.06731,0.066637,-1.883465199,-9.570898134,1.0103791494999999,-2.0632,1.3511,2.4468,-0.00029999999999996696,-0.000300000000000189,0.0001100000000000545,-0.0007885439159043273,3.3217481989256115e-05,-0.0004076564675976613
150000000000.0,3,0.16840960045,-0.05563312545,-0.18680687585,0.051726,-0.067327,0.0677,-1.8865052605000001,-9.569917468999998,1.0135172774999999,-2.0638,1.3506,2.4468,-0.0006999999999999229,-0.0004999999999999449,0.00021000000000004349,-0.00212498910486425,-0.004324022000390615,0.00025493648101981847
150000000000.0,3,0.17013557085,-0.10913820784999999,-0.220649625,0.050677,-0.063056,0.068749,-1.8894472555,-9.569132937,1.0159689399999998,-2.0641,1.3503,2.4466,-0.0016000000000000458,-0.0011999999999998678,0.000500000000000056,-0.008857656887825804,0.00030427305339530974,0.0009471514705303719
150000000000.0,3,0.17610782069999997,-0.17244994025,-0.23115254715,0.041062,-0.065103,0.065524,-1.8918989179999999,-9.568544538,1.017341871,-2.0642,1.35,2.446,-0.00039999999999995595,-0.00020000000000020002,-0.00017000000000000348,0.00022914703959209248,0.002053149369362739,-0.0009648400994821671
150000000000.0,3,0.18347261485,-0.20810691965,-0.25650273739999996,0.02816,-0.072459,0.070842,-1.8944486469999997,-9.5680542055,1.017145738,-2.0635,1.3497,2.4447,-0.00039999999999995595,-0.00019999999999997797,-0.00017000000000000348,0.00022720843167856053,0.0020533590235272126,-0.0009646118352684141
150000000000.0,3,0.1460406318,-0.20323301459999998,-0.2499518952,0.023712,-0.089477,0.07726,-1.8979790409999997,-9.56736774,1.0166554054999999,-2.0626,1.3494,2.4429,-0.0006999999999999229,-0.00029999999999996696,-0.00026999999999999247,0.002310517044790128,0.0017237421587532609,-0.0021213559275654603
150000000000.0,3,0.1506105307,-0.14130401985,-0.22254230845,0.028887,-0.10338,0.084757,-1.902293967,-9.566387075,1.0174399374999998,-2.0619,1.349,2.4412,-0.000600000000000156,-0.0004999999999999449,0.0006399999999999739,-0.0003482004200152655,-0.003389957776990915,-0.00041327820431691364
150000000000.0,3,0.1787752295,-0.0712158923,-0.20279171534999998,0.03942,-0.11519,0.091192,-1.906805026,-9.5653083435,1.019695467,-2.0619,1.3485,2.44,-0.0026999999999999247,-0.0015000000000000568,0.0006399999999999739,-0.012770067192710455,-0.008705348296311755,0.0030640202345169065
150000000000.0,3,0.20122265134999998,-0.0189268345,-0.2042921328,0.0457,-0.1259,0.096549,-1.9114141514999998,-9.564033478999999,1.0229316615,-2.0622,1.3479,2.4392,-0.000600000000000156,-0.00039999999999995595,0.00012500000000004174,-0.0030603611864441493,0.0016407669120366286,-0.0009125870046635676
150000000000.0,3,0.20204640994999998,-0.011581653649999999,-0.20592003669999998,0.049974,-0.12593,0.093345,-1.9160232769999999,-9.562660547999998,1.0268543215,-2.0628,1.3473,2.4385,-0.0005999999999999339,-0.00039999999999995595,0.00012499999999993072,-0.003062464331038406,0.001637983422166922,-0.0009178179554796273
150000000000.0,3,0.19830026964999997,-0.0268898343,-0.21703097115,0.046796,-0.12377,0.090124,-1.9203382029999998,-9.561483749999999,1.030286649,-2.0632,1.3467,2.4377,-0.0005999999999999339,-0.00039999999999995595,-0.00014999999999998348,0.003728506753829741,-0.003305240048206315,-0.0010265034901877357
150000000000.0,3,0.1857967909,-0.06151711544999999,-0.22165970995,0.041557,-0.11307,0.085817,-1.924456996,-9.560306952,1.033032511,-2.0634,1.3462,2.4368,-0.0010999999999998789,-0.000600000000000156,-0.00021000000000004349,-0.0018903890600614481,0.003434677843377809,-0.0021990907667785997
150000000000.0,3,0.16005433465,-0.10788295665,-0.1988592487,0.032047,-0.10233,0.082571,-1.9284777224999998,-9.559326287,1.0348957745,-2.0633,1.3457,2.4356,-0.0012000000000000899,-0.0007999999999999119,9.00000000000345e-05,-0.0034966139800711726,0.001037984302202588,-0.0007570427775753785
150000000000.0,3,0.13573384265,-0.13436091165,-0.18434540669999996,0.03093,-0.10871,0.080438,-1.9325965154999998,-9.5582475555,1.0368571045,-2.0632,1.3453,2.4344,-0.0009000000000001229,-0.0004999999999999449,-0.00010999999999994348,0.0027485803932880692,-0.0004382897044705736,-0.0006651815681610884
150000000000.0,3,0.105127288,-0.11909195759999999,-0.16243735059999997,0.040393,-0.12052,0.087942,-1.937597907,-9.556972690999999,1.0398971659999998,-2.0634,1.3446,2.4334,-0.0020999999999999908,-0.001100000000000101,-0.000500000000000056,-0.0002016113631360117,0.002414212306474761,-0.003591013472981519
150000000000.0,3,0.0522890578,-0.06192899475,-0.15103221665,0.056346,-0.12597,0.087976,-1.943874163,-9.5551094275,1.0447024244999998,-2.0639,1.3438,2.4328,-0.0011499999999999844,-0.0007999999999999119,9.00000000000345e-05,-0.00103600883383681,-0.000741951553158815,-0.0013275731094992693
150000000000.0,3,0.02837063845,0.01005181625,-0.11835645885,0.076541,-0.1336,0.090158,-1.950738818,-9.552853897999999,1.052253545,-2.0655,1.3428,2.433,-0.0011499999999999844,-0.0008000000000001339,9.00000000000345e-05,-0.0010349202367463395,-0.0007433145123598717,-0.0013266757842953503
150000000000.0,3,0.06779337145,0.0602716709,-0.06940166205,0.089301,-0.13797,0.091253,-1.9573092734999997,-9.5504022355,1.0623543944999998,-2.0681,1.3417,2.4343,-0.00024999999999986144,-0.00019999999999997797,0.00011999999999989797,0.0037353223422831316,-0.003110424630885067,-0.0020773914483021017
150000000000.0,3,0.0774921483,0.08201301395,-0.04865079065,0.092508,-0.13906,0.088056,-1.9633893964999998,-9.547950573,1.0735339755,-2.0712,1.3406,2.436,-0.0002500000000000835,-0.00019999999999997797,0.00012000000000000899,0.003740464101207097,-0.003102696123122639,-0.0020883191750353802
150000000000.0,3,0.10484289515,0.09594826359999999,-0.0658810747,0.086236,-0.12728,0.080549,-1.968586921,-9.545695043499999,1.0837328915,-2.074,1.3396,2.4376,-0.0009999999999998899,-0.0007999999999999119,-0.0005399999999999849,-0.004816161860144996,-0.001081986842768723,0.001185632048088081
150000000000.0,3,0.11829761895,0.0661164343,-0.07332432205,0.07995,-0.11975,0.068778,-1.9724115144999999,-9.54383178,1.0929511424999998,-2.0768,1.3388,2.4392,-0.0023000000000001908,-0.0009000000000001229,-9.999999999998899e-05,-0.005869447693620966,0.01021484664574368,-0.0014560970477162094
150000000000.0,3,0.12282829124999999,0.01844630865,-0.08513152865,0.077902,-0.11333,0.061286,-1.9753535094999999,-9.542262716,1.101482928,-2.0795,1.3381,2.4408,-0.00039999999999995595,-0.0004999999999999449,0.00024000000000001798,0.00915021385691972,-0.006422109436742041,-0.004244113961591189
150000000000.0,3,0.0847490693,-0.020397831999999998,-0.10474482864999998,0.074719,-0.11117,0.060205,-1.9785897039999998,-9.540693652,1.1094263144999998,-2.0818,1.3374,2.4421,-0.0013999999999998458,-0.0007999999999999119,-9.00000000000345e-05,-0.0021609849702444173,-0.00040642822698733205,-0.0010431409638695932
150000000000.0,3,-0.0024222425499999998,-0.0711570524,-0.13269378115,0.075715,-0.11651,0.064486,-1.983296896,-9.5388303885,1.1166832354999998,-2.0836,1.3366,2.4428,-0.0018000000000000238,-0.001000000000000112,-0.0005299999999999194,-0.008242075645141789,0.008290303066188276,0.0005475285031089072
150000000000.0,3,-0.056790310149999995,-0.10460753554999999,-0.1633395624,0.075668,-0.11865,0.068761,-1.9891808859999998,-9.536869058499999,1.123449824,-2.0849,1.3357,2.4429,-0.0016000000000000458,-0.0009999999999998899,0.00018999999999991246,-0.004004371058683898,0.0029399407605090744,-0.0009908095726838262
150000000000.0,3,-0.0528774568,-0.09852741255,-0.135135637,0.078809,-0.124,0.070912,-1.9952610089999998,-9.5347115955,1.1310009445,-2.0865,1.3347,2.4434,-0.0012000000000000899,-0.0008000000000001339,-0.00044999999999995044,-0.0009765157975558658,0.00043321684583741416,-0.0018159597252798143
150000000000.0,3,-0.0418743955,-0.03667687099999999,-0.07020580735,0.081938,-0.13255,0.070934,-2.0011449989999996,-9.532357999499999,1.1402191954999998,-2.0887,1.3337,2.4444,-0.0017000000000000348,-0.0009999999999998899,-2.0000000000020002e-05,0.017344755882507945,-0.006091590346711362,-0.00790715388314922
150000000000.0,3,-0.00140235095,0.032469818149999996,-0.04949416255,0.089372,-0.13794,0.068823,-2.00644059,-9.5300044035,1.1508103774999998,-2.0916,1.3327,2.4459,-0.0016000000000000458,-0.0010499999999999954,-0.00024500000000005073,-0.005355895964207713,0.0025315363185027806,-0.0005649256419659743
150000000000.0,3,-0.009218250999999998,0.09739964779999999,-0.02554632325,0.098942,-0.14335,0.066716,-2.0116381144999997,-9.5274546745,1.1627744905,-2.0949,1.3316,2.4479,-0.0015999999999998238,-0.0010499999999999954,-0.0002449999999999397,-0.005359056673591933,0.0025284939328571454,-0.0005787691304734999
150000000000.0,3,-0.04972952215,0.18156031809999998,0.0019319100499999998,0.10428,-0.14339,0.06673,-2.0178163039999997,-9.524512679499999,1.1760134679999998,-2.0985,1.3303,2.4501,-0.00045000000000006146,-0.000300000000000189,3.999999999992898e-05,0.004539335185737681,-0.002978496098908101,-0.0018719849456414472
150000000000.0,3,-0.14867862065,0.23056414814999998,0.02454604495,0.10654,-0.13168,0.061386,-2.0255635575,-9.521080351999998,1.189938911,-2.1019,1.3289,2.4523,-0.00045000000000006146,-0.00029999999999996696,4.0000000000040004e-05,0.004543285330879776,-0.002970042136246409,-0.0018849029378618098
150000000000.0,3,-0.20541989754999998,0.22568043644999997,0.040020938650000004,0.10773,-0.1189,0.057108,-2.03389921,-9.517549958,1.2039624205,-2.1053,1.3274,2.4545,-0.0018000000000000238,-0.0011999999999998678,-0.0006300000000000194,-0.011495494723516408,0.00843449829156584,7.545047598078725e-05
150000000000.0,3,-0.22718085389999998,0.20108535824999998,0.06524364245,0.11117,-0.09122,0.053876,-2.042529062,-9.513921497499998,1.2180839964999999,-2.1085,1.3259,2.4569,-0.0022999999999999687,-0.0018000000000000238,6.0000000000060005e-05,0.00516302586866102,-0.0063211039373276545,-0.003429244848694335
150000000000.0,3,-0.2883547366,0.1707730031,0.10863806869999999,0.12419,-0.06788,0.048537,-2.0518453795,-9.5099988375,1.233284304,-2.112,1.3242,2.4597,-0.0015499999999999403,-0.001100000000000101,-0.0004850000000000687,-0.006448906143817323,0.004849824932231739,0.0006473928692303232
150000000000.0,3,-0.31568587014999994,0.14816867485,0.1763431803,0.13823,-0.05094,0.042127,-2.0552777069999997,-9.5074491085,1.2472097469999999,-2.1162,1.3231,2.4635,-0.0015499999999999403,-0.0010999999999998789,-0.0004849999999999577,-0.006449863353748642,0.004853859726334786,0.0006162360434265324
150000000000.0,3,-0.33520110365,0.15080666369999998,0.24254787445,0.14051,-0.033908,0.041033,-2.0587100345,-9.504801313,1.261331323,-2.1205,1.322,2.4675,-0.0004999999999999449,-0.000400000000000178,-0.000160000000000049,0.001072206004022913,0.00025733511874781456,-0.0011950986917672601
150000000000.0,3,-0.38062550645,0.1224458319,0.23705615044999997,0.13738,-0.023228,0.043144,-2.0623384949999997,-9.5021535175,1.2750606329999998,-2.1245,1.321,2.4714,-0.000500000000000167,-0.00039999999999995595,-0.00015999999999993797,0.0010719277178834474,0.00025860363739016456,-0.0011948561569115057
150000000000.0,3,-0.3989541353,0.059673465249999995,0.20881299844999998,0.13322,-0.010411,0.04527,-2.0735180759999996,-9.4974463255,1.2919280709999998,-2.128,1.319,2.4749,-0.0007999999999999119,-0.0008999999999999009,-0.000160000000000049,0.0020043948167973724,-0.0023466931271387548,-0.000479345703032763
150000000000.0,3,-0.35011701829999997,0.0097281968,0.24801017849999998,0.13437,0.001302,0.045251,-2.0777349355,-9.494798529999999,1.304676716,-2.1315,1.3179,2.4785,-0.0008000000000001339,-0.0014000000000000679,5.0000000000105516e-05,-0.009716630976386975,-0.012184673733298679,0.007420337779656894
150000000000.0,3,-0.30766403044999996,0.017906942899999997,0.28709948539999997,0.13448,0.015151,0.047362,-2.0823440609999997,-9.492052668,1.3171311615,-2.1348,1.3168,2.482,-0.0022999999999999687,0.0031000000000001027,-0.005990000000000051,-0.007388956003246072,0.011223694419577823,-0.004300509768477845
150000000000.0,3,-0.27300732935,0.057221802749999995,0.3036727239,0.13458,0.032193,0.053746,-2.087639652,-9.489208739499999,1.3294875405,-2.1378,1.3157,2.4855,-0.0010999999999998789,-0.0009500000000000064,-0.00018499999999999073,-0.0008163460343026951,0.00040106133324613324,0.0011583108541572962
150000000000.0,3,-0.2879624706,0.060193217699999996,0.2670154662,0.14114,0.052378,0.058007,-2.099015366,-9.484207348,1.3468453109999998,-2.1413,1.3137,2.4894,-0.001100000000000101,-0.0009500000000000064,-0.00018499999999999073,-0.0008159182102605023,0.00040199740541502216,0.0011580388564067512
150000000000.0,3,-0.2778812344,0.06051683715,0.29671980904999995,0.14552,0.070452,0.06332,-2.105880021,-9.4809711535,1.35920169,-2.144,1.3123,2.4929,-0.0005500000000000504,-0.0004999999999999449,-0.00012499999999993072,-0.003230052899123148,0.0009494944419745632,0.0001691082912107511
150000000000.0,3,-0.28308856555,0.07797267414999999,0.3558441019,0.14345,0.085375,0.075031,-2.1138234075,-9.4774407595,1.371165803,-2.1462,1.311,2.4961,-0.0005499999999998284,-0.000500000000000167,-0.00012500000000004174,-0.0032302867125979517,0.0009500264821322713,0.0001660336345246094
150000000000.0,3,-0.30799745654999994,0.14439311459999998,0.40773108705,0.14904,0.11517,0.071786,-2.1222571264999996,-9.473812299,1.3830318494999998,-2.1483,1.3095,2.4993,-0.001100000000000101,-0.0009999999999998899,-0.00021000000000004349,-0.002217957557916872,0.0008857943566669135,0.0015647447318776209
150000000000.0,3,-0.31433255244999997,0.0707647864,0.47898620594999997,0.16548,0.15767,0.056815,-2.136084503,-9.467536042999999,1.4045084129999998,-2.1524,1.3071,2.505,-0.0008999999999999009,-0.0009000000000001229,-5.999999999994898e-05,0.004663615048710046,-0.0015223493577225522,0.0033834242736507925
150000000000.0,3,-0.17533309534999997,-0.0063154826,0.3824397367,0.18066,0.17887,0.04186,-2.1428510915,-9.464103715499999,1.4175512575,-2.1552,1.3057,2.5097,-0.0008000000000001339,-0.0005999999999999339,-0.00038000000000004697,-0.0022840907013379486,0.0027647237753460896,-0.000680525836832313
150000000000.0,3,-0.19241627965,0.08925032164999999,0.41024158945,0.18282,0.18205,0.041858,-2.149421547,-9.460573321499998,1.4308883015,-2.1581,1.3043,2.5146,-0.0018000000000000238,-0.0018000000000000238,-0.00043000000000004146,-0.0014484893294950396,0.0008942168427055197,0.003902984222476036
150000000000.0,3,-0.2542668212,0.14528551974999998,0.4746026334,0.17965,0.18634,0.042913,-2.1560900689999998,-9.4570429275,1.4440292124999998,-2.1609,1.303,2.5194,-0.0004499999999998394,-0.00039999999999995595,-0.00012999999999996348,-0.0016707602774306274,0.0006574902637468405,0.0008442312735224
150000000000.0,3,-0.26339681235,0.14938469945,0.42945281679999997,0.19064,0.21715,0.033288,-2.168250315,-9.450864738,1.466486441,-2.1655,1.3006,2.5261,-0.00045000000000006146,-0.00039999999999995595,-0.00012999999999996348,-0.0016703562290127927,0.0006588882611986424,0.0008432003431031454
150000000000.0,3,-0.2107841351,0.14323592989999998,0.43029618869999997,0.20823,0.2703,0.019363,-2.1787434305,-9.4448826815,1.4892378689999999,-2.1704,1.2983,2.5337,-0.0007999999999999119,-0.0009000000000001229,-0.000200000000000089,-0.001987674817040652,0.00022549818326966786,0.004444541536395175
150000000000.0,3,-0.0923198031,0.0997532438,0.44502577699999996,0.21829,0.31285,0.001166,-2.1859022849999996,-9.4395870905,1.512381563,-2.1761,1.2963,2.5426,-0.0008000000000001339,-0.0006999999999999229,-0.00019999999999997797,5.5199404896066895e-05,0.00048062918323066306,0.0030086046615749318
150000000000.0,3,-0.062566427,0.05415232129999999,0.4255497701,0.20986,0.31613,-0.008457,-2.1912959425,-9.434781832,1.5341523259999998,-2.1816,1.2945,2.5515,-0.0006999999999999229,-0.0006999999999999229,-0.00017999999999995797,0.000591791471381109,0.0005063418837942812,0.0020484455411660107
150000000000.0,3,-0.1501398115,0.08976026744999999,0.42195072955,0.19471,0.29067,-0.002024,-2.1984547969999997,-9.429682373999999,1.5550404904999997,-2.1864,1.2926,2.5595,-0.0008000000000001339,-0.0008000000000001339,-0.0002300000000000635,-0.0032536259281461533,0.0020244607799153602,0.0021100188455043245
150000000000.0,3,-0.3586291905,0.13863661105,0.39032428329999996,0.17758,0.28972,0.011846,-2.2109092425,-9.4237003175,1.573771192,-2.1894,1.2904,2.5655,-0.0005999999999999339,-0.0006999999999999229,-0.00024999999999997247,-0.0007534141758631652,0.00033268414893483644,0.0026356414324681943
150000000000.0,3,-0.5415134063499999,0.08719092514999999,0.28122530205,0.16717,0.32497,0.020335,-2.2279728135,-9.4172279285,1.5880889009999999,-2.19,1.288,2.5695,-0.0011999999999998678,-0.0016000000000000458,-9.00000000000345e-05,-0.001114324508327158,-0.0004860919400579977,0.008920761545577527
150000000000.0,3,-0.57434607055,-0.0414821295,0.17343060524999998,0.16214,0.35805,0.014959,-2.2451344509999998,-9.411442005,1.5983858834999998,-2.1895,1.2859,2.5727,-0.0002500000000000835,-0.00029999999999996696,-0.00013499999999999623,-0.0004014073573672672,0.0008475849796623081,0.0011443323398379057
150000000000.0,3,-0.6259192428999999,-0.12570163969999998,0.09703680174999998,0.15593,0.37942,0.010671,-2.2621980219999998,-9.406048347499999,1.6058389375,-2.1881,1.284,2.5753,-0.0002500000000000835,-0.00029999999999996696,-0.00013499999999999623,-0.0004004748534560676,0.0008480367275984779,0.001144124357190357
150000000000.0,3,-0.72083780825,-0.027488039949999998,0.1615743654,0.14655,0.40188,0.002076,-2.269062677,-9.403596684999998,1.6107422625,-2.1881,1.2831,2.5794,-0.0004999999999999449,-0.0008000000000001339,-0.00021999999999999797,-0.001569760645373064,0.0007544271332500241,0.005136562968214964
150000000000.0,3,-0.7994381079999999,0.08736744485,0.3284247085,0.14257,0.42325,-0.020384,-2.274554401,-9.4015372885,1.614762989,-2.1881,1.2824,2.5838,-0.00019999999999997797,-0.0005999999999999339,-0.00013999999999991797,0.0007967705374087863,0.0010573601377841246,0.003056004543607216
150000000000.0,3,-0.8111472480999999,0.2026250023,0.4984916328,0.14607,0.4403,-0.054565,-2.2773983295,-9.400262424,1.6183914495,-2.1886,1.2819,2.5889,-0.00029999999999996696,-0.0007999999999999119,4.999999999999449e-05,0.003366654780338818,0.0007153522474705465,0.0031522075216372514
150000000000.0,3,-0.9522943615499999,0.49895254535,0.5972838249,0.14962,0.45842,-0.087625,-2.2966193635,-9.39280937,1.6342782224999999,-2.1893,1.2793,2.5943,9.999999999998899e-05,-0.000700000000000145,-6.0000000000060005e-05,0.0001460099174184215,0.0004654285520639956,0.004464796473273136
150000000000.0,3,-1.1180561665,0.72266184515,0.5681580744,0.16152,0.46368,-0.1111,-2.294363834,-9.3927113035,1.6383970154999998,-2.1909,1.2792,2.6009,0.00039999999999995595,-0.0005999999999999339,-0.00012999999999996348,8.486341876956516e-05,0.00036692063913279505,0.004196741896116407
150000000000.0,3,-1.2591738599999998,0.7523759946499999,0.5144764722999999,0.18091,0.47207,-0.13563,-2.2899508414999996,-9.3927113035,1.6440848725,-2.1935,1.2792,2.6085,0.00029999999999996696,-0.0006999999999999229,-0.00017999999999995797,-0.0003591880715214657,-0.0010000699773955457,0.005000706798609755
150000000000.0,3,-1.3562596949999999,0.7290753942499999,0.5227336716,0.19932,0.48899,-0.16231,-2.2832823195,-9.3931035695,1.6513417935,-2.197,1.2793,2.6172,0.000600000000000156,-0.0008000000000001339,-0.00024000000000001798,-0.0006392175945360012,0.0006924254488955839,0.004578543818243741
150000000000.0,3,-1.3657721455,0.6946736660499999,0.42340211375,0.21351,0.51553,-0.17934,-2.299071026,-9.386336981,1.6675227659999998,-2.1983,1.277,2.6241,0.0006999999999999229,-0.0008999999999999009,-0.00019999999999997797,-2.1157008103234176e-06,-0.0009475227864077507,0.0056269424954624725
150000000000.0,3,-1.3296836734999997,0.58387813435,0.21996315949999998,0.21901,0.53467,-0.18043,-2.2909315064999998,-9.38692538,1.6756622854999998,-2.2023,1.2772,2.6339,0.0008999999999999009,-0.0007999999999999119,-0.0002700000000001035,-0.0028024182066554992,-0.0005560499424954735,0.0057187125898781055
150000000000.0,3,-1.3094819745,0.4194304205,-0.021711923099999995,0.23284,0.54838,-0.15161,-2.28494945,-9.386729247,1.6845863369999998,-2.2061,1.2771,2.6435,0.0009000000000001229,-0.001000000000000112,-0.00017999999999995797,-0.0013486038415160273,-0.00011764458302221392,0.007108865460332847
150000000000.0,3,-1.3566519609999999,0.26969268165,0.006933301549999999,0.26376,0.5662,-0.11744,-2.2826939205,-9.385356316,1.6957659179999998,-2.2097,1.2766,2.6532,0.0010999999999998789,-0.0008999999999999009,-0.000260000000000038,0.0003815200725210133,-0.0004933635022270622,0.005012712023691357
150000000000.0,3,-1.321544154,0.08660252615,0.1803246802,0.30321,0.57651,-0.094943,-2.2923044375,-9.3801587915,1.7112604249999999,-2.2121,1.2748,2.6618,0.001100000000000101,-0.001000000000000112,-0.00027999999999994696,-0.002670483045783989,-0.0009042891689696742,0.007115346395242028
150000000000.0,3,-1.2331862375,0.046660040699999995,0.2447935973,0.33416,0.59328,-0.070368,-2.2952464325,-9.376236131499999,1.7285201289999998,-2.2163,1.2734,2.6723,0.0010999999999998789,-0.0010999999999998789,-6.0000000000060005e-05,0.00015076070334174574,-0.00015810419220430028,0.006774694795440794
150000000000.0,3,-1.1282550825,0.12522111385,0.21189228655,0.33316,0.60394,-0.066119,-2.2996594249999998,-9.3719212055,1.7460740325,-2.2202,1.2719,2.6828,0.0013000000000000789,-0.001000000000000112,-0.00021999999999999797,-0.0024263591241735494,0.0008174800583939934,0.006250325950505342
150000000000.0,3,-0.9401733421499999,0.1642810008,0.07875720615,0.28846,0.60433,-0.087546,-2.30260142,-9.368488877999999,1.7605878744999999,-2.2236,1.2707,2.6927,0.001000000000000112,-0.0044999999999999485,0.0033200000000001006,-0.011781345942635912,0.009234336867731452,-0.0046422689227698655
150000000000.0,3,-0.66305702645,0.2549532867,-0.05724141605,0.22129,0.59426,-0.11324,-2.312211937,-9.364566218,1.7688254605,-2.2238,1.2694,2.6994,0.0007999999999999119,-0.0028000000000001357,0.0015999999999999348,0.01373977951874017,-0.0007686816894549864,0.01382840154826459
150000000000.0,3,-0.46109887634999996,0.32786572945,-0.1476096958,0.16486,0.58943,-0.14535,-2.3097602745,-9.364664284499998,1.7717674554999998,-2.2251,1.2694,2.7069,0.0012000000000000899,-0.0014999999999998348,0.000260000000000038,-0.009352022188806819,-0.001555268075934979,0.011046620585731137
150000000000.0,3,-0.38937303824999997,0.34587073884999997,-0.2441071318,0.13182,0.57801,-0.16993,-2.3045627499999997,-9.366037215499999,1.7711790564999998,-2.2261,1.2699,2.714,0.0020999999999999908,-0.001100000000000101,-0.00021999999999999797,0.0011155735588435078,-0.007648282156199837,0.008223211131873853
150000000000.0,3,-0.44729111315,0.33249446824999995,-0.28306895224999995,0.12945,0.54606,-0.17308,-2.298090361,-9.3678024125,1.770296458,-2.2272,1.2705,2.721,0.0012999999999998568,-0.0008999999999999009,-0.00021999999999999797,-0.0037892223722342244,0.00939387479205922,0.0049664696233042704
150000000000.0,3,-0.5821325506499999,0.3019271402,-0.295376298,0.15479,0.51602,-0.16869,-2.300443957,-9.3676062795,1.7682370614999998,-2.2261,1.2704,2.7256,0.0033000000000000806,0.0043999999999999595,-0.006099999999999994,0.008230738147111394,-0.008537250963601917,0.0009705520011760171
150000000000.0,3,-0.70069494915,0.28691315905,-0.37461402999999993,0.19317,0.5157,-0.16435,-2.294167701,-9.368096612,1.7735326525,-2.2289,1.2706,2.7339,0.0017000000000000348,-0.0013000000000000789,-0.00024000000000001798,-0.0004326233557749859,-0.0007643399920336247,0.006438231917144321
150000000000.0,3,-0.7224264855499999,0.30199578675,-0.30966458705,0.22412,0.51545,-0.1675,-2.287695312,-9.368096612,1.782064438,-2.2326,1.2706,2.7432,0.0020000000000000018,-0.0010999999999998789,-0.00045000000000006146,-0.0025103683406917376,-0.00014673044447244266,0.004888330733924473
150000000000.0,3,-0.81574656695,0.45358698245,-0.08825004335,0.24993,0.53549,-0.17497,-2.28102679,-9.3676062795,1.7929498194999998,-2.237,1.2705,2.7533,0.0021999999999999797,-0.0012000000000000899,-0.0005099999999998994,-0.0007429021597702423,-0.0001952986627369313,0.005686208078096389
150000000000.0,3,-1.0021415635,0.6898389876,0.06122291595,0.28971,0.56714,-0.18239,-2.2852436495,-9.3636836195,1.8078559275000001,-2.2401,1.2691,2.7626,0.0021999999999999797,-0.0014000000000000679,-0.00038000000000004697,-0.0013707660397144217,-0.0012975783967363874,0.005453305424526267
150000000000.0,3,-1.222104723,0.812186753,0.183384355,0.33378,0.60195,-0.19198,-2.2783789945,-9.362212622,1.824625299,-2.2461,1.2686,2.7751,0.0021999999999999797,-0.0014999999999998348,-0.00041999999999997595,-0.0020589328998079637,-0.00011167823889834949,0.006317010062142359
150000000000.0,3,-1.345668513,0.7140221864999999,0.15171868215,0.36293,0.63689,-0.20587,-2.2709259404999997,-9.360251292,1.8437482665,-2.2527,1.2679,2.7887,0.0024999999999999467,-0.0015000000000000568,-0.00041000000000002146,-0.001049411695364988,8.516819922332886e-05,0.00669638685292373
150000000000.0,3,-1.3906810364999997,0.5054053210499999,-0.0499158485,0.3815,0.6847,-0.2166,-2.26337482,-9.358093829,1.8636557659999997,-2.2597,1.2672,2.803,0.0027000000000001467,-0.0015000000000000568,-0.00046000000000001595,-0.002176631217154057,-0.0016775731215712408,0.00727826833534051
150000000000.0,3,-1.4107846689999999,0.43854358135,-0.1179151596,0.38049,0.69749,-0.20371,-2.292206371,-9.347502646999999,1.8815038689999999,-2.2581,1.2636,2.8095,0.0027999999999999137,-0.0017000000000000348,-0.0005499999999999394,-0.001633953735178384,-0.0006307134402701031,0.008364684251614296
150000000000.0,3,-1.516892622,0.46506076295,-0.08388608410000001,0.37185,0.69435,-0.18878,-2.2874011125,-9.3448548515,1.90052877,-2.2641,1.2627,2.823,0.0009999999999998899,-0.006799999999999917,0.004149999999999987,0.006947056185051093,-0.019905505273764668,0.03535930921219732
150000000000.0,3,-1.565533606,0.40188632364999993,-0.213588837,0.36544,0.6944,-0.18665,-2.283184253,-9.3421089895,1.9188672055,-2.2697,1.2618,2.8362,0.0030000000000001137,-0.0017000000000000348,-0.0006599999999999939,0.005652488947423873,-0.004186097791190724,0.01299724401493263
150000000000.0,3,-1.5313083975,0.4165668787,-0.2191394009,0.36577,0.72638,-0.20059,-2.2785751275,-9.3395592605,1.9365191755,-2.2752,1.2609,2.8496,0.0035000000000000586,-0.0015000000000000568,-0.0006599999999999939,-0.0116019350823926,0.0029457698445449765,0.004302984603534732
150000000000.0,3,-1.4765872905,0.43499357405,-0.19938880779999998,0.36942,0.76475,-0.22727,-2.2954425654999997,-9.332400406,1.9510330174999997,-2.2753,1.2585,2.8581,0.0033999999999998476,-0.0018000000000000238,-0.00046000000000001595,0.0036341935715411555,-0.000991813787550866,0.009296639853823674
150000000000.0,3,-1.4051948785,0.42288236129999995,-0.1770492591,0.3666,0.78932,-0.26467,-2.2870088465,-9.331125541499999,1.9673120565,-2.2812,1.2581,2.8726,0.005700000000000038,0.0032000000000000917,-0.005090000000000039,-0.01401893507708496,0.02053475008093608,-0.02425886382311404
150000000000.0,3,-1.2688824435,0.4219409229,-0.21536384065,0.35089,0.80547,-0.29889,-2.2757311989999995,-9.3307332755,1.9820220315,-2.2873,1.258,2.8875,0.0038000000000000256,-0.0019000000000000128,-0.0006300000000000194,-0.003556479638002319,-0.0006857122908061619,0.009362478519810313
150000000000.0,3,-1.102463593,0.36548403884999997,-0.32759114324999994,0.32636,0.79184,-0.32132,-2.262001889,-9.3313216745,1.9949668095,-2.2936,1.2582,2.9024,0.008099999999999996,-0.0037000000000000366,-0.0011099999999999444,-0.0028990420914913884,-0.0018250901934633301,0.016787380993181777
150000000000.0,3,-0.9774876454,0.3073207977,-0.4165472654,0.30685,0.75258,-0.32341,-2.2497435765,-9.33200814,2.005852191,-2.2989,1.2584,2.9162,0.0020000000000000018,-0.001000000000000112,-0.00031000000000003247,0.00043540636563221824,-0.0007786254578674434,0.003923822536330057
150000000000.0,3,-0.8703794141,0.34469394085,-0.44685962055,0.30441,0.71955,-0.31482,-2.2347394019999998,-9.332988805,2.0179143704999998,-2.3052,1.2587,2.9305,0.0020000000000000018,-0.0009999999999998899,-0.00031000000000003247,0.0004322758535661997,-0.0007803140463871205,0.003923077594855773
150000000000.0,3,-0.8359188459999999,0.4752890989,-0.40678964864999995,0.3213,0.6981,-0.31262,-2.219833294,-9.333577204,2.031741747,-2.312,1.2589,2.9449,0.0041999999999999815,-0.0021999999999999797,-0.00041999999999997595,-0.0006626398871065753,-0.0016727901238882126,0.008272788012352539
150000000000.0,3,-0.88156880175,0.57985740785,-0.37232908054999997,0.34878,0.66378,-0.31678,-2.2041426539999995,-9.3334791375,2.0489033845,-2.3197,1.2589,2.9601,0.0043999999999999595,-0.0040999999999999925,0.0012499999999999734,0.01756931894013891,-0.005629689132909732,0.024008969150651982
150000000000.0,3,-0.992236847,0.6240363660999999,-0.3799292343,0.37309,0.63375,-0.31881,-2.1893346124999997,-9.332596538999999,2.0686147509999997,-2.3278,1.2586,2.9755,0.0043999999999999595,-0.0020000000000000018,-0.0009299999999999864,-0.0053654042591047,-0.003865811834808497,0.008230912108006194
150000000000.0,3,-1.1418863259999998,0.5978329973,-0.4858410543,0.38896,0.61125,-0.32728,-2.1716826425,-9.3317139405,2.091170046,-2.3373,1.2583,2.9919,0.0047000000000001485,-0.0022999999999999687,-0.0007300000000000084,0.0013547917828080625,0.000981698782357432,0.0075604378585856225
150000000000.0,3,-1.2424044884999998,0.42796220599999996,-0.5205664019499999,0.39194,0.58139,-0.33043,-2.1532461405,-9.330635208999999,2.1150002055,-2.3472,1.258,3.0085,0.0047999999999999154,-0.0023999999999999577,-0.00034999999999996145,-0.00329741876445544,-0.002537049132461222,0.005205239287716434
150000000000.0,3,-1.2395605600000001,0.1622608309,-0.5546150907499999,0.37873,0.5346,-0.32503,-2.134319306,-9.3295564775,2.1390264979999998,-2.3573,1.2576,3.0249,0.0044999999999999485,-0.0020999999999999908,-0.0013300000000000534,-0.007129470658720605,-0.002949742388314247,0.004173522422506348
150000000000.0,3,-1.1745424705,-0.10762798375,-0.6267528081499999,0.36209,0.45908,-0.31851,-2.1190209319999997,-9.32808548,2.160404995,-2.3659,1.2571,3.0391,0.005400000000000071,-0.0023999999999999577,-0.0007399999999999629,0.004736787272252796,-0.0013496262128493974,0.008015274364607361
150000000000.0,3,-1.0621582615,-0.22750447334999999,-0.59276295925,0.34828,0.34515,-0.29912,-2.0986230999999997,-9.326908682,2.185313886,-2.3764,1.2567,3.0542,0.0050000000000001155,-0.0027000000000001467,-0.00024999999999997247,-0.007873912297952756,-0.0033305397419618465,0.004939304163819713
150000000000.0,3,-0.9381237522999999,-0.14936508615,-0.44178958249999994,0.3419,0.2269,-0.27864,-2.077833002,-9.3252415515,2.211987974,-2.3875,1.2562,3.0685,0.00529999999999986,-0.0019000000000000128,-0.0009600000000000719,0.0004965661362263951,-0.004332680908905706,0.0054344327290318795
150000000000.0,3,-0.85938615945,-0.0382655483,-0.24782385214999997,0.33569,0.12252,-0.271,-2.055669973,-9.323378287999999,2.2404272589999996,-2.3992,1.2555,3.0823,0.0048000000000001375,-0.0024999999999999467,-0.0007999999999999119,-0.009003134686969894,-0.00044558305791198016,0.000895943833672419
150000000000.0,3,-0.8039785869499999,0.04366901245,-0.045257689749999996,0.32454,0.052298,-0.28364,-2.051747313,-9.317494298,2.2683762114999997,-2.4063,1.2536,3.0911,0.005599999999999827,-0.0020999999999999908,-0.0007900000000000684,0.0025816890373708823,-0.003896956082104497,0.0036117355228451054
150000000000.0,3,-0.8025958492999999,0.0701763874,0.031616639599999996,0.30943,0.017281,-0.30602,-2.0241906265,-9.3164155665,2.2972077625,-2.4193,1.2533,3.105,0.005300000000000082,-0.0029999999999998916,-0.0005749999999999922,-0.0068060860739811435,-0.001073458782983483,0.00044053948728040027
150000000000.0,3,-0.88103924265,-0.07740388845,0.05667263035,0.28378,0.00259,-0.32099,-1.9946726099999998,-9.316121367,2.3241760499999997,-2.4323,1.2532,3.1188,0.005600000000000049,-0.0019000000000000128,-0.0005749999999999922,-0.00021990232467961057,-0.002386386905161686,-0.00011602858791892601
150000000000.0,3,-1.1039345905,-0.38265548299999996,0.08030665684999999,0.23676,-0.004487,-0.31679,-1.9649584605,-9.3166116995,2.3475158769999998,-2.4447,1.2533,3.1317,0.005700000000000038,-0.0020999999999999908,-0.0005899999999999794,-0.004229788976002347,-0.004108342032500989,0.0038412453122873558
150000000000.0,3,-1.38666031,-0.7185038255499999,-0.07774712119999999,0.16517,-0.008166,-0.30082,-1.9610358005,-9.314552303,2.3587935245,-2.448,1.2527,3.1359,0.006099999999999994,-0.0026000000000001577,9.00000000000345e-05,0.0010276188266353792,-0.00429482055210717,0.00034421256469885364
150000000000.0,3,-1.9679985219999998,-1.179739995,-0.6343137353,0.091504,-0.001187,-0.28068,-1.9342636459999998,-9.317494298,2.3690905069999997,-2.4569,1.2536,-3.1379,0.005599999999999827,-0.0020999999999999908,-0.0006099999999999994,-0.005358410806177716,-0.0015543461706957196,2.6217109516224468e-05
150000000000.0,3,-1.9919267479999998,-1.1757192685,-0.6381677487499999,0.028427,0.001433,-0.25091,-1.91033542,-9.3215150245,2.3729151004999998,-2.4638,1.2549,-3.1307,0.006600000000000161,-0.0023999999999999577,0.00021999999999999797,0.0058031944434358,-0.00241836090318448,0.0012702220483520321
150000000000.0,3,-2.21238024,-1.337823193,-0.7705869436999999,-0.012412,-0.008931,-0.20826,-1.889937588,-9.325731884,2.3727189675,-2.469,1.2563,-3.1252,0.005900000000000016,-0.0025999999999999357,-0.000140000000000029,-0.004769327946129831,0.00036781987606593347,-0.001580674769082524
150000000000.0,3,-2.3811526864999997,-1.4220623165,-0.7861599039,-0.044631,-0.00871,-0.16562,-1.8731682165,-9.329850677,2.3695808394999998,-2.4727,1.2577,-3.1215,0.006799999999999917,-0.0022999999999999687,7.999999999996898e-05,0.006657510708193648,-0.0015699043561878678,0.00029071202606534285
150000000000.0,3,-2.5217800474999996,-1.4772737559999998,-0.7020090402499999,-0.080668,0.043764,-0.12949,-1.8609099040000001,-9.334165602999999,2.3624219849999997,-2.4744,1.2591,-3.1194,0.006399999999999961,-0.0030000000000001137,0.0010900000000000354,-0.00594276632153945,-0.003640196990048805,0.0010603531953474743
150000000000.0,3,-2.637400451,-1.5050265754999999,-0.46721822594999995,-0.11623,0.1474,-0.10625,-1.8533587834999998,-9.338774728499999,2.3501636725,-2.4738,1.2606,-3.1187,0.007000000000000117,-0.0022999999999999687,4.0000000000040004e-05,0.0026098921862607316,0.0016087264920334743,-0.0017690000393124627
150000000000.0,3,-2.7437045369999997,-1.406469743,-0.046424681100000004,-0.14086,0.27546,-0.097979,-1.849926456,-9.34377612,2.3329039684999997,-2.4712,1.2623,-3.119,0.007099999999999884,-0.0026999999999999247,0.0009799999999999809,0.00108978339323329,-0.0009344554478423195,0.002894940353646014
150000000000.0,3,-2.8440265664999997,-1.2186723955,0.46386435165,-0.15352,0.4088,-0.12706,-1.84757286,-9.349463977,2.3117216044999997,-2.4673,1.2642,-3.119,0.007500000000000062,-0.0027000000000001467,0.0010499999999999954,0.003745101558249253,1.011399921080347e-05,0.0017950566895743592
150000000000.0,3,-2.8760943119999998,-1.034013176,0.89184617095,-0.14579,0.54412,-0.17638,-1.844042466,-9.355936366,2.2882837109999996,-2.4633,1.2664,-3.1179,0.007800000000000029,-0.0023999999999999577,0.0012099999999999334,0.0019300954115917257,-0.001335487362815746,0.00827148389058463
150000000000.0,3,-2.7362514829999998,-0.86173975545,1.132864208,-0.18163,0.57748,-0.20959,-1.8380604095,-9.363585553,2.2616096229999996,-2.4592,1.2691,-3.1162,0.008099999999999996,-0.0021999999999999797,0.0009900000000000464,0.005133652789431675,0.0005268044301280916,0.004061095545169646
150000000000.0,3,-2.2662187484999996,-0.68045402355,1.1044249229999998,-0.25339,0.5461,-0.20432,-1.8310976879999998,-9.372607670999999,2.2295418775,-2.454,1.2722,-3.1158,0.008299999999999974,-0.0022999999999999687,0.0013900000000000023,0.0035392230786532863,-0.001673287357853992,0.008162903547590084
150000000000.0,3,-1.423533314,-0.9013586214499999,0.29265985595,-0.34653,0.51275,-0.19589,-1.8242330329999998,-9.383394985999999,2.1897268784999997,-2.447,1.2759,-3.1176,0.007900000000000018,-0.0023999999999999577,0.0014999999999999458,-0.00021082117315929239,-0.0006475023315832829,0.0018405335384286126
150000000000.0,3,-0.60864973225,-1.1287454149999998,0.0108657682,-0.444,0.4656,-0.1949,-1.81619158,-9.3960455645,2.1414781605,-2.4382,1.2804,-3.1218,0.008499999999999952,-0.0025000000000001688,0.0021500000000000963,0.011134203607356064,-0.0031307088460998944,0.00840875929300644
150000000000.0,3,0.2054297042,-1.0586278675,0.0020692031499999998,-0.53936,0.42163,-0.18539,-1.807757861,-9.4103632735,2.085089923,-2.4273,1.2855,-3.1286,0.007850000000000024,-0.0023999999999999577,0.0018299999999999983,0.0005238071904920538,0.0008766219723674862,0.0063068078887753565
