Time,placement_label,user_acc_x(m/s^2),user_acc_y(m/s^2),user_acc_z(m/s^2),rotation_rate_x(rad/s),rotation_rate_y(rad/s),rotation_rate_z(rad/s),gravity_x(m/s^2),gravity_y(m/s^2),gravity_z(m/s^2),attitude_roll(rad),attitude_pitch(rad),attitude_yaw(rad),target_delta_x,target_delta_y,target_delta_z,target_delta_roll,target_delta_pitch,target_delta_yaw
150000000000.0,3,-0.00222610955,-0.14728607635,-0.05225963785,-0.013106,-0.04887,0.021057,-1.9622125984999998,-9.5853139095,0.6650281630999999,-1.8976,1.3579,-1.3731,0.0,0.0,0.0,0.0,0.0,0.0
150000000000.0,3,-0.012836904849999999,-0.083748791,-0.0470523067,-0.017343,-0.046701,0.017843,-1.9636835959999999,-9.585117776499999,0.6635571656,-1.8967,1.3578,-1.3745,-9.999999999998899e-05,-0.00010000000000021103,5.500000000002725e-05,0.0005369893381812485,-0.00019697760535319908,-0.0005510714407264139
150000000000.0,3,-0.0211235241,-0.02842947835,-0.0491705431,-0.020518,-0.044541,0.0157,-1.9653507264999999,-9.5849216435,0.6616350622,-1.8955,1.3577,-1.3761,-9.999999999998899e-05,-9.999999999976694e-05,5.499999999991623e-05,-0.002339428781162445,0.0010331578178153222,-0.0011110147538944126
150000000000.0,3,-0.0309301741,-0.009924329800000001,-0.045787248850000004,-0.02258,-0.035997,0.014616,-1.9670178569999999,-9.584725510499998,0.65944817925,-1.8943,1.3576,-1.3778,-9.999999999998899e-05,-3.333333333355171e-05,2.0000000000020002e-05,-0.002886987486286241,9.638578829740396e-05,0.0008057756336685706
150000000000.0,3,-0.0562117178,-0.0004903325,-0.019505426849999997,-0.023588,-0.028529,0.014603,-1.96917532,-9.584431311,0.6574182027,-1.893,1.3575,-1.3794,-9.999999999998899e-05,-3.333333333310762e-05,4.0000000000040004e-05,0.0007379980001220865,1.8617621975192122e-06,-0.00100775958314836
150000000000.0,3,-0.07614863725,-0.0028341218499999994,0.004971971549999999,-0.022496,-0.025341,0.014604,-1.9716269825,-9.584039044999999,0.65568242565,-1.8918,1.3573,-1.3808,-9.999999999998899e-05,-3.333333333355171e-05,7.999999999996898e-05,-0.0008879054532848762,0.001124424985247563,-0.0008130649425752701
150000000000.0,3,-0.07735485519999999,-0.00208881645,0.010473502199999998,-0.023576,-0.026399,0.015675,-1.9743728445,-9.583548712499999,0.65421142815,-1.8908,1.3571,-1.3822,-4.999999999988347e-05,0.00010000000000021103,-3.500000000000725e-05,-0.0008521172827999912,0.00010861695735564503,0.0003182869769253749
150000000000.0,3,-0.06873480985,-0.0014513841999999999,0.00754131385,-0.025741,-0.029579,0.016748,-1.9769225734999998,-9.5831564465,0.6523579713,-1.8895,1.3569,-1.3837,-5.0000000000105516e-05,0.00010000000000021103,-3.500000000000725e-05,0.0032828766713624002,-0.0008953241689833025,6.79007756390071e-05
150000000000.0,3,-0.0624487472,0.01317033095,-0.030047575599999998,-0.026838,-0.03383,0.015689,-1.9793742359999997,-9.5827641805,0.64999456865,-1.8881,1.3567,-1.3855,-9.999999999998899e-05,4.999999999988347e-05,4.0000000000040004e-05,0.0011206367347824653,0.0005584384156378519,-0.0010200338155286204
150000000000.0,3,-0.04412992499999999,0.0292630436,-0.0513280061,-0.026826,-0.032763,0.014622,-1.9813355659999998,-9.582568047499999,0.6471800601,-1.8865,1.3566,-1.3875,-9.999999999998899e-05,4.999999999988347e-05,9.99999999995449e-06,-0.00020498501939347769,0.00012071706254168646,-0.000781990349217665
150000000000.0,3,-0.029223817,0.0396777059,-0.024340105299999998,-0.025738,-0.030639,0.013555,-1.983100763,-9.5823719145,0.644885304,-1.8852,1.3565,-1.3891,-9.999999999998899e-05,0.00010000000000021103,2.0000000000020002e-05,0.0005640732762293155,3.211360788357709e-05,-0.0004327528151453208
150000000000.0,3,-0.03296015065,0.041972461999999995,-0.0014513841999999999,-0.01826,-0.030699,0.011436,-1.9847678934999997,-9.582077714999999,0.64354179295,-1.8843,1.3564,-1.3903,-9.999999999998899e-05,0.0001499999999996504,2.0000000000020002e-05,0.0006370299903020182,-0.0006247115174298212,0.00020262853519081858
150000000000.0,3,-0.04598338184999999,0.01836785545,0.0114149406,-0.012883,-0.027543,0.00824,-1.986238891,-9.581881582,0.6427964875499999,-1.8838,1.3563,-1.3912,-5.0000000000105516e-05,0.0001500000000000945,-4.999999999999449e-05,0.0011110928959590094,-0.0007851576201010069,0.00015211073828869104
150000000000.0,3,-0.048042778349999996,0.0023928226,0.026311241949999998,-0.005381,-0.02547,0.005049,-1.9875137554999998,-9.581587382499999,0.6430220405,-1.8837,1.3561,-1.3915,-4.999999999988347e-05,5.000000000032756e-05,-1.0000000000065512e-05,0.0003705575445447362,-7.968424717330613e-05,0.0003710172057522776
150000000000.0,3,-0.0633705723,-0.0017455836999999998,0.0374417897,-0.004218,-0.016949,-0.000298,-1.9884944205,-9.5813912495,0.6435515996,-1.8838,1.356,-1.3916,-1.999999999990898e-05,4.999999999988347e-05,-9.99999999995449e-06,0.0002661195854201104,0.0006721863306988762,-0.0014120183068349057
150000000000.0,3,-0.07108840585,-0.0238497728,0.024085132399999997,-0.002086,-0.015903,0.001842,-1.989573152,-9.581097049999999,0.6440419320999999,-1.8839,1.3559,-1.3917,-2.0000000000131024e-05,0.00019999999999997797,-4.0000000000040004e-05,0.002700137035883232,-0.0011749067286201953,0.0007888678512086855
150000000000.0,3,-0.05814362785,-0.020044792599999996,0.015984839499999997,8.3e-05,-0.011659,0.001841,-1.990553817,-9.580900917,0.6445126513,-1.8839,1.3558,-1.3918,-1.999999999990898e-05,0.00019999999999997797,4.0000000000040004e-05,-0.0008710896836976456,-0.00042837613634705285,-7.330295173924029e-05
150000000000.0,3,-0.07161796494999999,-0.016896857949999997,0.028762904449999998,0.000118,-0.007396,0.001837,-1.9917306149999998,-9.580508651,0.64520892345,-1.8841,1.3557,-1.3917,-2.0000000000131024e-05,9.999999999976694e-05,-9.99999999995449e-06,-0.00032678735780766743,1.6035798862557016e-05,0.00044993030417384006
150000000000.0,3,-0.0463658412,-0.00189268345,0.03390158905,0.000174,6.1e-05,0.002894,-1.9927112799999998,-9.580312518,0.6459051956,-1.8842,1.3555,-1.3916,-1.999999999990898e-05,0.00010000000000021103,4.999999999999449e-05,0.0012982775514041034,-0.00035909128156874637,-0.0005929664425852188
150000000000.0,3,-0.022908334399999997,-0.0015592573499999998,0.030155448749999997,-0.005132,0.002238,0.000747,-1.993299679,-9.580214451499998,0.6459051956,-1.8842,1.3555,-1.3916,-3.333333333332966e-05,9.999999999976694e-05,-0.0001100000000000545,0.0007940379992257274,0.001146268791674121,0.00010629741998524622
150000000000.0,3,-0.0008629851999999999,-0.0060997363,0.02731152025,-0.006197,0.004375,0.003944,-1.993691945,-9.580116385,0.6456109961,-1.884,1.3554,-1.3918,-3.333333333332966e-05,0.00019999999999997797,-4.999999999999449e-05,0.0004619488223180923,0.00047741174925497454,-0.000817804834105651
150000000000.0,3,0.01152281375,-0.010012589649999999,0.02017227905,-0.006153,0.009702,0.003934,-1.993888078,-9.580116385,0.6451206635999999,-1.8837,1.3554,-1.392,-3.333333333332966e-05,0.00040000000000040004,-0.00019999999999997797,0.004622965210033136,-0.0010929768612932822,0.0004213357749458524
150000000000.0,3,0.0206135783,-0.0155925735,0.0453263363,-0.007217,0.011838,0.007129,-1.9941822775,-9.5800183185,0.6449441439,-1.8836,1.3554,-1.392,-9.999999999998899e-05,0.00019999999999997797,5.999999999994898e-05,0.0007820378088256863,-7.795567112589552e-05,0.0003030446788923058
150000000000.0,3,0.028664837949999997,-0.02731152025,0.06577320155,-0.01261,0.005486,0.009264,-1.9944764769999999,-9.5800183185,0.6447087842999999,-1.8834,1.3554,-1.3921,-9.999999999998899e-05,9.999999999976694e-05,8.000000000008001e-05,-0.001788276037665515,-0.0001352259120446231,0.0010194254028954575
150000000000.0,3,0.0418155556,-0.04823891135,0.047846645349999994,-0.014841,-0.006219,0.010345,-1.9945745434999997,-9.5800183185,0.64407135205,-1.8831,1.3554,-1.3925,-9.999999999998899e-05,0.00019999999999997797,2.999999999997449e-05,-0.0005318512490186666,0.0005782383576513617,0.00019087999132461064
150000000000.0,3,0.0549368533,-0.037069136999999995,-0.00022555294999999998,-0.014907,-0.013679,0.011422,-1.9945745434999997,-9.580116385,0.6427768742500001,-1.8826,1.3554,-1.3932,-9.999999999998899e-05,0.00019999999999997797,5.999999999994898e-05,6.246873227366834e-05,-0.0001387278354563204,-0.00018105327671014138
150000000000.0,3,0.05746696899999999,-0.0016377105499999999,-0.03772618255,-0.013896,-0.021145,0.010367,-1.9945745434999997,-9.580214451499998,0.64107051715,-1.8818,1.3555,-1.3942,-9.999999999998899e-05,0.00010000000000021103,-2.999999999997449e-05,0.0004993104974122531,0.00033683482872182147,0.00042446972667953276
150000000000.0,3,0.0569962498,0.02119217065,-0.050376761049999996,-0.008632,-0.029713,0.010389,-1.9944764769999999,-9.580312518,0.6398054592999999,-1.8812,1.3555,-1.395,-0.00010000000000021103,0.0002999999999997449,-0.00012999999999996348,0.002162637986938387,0.0009041206405631108,9.322754387852683e-05
150000000000.0,3,0.0324011716,0.026164142199999997,-0.07367736144999999,-0.004331,-0.026549,0.008254,-1.9947706765,-9.5804105845,0.6385502081,-1.8806,1.3556,-1.3959,-9.999999999998899e-05,0.00019999999999997797,1.333333333330966e-05,0.00045828041278883624,-0.0012338665736966181,-0.001120815144827425
150000000000.0,3,-0.00285373515,0.0163574922,-0.0659203013,-0.0011,-0.024441,0.005054,-1.9953590755,-9.580312518,0.6376872229,-1.8801,1.3555,-1.3966,-9.999999999998899e-05,0.00010000000000021103,1.333333333330966e-05,-0.0008480305612617034,-0.0002747321555411908,-0.0007295302949046345
150000000000.0,3,-0.018534568499999998,0.0030596748,-0.0324403982,0.003202,-0.021277,0.002923,-1.996045541,-9.580214451499998,0.6377264495,-1.88,1.3555,-1.3969,1.2499999999970868e-05,9.999999999976694e-05,1.333333333330966e-05,7.144471166986577e-05,0.0005229116291236569,-9.630509854474667e-05
150000000000.0,3,-0.0399130655,0.01726951065,-0.04606183504999999,0.005429,-0.010636,0.000775,-1.996830073,-9.5800183185,0.63757934975,-1.8799,1.3554,-1.3972,1.2499999999970868e-05,0.00019999999999997797,-6.999999999990347e-05,-0.0004929354140730258,0.0003151658298199411,-0.0007998686825549939
150000000000.0,3,-0.053161849649999995,0.02656621485,-0.08548456805,0.008688,-0.004266,-0.001362,-1.9976146049999999,-9.579920251999999,0.637039984,-1.8795,1.3553,-1.3976,1.2499999999970868e-05,0.00019999999999997797,-2.0000000000020002e-05,-0.0013565210617385581,0.0003187488637999003,-0.001084021570939786
150000000000.0,3,-0.09670337564999999,0.016279039,-0.11333545404999999,0.01299,-3.6e-05,-0.002424,-1.9990856025,-9.5796260525,0.6363142919,-1.879,1.3552,-1.3981,1.2500000000192912e-05,0.00010000000000021103,3.999999999992898e-05,-3.3098577707280086e-05,-0.00010289220005277322,-0.0002678766098331842
150000000000.0,3,-0.11908215094999998,0.034078108749999995,-0.12375011635,0.016266,0.007402,-0.006694,-2.0008507994999998,-9.579331853,0.6355101465999999,-1.8783,1.3551,-1.3986,1.2499999999970868e-05,0.00019999999999997797,4.999999999999449e-05,-0.0012351504494463317,0.0005012122975618372,0.0007880684432963747
150000000000.0,3,-0.1100109997,0.04668946064999999,-0.1289182209,0.018468,0.015912,-0.007766,-2.002321797,-9.5790376535,0.6348432944,-1.8778,1.3549,-1.3989,1.2499999999970868e-05,0.00010000000000021103,-4.999999999999449e-05,-0.000657827706819436,0.00011216331387120526,0.00020605745594570735
150000000000.0,3,-0.09058402605,0.027429200049999998,-0.1336254129,0.022839,0.027602,-0.010976,-2.0030082625,-9.578939586999999,0.63416663555,-1.8774,1.3549,-1.399,1.2499999999970868e-05,9.999999999976694e-05,2.0000000000020002e-05,0.0009760888898988629,0.0004235738568729719,0.00015979885502170887
150000000000.0,3,-0.07859049309999999,-0.010012589649999999,-0.12839846845,0.025032,0.035046,-0.012049,-2.0033024619999997,-9.578939586999999,0.6337253362999999,-1.8772,1.3549,-1.3989,1.2499999999970868e-05,5.000000000032756e-05,-4.999999999999449e-05,0.00148646520420459,-0.00020037779787096532,0.0010353499351798412
150000000000.0,3,-0.0716473849,-0.03309744375,-0.09651704929999999,0.023995,0.039319,-0.012054,-2.003498595,-9.5788415205,0.6335684299,-1.8771,1.3548,-1.3986,9.999999999998899e-05,4.999999999988347e-05,1.0000000000065512e-05,-0.00043842245358582943,0.000351195434764362,0.00038045182421964086
150000000000.0,3,-0.07320664225,-0.04129580315,-0.07295166935,0.021871,0.043595,-0.007793,-2.004086994,-9.578743454,0.6336468831000001,-1.877,1.3548,-1.3981,0.00010000000000021103,0.00019999999999997797,-1.0000000000065512e-05,-0.0008141344605714362,-8.849449110215346e-05,-0.0001894004520726078
150000000000.0,3,-0.0405603044,-0.02878251775,-0.09113319844999998,0.019712,0.04361,-0.003525,-2.0045773264999998,-9.578743454,0.63297022425,-1.8767,1.3548,-1.398,5.0000000000105516e-05,-6.666666666665932e-05,-2.999999999997449e-05,0.0010032140920279708,-0.0005724780938145546,0.000640831764917138
150000000000.0,3,-0.013386077249999998,-0.015268954049999998,-0.11213904275,0.014367,0.043654,-0.002466,-2.0047734595,-9.578743454,0.6315384533499999,-1.876,1.3548,-1.3982,4.999999999988347e-05,-6.666666666665932e-05,4.999999999999449e-05,-0.001151356312740992,0.0008697935447554705,-8.232235615368566e-05
150000000000.0,3,0.02209438245,-0.020329185450000002,-0.12479942789999998,0.013225,0.036203,-0.000321,-2.0044792599999997,-9.578939586999999,0.6298222896,-1.8752,1.3549,-1.3985,3.333333333332966e-05,-6.666666666665932e-05,0.000140000000000029,-0.0019460126699555325,0.0014286450151377306,-0.0009960112237243912
150000000000.0,3,0.043688625749999994,-0.04055049775,-0.12975178615,0.014254,0.03087,-0.002446,-2.0035966614999996,-9.5792337865,0.6281943857,-1.8746,1.355,-1.3988,3.333333333332966e-05,4.999999999988347e-05,4.999999999921734e-06,-0.0005862881196652125,-0.00023384858116548557,0.00011271206289720226
150000000000.0,3,0.08539630819999999,-0.0439926319,-0.14399104194999998,0.017428,0.02765,-0.003507,-2.0019295309999996,-9.5796260525,0.6267233882000001,-1.8742,1.3552,-1.3989,3.333333333332966e-05,4.999999999988347e-05,5.000000000032756e-06,-0.0011180580332834644,-0.00020110551727214876,-0.000195461231100591
150000000000.0,3,0.09856663914999998,-0.044963490249999995,-0.1373323266,0.02166,0.021227,-0.007762,-1.9996740014999999,-9.580214451499998,0.6258996296,-1.8741,1.3555,-1.3987,9.999999999998899e-05,2.4999999999941735e-05,-9.99999999995449e-06,5.244466247877888e-05,-0.0005873575286017285,-0.0004875527776930788
150000000000.0,3,0.10062603564999999,-0.025409030149999998,-0.11749347365,0.021614,0.014837,-0.009891,-1.9971242724999998,-9.580704784,0.6256642699999999,-1.8744,1.3557,-1.3982,4.999999999988347e-05,2.4999999999941735e-05,-1.0000000000065512e-05,-0.0002463399035652625,-0.0002887645940998773,0.0006062182526296311
150000000000.0,3,0.09197657035,-0.00659987545,-0.12208298584999999,0.018363,0.008472,-0.010957,-1.9945745434999997,-9.581293183,0.6253112305999999,-1.8746,1.356,-1.3979,5.0000000000105516e-05,2.5000000000385825e-05,2.0000000000020002e-05,-0.0002505230493587973,-8.86486857101243e-05,-0.00012402506144315595
150000000000.0,3,0.07282418289999999,-0.0215157901,-0.11510065104999999,0.015075,-0.001091,-0.009882,-1.9924170804999999,-9.5817835155,0.62477186485,-1.8747,1.3562,-1.3977,5.0000000000105516e-05,2.4999999999941735e-05,-2.999999999997449e-05,-0.0003256223942336156,5.144840603255041e-05,-5.114316924137441e-05
150000000000.0,3,0.0492489963,-0.046218741449999996,-0.13813647189999997,0.009664,-0.008507,-0.007746,-1.9906518835,-9.5821757815,0.62355584025,-1.8744,1.3564,-1.3981,4.999999999988347e-05,9.999999999976694e-05,-4.0000000000040004e-05,0.001275288384111617,0.0003571997801021798,-0.000588573448507379
150000000000.0,3,0.0316362529,-0.05545660575,-0.13449820475,0.007461,-0.01382,-0.003473,-1.9894750854999999,-9.582568047499999,0.62216329595,-1.8739,1.3566,-1.3986,9.999999999998899e-05,0.00010000000000021103,-0.00012999999999996348,0.00267539381181936,-0.0008759596463945307,-0.0007079675213645942
150000000000.0,3,0.03160683295,-0.06296849965,-0.13551809634999998,0.009556,-0.01597,-0.000265,-1.9885924869999998,-9.582862247,0.6209472713499999,-1.8735,1.3567,-1.3992,5.0000000000105516e-05,9.999999999976694e-05,4.0000000000040004e-05,-0.0006596672626741906,0.0003954295194676938,-2.623124775169572e-05
150000000000.0,3,0.02697809415,-0.041952848699999996,-0.1459425653,0.012764,-0.014929,-0.00133,-1.9878079549999998,-9.583058379999999,0.6199960263,-1.8731,1.3568,-1.3996,4.999999999988347e-05,-2.9999999999752447e-05,-4.0000000000040004e-05,-0.00032285945616816747,0.00016687153534067356,-5.665589196013343e-05
150000000000.0,3,0.028331411849999998,-0.00048052584999999995,-0.12049430854999998,0.016012,-0.009624,-0.00347,-1.9871214895,-9.5831564465,0.6196822135,-1.8731,1.3569,-1.3998,4.999999999988347e-05,-3.0000000000196536e-05,5.000000000032756e-06,-0.0012892292708484021,-0.0006947035827631343,0.0006996685584796936
150000000000.0,3,0.03576485255,0.032479624799999995,-0.11209000949999999,0.018198,-0.003247,-0.004546,-1.9861408244999998,-9.5833525795,0.6198096999499999,-1.8733,1.357,-1.3996,5.0000000000105516e-05,-3.0000000000196536e-05,4.999999999921734e-06,-0.0007450642848647604,0.0004960786549861318,0.0008463602664168235
150000000000.0,3,0.0063939358,0.035892338999999995,-0.10891265489999999,0.019339,0.005272,-0.006694,-1.9855524254999999,-9.583548712499999,0.6199175731000001,-1.8734,1.3571,-1.3994,9.999999999998899e-05,-2.9999999999752447e-05,-2.999999999997449e-05,0.0002910596177698732,-8.187677839477381e-05,0.00046395121066744593
150000000000.0,3,-0.0284196717,-0.00034323274999999994,-0.0985764458,0.021517,0.012712,-0.004567,-1.9855524254999999,-9.583548712499999,0.6200646728499999,-1.8735,1.3571,-1.3992,9.999999999998899e-05,-2.9999999999752447e-05,-2.0000000000020002e-05,0.0010311402774807465,9.860704416242427e-05,-0.0004493897630535315
150000000000.0,3,-0.06286062649999999,-0.027713592899999997,-0.08397434394999999,0.016225,0.019149,-0.003517,-1.986238891,-9.5833525795,0.619976413,-1.8733,1.357,-1.3991,9.999999999998899e-05,-3.0000000000196536e-05,3.0000000000085514e-05,0.00015535027200686002,0.00032551788479073807,-0.0005472371726997771
150000000000.0,3,-0.0669990328,-0.06091890979999999,-0.07626631704999999,0.017322,0.023403,-0.00352,-1.9869253565,-9.583254513,0.6198979598,-1.8732,1.3569,-1.399,9.999999999998899e-05,-3.0000000000196536e-05,4.999999999921734e-06,0.0018767772336747424,0.00019851536927673052,-0.0008861413444551935
150000000000.0,3,-0.0511710997,-0.07383426785,-0.050180628049999995,0.014147,0.025563,-0.005663,-1.9872195559999997,-9.5831564465,0.6198489265499999,-1.8732,1.3569,-1.3987,5.0000000000105516e-05,-2.9999999999752447e-05,5.000000000032756e-06,0.00029872610514658504,-0.00022335546330376488,0.0004625906564887927
150000000000.0,3,-0.03576485255,-0.05853589385,-0.056888376649999996,0.009928,0.031992,-0.00568,-1.9872195559999997,-9.583254513,0.61922130095,-1.8729,1.3569,-1.3987,4.999999999988347e-05,-2.9999999999752447e-05,9.99999999995449e-06,0.0007164764935778667,-0.00017146035771520296,-0.0002610548097146115
150000000000.0,3,-0.02042725195,-0.03745159635,-0.08358207794999999,0.007822,0.035208,-0.006756,-1.9869253565,-9.5833525795,0.6179366298,-1.8723,1.357,-1.3989,9.999999999998899e-05,-3.0000000000196536e-05,4.999999999999449e-05,-0.00017573901705514317,0.0017063260001992653,-0.0010457786946984626
150000000000.0,3,-0.0245558516,-0.01256231865,-0.08518056189999999,0.005677,0.036289,-0.003558,-1.9872195559999997,-9.5833525795,0.6163969857499999,-1.8716,1.357,-1.3992,5.0000000000105516e-05,2.4999999999941735e-05,8.000000000008001e-05,-0.0014286207900964243,-0.00010274849802849317,0.00135909667888523
150000000000.0,3,-0.006433162399999999,0.00293218835,-0.08683788575,0.01206,0.03517,-0.002477,-1.9872195559999997,-9.583450646,0.6152103810999999,-1.871,1.357,-1.3994,4.999999999988347e-05,2.4999999999941735e-05,-2.0000000000020002e-05,-0.0001416693128919455,-8.686650496558812e-05,0.0002166800362997101
150000000000.0,3,0.01399408955,-0.0007158854499999999,-0.07024503395,0.013141,0.037293,-0.00248,-1.9869253565,-9.583548712499999,0.61447488235,-1.8707,1.3571,-1.3993,9.999999999998899e-05,2.4999999999941735e-05,-2.999999999997449e-05,0.00019030272068354392,-6.661176437305905e-05,-4.776763842695431e-06
150000000000.0,3,0.032048132199999996,-0.00204958985,-0.0694899219,0.015251,0.034081,-0.003539,-1.9863369575,-9.583744845499998,0.61402377645,-1.8706,1.3572,-1.399,9.999999999998899e-05,2.4999999999941735e-05,2.999999999997449e-05,-0.001020174048486977,0.0005780892730038456,-3.68360176712379e-05
150000000000.0,3,0.053809088549999995,-0.01352337035,-0.05251461075,0.017309,0.025539,-0.002456,-1.9853562925,-9.5839409785,0.6141022296499999,-1.8708,1.3573,-1.3986,9.999999999998899e-05,5.000000000032756e-05,-7.00000000000145e-05,0.00249769014220802,0.000559135694724322,-0.0007454589444289006
150000000000.0,3,0.08415086364999999,-0.058369180799999996,-0.041011410299999995,0.0162,0.019157,-0.004586,-1.983493029,-9.5843332445,0.61457294885,-1.8713,1.3574,-1.3979,9.999999999998899e-05,4.999999999988347e-05,-4.999999999999449e-05,-0.0006166470393695889,-0.0003133986421424151,0.000892061008268108
150000000000.0,3,0.09699757515,-0.0730791558,-0.03050848815,0.015101,0.015968,-0.00352,-1.9814336325,-9.584725510499998,0.61514173455,-1.8718,1.3576,-1.3971,0.00010000000000021103,-4.999999999988347e-05,-2.999999999997449e-05,0.0007204234849353952,-0.0004997531823256463,-0.0005417857548559724
150000000000.0,3,0.1088145884,-0.07136299204999999,-0.03231291175,0.012882,0.00214,-0.008842,-1.9786877704999999,-9.585215842999999,0.61574974685,-1.8725,1.3579,-1.3964,9.999999999998899e-05,-5.000000000032756e-05,-3.0000000000085514e-05,-0.00040139520343940305,9.995074125246362e-06,0.0004001029316174076
150000000000.0,3,0.1021656797,-0.024310685349999996,-0.03596098555,0.020298,-0.007506,-0.014154,-1.9757457755,-9.585706175499999,0.61700499805,-1.8735,1.3581,-1.3954,5.0000000000105516e-05,-0.00019999999999997797,7.00000000000145e-05,-0.002125653688355378,0.0009426272027461824,-0.00022465268897420287
150000000000.0,3,0.092378643,0.039530606149999994,-0.06194860804999999,0.027739,-0.013955,-0.019471,-1.9726076474999998,-9.5862945745,0.61875058175,-1.8748,1.3584,-1.3942,4.999999999988347e-05,0.00010000000000021103,-9.999999999998899e-05,0.0008899640758552874,-0.00127002296359513,0.0006901015422622336
150000000000.0,3,0.05961462535,0.08244450654999999,-0.08744589804999998,0.03526,-0.007621,-0.020538,-1.9698617854999998,-9.5866868405,0.6208982380999999,-1.8761,1.3586,-1.3929,9.999999999998899e-05,-0.00019999999999997797,4.0000000000040004e-05,-0.0011268135315882777,0.0014514581984284014,-0.0005613209000494557
150000000000.0,3,0.039609059349999996,0.08263083289999999,-0.0879460372,0.036335,-0.005499,-0.019474,-1.9675081895,-9.58698104,0.6232028008499999,-1.8775,1.3588,-1.3915,5.0000000000105516e-05,-0.00010000000000021103,-7.999999999996898e-05,-0.00035732663469278947,0.0005023667191883519,0.00039194006284315464
150000000000.0,3,0.0048640984,0.06316463265,-0.0507199938,0.034195,-0.003355,-0.015212,-1.9660371919999997,-9.587177173,0.62592904955,-1.879,1.3588,-1.39,4.999999999988347e-05,-3.333333333310762e-05,-3.0000000000085514e-05,0.0004484329962175515,-4.655108953577347e-05,-4.4366394391648356e-05
150000000000.0,3,-0.0410898635,0.0100812362,-0.03323473685,0.028891,0.005206,-0.007762,-1.965841059,-9.58698104,0.6281943857,-1.8801,1.3588,-1.3888,4.999999999988347e-05,-3.333333333355171e-05,-4.999999999921734e-06,-0.00010427377871691235,-0.0002739754358698221,-9.196355724094829e-05
150000000000.0,3,-0.07346161514999999,-0.0636255452,-0.034852834099999994,0.027832,0.008409,-0.004564,-1.966429458,-9.586784907,0.62996938935,-1.8808,1.3587,-1.388,5.0000000000105516e-05,-3.333333333310762e-05,-5.000000000032756e-06,-0.0007012328337974161,-0.00016024450586304972,0.00036445491615699765
150000000000.0,3,-0.07521700549999999,-0.10751030395,-0.06374322499999999,0.028887,0.007335,-0.004558,-1.9669197904999998,-9.586588773999999,0.63132270705,-1.8814,1.3586,-1.3873,9.999999999998899e-05,-5.000000000032756e-05,-2.0000000000020002e-05,-0.00041999826934602247,0.00032622348698607695,-0.0003534172307206873
150000000000.0,3,-0.06744033205,-0.10397010329999999,-0.09650724265,0.023612,0.012712,-0.008844,-1.9670178569999999,-9.586588773999999,0.63161690655,-1.8815,1.3585,-1.387,9.999999999998899e-05,-4.999999999988347e-05,-4.999999999999449e-05,0.0010162640605708706,-0.00021966684288354799,-0.0003886486535473743
150000000000.0,3,-0.027615526399999996,-0.0786297197,-0.10085158859999999,0.016169,0.013844,-0.013128,-1.9661352584999998,-9.586784907,0.63132270705,-1.8815,1.3586,-1.3868,5.0000000000105516e-05,-9.999999999976694e-05,-2.999999999997449e-05,0.001489658455206655,-0.0005773917678397744,0.000405400998019001
150000000000.0,3,0.011836626549999998,-0.045787248850000004,-0.0897700741,0.011923,0.017077,-0.013142,-1.9645661945,-9.587177173,0.6305577883499999,-1.8814,1.3588,-1.3867,4.999999999988347e-05,-0.00010000000000021103,-1.0000000000065512e-05,8.434686039771044e-05,-0.00024992557211467314,0.00010149804785175576
150000000000.0,3,0.029439563299999996,-0.0259680092,-0.07810996725,0.018338,0.019156,-0.013136,-1.962899064,-9.5874713725,0.6302733954999999,-1.8815,1.359,-1.3864,0.00019999999999997797,0.00019999999999997797,-7.999999999996898e-05,0.0005548345365700147,-0.003672306753310428,0.002128618717523789
150000000000.0,3,0.02837063845,0.01079712165,-0.035784465849999995,0.027978,0.02334,-0.014196,-1.9612319335,-9.587765571999999,0.6316365198499999,-1.8824,1.3591,-1.3852,9.999999999998899e-05,-9.999999999976694e-05,9.999999999998899e-05,-0.0015940249147357033,0.0006240959028549486,0.000495991379442895
150000000000.0,3,-0.011964112999999998,0.019662333249999997,-0.020299765499999997,0.037618,0.027525,-0.015253,-1.9602512685,-9.587765571999999,0.63410779565,-1.8837,1.3591,-1.3836,9.999999999998899e-05,-0.00010000000000021103,2.999999999997449e-05,0.0002807088512655209,-0.00018993759796148701,-9.333251211129934e-05
150000000000.0,3,-0.03957963939999999,0.0037461403,-0.0192014207,0.037711,0.039246,-0.015272,-1.9597609359999997,-9.587765571999999,0.6365986847499999,-1.8849,1.3591,-1.382,0.00019999999999997797,0.00010000000000021103,-0.00011999999999989797,0.00033019807189171857,-0.0018075883771433432,0.0013135367188579217
150000000000.0,3,-0.0537992819,-0.018593408399999997,-0.0242028122,0.029252,0.048906,-0.015301,-1.9594667364999998,-9.5876675055,0.6381579421,-1.8857,1.3591,-1.3807,9.999999999998899e-05,-0.000300000000000189,8.999999999992347e-05,0.00033179343367795155,0.0009803650061914748,-3.4823734861966216e-05
150000000000.0,3,-0.06112484945,-0.0516418189,-0.054976079899999995,0.019696,0.056442,-0.013194,-1.9592706034999998,-9.5876675055,0.6382560086,-1.8857,1.3591,-1.38,9.999999999998899e-05,-0.00019999999999997797,9.99999999995449e-06,0.0019883373804954196,-0.0002985986031669441,0.0010596851542277186
150000000000.0,3,-0.0366376444,-0.0876910643,-0.0682738973,0.014354,0.056486,-0.012135,-1.958780271,-9.587863638499998,0.6373439901499999,-1.8854,1.3592,-1.3798,9.999999999998899e-05,-0.00010000000000021103,1.0000000000065512e-05,0.00043429759625701614,0.0001474304434645468,0.0001624887517661655
150000000000.0,3,0.006913688249999999,-0.11614015594999999,-0.058624153699999994,0.012201,0.056501,-0.008938,-1.9577015395,-9.588157837999999,0.6362260320500001,-1.885,1.3593,-1.3795,9.999999999998899e-05,-0.00019999999999997797,1.0000000000065512e-05,0.001348385944598407,-0.00026854045862267917,0.0008540677329729185
150000000000.0,3,0.039932678799999996,-0.10485270179999999,-0.02999854235,0.012182,0.05437,-0.008937,-1.9562305419999997,-9.588550104,0.6355885997999999,-1.8849,1.3595,-1.379,9.999999999998899e-05,-4.999999999988347e-05,9.99999999995449e-06,-0.0006490396886376093,0.00023552345546318243,5.104429051394632e-05
150000000000.0,3,0.08032627015,-0.058300534249999994,-0.0097281968,0.013239,0.051168,-0.012136,-1.9539750125,-9.58894237,0.6355101465999999,-1.8853,1.3597,-1.3782,9.999999999998899e-05,-4.999999999988347e-05,9.99999999995449e-06,-0.00016888606110510018,0.00011323093863158107,0.00018683770492522456
150000000000.0,3,0.1154046572,-0.00658026215,0.014817848149999998,0.017518,0.051135,-0.014269,-1.9510330174999997,-9.589530769,0.6362554519999999,-1.886,1.36,-1.3769,0.00010000000000021103,-5.000000000032756e-05,3.0000000000085514e-05,-0.0005610538507370144,-0.0005833999028983516,0.00026787824747520617
150000000000.0,3,0.12265177155,0.0157690932,0.015455280399999998,0.015287,0.041558,-0.009992,-1.948189089,-9.5900211015,0.6372557302999999,-1.8869,1.3602,-1.3755,-1.4285714285744433e-05,-4.999999999988347e-05,-2.0000000000020002e-05,0.00027380669870025187,0.00022550623026673655,0.00015417218919600018
150000000000.0,3,0.10845174234999999,0.024251845449999997,0.0128859381,0.016236,0.02876,-0.00677,-1.945835493,-9.5904133675,0.6384815615499999,-1.8879,1.3604,-1.3743,-1.4285714285744433e-05,-0.00019999999999997797,3.999999999992898e-05,-0.00015614286108345254,0.0013097657325922274,-0.001253445225028571
150000000000.0,3,0.0860631604,0.0140235095,-0.00383440015,0.015054,0.017043,-0.002486,-1.9442664289999998,-9.590707566999999,0.6396387462500001,-1.8886,1.3605,-1.3733,-1.4285714285744433e-05,-9.999999999976694e-05,-0.00017000000000000348,0.004935364865930492,0.0005466041625787899,-0.002694578103267009
150000000000.0,3,0.08763222439999999,-0.00012748645,-0.0091594111,0.010682,0.005356,-0.000343,-1.9428934979999999,-9.590903699999998,0.6406292178999999,-1.8893,1.3606,-1.3725,-1.4285714285522388e-05,1.4285714285744433e-05,0.00017000000000000348,-0.003543747938048014,-0.0008670835121360465,0.002139570147480896
150000000000.0,3,0.100223963,-0.02150598345,0.0127094184,0.008486,-0.00315,-0.001404,-1.940932168,-9.5911978995,0.6418060159,-1.8901,1.3608,-1.3717,-1.4285714285744433e-05,1.4285714285744433e-05,-3.999999999992898e-05,0.00019525168554723749,-0.0009519423477377664,0.0007998988906359195
150000000000.0,3,0.12609390569999998,-0.047081726649999996,0.0304202283,0.00206,-0.008422,-0.004615,-1.938382439,-9.591688232,0.6426493878,-1.8909,1.361,-1.371,-1.4285714285744433e-05,1.4285714285744433e-05,-2.0000000000020002e-05,-0.00033385150875320235,-0.00013907144512637082,-0.00018190951460228533
150000000000.0,3,0.14493248035,-0.059987278049999995,0.03994248545,0.000906,-0.020134,-0.005671,-1.9352443109999997,-9.592276630999999,0.6437477326,-1.8919,1.3613,-1.3702,-1.4285714285744433e-05,1.4285714285300344e-05,4.0000000000040004e-05,-0.0013815024815388988,-0.0004668942989156655,0.0005672999020611691
150000000000.0,3,0.15632780764999998,-0.057751361849999995,0.05161239895,0.000766,-0.037184,-0.004582,-1.9318119834999998,-9.592865029999999,0.6452579567,-1.8932,1.3616,-1.3693,-5.0000000000105516e-05,1.4285714285744433e-05,1.999999999990898e-05,-0.001240359745745323,0.00020634860327328752,-0.000594699140488153
150000000000.0,3,0.14638386455,-0.0324207849,0.07036271375,0.003896,-0.045736,-0.003501,-1.928575789,-9.593355362499999,0.6474448396499999,-1.8947,1.3618,-1.3682,-5.0000000000105516e-05,1.4285714285744433e-05,8.000000000008001e-05,-0.0009465200882492475,-0.00030894822858584803,-0.00039186045137595826
150000000000.0,3,0.11843491204999998,-0.0324403982,0.07554062495,0.008112,-0.050039,0.000777,-1.926222193,-9.593649562,0.65034760805,-1.8964,1.362,-1.3669,-9.999999999998899e-05,1.4285714285744433e-05,-2.0000000000020002e-05,0.0011078372397266278,-0.002052088872721125,0.00020521039179044465
150000000000.0,3,0.0681169909,-0.03851071455,0.05873202685,0.008124,-0.046846,0.00397,-1.9249473284999998,-9.593649562,0.65309347005,-1.8979,1.362,-1.366,-9.999999999998899e-05,3.333333333355171e-05,9.99999999995449e-06,-0.0004877151629614218,2.8577274443719602e-05,-7.245719949722229e-05
150000000000.0,3,0.00842391235,-0.03835380815,0.0378928956,0.002789,-0.045739,0.006093,-1.9249473284999998,-9.5935514955,0.6550744133499999,-1.8988,1.3619,-1.3655,-5.0000000000105516e-05,3.333333333310762e-05,1.0000000000065512e-05,-0.0005151535456633383,-0.0004869557145266157,4.4922896267785006e-05
150000000000.0,3,-0.059987278049999995,-0.03235213835,0.0029419949999999998,0.001764,-0.04253,0.002886,-1.9260260599999999,-9.593257295999999,0.65621198475,-1.8992,1.3618,-1.3656,-4.999999999988347e-05,3.333333333355171e-05,-6.0000000000060005e-05,-4.272346756639678e-05,0.000356046391645215,0.00028207887501974227
150000000000.0,3,-0.09487933874999999,-0.00253992235,-0.03843226135,-0.001388,-0.038238,-0.000325,-1.9273009245,-9.5929630965,0.65629043795,-1.899,1.3617,-1.3661,-9.999999999998899e-05,-0.00010000000000021103,6.0000000000060005e-05,-0.0003058435733391818,-0.00041029941153869487,-0.0002271564844695817
150000000000.0,3,-0.09713486825,0.024232232149999998,-0.05408367475,-0.005637,-0.038198,-0.004597,-1.928379656,-9.592766963499999,0.6556235857499999,-1.8985,1.3616,-1.367,1.4285714285744433e-05,0.00010000000000021103,-6.0000000000060005e-05,0.0007899290004196313,9.732433652898109e-05,-0.0004289207502217174
150000000000.0,3,-0.102185293,0.061468082199999996,-0.06514557594999999,-0.006673,-0.033926,-0.0046,-1.9295564539999999,-9.592668897,0.6545742742,-1.8978,1.3615,-1.368,1.4285714285744433e-05,-4.999999999988347e-05,-5.999999999994898e-05,0.0008083054631846665,-0.00012783318387921128,-5.907109396297017e-05
150000000000.0,3,-0.11491432469999999,0.08825984999999999,-0.08060085635,-0.001301,-0.027578,-0.002461,-1.9314197174999999,-9.592374697499999,0.6535641892499999,-1.8971,1.3614,-1.369,1.4285714285744433e-05,-5.000000000032756e-05,-1.0000000000065512e-05,-0.0001328081764737643,-4.153550718433152e-05,-0.000414064387431079
150000000000.0,3,-0.11421805254999999,0.08065969625,-0.08013013714999999,0.006157,-0.024448,0.003958,-1.9335771805,-9.591884364999999,0.6532405698,-1.8966,1.3611,-1.3697,1.4285714285522388e-05,3.333333333355171e-05,-2.999999999997449e-05,-0.0005125605578442105,0.0004654101145995515,0.00030301276676691913
150000000000.0,3,-0.11266860184999998,0.04919996305,-0.0680189244,0.005117,-0.018049,0.00822,-1.936028843,-9.591394032499998,0.6531032767,-1.8961,1.3609,-1.3704,1.4285714285744433e-05,3.333333333310762e-05,-2.0000000000020002e-05,0.0004235460684416381,0.0003225057214615301,-0.00018975405168841775
150000000000.0,3,-0.10519593455,-0.0321265854,-0.0637039984,-0.000193,-0.010552,0.014607,-1.9388727714999998,-9.590903699999998,0.6523775846,-1.8954,1.3607,-1.3712,1.4285714285744433e-05,3.333333333355171e-05,-9.99999999995449e-06,0.0006145878639363112,0.00043459136321510883,-0.0003761715664736265
150000000000.0,3,-0.09700738179999999,-0.10492134835,-0.0399522921,-0.006546,-0.000915,0.01992,-1.9418147664999998,-9.5904133675,0.6512203999,-1.8944,1.3604,-1.3723,1.4285714285744433e-05,6.666666666665932e-05,4.0000000000040004e-05,0.000672684191380224,-0.0004260815166972076,-0.00035806652952397044
150000000000.0,3,-0.07212791075,-0.1459425653,-0.021937476049999998,-0.011816,0.008718,0.022031,-1.944658695,-9.589923035,0.6495140427999999,-1.8931,1.3602,-1.3735,-9.999999999998899e-05,6.666666666665932e-05,3.999999999992898e-05,0.0009520218903167343,-0.00020950241262052138,-0.0003112713088087027
150000000000.0,3,-0.0541719346,-0.15699465984999997,0.01866205495,-0.012817,0.016186,0.02095,-1.9472084239999998,-9.589530769,0.6481214984999999,-1.8921,1.36,-1.3744,9.999999999998899e-05,6.666666666665932e-05,-5.999999999994898e-05,0.0010365291394727194,-0.00048769004499082946,0.0005481718675586222
150000000000.0,3,-0.026213175449999997,-0.13483163085,0.0321854253,-0.011698,0.019379,0.015609,-1.948973621,-9.589236569499999,0.6470133470499999,-1.8913,1.3598,-1.375,-1.1111111111183902e-05,-3.333333333355171e-05,7.00000000000145e-05,-0.0008208223913084289,-0.0003874740276834654,0.0004051513982847865
150000000000.0,3,-0.00342252085,-0.06893094285,0.00079433865,-0.007399,0.017223,0.006014,-1.9497581529999999,-9.589138503,0.6459444221999999,-1.8907,1.3598,-1.3755,-1.1111111110961858e-05,-3.333333333310762e-05,-4.0000000000040004e-05,0.0012786845812804426,0.00033748102982333883,-7.471867982333791e-05
150000000000.0,3,0.052534224049999995,0.0336564228,-0.037157396849999996,0.002225,0.012893,-0.005706,-1.9488755544999998,-9.589334636,0.6451402769,-1.8905,1.3599,-1.3756,-1.1111111111183902e-05,-3.333333333355171e-05,7.00000000000145e-05,-0.000740016449259695,0.0008836053993444004,-0.0006519745547950428
150000000000.0,3,0.0939084804,0.1016949605,-0.08436660994999999,0.010779,0.009636,-0.015296,-1.9464238919999999,-9.589923035,0.6444538113999999,-1.8905,1.3602,-1.3754,-1.1111111111183902e-05,-4.999999999988347e-05,9.99999999995449e-06,-0.00017670809571024293,-0.00010322049080779827,-5.512455286149631e-05
150000000000.0,3,0.12239679865,0.129643913,-0.10573530029999999,0.018198,-8e-06,-0.021675,-1.9428934979999999,-9.5906095005,0.6444341980999999,-1.8911,1.3605,-1.3748,-1.1111111110961858e-05,-4.999999999988347e-05,-2.0000000000020002e-05,7.034869508704134e-05,-4.728193170366879e-05,-0.00013395043942843188
150000000000.0,3,0.11993532949999999,0.10733378425,-0.07938483175,0.01925,-0.002147,-0.022742,-1.9390689044999998,-9.591394032499998,0.6450127904499999,-1.8919,1.3609,-1.3739,-1.1111111111183902e-05,-1.4285714285744433e-05,2.500000000016378e-06,-3.3541679815396463e-05,-0.00041739178197452986,-0.00021804130911418085
150000000000.0,3,0.10272465874999999,0.05311281639999999,-0.07771770125,0.016027,-0.003187,-0.020616,-1.9355385104999998,-9.592080498,0.64544428305,-1.8927,1.3612,-1.3731,-1.1111111111183902e-05,-1.4285714285744433e-05,2.500000000016378e-06,-0.0007225254801799252,-0.0002985427868025248,0.0001706932048790577
150000000000.0,3,0.07114724574999999,-0.008041452999999999,-0.05874183349999999,0.010648,-0.008471,-0.02062,-1.9322042495,-9.592668897,0.6457679025,-1.8933,1.3615,-1.3725,-1.1111111110961858e-05,-1.4285714285744433e-05,2.500000000016378e-06,-0.00012194677162202794,-0.00027572150223198477,8.048429309859273e-05
150000000000.0,3,0.04333558635,-0.03394081565,-0.03923640665,0.010588,-0.011674,-0.014213,-1.9298506534999997,-9.5931592295,0.6463170749,-1.894,1.3617,-1.372,-1.1111111111183902e-05,-1.4285714285744433e-05,2.500000000016378e-06,0.00013920629056318745,0.0006387434123618085,-0.0002228935542269994
150000000000.0,3,0.0051582979,-0.0301652554,-0.0195936867,0.0148,-0.015975,-0.009929,-1.9284777224999998,-9.593355362499999,0.64762135935,-1.8948,1.3618,-1.3713,-2.4999999999941735e-05,-1.4285714285744433e-05,-1.0000000000065512e-05,-0.0005370827827462232,-0.00045830653532896726,7.359607925838674e-05
150000000000.0,3,-0.02005459925,-0.0060703163499999995,-0.0137489233,0.022233,-0.020299,-0.009907,-1.927791257,-9.593355362499999,0.6497101758,-1.8959,1.3618,-1.3704,-2.500000000016378e-05,-1.4285714285744433e-05,-3.999999999992898e-05,0.00013312356602557252,0.00017166943795809964,-0.0005599564565068604
150000000000.0,3,-0.00183384355,0.0162005858,-0.0264191151,0.033911,-0.026789,-0.008808,-1.9268105919999998,-9.593355362499999,0.6528090772,-1.8975,1.3618,-1.369,-2.4999999999941735e-05,-1.4285714285744433e-05,-4.0000000000040004e-05,-0.00046944349732225277,0.00016235529808961147,-0.0003291127449109865
150000000000.0,3,0.0030792880999999995,0.013660663449999999,-0.03484302745,0.037078,-0.032141,-0.010928,-1.925633794,-9.593355362499999,0.65629043795,-1.8993,1.3618,-1.3675,-2.4999999999941735e-05,-4.999999999988347e-05,9.99999999995449e-06,-0.000680028113099862,-0.0003576838882757283,-0.0001616370602159911
150000000000.0,3,-0.01352337035,0.020927391099999998,-0.03898143375,0.034907,-0.035322,-0.00879,-1.9247511954999998,-9.593257295999999,0.6598306385999999,-1.9011,1.3618,-1.366,1.999999999990898e-05,-4.999999999988347e-05,-9.99999999995449e-06,0.0001441232430696715,0.0003026991615575625,-0.0006975014201051621
150000000000.0,3,-0.0245754649,0.01232695905,-0.0565255306,0.029565,-0.035278,-0.007731,-1.9241627964999999,-9.5931592295,0.6625568873,-1.9024,1.3618,-1.3649,2.0000000000131024e-05,-0.00010000000000021103,6.0000000000060005e-05,-0.0007382302922218642,0.0014204854807173817,-0.0013996824594162405
150000000000.0,3,-0.0665871535,-0.0065116155999999994,-0.09319259494999999,0.018922,-0.028801,-0.003488,-1.924456996,-9.593061163,0.6636160054999999,-1.9029,1.3617,-1.3647,1.999999999990898e-05,-9.999999999976694e-05,-4.0000000000040004e-05,0.0002825515442834714,0.0003372255427880333,-0.0003985357204987494
150000000000.0,3,-0.12644694509999999,-0.021427530249999997,-0.12570163969999998,0.016815,-0.021328,0.001838,-1.9264183259999998,-9.592668897,0.6636552321,-1.9026,1.3615,-1.3652,2.0000000000131024e-05,-4.999999999988347e-05,2.0000000000020002e-05,9.35258299872288e-06,0.0009756841006121064,-0.0003167966323616156
150000000000.0,3,-0.16842921374999997,-0.02868445125,-0.1373323266,0.012647,-0.007441,0.002882,-1.9293603209999999,-9.592080498,0.6628510867999999,-1.9017,1.3612,-1.3661,1.999999999990898e-05,-5.000000000032756e-05,-3.0000000000085514e-05,0.00014251835953649206,-0.0006339851564980403,-0.0003355530576567567
150000000000.0,3,-0.1984473694,0.0001765197,-0.11739540715,0.010677,0.011761,-0.000348,-1.9326945819999999,-9.591492099,0.6619292617,-1.9008,1.3609,-1.367,9.999999999998899e-05,6.666666666665932e-05,6.0000000000060005e-05,-0.000905243277173895,-0.0005872454260327231,0.0006466532532831692
150000000000.0,3,-0.195152335,0.021260817199999997,-0.0921432834,0.008701,0.032025,-0.000377,-1.9361269094999998,-9.590903699999998,0.6607622703499999,-1.8997,1.3606,-1.3678,9.999999999998899e-05,6.666666666665932e-05,-4.999999999999449e-05,0.00015893582700132747,0.00015928883760207846,0.0003204910475993472
150000000000.0,3,-0.1681448209,0.0059036033,-0.06406684445,0.016223,0.038359,-0.001434,-1.9390689044999998,-9.590315301,0.6602229045999999,-1.899,1.3604,-1.3681,0.00019999999999997797,6.666666666665932e-05,-7.999999999996898e-05,-6.073938400463774e-05,-0.0017599527363425516,0.0013518898175330918
150000000000.0,3,-0.1288789943,0.0032754210999999997,-0.029635696299999997,0.02161,0.045773,-0.000363,-1.9415205669999998,-9.5898249685,0.6606543972,-1.8988,1.3601,-1.3678,0.00010000000000021103,-7.692307692153122e-06,-5.000000000032756e-06,-0.00029081427965294004,0.0005964228762125323,-0.00011256254343772198
150000000000.0,3,-0.08953471449999999,-0.007688413599999999,-0.00444241245,0.026937,0.046792,0.002851,-1.9434818969999998,-9.589334636,0.66209597475,-1.8991,1.3599,-1.3669,0.00019999999999997797,-7.692307692597211e-06,-5.000000000032756e-06,-0.0004296297094499302,-0.00025783415650781905,0.0010558959378443866
150000000000.0,3,-0.05600577815,-0.030371195049999997,0.0089240515,0.023736,0.046818,0.002847,-1.9447567614999997,-9.58894237,0.6636944587,-1.8997,1.3597,-1.3659,5.0000000000105516e-05,-7.692307692153122e-06,-1.0000000000065512e-05,-0.0009480677375437452,-0.00023607282268689467,0.001199598955762049
150000000000.0,3,-0.00214765635,-0.06524364245,-0.0077080269,0.017327,0.047934,0.006036,-1.9453451604999998,-9.588746236999999,0.6643220843,-1.8999,1.3596,-1.3652,4.999999999988347e-05,-7.692307692153122e-06,-9.99999999995449e-06,0.00031042415227400255,0.00022064295432366876,0.0003029912437577664
150000000000.0,3,0.0137096967,-0.10025338294999998,-0.0030989013999999995,0.012995,0.042637,0.010306,-1.946031626,-9.588648170499999,0.66464570375,-1.8999,1.3595,-1.3647,9.999999999998899e-05,-7.692307692597211e-06,1.0000000000065512e-05,0.00023883555353965136,0.00015061307664332446,0.00046639141755111524
150000000000.0,3,0.018377662099999997,-0.1115212238,0.0015494506999999998,0.008681,0.039471,0.014572,-1.9469142245,-9.5884520375,0.6646358970999999,-1.8998,1.3594,-1.3644,3.333333333332966e-05,-7.692307692153122e-06,-2.0000000000020002e-05,0.00024188653674439564,9.380528866453908e-05,0.0005019137800355011
150000000000.0,3,0.0423058881,-0.0923001898,-0.02191786275,0.007584,0.035219,0.013507,-1.9475026234999997,-9.588353971,0.6641651779,-1.8995,1.3594,-1.3643,3.333333333332966e-05,-7.692307692153122e-06,-9.99999999995449e-06,0.000880775110154719,0.00010877751196347596,0.00021219070355948944
150000000000.0,3,0.06487098975,-0.053161849649999995,-0.045797055499999996,0.007554,0.027767,0.007112,-1.9473064905,-9.5884520375,0.6634983256999999,-1.8992,1.3594,-1.3643,3.333333333332966e-05,-7.692307692153122e-06,-0.00010000000000010001,0.0005509792677347303,0.0002827264913058958,9.917730926245483e-05
150000000000.0,3,0.12254389839999999,0.014974754549999999,-0.0643512373,0.010721,0.019224,-0.000345,-1.9457374264999998,-9.588746236999999,0.6630472198,-1.8992,1.3596,-1.364,9.999999999998899e-05,-7.692307692597211e-06,-2.4999999999941735e-05,-6.280451816431665e-05,-0.00012965896109506936,0.0002492407646350614
150000000000.0,3,0.14868842729999998,0.0600559246,-0.057751361849999995,0.019164,0.005307,-0.004582,-1.943089631,-9.589236569499999,0.6636356187999999,-1.8999,1.3599,-1.3632,3.333333333332966e-05,-7.692307692153122e-06,-2.5000000000052758e-05,-0.00022584024050620322,-7.020746014996249e-05,0.000417917966467396
150000000000.0,3,0.16546760544999997,0.08124809525,-0.04327674645,0.025556,0.000997,-0.009908,-1.9398534365,-9.5898249685,0.6653223626,-1.9012,1.3601,-1.3619,3.333333333332966e-05,-7.692307692153122e-06,-2.999999999997449e-05,-0.0005418165410941977,-0.00018224203452676946,2.9056850551878455e-05
150000000000.0,3,0.1770492591,0.05237731765,-0.014925721299999998,0.029763,-0.008625,-0.013095,-1.9359307765,-9.5904133675,0.6680976445499999,-1.9031,1.3604,-1.36,3.333333333332966e-05,-7.692307692597211e-06,-9.99999999995449e-06,-0.00044155619029173643,-0.00035693042466222735,-5.8796855948450855e-06
150000000000.0,3,0.16623252415,-0.0022751428,-0.0069627215,0.023315,-0.017093,-0.017369,-1.931517784,-9.591099833,0.6706081469499999,-1.905,1.3608,-1.3583,-9.999999999998899e-05,-7.692307692153122e-06,-1.0000000000065512e-05,0.00014293167661705297,-4.7571294194526104e-05,-0.00034360667971178316
150000000000.0,3,0.14259849765,-0.044963490249999995,-0.025252123749999997,0.017918,-0.023444,-0.01524,-1.9273009245,-9.591884364999999,0.67243218385,-1.9065,1.3611,-1.357,9.999999999998899e-05,-4.999999999988347e-05,-9.99999999995449e-06,-0.00013677054342853268,-6.543560232041834e-05,-0.0004183585397186107
150000000000.0,3,0.10092023515,-0.056496110649999993,-0.060546257099999994,0.018911,-0.030914,-0.013096,-1.9239666635,-9.592472764,0.67376588825,-1.9076,1.3614,-1.3561,-9.999999999998899e-05,-5.000000000032756e-05,4.999999999921734e-06,-0.000214743373395887,0.0003272768784903235,-0.000545966406467091
150000000000.0,3,0.0726868898,-0.0545642006,-0.1189546645,0.025226,-0.038429,-0.008807,-1.9214169344999998,-9.592865029999999,0.67470732665,-1.9085,1.3616,-1.3555,-2.4999999999941735e-05,-4.999999999988347e-05,5.000000000032756e-06,0.00030209369798717134,-0.0001240029580757973,-0.001035593722305439
150000000000.0,3,0.06991160785,-0.056564757199999996,-0.1312522036,0.020915,-0.040528,-0.004545,-1.9192594714999998,-9.593257295999999,0.67533495225,-1.9091,1.3618,-1.3552,-2.500000000016378e-05,-4.999999999988347e-05,1.0000000000065512e-05,-0.0001600139052158056,0.0011539774796751612,-0.00028334624785664175
150000000000.0,3,0.05802594805,-0.04862137069999999,-0.11763076675,0.010185,-0.044706,-0.00029,-1.9176904074999999,-9.5935514955,0.67533495225,-1.9094,1.362,-1.3554,-2.4999999999941735e-05,9.999999999976694e-05,5.000000000032756e-06,-0.0005323838452233609,0.0004737853529326319,-0.001133605073707411
150000000000.0,3,0.03331319005,-0.0465227476,-0.08534727495,0.000514,-0.048895,0.006103,-1.9171020085,-9.5937476285,0.6749230729499999,-1.9093,1.362,-1.3559,-2.4999999999941735e-05,-9.999999999976694e-05,4.999999999921734e-06,-6.223972554320056e-05,8.157955839438458e-05,-0.0006224597330941606
150000000000.0,3,-0.00246146915,-0.0461500949,-0.04498310354999999,0.002657,-0.046782,0.00717,-1.917396208,-9.593649562,0.6751093992999999,-1.9093,1.362,-1.3564,-4.999999999988347e-05,-0.00010000000000021103,1.0000000000065512e-05,-0.0002629626693884113,0.00013335503216760358,-0.0004713228401063141
150000000000.0,3,-0.013376270599999998,-0.04502233014999999,-0.012248505849999999,0.010114,-0.046845,0.009318,-1.917984607,-9.593453429,0.67649213695,-1.9099,1.3619,-1.3563,-5.0000000000105516e-05,-3.333333333310762e-05,4.999999999999449e-05,-0.0013423813258668371,-0.0005081566319606878,0.0001380787164859676
150000000000.0,3,0.00271644205,-0.03803999535,-0.0211235241,0.015452,-0.046888,0.008259,-1.9183768729999997,-9.593257295999999,0.6783357871499999,-1.9107,1.3618,-1.3559,-3.333333333332966e-05,-3.333333333355171e-05,9.99999999995449e-06,-0.00015739906901601763,0.0002750548839860478,-0.0006243898639231027
150000000000.0,3,0.00418743955,-0.03800076875,-0.0389520138,0.01125,-0.040456,0.005038,-1.9184749394999998,-9.5931592295,0.6795518117499999,-1.9112,1.3617,-1.3558,-3.333333333332966e-05,-3.333333333310762e-05,9.99999999995449e-06,-0.00018033954129936802,-3.692768331564622e-06,-0.0003502894721902905
150000000000.0,3,-0.015317987299999999,-0.0316754795,-0.0629783063,0.005978,-0.032952,0.003948,-1.9188672055,-9.5929630965,0.6799342711,-1.9113,1.3617,-1.356,-3.333333333332966e-05,-0.00010000000000021103,-9.99999999995449e-06,0.00024077565737856688,0.0005963067975602865,-0.0003100905322512837
150000000000.0,3,-0.0413644497,-0.02576206955,-0.08323884520000001,-0.001444,-0.028625,0.000727,-1.9194556044999997,-9.5929630965,0.67923799895,-1.9109,1.3616,-1.3567,9.999999999998899e-05,-4.999999999988347e-05,9.00000000000345e-05,-0.00016059083370301153,-0.0008834118413147962,-0.00045734326388124913
150000000000.0,3,-0.0599186315,-0.0350881937,-0.11036403909999999,-0.000309,-0.020107,-0.000351,-1.9202401365,-9.592865029999999,0.6777866147499999,-1.9101,1.3616,-1.3577,-9.999999999998899e-05,-4.999999999988347e-05,2.0000000000020002e-05,-0.0005924678280826434,0.00011900887167137775,-0.0001281219806146261
150000000000.0,3,-0.07346161514999999,-0.05255383735,-0.10931472755,-0.000287,-0.014782,0.002845,-1.921318868,-9.592766963499999,0.6761489042,-1.9092,1.3616,-1.3588,2.4999999999941735e-05,-5.000000000032756e-05,9.99999999995449e-06,-0.000257920532730882,0.00048722666996492414,-5.069483417496912e-06
150000000000.0,3,-0.06320385925,-0.0597421118,-0.053495275749999995,-0.001302,-0.007315,0.0039,-1.9224956659999999,-9.592668897,0.67523688575,-1.9086,1.3615,-1.3595,2.4999999999941735e-05,-4.999999999988347e-05,9.00000000000345e-05,-0.0009042478979837121,-0.00040959461315637213,2.6307387855251108e-05
150000000000.0,3,-0.06046780389999999,-0.0413056098,-0.020368412049999996,0.00185,-0.010542,0.008183,-1.9238685969999998,-9.592374697499999,0.6750309461,-1.9082,1.3614,-1.3599,2.500000000016378e-05,-0.00010000000000021103,-3.0000000000085514e-05,0.00017012507706404278,0.0004568286895729745,-0.00018785514844754658
150000000000.0,3,-0.0356177528,-0.005942829899999999,-0.045610729149999994,0.009313,-0.011667,0.007133,-1.925045395,-9.592080498,0.67513881925,-1.9081,1.3612,-1.3601,2.4999999999941735e-05,-9.999999999976694e-05,-3.999999999992898e-05,-0.00063448054326809,-0.00046896790127126664,0.0007959636592662633
150000000000.0,3,0.0144746154,0.0268309944,-0.07182390459999999,0.022101,-0.013902,0.006091,-1.9255357274999998,-9.5919824315,0.67606064435,-1.9085,1.3612,-1.3599,-9.999999999998899e-05,-0.00010000000000021103,-2.0000000000020002e-05,-1.4143921036158247e-05,0.0005857642353312986,-0.0001462368051390328
150000000000.0,3,0.04117812334999999,0.0451890432,-0.08373898434999999,0.024233,-0.014982,0.00396,-1.925241528,-9.591884364999999,0.6773551221499999,-1.9091,1.3611,-1.3594,2.4999999999941735e-05,-9.999999999976694e-05,9.99999999995449e-06,-0.00022671801388240986,0.00019026679289613213,-3.957539054733061e-05
150000000000.0,3,0.0404622379,0.01303303785,-0.05571157865,0.02003,-0.00855,0.000737,-1.9247511954999998,-9.5919824315,0.67880650635,-1.9099,1.3612,-1.3587,2.4999999999941735e-05,-0.0001500000000000945,4.999999999999449e-05,-0.001703446294600175,0.0003788435348255348,0.0004913350618931389
150000000000.0,3,0.02468333805,-0.025105024,-0.0305182948,0.014717,-0.006374,-0.000344,-1.9241627964999999,-9.5919824315,0.6799538843999999,-1.9105,1.3612,-1.3581,2.500000000016378e-05,-0.0001500000000000945,4.999999999999449e-05,-0.0015511950543627417,0.000891643852096724,-0.0005422171528559616
150000000000.0,3,-0.007855126649999999,-0.042756994,-0.01468055505,0.010521,5.9e-05,-0.004633,-1.9237705305,-9.5919824315,0.6808757095,-1.911,1.3612,-1.3576,2.4999999999941735e-05,-4.999999999988347e-05,2.0000000000020002e-05,-0.001627702269459519,0.0001877340085181256,0.0003302028470875129
150000000000.0,3,-0.027213453749999998,-0.03913834014999999,-0.007590347099999999,0.008471,0.008604,-0.007853,-1.923476331,-9.5919824315,0.68155236835,-1.9113,1.3612,-1.3572,-2.4999999999941735e-05,-4.999999999988347e-05,8.000000000008001e-05,-0.0008733175944579674,-0.0007608646197596602,0.0006493005352803394
150000000000.0,3,-0.038765687449999996,-0.021770763000000002,-0.010885381500000001,0.007421,0.010744,-0.007857,-1.9232801979999998,-9.5919824315,0.6818661811499999,-1.9115,1.3612,-1.3569,-2.500000000016378e-05,-9.999999999976694e-05,-0.0001300000000000745,0.002359329643200514,0.0006904301176899885,-0.0005606227887278159
150000000000.0,3,-0.038736267500000005,-0.0223395487,-0.0324207849,0.008478,0.00967,-0.007851,-1.9231821315,-9.5919824315,0.6818563744999999,-1.9115,1.3612,-1.3568,-2.4999999999941735e-05,-0.00010000000000021103,-2.0000000000020002e-05,0.0015429093029526442,0.0007879434647033445,-0.001638741008150646
150000000000.0,3,-0.018240369,-0.0272036471,-0.04382591885,0.011633,0.004316,-0.007836,-1.922691799,-9.592080498,0.6820328941999999,-1.9117,1.3612,-1.3565,-2.4999999999941735e-05,-0.00010000000000021103,0.000160000000000049,0.00011427844543865362,-0.0008751037545382534,-0.0006685966816717404
150000000000.0,3,0.023428086849999998,-0.023712479699999997,-0.0372064301,0.010474,-0.006331,-0.006753,-1.9216130675,-9.592276630999999,0.6824447735,-1.912,1.3613,-1.3562,-2.4999999999941735e-05,-9.999999999976694e-05,-9.99999999995449e-06,-0.0005019711678029282,-5.170371784113392e-05,-0.00010719012419180274
150000000000.0,3,0.06826409065,-0.01909354755,-0.044090698399999996,0.009321,-0.014849,-0.003541,-1.9200440034999997,-9.5925708305,0.68288607275,-1.9125,1.3615,-1.3558,-2.4999999999941735e-05,-0.00010000000000021103,-2.0000000000020002e-05,-0.0005688895148039386,-0.0005839593811143295,-0.00037905567483731417
150000000000.0,3,0.10839290245,-0.02827257195,-0.06024225095,0.013477,-0.026608,-0.000317,-1.917788474,-9.5929630965,0.6834842783999999,-1.9132,1.3617,-1.3554,-2.500000000016378e-05,-9.999999999976694e-05,-1.0000000000065512e-05,-0.0007142143592044903,-0.00018913442302004313,1.929263608868581e-05
150000000000.0,3,0.12562318649999998,-0.026213175449999997,-0.0751581656,0.0113,-0.030853,0.000748,-1.915631011,-9.593355362499999,0.6838863510499998,-1.9137,1.3619,-1.3551,-2.4999999999941735e-05,-5.000000000032756e-05,2.0000000000020002e-05,-0.0010430050253076306,-0.0003835557116580457,-0.00019063553026343882
150000000000.0,3,0.08441564319999999,-0.00787473995,-0.0895739411,0.01233,-0.032996,0.003951,-1.9143561464999999,-9.593649562,0.6842393904499999,-1.9141,1.362,-1.3551,-2.4999999999941735e-05,-4.999999999988347e-05,-2.0000000000020002e-05,-0.00018331472613941635,-0.0002523389780781926,-4.969967893053706e-05
150000000000.0,3,0.0031577413,-0.007639380349999999,-0.06409626439999999,0.01027,-0.023388,0.00393,-1.914454213,-9.5935514955,0.68465126975,-1.9142,1.362,-1.3551,-2.500000000016378e-05,-9.999999999976694e-05,-2.999999999997449e-05,0.0001725884008068057,-4.0387146579945465e-05,-0.00011781870702032293
150000000000.0,3,-0.059467525599999994,-0.0111991943,-0.041884202149999994,0.003921,-0.015877,0.004976,-1.9157290774999998,-9.593257295999999,0.68488662935,-1.9141,1.3618,-1.3554,-2.4999999999941735e-05,-0.00019999999999997797,7.00000000000145e-05,0.00017398258939671507,0.0016958089673484444,-0.0018106475823946866
150000000000.0,3,-0.09756636084999999,-0.0195348468,-0.0089828914,-0.001337,-0.006243,0.004955,-1.917788474,-9.592865029999999,0.6848964359999999,-1.9138,1.3616,-1.3558,-2.4999999999941735e-05,-3.333333333355171e-05,7.00000000000145e-05,0.0009299905439976719,-0.00043088116612177707,-0.0014791590163896196
150000000000.0,3,-0.1204060487,-0.0298710559,0.0034911673999999996,-0.010924,-0.002969,0.007073,-1.9203382029999998,-9.592472764,0.6841020973499999,-1.913,1.3614,-1.3566,1.999999999990898e-05,-3.333333333310762e-05,9.99999999995449e-06,-0.00043539428117100876,0.00018052861513662144,0.0006102600325572638
150000000000.0,3,-0.12180839965,-0.02750765325,0.016671304999999997,-0.015185,-0.000805,0.009202,-1.9231821315,-9.5919824315,0.6830331725,-1.9121,1.3612,-1.3576,2.0000000000131024e-05,-3.333333333355171e-05,2.0000000000020002e-05,-0.00016391822395500633,9.150089495824076e-05,0.00035808276985083154
150000000000.0,3,-0.09962575735,-0.0270271274,0.021849216199999997,-0.017255,0.007736,0.010256,-1.9257318604999998,-9.591492099,0.6816014015999999,-1.911,1.361,-1.3587,1.999999999990898e-05,0.00010000000000021103,-9.99999999995449e-06,0.0019906356846550732,-0.001157401462772878,-6.579289566133184e-05
150000000000.0,3,-0.08519036854999999,-0.011503200449999999,-0.001176798,-0.012892,0.018358,0.008114,-1.9280854564999999,-9.5911978995,0.6797773647,-1.9098,1.3608,-1.3597,2.0000000000131024e-05,-0.00010000000000021103,9.99999999995449e-06,5.345587353988712e-05,5.578353791579893e-05,0.00026360037732642283
150000000000.0,3,-0.11494374465,0.018740508149999998,-0.0030106415499999996,-0.004245,0.028949,0.00278,-1.9306351854999997,-9.590707566999999,0.6786201799999999,-1.9088,1.3606,-1.3604,1.999999999990898e-05,-0.00010000000000021103,2.0000000000020002e-05,0.0006507668859374593,-0.0002676651415660647,0.000916298130914317
150000000000.0,3,-0.1381756985,0.0327345977,0.01775984315,0.003338,0.040613,-0.00149,-1.933282981,-9.590217234499999,0.67835540045,-1.9083,1.3603,-1.3606,9.999999999998899e-05,0.00010000000000021103,-2.999999999997449e-05,-0.000938644426256463,0.000628562224127327,0.00046387637763700695
150000000000.0,3,-0.14661922415,0.0245754649,0.052367511,0.007721,0.053366,-0.003632,-1.9357346435,-9.589726901999999,0.6787574730999999,-1.908,1.3601,-1.3603,4.999999999988347e-05,2.0000000000131024e-05,2.0000000000020002e-05,-0.0007491845017773002,-0.0006401655368379888,0.001390077283200064
150000000000.0,3,-0.10482328185,0.006325289249999999,0.06928398225,0.006692,0.059765,-0.000438,-1.9376959734999997,-9.589236569499999,0.67935567875,-1.908,1.3599,-1.3597,5.0000000000105516e-05,2.0000000000131024e-05,1.999999999990898e-05,0.000934861754830818,0.00013422771084115048,0.00019127483530390066
150000000000.0,3,-0.037059330349999996,-0.02711538725,0.06842099704999999,0.007753,0.05869,-0.000433,-1.9385785719999997,-9.5890404365,0.68006175755,-1.9082,1.3597,-1.359,9.999999999998899e-05,1.9999999999686935e-05,-9.99999999995449e-06,-0.0017264299085382184,8.654619976877775e-05,0.0017009365971314416
150000000000.0,3,0.01748525695,-0.04533614295,0.0673520722,0.009792,0.049077,0.003856,-1.9388727714999998,-9.58894237,0.6809933893,-1.9086,1.3597,-1.3581,4.999999999988347e-05,2.0000000000131024e-05,2.999999999997449e-05,-2.9261216647702426e-05,0.0001331933490846815,0.00012969486413672016
150000000000.0,3,0.052936296699999996,-0.03517645355,0.046140288249999994,0.01401,0.042648,0.003871,-1.9384805055,-9.58894237,0.6821505739999999,-1.9092,1.3597,-1.357,5.0000000000105516e-05,2.0000000000131024e-05,-5.000000000032756e-06,-0.0006223358664791956,0.0002463290187830758,6.403612694327876e-06
150000000000.0,3,0.08114022209999999,-0.009718390149999999,0.04797413179999999,0.020317,0.029809,0.002833,-1.9376959734999997,-9.58894237,0.6842001638499999,-1.9102,1.3597,-1.3556,-3.333333333332966e-05,6.666666666665932e-05,-4.999999999921734e-06,0.0008291281780898885,9.059405164646428e-05,-1.8305301187737655e-05
150000000000.0,3,0.103754357,0.03464689445,0.04074663075,0.020242,0.020219,0.002845,-1.9365191755,-9.5890404365,0.6864949199499999,-1.9115,1.3597,-1.3542,-3.333333333332966e-05,6.666666666665932e-05,-2.0000000000020002e-05,-0.0005980257114353016,1.953630553752639e-05,0.00023557516999472838
150000000000.0,3,0.11364926685,0.04392398535,0.029537629799999996,0.016972,0.010656,0.001783,-1.9350481779999997,-9.589138503,0.68857392975,-1.9127,1.3598,-1.3528,-3.333333333332966e-05,6.666666666665932e-05,-9.00000000000345e-05,0.001120852898870428,-0.001243808630537302,0.0009144461050518693
150000000000.0,3,0.12300481095,0.01318994425,0.0329699573,0.011554,4.3e-05,0.001786,-1.9331849145,-9.5894327025,0.69037835335,-1.9138,1.3599,-1.3517,-3.333333333332966e-05,9.999999999976694e-05,-2.0000000000020002e-05,0.0006058498816716718,0.0005248418323202664,-0.0007073894840541328
150000000000.0,3,0.11810148594999999,-0.0273605535,-0.0015396440499999998,0.000762,-0.01266,0.006053,-1.931517784,-9.589726901999999,0.69077061935,-1.9142,1.3601,-1.3513,-3.333333333332966e-05,-9.999999999976694e-05,8.000000000008001e-05,-0.0007316548015083857,0.000518564445679548,-0.0007612089443367331
150000000000.0,3,0.08441564319999999,-0.07769808795,-0.02995931575,-0.001426,-0.019036,0.006055,-1.930537119,-9.589923035,0.69045680655,-1.9143,1.3602,-1.3515,-3.333333333332966e-05,9.999999999976694e-05,2.0000000000020002e-05,-8.348389302215153e-05,0.0002239508466332918,-0.00024985263899468535
150000000000.0,3,0.0471307599,-0.09558541755,-0.046248161399999994,-0.004609,-0.017942,0.003909,-1.929752587,-9.590119168,0.6895349814499999,-1.914,1.3603,-1.352,-5.0000000000105516e-05,4.999999999988347e-05,9.99999999995449e-06,-0.00022729019238765247,-5.107510677815341e-05,-7.546007982250913e-05
150000000000.0,3,0.026870220999999996,-0.07260843659999999,-0.022525875049999998,-0.009884,-0.01363,-0.001447,-1.9288699885,-9.5904133675,0.68855431645,-1.9137,1.3604,-1.3524,-4.999999999988347e-05,5.000000000032756e-05,-9.99999999995449e-06,0.0013570022748803368,0.00022290394164126148,-0.001016312755332649
150000000000.0,3,0.012846711499999998,-0.055740998599999994,-0.019485813549999998,-0.01196,-0.008282,-0.004664,-1.9280854564999999,-9.5906095005,0.68731867855,-1.9132,1.3605,-1.3529,-4.999999999988347e-05,9.999999999976694e-05,7.999999999996898e-05,0.0003313169729102228,0.0005437072220759731,0.00028837740654719113
150000000000.0,3,-0.0017553903499999998,-0.032479624799999995,-0.0303810017,-0.007643,-0.001923,-0.004668,-1.9274970574999999,-9.590903699999998,0.6857986477999999,-1.9126,1.3606,-1.3536,-5.0000000000105516e-05,5.000000000032756e-05,-1.0000000000065512e-05,0.00048484432913209474,-0.00023123026042393136,0.0003183631222221095
150000000000.0,3,-0.019368133750000002,0.010855961549999998,-0.02693886755,-0.003369,-0.000893,-0.004661,-1.9273989909999998,-9.5910017665,0.6848964359999999,-1.9122,1.3607,-1.354,-1.2499999999970868e-05,4.999999999988347e-05,-9.99999999995449e-06,-5.048590574152634e-05,3.3373693013594163e-05,2.7140891338373052e-05
150000000000.0,3,-0.04294332035,0.0441495383,-0.039030467,0.003034,0.00012,-0.003581,-1.9278893234999999,-9.590903699999998,0.68441591015,-1.9119,1.3606,-1.3543,-1.2499999999970868e-05,4.999999999988347e-05,-5.999999999994898e-05,-0.0005858756181025271,0.0005483050640375797,0.00010584651364542452
150000000000.0,3,-0.0416782625,0.0479545185,-0.06112484945,0.010511,0.002189,-0.002502,-1.9284777224999998,-9.5908056335,0.6842099705,-1.9117,1.3606,-1.3544,-1.2499999999970868e-05,4.999999999988347e-05,-3.0000000000085514e-05,0.0003519948724901578,-0.0005357592978583181,0.000459465929663061
150000000000.0,3,-0.03886375395,0.05143587925,-0.0603893507,0.012682,0.006435,-0.00357,-1.9289680550000001,-9.590707566999999,0.6842295838,-1.9117,1.3605,-1.3545,-1.2500000000192912e-05,0.00010000000000021103,-9.99999999995449e-06,0.00044800619547213927,0.00012296976824188732,-0.00022444091040529912
150000000000.0,3,-0.04247260115,0.04470851735,-0.05302455655,0.014864,0.012812,-0.003575,-1.9296545205,-9.590511434,0.6844943633499999,-1.9117,1.3605,-1.3543,-1.2499999999970868e-05,2.4999999999941735e-05,-4.0000000000040004e-05,0.0008449847517995046,5.299286838456041e-06,0.0004186025620227518
150000000000.0,3,-0.05566254539999999,0.032999377249999996,-0.06055606374999999,0.01493,0.021337,-0.003587,-1.9304390525,-9.590315301,0.68469049635,-1.9116,1.3604,-1.3541,-1.2499999999970868e-05,2.4999999999941735e-05,-4.999999999921734e-06,0.0009126570326567496,-0.000158788770415752,-0.0005881050376799202
150000000000.0,3,-0.0355785262,-0.00448163905,-0.06059529034999999,0.016002,0.022394,-0.003585,-1.9308313185,-9.590315301,0.6847395296,-1.9116,1.3603,-1.3539,-1.2499999999970868e-05,2.4999999999941735e-05,-5.000000000032756e-06,0.00019884758761312682,-0.0003851511268537777,-3.226583944870853e-05
150000000000.0,3,-0.025330576949999996,-0.04000132535,-0.0750797124,0.018071,0.015982,-0.001434,-1.9310274514999999,-9.590217234499999,0.6848474027499999,-1.9116,1.3603,-1.3537,-1.2499999999970868e-05,2.4999999999941735e-05,9.00000000000345e-05,-0.0020404987431061894,-2.5380530316754246e-05,0.0015125741796597758
150000000000.0,3,-0.00183384355,-0.05630978429999999,-0.06949972855,0.019069,0.008514,-0.000352,-1.9308313185,-9.590217234499999,0.6852592820499999,-1.9118,1.3603,-1.3534,-2.4999999999941735e-05,5.000000000032756e-05,-9.00000000000345e-05,0.00142170217146953,-1.78267230976914e-07,-0.0010550807153206776
150000000000.0,3,0.04447315775,-0.06953895515,-0.06985276794999999,0.018934,-0.005341,0.003939,-1.9302429195,-9.590315301,0.6859163276,-1.9122,1.3604,-1.3529,-2.4999999999941735e-05,4.999999999988347e-05,9.00000000000345e-05,-0.002456737363779826,-0.00014031140002934706,0.0015549136247505757
150000000000.0,3,0.08227779349999999,-0.08085582925,-0.09246690284999999,0.011347,-0.017004,0.008211,-1.9292622544999998,-9.590511434,0.6857790345,-1.9123,1.3605,-1.353,-2.500000000016378e-05,3.333333333310762e-05,-7.00000000000145e-05,0.0013936811536128246,0.00014161256096212327,-0.0013780529159390653
150000000000.0,3,0.10164592724999999,-0.10331305774999999,-0.1015380541,-0.001575,-0.028624,0.012472,-1.9282815894999998,-9.5908056335,0.6845237833,-1.9119,1.3606,-1.3536,-2.4999999999941735e-05,3.333333333355171e-05,1.999999999990898e-05,0.0003732487329326517,0.0005492126201198655,-0.0007964806806937119
150000000000.0,3,0.1152673641,-0.1224066053,-0.1005181625,-0.011278,-0.039201,0.014602,-1.9272028579999998,-9.5911978995,0.6824545801499999,-1.9111,1.3608,-1.3548,-0.00010000000000021103,3.333333333310762e-05,1.0000000000065512e-05,0.0006027813706774854,0.00025344674900695807,-0.00033864655757387396
150000000000.0,3,0.11900369775,-0.12053353515,-0.10612756629999999,-0.020986,-0.04978,0.017799,-1.9263202594999997,-9.591492099,0.6796891048499999,-1.91,1.361,-1.3564,-9.999999999998899e-05,4.999999999988347e-05,-3.999999999992898e-05,0.0005978345596220347,-0.0002108725098950437,-0.0006835170371086718
150000000000.0,3,0.1016753472,-0.0684111904,-0.1205433418,-0.019972,-0.058309,0.01354,-1.925633794,-9.591884364999999,0.67674710985,-1.9088,1.3611,-1.3582,-9.999999999998899e-05,5.000000000032756e-05,-4.0000000000040004e-05,0.001100250575152062,-0.0008009512560940291,0.0006648786866980672
150000000000.0,3,0.07877681945,-0.011209000949999999,-0.12539763355,-0.023157,-0.058277,0.00926,-1.925045395,-9.5921785645,0.6736678217500001,-1.9074,1.3613,-1.3602,-5.0000000000105516e-05,9.999999999976694e-05,3.999999999992898e-05,-0.000607799248829366,0.0002585839092656972,-0.000681768529147142
150000000000.0,3,0.06289004645,0.0088063717,-0.11049152554999998,-0.026288,-0.052916,0.002838,-1.92406473,-9.592668897,0.6704414338999999,-1.9061,1.3615,-1.3621,-4.999999999988347e-05,0.00010000000000021103,6.0000000000060005e-05,0.0008726103288925202,-5.75224876584457e-05,-0.0012094354822451692
150000000000.0,3,0.01517088755,-0.020407638649999997,-0.0723142371,-0.034777,-0.045389,0.004944,-1.9239666635,-9.592865029999999,0.6669698798,-1.9045,1.3616,-1.3641,-9.999999999998899e-05,0.0002999999999997449,-0.000180000000000069,0.0028807003106199325,-0.0010023801836833712,0.0005130912323401127
150000000000.0,3,-0.036235571749999994,-0.0512887795,-0.0048444850999999995,-0.042228,-0.043196,0.004928,-1.9246531289999997,-9.5929630965,0.66370426535,-1.9029,1.3617,-1.3662,-5.0000000000105516e-05,-3.333333333310762e-05,-2.0000000000020002e-05,0.0002423067960757308,-0.00025489933326872105,-0.0005512566839875888
150000000000.0,3,-0.0700390943,-0.054652460449999996,0.026909447599999997,-0.034768,-0.044323,0.004946,-1.9258299269999999,-9.5929630965,0.66127221615,-1.9016,1.3616,-1.368,-4.999999999988347e-05,-3.333333333355171e-05,-5.999999999994898e-05,0.0010735788162401505,0.0002487792408079059,-0.0005723708733960109
150000000000.0,3,-0.06863674335,-0.0067862018,-0.0044914457,-0.020888,-0.042307,0.006037,-1.9272028579999998,-9.592766963499999,0.65960508565,-1.9006,1.3616,-1.3695,-9.999999999998899e-05,-3.333333333310762e-05,9.00000000000345e-05,-0.0005568104345652358,0.0016138020169236267,-0.0013885072970110102
150000000000.0,3,-0.054672073749999994,0.036000212149999995,-0.06287043315,-0.008074,-0.041345,0.004994,-1.9284777224999998,-9.5925708305,0.6582811879,-1.8997,1.3615,-1.3707,-9.999999999998899e-05,1.6666666666775853e-05,9.999999999998899e-05,-1.8664221820952065e-05,-0.00016458528360363545,-0.0003547459873209924
150000000000.0,3,-0.0298710559,0.0388539473,-0.0798457443,-0.004896,-0.042438,0.007138,-1.9294583875,-9.592472764,0.6573005229,-1.8991,1.3614,-1.3717,-3.333333333332966e-05,1.6666666666331764e-05,2.0000000000020002e-05,0.00010358201634153019,0.0002910164123814951,-0.00015978802957805627
150000000000.0,3,-0.038736267500000005,0.0393835064,-0.06081103665,-0.010241,-0.041331,0.010331,-1.9309293849999998,-9.592276630999999,0.6562217914,-1.8984,1.3613,-1.3729,-3.333333333332966e-05,1.6666666666775853e-05,-2.0000000000020002e-05,0.0003638000651604578,8.607800749738104e-05,-0.00031699103245541593
150000000000.0,3,-0.0834545915,0.024771597899999998,-0.050798447,-0.013426,-0.037045,0.013525,-1.9333810474999997,-9.591884364999999,0.654888087,-1.8974,1.3611,-1.3743,-3.333333333332966e-05,1.6666666666775853e-05,2.999999999997449e-05,-9.476678834197116e-05,0.00030874034035788256,-0.0005978325634954373
150000000000.0,3,-0.11868007829999999,0.0186718616,-0.0425020211,-0.00485,-0.031787,0.013537,-1.9364211089999999,-9.591295965999999,0.6540643284000001,-1.8965,1.3608,-1.3755,9.999999999998899e-05,1.6666666666331764e-05,-2.999999999997449e-05,-0.00013760237833126965,-0.0007533911589523434,-0.00021360099929923493
150000000000.0,3,-0.138077632,0.021947282699999997,-0.0354216198,-0.003684,-0.021137,0.010325,-1.9396573034999998,-9.590707566999999,0.6535739959,-1.8958,1.3605,-1.3764,3.333333333332966e-05,1.6666666666775853e-05,1.4999999999987246e-05,0.0006542801556732591,0.0002915400425331782,-0.0004958961392280692
150000000000.0,3,-0.14579546555,0.025948395899999997,-0.0158279331,-0.00145,-0.010495,0.007116,-1.9428934979999999,-9.5900211015,0.6534268961499999,-1.8952,1.3602,-1.3771,3.333333333332966e-05,0.00010000000000021103,1.4999999999987246e-05,-0.0006873099078812395,-0.00010598287365337633,0.000454597655270117
150000000000.0,3,-0.13932307654999998,0.031400893299999996,0.008384685749999999,-0.004504,0.004454,0.001755,-1.9455412935,-9.589530769,0.6531621165999999,-1.8947,1.36,-1.3777,3.333333333332966e-05,9.999999999976694e-05,9.99999999995449e-06,-0.00012258577089041545,8.45411825396436e-05,0.00012859884244464936
150000000000.0,3,-0.1270549574,0.04319829325,0.02101565095,-0.002283,0.014029,-0.000386,-1.947992956,-9.5890404365,0.65295617695,-1.8942,1.3597,-1.378,9.999999999998899e-05,0.00010000000000021103,-4.999999999999449e-05,-2.5412747808317704e-06,-0.0019642344457806438,0.0016996976916825446
150000000000.0,3,-0.10917743445,0.032783630949999996,0.01850514855,-0.001144,0.023609,0.000672,-1.9499542859999999,-9.588648170499999,0.6526129441999999,-1.8938,1.3595,-1.3782,4.999999999988347e-05,0.00010000000000021103,2.0000000000020002e-05,0.0009350525185931602,0.000488616614464199,6.80798141736716e-05
150000000000.0,3,-0.1136002336,0.028733484499999996,-0.00022555294999999998,-8.1e-05,0.025727,0.004946,-1.9524059484999998,-9.588157837999999,0.6520441584999999,-1.8931,1.3593,-1.3786,5.0000000000105516e-05,4.999999999988347e-05,-9.99999999995449e-06,-0.00010441656768089835,9.963021883829803e-05,0.0003723301928522105
150000000000.0,3,-0.1293889401,0.014337322299999998,-0.00116699135,0.003132,0.029959,0.009221,-1.9556421429999997,-9.587569439,0.6516420858499999,-1.8924,1.359,-1.379,9.999999999998899e-05,4.999999999988347e-05,-1.0000000000065512e-05,0.0005053991725776363,-0.00022560609357502592,0.00013211230265808283
150000000000.0,3,-0.12833962855,0.0048248718,0.01546508705,0.001014,0.033172,0.011353,-1.9590744704999998,-9.5868829735,0.65132827305,-1.8918,1.3587,-1.3793,9.999999999998899e-05,4.999999999988347e-05,4.0000000000040004e-05,-0.0010479199136428363,0.0009082018062063213,-0.0003126982080923213
150000000000.0,3,-0.09828224629999999,-0.011287454149999999,0.012876131449999998,0.00321,0.03955,0.009216,-1.9619183989999998,-9.5862945745,0.65091639375,-1.8911,1.3584,-1.3796,9.999999999998899e-05,5.000000000032756e-05,-9.00000000000345e-05,0.0012645225951715133,0.0008447631965773361,0.00014943320883453737
150000000000.0,3,-0.07077459305,-0.020976424349999998,-0.0033244543499999996,0.005365,0.041665,0.008152,-1.9641739285,-9.5859023085,0.6503574147,-1.8905,1.3582,-1.3798,9.999999999998899e-05,9.999999999976694e-05,1.0000000000065512e-05,-0.00038907596109449827,-0.0002477975492285456,7.586661408698347e-05
150000000000.0,3,-0.0344605681,-0.015808319799999998,-0.0228887211,0.005423,0.046996,0.004942,-1.9654487929999997,-9.585706175499999,0.6495728827,-1.89,1.3581,-1.3799,0.00010000000000021103,5.000000000032756e-05,7.999999999996898e-05,-0.0013780355275476719,-0.0006056295689729208,0.0013099075033111696
150000000000.0,3,-0.02625240205,-0.018338435499999996,-0.03803999535,0.006516,0.049121,0.002807,-1.966429458,-9.5855100425,0.6485529911,-1.8894,1.358,-1.38,9.999999999998899e-05,4.999999999988347e-05,-2.999999999997449e-05,0.0002479540931743518,0.0003110856111534499,0.0002504557420390796
150000000000.0,3,-0.029410143349999997,0.00795319315,-0.040815277299999994,0.009731,0.051226,0.002811,-1.967606256,-9.585411976,0.6477488457999999,-1.8888,1.358,-1.38,9.999999999998899e-05,9.999999999976694e-05,-6.0000000000060005e-05,0.0009632760510873695,3.543457069210554e-05,-0.00046948887583919685
150000000000.0,3,-0.023732092999999996,0.03601982545,-0.0266348614,0.010805,0.052284,0.002813,-1.9688811204999999,-9.585117776499999,0.6473271598499999,-1.8885,1.3579,-1.3798,0.00019999999999997797,0.00019999999999997797,2.0000000000020002e-05,-0.00012411658581878982,0.0011351292092822707,0.0003769040484220554
150000000000.0,3,-0.0087279185,0.037294689949999994,-0.006413549099999999,0.012997,0.060788,0.004937,-1.969959852,-9.5849216435,0.6473075465499999,-1.8883,1.3577,-1.3794,9.999999999998899e-05,0.00010000000000021103,-2.0000000000020002e-05,-2.8001391605414483e-06,0.00013421384348832888,0.00041633300631005454
150000000000.0,3,0.0083160392,0.01328801075,-0.00787473995,0.012963,0.058654,0.008143,-1.9709405169999998,-9.584725510499998,0.6472781266,-1.8881,1.3576,-1.379,9.999999999998899e-05,0.00019999999999997797,-7.00000000000145e-05,-3.287588240619144e-05,-0.0009268029227715857,-0.0002825378516884136
150000000000.0,3,0.02399687255,-0.0681169909,-0.00281450855,0.008666,0.057619,0.012405,-1.9718231155,-9.5845293775,0.6470133470499999,-1.8879,1.3576,-1.3787,9.999999999998899e-05,9.999999999976694e-05,1.0000000000065512e-05,-0.0007288932102444967,-0.0002173958125013531,7.832583305100727e-05
150000000000.0,3,0.033146477,-0.09852741255,0.0144746154,0.008638,0.055486,0.014541,-1.972705714,-9.5843332445,0.6469250872,-1.8877,1.3575,-1.3783,9.999999999998899e-05,0.00019999999999997797,-2.0000000000020002e-05,-0.0013732130944785759,0.000385405093030311,0.00048043225723626293
150000000000.0,3,0.0569374099,-0.07244172355,-0.006462582349999999,0.009701,0.054413,0.013473,-1.973294113,-9.584235177999998,0.6466112743999999,-1.8874,1.3574,-1.378,9.999999999998899e-05,0.00019999999999997797,-9.99999999995449e-06,-0.00015453736569814858,-0.0005646409167443522,0.0004431634036330401
150000000000.0,3,0.10133211445,-0.018161915799999998,-0.025850329399999997,0.012882,0.047999,0.007081,-1.9728037804999998,-9.5843332445,0.6463955281,-1.8874,1.3575,-1.3775,4.999999999988347e-05,5.000000000032756e-05,7.999999999996898e-05,3.0306281477709973e-05,0.00072737735529671,-0.0006317069849153256
150000000000.0,3,0.14479518724999998,0.048484077599999995,-0.039089306899999995,0.016061,0.041586,0.000686,-1.97113665,-9.584725510499998,0.6464739812999999,-1.8877,1.3577,-1.3768,5.0000000000105516e-05,4.999999999988347e-05,-6.0000000000060005e-05,5.204896096011602e-05,7.60119030609463e-05,-0.00013485993269224394
150000000000.0,3,0.19387747049999998,0.07261824324999999,-0.062429133899999996,0.022421,0.031951,-0.006767,-1.967802389,-9.585411976,0.6469152805499999,-1.8884,1.358,-1.3757,9.999999999998899e-05,0.00019999999999997797,-5.999999999994898e-05,0.00043349962002037223,-0.0016266180352177972,0.0015279981456259861
150000000000.0,3,0.20068328559999998,0.05020024135,-0.0750797124,0.022354,0.0213,-0.011028,-1.9638797289999999,-9.586196507999999,0.6474350329999999,-1.8893,1.3583,-1.3746,9.999999999998899e-05,0.00010000000000021103,-9.99999999995449e-06,-0.0007830929699224054,8.348866506380226e-05,0.0007683148759194403
150000000000.0,3,0.17123391564999998,-0.006423355749999999,-0.11428669909999999,0.020166,0.013861,-0.013163,-1.9598590024999998,-9.58698104,0.6472977399,-1.8898,1.3587,-1.3739,8.333333333387927e-06,3.333333333310762e-05,2.4999999999941735e-05,7.127709227283674e-07,-0.00043155980565035,0.0005555736658142685
150000000000.0,3,0.13970553589999998,-0.06504750945,-0.12036682209999999,0.016934,0.010692,-0.013171,-1.9561324755,-9.587765571999999,0.6467976007499999,-1.8901,1.3591,-1.3734,8.333333333165882e-06,3.333333333355171e-05,2.5000000000052758e-05,-0.000960237949143572,0.0009260173684646489,-0.00012959848843197008
150000000000.0,3,0.11200174965,-0.1196999699,-0.09651704929999999,0.01371,0.009651,-0.011047,-1.952896281,-9.5884520375,0.64628765495,-1.8904,1.3595,-1.373,8.333333333387927e-06,3.333333333310762e-05,-1.0000000000065512e-05,-0.000486538487016297,0.00016267826501525917,7.991058662870643e-05
150000000000.0,3,0.0663125673,-0.1272118638,-0.07133357209999999,0.011515,0.006466,-0.004645,-1.9508368845,-9.58894237,0.64609152195,-1.8906,1.3597,-1.3727,8.333333333387927e-06,-4.999999999988347e-05,2.999999999997449e-05,-0.0007879682287235124,0.00023139750417588978,0.0003612463271678301
150000000000.0,3,0.03607866535,-0.11382578654999999,-0.06708729264999999,0.004049,0.011848,0.002801,-1.9500523525,-9.589138503,0.6451304702499999,-1.8903,1.3598,-1.3729,8.333333333387927e-06,-4.999999999988347e-05,6.0000000000060005e-05,-0.0006493676236400958,0.0010456064175103919,0.00018636125280124816
150000000000.0,3,0.024281265399999998,-0.08279754595000001,-0.0737656213,0.002958,0.013981,0.010265,-1.9502484854999997,-9.589138503,0.6438850257,-1.8897,1.3598,-1.3733,8.333333333387927e-06,9.999999999976694e-05,-5.000000000032756e-06,-0.00019645443611948643,0.000153527178162971,0.00015083762738044015
150000000000.0,3,0.0108265416,-0.04519884985,-0.07354987499999999,0.005126,0.019291,0.011326,-1.9512291505,-9.5890404365,0.64261996785,-1.889,1.3598,-1.3739,8.333333333165882e-06,3.333333333355171e-05,-4.999999999921734e-06,0.0006175175234028885,-0.00014151917184501706,0.00012119885880856884
150000000000.0,3,0.01407254275,-0.02586013605,-0.08252295975,0.007276,0.022469,0.012391,-1.9522098154999998,-9.58894237,0.6414137499,-1.8882,1.3597,-1.3743,8.333333333387927e-06,3.333333333310762e-05,3.999999999992898e-05,8.50351170111896e-05,0.0003205141700166614,0.00013746179432416739
150000000000.0,3,0.0154356671,-0.027036934049999996,-0.06971547485,0.00736,0.032062,0.010238,-1.9530924139999999,-9.5888443035,0.6404330849,-1.8877,1.3596,-1.3746,8.333333333387927e-06,3.333333333355171e-05,1.0000000000065512e-05,0.00032909164988148554,-8.15010725236931e-05,0.0006080628869091775
150000000000.0,3,-0.00328522775,-0.02591897595,-0.06530248235,0.004277,0.043815,0.004875,-1.9539750125,-9.588746236999999,0.6390111206499999,-1.8869,1.3596,-1.375,8.333333333165882e-06,-5.000000000032756e-05,1.999999999990898e-05,-0.00011908748164679572,0.00016442069948663374,0.000865291447638139
150000000000.0,3,-0.02870406455,-0.032999377249999996,-0.08587683404999999,0.002215,0.051295,0.001657,-1.9548576109999998,-9.588746236999999,0.636843851,-1.8857,1.3596,-1.3756,8.333333333387927e-06,-4.999999999988347e-05,8.000000000008001e-05,-0.00030780919379025384,0.0011029454722677468,-0.00042497615344538886
150000000000.0,3,-0.0375986961,-0.025526709949999997,-0.0987529655,0.00762,0.058714,-0.001547,-1.9557402094999998,-9.588648170499999,0.6344510284,-1.8845,1.3596,-1.3762,8.333333333387927e-06,3.333333333355171e-05,2.999999999997449e-05,-0.00027577882601059756,-0.00015228138159262272,0.000940108036941556
150000000000.0,3,-0.05743754905,-0.0167889848,-0.1046369555,0.009805,0.065092,-0.002619,-1.9568189409999999,-9.588648170499999,0.63240143855,-1.8834,1.3595,-1.3767,4.999999999988347e-05,3.333333333310762e-05,9.99999999995449e-06,-0.0006736350736207264,5.645671056964119e-05,0.00116853619883317
150000000000.0,3,-0.095909037,-0.01601425945,-0.10365629049999998,0.012041,0.075735,-0.006899,-1.9581918719999998,-9.5884520375,0.63022436225,-1.8822,1.3595,-1.3771,5.0000000000105516e-05,3.333333333355171e-05,3.0000000000085514e-05,-0.0010819350179098741,0.0006067640659148665,0.0004717482331266787
150000000000.0,3,-0.1065394456,0.0030008349,-0.08717131184999999,0.011076,0.086404,-0.011183,-1.9594667364999998,-9.588353971,0.6281159325,-1.881,1.3594,-1.3774,9.999999999998899e-05,6.666666666665932e-05,9.99999999995449e-06,-0.0003546696330483101,0.0003537892294280809,0.0011891875151919251
150000000000.0,3,-0.0893778081,0.01893664115,-0.0795711581,0.014338,0.093839,-0.012253,-1.9605454679999998,-9.588255904499999,0.6261938290999999,-1.88,1.3594,-1.3775,9.999999999998899e-05,6.666666666665932e-05,-9.99999999995449e-06,-0.0005795293511390298,0.0006469763390790639,0.0012345628643730677
150000000000.0,3,-0.06150730879999999,0.061674021849999996,-0.06429239739999999,0.025031,0.095885,-0.014369,-1.9610358005,-9.588157837999999,0.62543871705,-1.8795,1.3593,-1.3769,9.999999999998899e-05,6.666666666665932e-05,-0.0001300000000000745,0.0014951384792787348,-0.0012719171301538434,0.0016648330502935238
150000000000.0,3,-0.027586106449999998,0.08366053115,-0.05426019444999999,0.035695,0.094733,-0.015414,-1.9609377339999998,-9.588157837999999,0.6258800163,-1.8797,1.3593,-1.3757,4.999999999988347e-05,-0.00010000000000021103,-9.99999999995449e-06,0.0018863807736659854,-0.0002684883978187891,0.0005158498384023602
150000000000.0,3,0.00393246665,0.05031792115,-0.0433257797,0.042041,0.089351,-0.013258,-1.9602512685,-9.588255904499999,0.62736082045,-1.8805,1.3593,-1.374,5.0000000000105516e-05,1.1111111111183902e-05,4.999999999999449e-05,-0.0009587989863910629,-0.0004408458327513909,0.0012635834563128334
150000000000.0,3,0.03013583545,-0.0175539035,-0.0162594257,0.043048,0.084012,-0.010047,-1.9592706034999998,-9.588255904499999,0.6296261566,-1.8817,1.3594,-1.3719,3.333333333332966e-05,1.1111111111183902e-05,-2.0000000000020002e-05,0.0009299064819434655,0.00025272558814348756,0.00024507725641820244
150000000000.0,3,0.04872924385,-0.0806302763,-0.01069905515,0.037543,0.068064,-0.001492,-1.9582899384999999,-9.588353971,0.63169535975,-1.8828,1.3594,-1.37,3.333333333332966e-05,1.1111111111183902e-05,2.0000000000020002e-05,-9.941246519695746e-05,0.0001432083618699842,0.0003298974776342334
150000000000.0,3,0.08931896819999999,-0.11541446385,-0.014523648649999998,0.03202,0.049985,0.007064,-1.957211207,-9.5884520375,0.6335782365499999,-1.8839,1.3594,-1.3684,3.333333333332966e-05,1.1111111111183902e-05,-2.999999999997449e-05,0.00040180209557472146,0.00044817263004937047,-0.0001698635032467699
150000000000.0,3,0.13381173924999998,-0.11867027165,-0.034401728199999995,0.0254,0.025527,0.011357,-1.9559363424999998,-9.588648170499999,0.63489232765,-1.8847,1.3595,-1.3673,-4.999999999988347e-05,1.1111111110739813e-05,4.999999999921734e-06,-8.41129201401003e-05,-0.00020354442579928467,6.885051842964174e-05
150000000000.0,3,0.19417167,-0.10930492089999999,-0.06286062649999999,0.019916,0.00852,0.013502,-1.9537788794999997,-9.5890404365,0.63567685965,-1.8854,1.3597,-1.3664,-5.0000000000105516e-05,1.1111111111183902e-05,5.000000000032756e-06,-0.0002637511243404056,8.05661174330119e-06,-9.92261087380264e-05
150000000000.0,3,0.2158051399,-0.0885540495,-0.0931043351,0.010213,-0.004185,0.012428,-1.9511310839999998,-9.589530769,0.6353924667999999,-1.8856,1.36,-1.3662,-5.0000000000105516e-05,1.1111111111183902e-05,6.0000000000060005e-05,-0.0011175288486875434,-0.00014418269143745555,0.0005695959142251183
150000000000.0,3,0.21787434305,-0.0497197155,-0.11249208214999999,-0.000559,-0.01901,0.008155,-1.9482871555,-9.590217234499999,0.6339803091999999,-1.8854,1.3603,-1.3665,-4.999999999988347e-05,1.1111111111183902e-05,-1.0000000000065512e-05,-0.00022466113760022388,-2.2272168468839837e-05,-0.0003108818866288665
150000000000.0,3,0.1997614605,-0.0155141203,-0.12596641925,-0.004926,-0.030695,0.008157,-1.9455412935,-9.590903699999998,0.6318816861000001,-1.8848,1.3607,-1.3674,-4.999999999988347e-05,1.1111111111183902e-05,-1.4999999999987246e-05,0.00030064050268530096,0.0005385002942226436,-0.000603975228835818
150000000000.0,3,0.15883831005,0.0003334261,-0.1103836524,-0.010272,-0.032779,0.006009,-1.9433838305,-9.591492099,0.6297732563499999,-1.8842,1.3609,-1.3683,-5.0000000000105516e-05,-0.00010000000000021103,-1.4999999999987246e-05,-0.0003544640167760793,-0.0003597359844556003,-0.00018914999807240207
150000000000.0,3,0.1126587952,0.0016671305000000001,-0.07646245004999999,-0.014563,-0.035939,0.004934,-1.9418147664999998,-9.5919824315,0.6280276726499999,-1.8836,1.3612,-1.3693,-5.0000000000105516e-05,0.00010000000000021103,9.99999999995449e-06,-0.0011159569565706295,0.0004748396410776401,-0.0006157588609894127
150000000000.0,3,0.07566811139999999,-0.03092036745,-0.0578984616,-0.015633,-0.03593,0.004928,-1.9407360349999998,-9.592276630999999,0.6262232490499999,-1.8829,1.3613,-1.3703,-4.999999999988347e-05,3.333333333310762e-05,4.999999999999449e-05,0.0014421068565564354,-0.0003777072888346833,-0.0007395576838735707
150000000000.0,3,0.04994526845,-0.05310300974999999,-0.0361865385,-0.019902,-0.035895,0.004917,-1.9400495695,-9.5925708305,0.6244090188,-1.8822,1.3615,-1.3714,-9.999999999998899e-05,3.333333333355171e-05,-1.999999999990898e-05,-0.0005835037051573622,4.996263823864311e-05,-0.00026300238697540834
150000000000.0,3,0.04821929805,-0.062429133899999996,0.00212804305,-0.019956,-0.043353,0.00386,-1.939166971,-9.592766963499999,0.6232028008499999,-1.8817,1.3616,-1.3723,-9.999999999998899e-05,3.333333333310762e-05,9.99999999995449e-06,0.00022336529568534047,-0.0004153700368285662,-0.0006490124078268877
150000000000.0,3,0.0505238608,-0.03886375395,-0.005060231399999999,-0.016841,-0.054034,0.003881,-1.938382439,-9.5929630965,0.6223103957,-1.8815,1.3617,-1.3731,-4.999999999988347e-05,-0.00019999999999997797,9.999999999998899e-05,-0.0009746292452250671,0.0010394322241131793,-0.0015017471329699106
150000000000.0,3,0.03327396345,0.0034715540999999996,-0.0380890286,-0.009466,-0.064752,0.004978,-1.9378921064999999,-9.5931592295,0.6218298698499999,-1.8813,1.3617,-1.3739,-5.0000000000105516e-05,5.000000000032756e-05,-2.0000000000020002e-05,-0.0005612650879887049,0.0001169327021279809,-0.0005091158607943846
150000000000.0,3,-0.0081002929,0.03870684755,-0.0612327226,-0.003115,-0.070133,0.006067,-1.938186306,-9.593061163,0.62177102995,-1.8812,1.3617,-1.3747,-9.999999999998899e-05,4.999999999988347e-05,-2.0000000000020002e-05,0.0003115889392724114,0.00034006226393712424,-0.0012521693745144447
150000000000.0,3,-0.07122569895,0.04404166515,-0.08648484635,-0.000986,-0.066959,0.011406,-1.9400495695,-9.592668897,0.6215847036,-1.8809,1.3615,-1.3757,-9.999999999998899e-05,-0.00010000000000021103,-6.999999999990347e-05,0.00014503220455397425,-0.0007227289091134015,-0.0007084788219162697
150000000000.0,3,-0.14718800985,0.0355196863,-0.0730203159,-0.000957,-0.059505,0.016737,-1.9436780299999998,-9.5919824315,0.6215945102499999,-1.8803,1.3612,-1.3769,2.3076923076903455e-05,-2.0000000000131024e-05,-1.333333333330966e-05,0.0008242883411895274,0.00015206892336649958,-0.0013078745996817354
150000000000.0,3,-0.1991926748,0.039295246549999996,-0.036196345149999996,0.001323,-0.040343,0.017785,-1.9485813549999997,-9.5910017665,0.62202600285,-1.8798,1.3607,-1.3778,2.3076923076903455e-05,-1.9999999999686935e-05,-1.3333333333420683e-05,-0.0012049965941882679,-0.00024691190007120056,0.00032327910943852345
150000000000.0,3,-0.22517049064999997,0.0335583563,-0.0055701772,0.004732,-0.016924,0.013492,-1.953680813,-9.5898249685,0.6228301481499999,-1.8794,1.3601,-1.3784,2.3076923076903455e-05,-2.0000000000131024e-05,-1.333333333330966e-05,0.00029683039614303297,6.717866540784101e-05,0.00043733758780595267
150000000000.0,3,-0.22940696345,0.01705376435,0.01823056235,0.009188,0.006483,0.01347,-1.958780271,-9.588746236999999,0.6238598464,-1.8791,1.3596,-1.3787,2.3076923076903455e-05,-1.9999999999686935e-05,-2.0000000000020002e-05,-0.0002720478945783533,0.00034357420622277424,0.0005198588213519706
150000000000.0,3,-0.20512569805,-0.019338713799999997,0.03784386235,0.013582,0.023494,0.015593,-1.9635855294999998,-9.5876675055,0.62520335745,-1.879,1.3591,-1.3785,2.3076923076903455e-05,-2.0000000000131024e-05,-9.99999999995449e-06,0.00028710207157356393,0.00026141966985582243,0.00070257294569398
150000000000.0,3,-0.16196663139999998,-0.015582766849999999,0.05138684599999999,0.018982,0.031973,0.016663,-1.9679985219999998,-9.5866868405,0.62722352735,-1.8793,1.3586,-1.378,2.3076923076903455e-05,4.999999999988347e-05,1.4999999999987246e-05,-0.00032304719988385244,5.023900147360649e-05,0.0004154858831961761
150000000000.0,3,-0.09833127954999998,-0.0025105023999999997,0.030145642099999998,0.023251,0.031938,0.016675,-1.9714308494999997,-9.585804242,0.6291554374,-1.8797,1.3582,-1.3772,2.30769230771255e-05,4.999999999988347e-05,1.4999999999987246e-05,0.00022844218231377056,0.0007306611595834234,5.4728875666043564e-05
150000000000.0,3,-0.038128255199999996,-0.010395048999999998,-0.024408751849999997,0.02328,0.035136,0.015604,-1.9737844455,-9.5853139095,0.6302930087999999,-1.8799,1.3579,-1.3767,2.3076923076903455e-05,-2.4999999999941735e-05,1.4999999999987246e-05,-0.0001509349723480824,0.00014555300112206737,0.0006239392384710385
150000000000.0,3,0.0337152627,-0.0680777643,-0.06257623365,0.022196,0.026632,0.004941,-1.9738825119999996,-9.585215842999999,0.6309010211,-1.8802,1.3579,-1.3761,2.3076923076903455e-05,-2.4999999999941735e-05,1.4999999999987246e-05,0.0011247437082140266,0.0003551549695628431,-0.0004887004969331699
150000000000.0,3,0.12905551399999998,-0.12622139215,-0.09286897549999999,0.015728,0.014971,-0.001462,-1.9715289159999998,-9.585706175499999,0.6305087551,-1.8803,1.3581,-1.3757,2.3076923076903455e-05,-2.4999999999941735e-05,2.999999999997449e-05,-0.0008981686465991956,-0.0005045902931526403,0.00036565322229709096
150000000000.0,3,0.1814818649,-0.1329389474,-0.10829483595,0.005035,0.008672,-0.007884,-1.967606256,-9.586588773999999,0.6290377576,-1.8802,1.3586,-1.3757,2.3076923076903455e-05,-2.4999999999941735e-05,0.0001100000000000545,-0.0016221592751164415,0.0004036088735521748,-0.0005120368085438365
150000000000.0,3,0.18753256795,-0.09697796185,-0.12223989225,0.002904,0.004437,-0.01643,-1.9628009974999998,-9.5876675055,0.6271156542,-1.88,1.3591,-1.3758,2.3076923076903455e-05,0.0002999999999997449,-0.00012000000000000899,0.001960500800892495,-0.0013176644794163916,0.0007655417524259356
150000000000.0,3,0.152395341,-0.01456287525,-0.10445062915,0.005102,0.009753,-0.02178,-1.9583880049999998,-9.588746236999999,0.6256348500500001,-1.88,1.3596,-1.3757,2.3076923076903455e-05,0.0005999999999999339,-0.00031999999999998696,0.0054987019478727195,-0.008198094434922698,0.0022650761397424723
150000000000.0,3,0.10250891245,0.07656051655,-0.0691172692,0.011574,0.012907,-0.031386,-1.9541711455,-9.5896288355,0.62532103725,-1.8805,1.36,-1.3751,-0.00019999999999997797,0.00019999999999997797,-7.999999999996898e-05,0.002144762502296782,0.00018610051676581918,0.001945337465827368
150000000000.0,3,0.04211956175,0.09941001105,-0.03445076145,0.010556,0.017182,-0.034599,-1.9506407515,-9.590315301,0.6255269768999999,-1.8811,1.3604,-1.3743,-2.4999999999941735e-05,-3.333333333310762e-05,-4.0000000000040004e-05,0.00029228822366800244,-0.0005992648223887009,-0.0004942639314560182
150000000000.0,3,0.0187307015,0.04839581775,0.00293218835,0.009351,0.001205,-0.032439,-1.9473064905,-9.590903699999998,0.626448802,-1.882,1.3607,-1.3733,-2.4999999999941735e-05,-3.333333333355171e-05,9.99999999995449e-06,-4.645175123196843e-05,-0.0002556684175691881,-0.00012077238595065154
150000000000.0,3,0.02311427405,-0.03379371589999999,0.017514676899999998,0.007039,-0.015834,-0.023875,-1.9441683625,-9.591492099,0.62757656675,-1.883,1.3609,-1.3724,-2.500000000016378e-05,-3.333333333310762e-05,-3.999999999992898e-05,-0.00031592190716334123,-0.0008414633932509741,-0.0009241899770322526
150000000000.0,3,0.039844418949999995,-0.07542294514999999,-0.0076688003,0.013261,-0.030816,-0.012099,-1.9416186334999999,-9.591884364999999,0.6291162108,-1.8841,1.3611,-1.3715,-2.4999999999941735e-05,-4.999999999988347e-05,-4.999999999999449e-05,0.00022623893810980178,-0.0007765224346258925,0.0004756063929303167
150000000000.0,3,0.04682675374999999,-0.07354006834999999,-0.053152043,0.020611,-0.039411,-0.002468,-1.9398534365,-9.5921785645,0.63075392135,-1.8852,1.3613,-1.3709,-5.0000000000105516e-05,-5.000000000032756e-05,-7.00000000000145e-05,-3.083422787097945e-05,-3.927575405038297e-05,-0.000862201839440413
150000000000.0,3,0.01772061655,-0.029027683999999998,-0.0842195102,0.029113,-0.038423,0.005016,-1.9396573034999998,-9.592080498,0.63263679815,-1.8861,1.3612,-1.3703,-4.999999999988347e-05,-4.999999999988347e-05,9.99999999995449e-06,-0.0020401909116909422,0.000828547130515167,-0.0011740489182141545
150000000000.0,3,-0.00903192465,0.0335191297,-0.11657164854999999,0.030222,-0.029911,0.009273,-1.9406379685,-9.591786298499999,0.63432354195,-1.8867,1.3611,-1.3699,-9.999999999998899e-05,-4.999999999988347e-05,-2.999999999997449e-05,0.0009677118357025449,-0.0007232813583142317,0.0007330257834192722
150000000000.0,3,-0.031646059549999994,0.06112484945,-0.1170717877,0.027127,-0.016032,0.009245,-1.9421089659999997,-9.591394032499998,0.6355689865,-1.8871,1.3609,-1.3697,-5.0000000000105516e-05,-0.00010000000000021103,-4.999999999999449e-05,0.00047850621730294307,0.000154494551406259,-0.0005228841330993106
150000000000.0,3,-0.047503412599999996,0.041119283449999995,-0.10264620555,0.020815,-0.004257,0.009216,-1.943874163,-9.5910017665,0.6361083522500001,-1.887,1.3607,-1.3698,-4.999999999988347e-05,-4.999999999988347e-05,-2.999999999997449e-05,-0.0001886590685373779,0.0005154084884795296,0.0005462428160578625
150000000000.0,3,-0.042717767399999995,-0.01883857465,-0.060860069899999994,0.015456,-0.004217,0.013479,-1.9456393599999997,-9.5906095005,0.6366673312999999,-1.887,1.3605,-1.3698,-9.999999999998899e-05,-4.999999999988347e-05,2.999999999997449e-05,0.00018077420651096965,-0.0005269636489042551,-0.00018370459348648893
150000000000.0,3,-0.005687856999999999,-0.08675943255,-0.0075315072,0.014315,-0.007414,0.023088,-1.947404557,-9.590119168,0.6379618091,-1.8874,1.3603,-1.3695,-9.999999999998899e-05,-0.00010000000000021103,-7.999999999996898e-05,0.0006648005084253228,0.0007227930973072727,-0.0002955635924237754
150000000000.0,3,0.01548470035,-0.11482606485,-0.0034911673999999996,0.013168,-0.012741,0.030566,-1.94956202,-9.5896288355,0.6392955134999999,-1.8877,1.36,-1.3693,-9.999999999998899e-05,-0.00010000000000021103,2.999999999997449e-05,-0.00029880983343977263,0.0001263049866930821,-4.356803119209829e-05
150000000000.0,3,0.028890390899999997,-0.111599677,-0.0344605681,0.011017,-0.012726,0.033762,-1.9519156159999997,-9.589138503,0.6400408189,-1.8877,1.3598,-1.3695,-9.999999999998899e-05,-9.999999999976694e-05,5.999999999994898e-05,0.001339940306724241,0.0004415634077958863,-0.00141445207216373
150000000000.0,3,0.0505827007,-0.09178043735,-0.0620564812,0.007909,-0.002042,0.031599,-1.9538769459999998,-9.588746236999999,0.6398054592999999,-1.8873,1.3596,-1.3699,-9.999999999998899e-05,-4.999999999988347e-05,4.999999999999449e-05,-0.0002533056035940451,0.0005364360949806635,0.0001491517586424962
150000000000.0,3,0.0861808402,-0.09370254075,-0.07226520384999999,-0.002691,0.004444,0.027295,-1.9548576109999998,-9.588648170499999,0.6384913682,-1.8865,1.3595,-1.3706,-0.00019999999999997797,-4.999999999988347e-05,-9.99999999995449e-06,0.0009084474218168381,2.0347789037478137e-05,-0.00018707164070619342
150000000000.0,3,0.1043819826,-0.1351552503,-0.0798849709,-0.012265,0.00453,0.020867,-1.9549556774999999,-9.588746236999999,0.6359416392,-1.8853,1.3596,-1.3718,-0.00010000000000021103,-0.00010000000000021103,9.99999999995449e-06,0.000525816922960276,-0.0010346279443325113,-0.0005473564858888835
150000000000.0,3,0.12047469525,-0.15614148129999997,-0.10249910579999999,-0.024032,-0.000697,0.017646,-1.954269212,-9.589138503,0.6319209127,-1.8835,1.3598,-1.3736,-0.00019999999999997797,-9.999999999976694e-05,4.999999999999449e-05,0.0012132017057142619,9.445582637801486e-05,-0.0009854356061280711
150000000000.0,3,0.14918856645,-0.1315071765,-0.1045781156,-0.030493,-0.008101,0.016572,-1.9530924139999999,-9.589726901999999,0.6274098536999999,-1.8816,1.3601,-1.3756,-9.999999999998899e-05,-3.333333333355171e-05,6.0000000000060005e-05,-0.00029348873303680634,-0.000499929770142904,-5.234780255181093e-05
150000000000.0,3,0.16507533945,-0.0676266584,-0.08558263455,-0.027362,-0.017715,0.01445,-1.9514252834999999,-9.590315301,0.6233793205499999,-1.88,1.3603,-1.3774,-0.00019999999999997797,-3.333333333310762e-05,-7.999999999996898e-05,0.0007311214258063359,-0.00040305536304785505,0.00051525944412667
150000000000.0,3,0.14104904694999998,0.024447978449999998,-0.035500073,-0.018883,-0.025242,0.013404,-1.9504446185,-9.5906095005,0.6211826309499999,-1.8791,1.3605,-1.3785,-9.999999999998899e-05,-3.333333333355171e-05,9.99999999995449e-06,0.0001980300647717037,8.391604971369482e-05,-1.2295860110977941e-05
150000000000.0,3,0.09468320575,0.07861991304999999,-0.015357213899999998,-0.010375,-0.025318,0.018752,-1.950738818,-9.5906095005,0.6201921593,-1.8786,1.3605,-1.3793,-0.00029999999999996696,-9.999999999976694e-05,2.999999999997449e-05,-0.000662879089462276,0.0004008971981963594,0.00011830253488254172
150000000000.0,3,0.04086431055,0.08710266529999999,0.01707337765,-0.001847,-0.024326,0.021966,-1.952307882,-9.590315301,0.6206824918,-1.8786,1.3603,-1.3796,-0.00019999999999997797,-4.999999999988347e-05,-4.999999999999449e-05,0.000803404317281764,2.3361549633893475e-05,0.0010956443388496773
150000000000.0,3,0.018524761849999998,0.07820803374999999,0.0515437524,0.001368,-0.022223,0.023035,-1.9543672785,-9.5898249685,0.6221240693499999,-1.879,1.3601,-1.3794,-0.00029999999999996696,-5.000000000032756e-05,6.0000000000060005e-05,0.00048611858368241556,0.0004649659686488672,-0.00045347954620522657
150000000000.0,3,0.03841264805,0.0421097551,0.07156893169999999,-0.001879,-0.026462,0.026238,-1.9561324755,-9.589334636,0.62394810625,-1.8796,1.3599,-1.3791,-0.00029999999999996696,-5.000000000032756e-05,-7.00000000000145e-05,0.0004244520317753242,0.001024210101691958,0.00017938783203241826
150000000000.0,3,0.07326548214999999,-0.02884135765,0.06832293055,-0.006256,-0.039216,0.028384,-1.9573092734999997,-9.58894237,0.6252425840499999,-1.88,1.3597,-1.3791,-0.000300000000000189,-4.999999999988347e-05,0.00012000000000000899,-0.0006729162842016301,0.0007704385901401434,-2.1383754513326636e-05
150000000000.0,3,0.08595528725,-0.11586556975000001,0.045277303049999995,-0.017066,-0.052987,0.034789,-1.9583880049999998,-9.588746236999999,0.6255465901999999,-1.88,1.3596,-1.3796,-0.00019999999999997797,-0.00019999999999997797,-6.0000000000060005e-05,0.0008348988347410824,0.001955296867883316,-0.0020690924898509877
150000000000.0,3,0.06271352675,-0.1308795509,0.026477955,-0.022531,-0.066799,0.039069,-1.9602512685,-9.588353971,0.62504645105,-1.8795,1.3594,-1.3808,-0.00019999999999997797,-4.999999999988347e-05,-5.999999999994898e-05,-0.00044125078368129067,-0.0009393334575420464,-0.00020660547960460462
150000000000.0,3,0.0041384062999999995,-0.04233530804999999,-0.004726805299999999,-0.020434,-0.070015,0.041213,-1.9636835959999999,-9.587765571999999,0.62422269245,-1.8786,1.3591,-1.3825,-0.00019999999999997797,-4.999999999988347e-05,-3.0000000000085514e-05,0.00018943665376669472,0.0003593755016051414,-0.0007856172245914728
150000000000.0,3,-0.052848036849999995,0.066292954,-0.03717701015,-0.012889,-0.06155,0.03908,-1.9682927215,-9.5868829735,0.62345777375,-1.8775,1.3587,-1.3842,-0.00029999999999996696,-3.333333333355171e-05,-1.999999999990898e-05,0.0013236789244079894,0.00180723424607665,0.0005365555910663566
150000000000.0,3,-0.13440013825,0.12149458685,-0.041648842549999995,-0.005293,-0.046691,0.03694,-1.9742747779999998,-9.585608108999999,0.62314396095,-1.8765,1.3581,-1.3857,-0.00019999999999997797,-3.333333333310762e-05,-7.00000000000145e-05,-0.00039860232620725355,0.0011027703707631176,-0.0007261131573983448
150000000000.0,3,-0.21530500074999998,0.1053626476,-0.0376183094,-0.004047,-0.025387,0.034783,-1.9815316989999998,-9.584137111499999,0.6228497614499999,-1.8753,1.3574,-1.3872,-0.00019999999999997797,-3.333333333355171e-05,3.999999999992898e-05,-0.0004467681867010853,-6.991252155841288e-05,-9.830001726029991e-05
150000000000.0,3,-0.24749042604999996,0.038442067999999996,-0.012434832199999999,-0.003889,-0.006205,0.033695,-1.988984753,-9.582666114,0.6225065287,-1.8741,1.3566,-1.3885,-9.999999999998899e-05,-4.999999999988347e-05,6.0000000000060005e-05,0.0006379118276156337,-0.00021203756303944665,-0.00027503330515976643
150000000000.0,3,-0.20703799479999999,-0.056486304,0.0,-0.008049,0.006618,0.032608,-1.9953590755,-9.5813912495,0.6215945102499999,-1.8728,1.356,-1.3898,-9.999999999998899e-05,-4.999999999988347e-05,0.000140000000000029,-0.0015445961239446415,-0.0014540183945659368,-0.0003507923029331117
150000000000.0,3,-0.10842232239999999,-0.11629706235,-0.0091790244,-0.008045,0.006619,0.031545,-1.9998701344999998,-9.580508651,0.62030003245,-1.8716,1.3556,-1.391,-0.00029999999999996696,9.999999999976694e-05,-7.00000000000145e-05,0.0014037383742955267,0.001574990269620935,0.0007636740223770921
150000000000.0,3,-0.0179853961,-0.1283102086,-0.04007977855,-0.00277,-0.001946,0.029434,-2.0026159965,-9.5800183185,0.61902516795,-1.8706,1.3554,-1.3919,-0.00020000000000020002,-0.0002999999999997449,0.00012999999999996348,-0.003267716240393126,0.0003467187999646182,-0.0005649606374169558
150000000000.0,3,0.05257345065,-0.11370810674999998,-0.050798447,0.001431,-0.012632,0.025187,-2.0037927945,-9.5798221855,0.61822102265,-1.87,1.3553,-1.3926,-0.00019999999999997797,-0.00010000000000021103,4.999999999999449e-05,-0.00038909317961399736,0.0006069448848839976,-0.0003175878347012606
150000000000.0,3,0.08670059264999999,-0.07734504854999999,-0.047611285749999996,-0.001786,-0.018991,0.017715,-2.0039889275,-9.5798221855,0.6175835904,-1.8697,1.3553,-1.393,-0.00019999999999997797,-9.999999999976694e-05,1.0000000000065512e-05,0.00021388410239975286,1.5137952229293816e-05,-0.0002632502966832817
150000000000.0,3,0.10217548634999998,-0.0232417605,-0.039393313049999996,-0.007097,-0.02107,0.009165,-2.0032043955,-9.5800183185,0.6167009918999999,-1.8694,1.3554,-1.3936,-9.999999999998899e-05,9.999999999976694e-05,-6.0000000000060005e-05,0.00021715530926336157,-0.0018851329462190591,0.0006004426219892167
150000000000.0,3,0.09649743599999999,0.006286062649999999,-0.023751706299999998,-0.013481,-0.022077,0.003814,-2.0018314645,-9.5804105845,0.6155732271499998,-1.8691,1.3556,-1.3941,-0.00019999999999997797,0.00010000000000021103,-4.0000000000040004e-05,0.0005427316887711697,-0.0013961399009450037,0.0003171471517671165
150000000000.0,3,0.06438065724999999,0.038873560599999996,0.0091790244,-0.015576,-0.019925,-0.000466,-2.0008507994999998,-9.580704784,0.6146612087,-1.8688,1.3557,-1.3946,-9.999999999998899e-05,-0.00010000000000021103,0.000180000000000069,-0.0005039319662312192,-0.0007775902302011861,-0.0017920372570037202
150000000000.0,3,0.0410702502,0.07004890094999999,0.02941995,-0.010201,-0.017833,-0.004731,-1.999968201,-9.580900917,0.6144650757,-1.8689,1.3558,-1.3948,-0.00039999999999995595,0.00010000000000021103,-0.000140000000000029,0.0019071962374466178,0.0008345315712776635,0.0016385104081626523
150000000000.0,3,0.045473436049999996,0.07851203989999998,0.0203193788,-0.002733,-0.020023,-0.007918,-1.9986933364999997,-9.581097049999999,0.6148965683,-1.8693,1.3559,-1.3946,-0.00019999999999997797,9.999999999976694e-05,1.0000000000065512e-05,-0.0005229718642749681,-0.00015914878425427048,0.0007021332330050534
150000000000.0,3,0.05490743334999999,0.04706211335,-0.01211121275,-0.000619,-0.026428,-0.01431,-1.99663394,-9.581489315999999,0.6151515412,-1.8697,1.3561,-1.3945,-9.999999999998899e-05,-9.999999999976694e-05,2.4999999999941735e-05,-8.928642153338551e-05,-0.00018822051928291117,-0.000499895670555528
150000000000.0,3,0.046091255,0.02974356945,-0.03733391655,0.00791,-0.02969,-0.018562,-1.9940842109999999,-9.581979648499999,0.6156909069500001,-1.8703,1.3563,-1.3941,-0.00019999999999997797,-5.000000000032756e-05,2.5000000000052758e-05,0.0005012668791490871,0.000466270598439511,-0.0012975568971116402
150000000000.0,3,0.0063743225,0.01897586775,-0.04135464305,0.012168,-0.033982,-0.023884,-1.9916325484999997,-9.582469981,0.6165636988,-1.871,1.3566,-1.3937,-9.999999999998899e-05,-4.999999999988347e-05,-6.0000000000060005e-05,-0.00021159220114452815,1.3028368765155562e-05,-0.00019893808895599108
150000000000.0,3,-0.04073682409999999,0.034715541,-0.042413761249999994,0.017488,-0.038283,-0.028135,-1.989573152,-9.5827641805,0.61822102265,-1.8721,1.3567,-1.3929,-0.00020000000000020002,-4.999999999988347e-05,2.999999999997449e-05,-0.0006072455182535297,-0.0003174821976528186,-0.0013427500705565087
150000000000.0,3,-0.0932220149,0.05863396034999999,-0.03437230825,0.021742,-0.040448,-0.029185,-1.9882002209999998,-9.582862247,0.6205059720999999,-1.8733,1.3568,-1.3921,-9.999999999998899e-05,-4.999999999988347e-05,-3.999999999992898e-05,0.0001334124246601398,-0.0003987205345943323,-0.0005685368339212182
150000000000.0,3,-0.13555732295,0.06521422249999999,-0.0497981687,0.025982,-0.043679,-0.029165,-1.9875137554999998,-9.582862247,0.62290860135,-1.8745,1.3568,-1.3912,-9.999999999998899e-05,-0.00010000000000021103,-8.000000000008001e-05,-7.595763439161018e-05,-0.00019734079885402878,-0.0007231697223830658
150000000000.0,3,-0.18492399904999998,0.0601343778,-0.06767569165,0.034492,-0.043752,-0.02487,-1.988004088,-9.582666114,0.6258211763999999,-1.8758,1.3566,-1.3903,-9.999999999998899e-05,-3.333333333310762e-05,-9.99999999995449e-06,-0.0002561992070830854,-0.0003805750326866253,-0.00043698158236260554
150000000000.0,3,-0.24898103684999998,0.03333280335,-0.0691172692,0.032403,-0.033085,-0.017407,-1.9900634844999998,-9.581979648499999,0.62861607165,-1.8768,1.3563,-1.3896,-9.999999999998899e-05,-3.333333333355171e-05,-2.999999999997449e-05,0.00015733428294661955,0.0004908643325476358,-1.4201640219813072e-05
150000000000.0,3,-0.31397951304999994,0.021682503149999997,-0.07117666569999999,0.028219,-0.014946,-0.005688,-1.994280344,-9.580998983499999,0.6306754681499999,-1.8771,1.3559,-1.3895,-4.999999999988347e-05,-3.333333333310762e-05,-4.999999999999449e-05,-0.00011907948682465808,-0.00022021278434980474,-0.0002318134258731952
150000000000.0,3,-0.36277740345,0.0206135783,-0.05312262305,0.024037,0.00213,0.0039,-2.0004585335,-9.5796260525,0.6322151121999999,-1.8769,1.3552,-1.3896,-5.0000000000105516e-05,3.333333333310762e-05,3.999999999992898e-05,1.1092886494701304e-05,0.00028514164408566245,0.00041018572943762877
150000000000.0,3,-0.39207967365,0.010120462799999999,-0.02564438975,0.022035,0.023452,0.011352,-2.0079115874999998,-9.577958921999999,0.6336272698,-1.8765,1.3544,-1.3898,5.0000000000105516e-05,3.333333333355171e-05,-3.999999999992898e-05,0.00039587913245364703,0.0005780946401758857,0.0003711623557038912
150000000000.0,3,-0.3828123894,-0.01075789505,-0.0008629851999999999,0.024339,0.046874,0.014537,-2.0157569075,-9.576193725,0.6350296207499999,-1.876,1.3536,-1.3898,4.999999999988347e-05,3.333333333310762e-05,7.00000000000145e-05,-0.0007636516835121121,-0.0005478018711102539,0.00029638871280779355
150000000000.0,3,-0.30609496645,-0.021045070899999997,0.00169655045,0.025524,0.059656,0.01133,-2.0222292965,-9.5747227275,0.63620641875,-1.8756,1.3529,-1.3896,4.999999999988347e-05,-9.999999999976694e-05,-7.00000000000145e-05,0.0003400337801853226,0.00024283703061578343,0.0007135735524457232
150000000000.0,3,-0.17911846225,-0.00977723005,-0.028135278849999997,0.024498,0.059674,0.002798,-2.02605389,-9.573938195499998,0.6368634643,-1.8753,1.3525,-1.3892,5.0000000000105516e-05,9.999999999976694e-05,3.999999999992898e-05,-0.0001302409224064327,-0.0002959545978784561,0.000656356910453848
150000000000.0,3,-0.03458805455,-0.010542148749999999,-0.0456401491,0.023378,0.047971,-0.00572,-2.0266422889999998,-9.5737420625,0.63746166995,-1.8755,1.3524,-1.3885,5.0000000000105516e-05,-2.4999999999941735e-05,1.0000000000065512e-05,-1.4517404084646301e-05,-0.0001976576906341787,0.00023111852632373697
150000000000.0,3,0.08586702739999999,-0.032675757799999997,-0.07379504124999998,0.021123,0.029881,-0.011034,-2.0243867595,-9.574232395,0.6376283829999999,-1.8759,1.3526,-1.3877,4.999999999988347e-05,-2.4999999999941735e-05,-1.0000000000065512e-05,-0.00022850462580081832,-0.000136972773682853,0.00026896808608301015
150000000000.0,3,0.1314287233,-0.047101339949999994,-0.12189665949999999,0.015691,0.015014,-0.016361,-2.0207582989999997,-9.575016927,0.63679481775,-1.8761,1.353,-1.3873,4.999999999988347e-05,-2.4999999999941735e-05,7.00000000000145e-05,-0.0007936619013269031,-0.0006642562255569917,0.0003941528123334592
150000000000.0,3,0.10403874985,-0.04255105435,-0.1856202712,0.013376,-0.005213,-0.014199,-2.0174240379999997,-9.575899525499999,0.6349805875,-1.8757,1.3534,-1.3876,5.0000000000105516e-05,-2.4999999999941735e-05,-9.99999999995449e-06,-0.0002615216895953676,-0.00044086032116874563,-0.0003764149432603503
150000000000.0,3,0.04573821559999999,0.001176798,-0.21416742935,0.011135,-0.017978,-0.015249,-2.0151685085,-9.5764879245,0.6328525444499999,-1.8751,1.3537,-1.3884,9.999999999998899e-05,6.666666666665932e-05,-1.0000000000065512e-05,9.013782594768927e-05,-0.0003990251707419734,-0.00012754551606919406
150000000000.0,3,-0.022947561,0.0322442652,-0.21948263365,0.003618,-0.022176,-0.014185,-2.014089777,-9.5768801905,0.6303910753,-1.8741,1.3539,-1.3895,0.00010000000000021103,6.666666666665932e-05,-3.4999999999896225e-05,-0.0009580141101079853,-0.0005157290347741483,0.00011064023741846896
150000000000.0,3,-0.08228760014999999,0.0195544601,-0.1723420671,-0.005946,-0.015703,-0.01314,-2.0141878435,-9.577076323499998,0.6273902404,-1.8728,1.354,-1.391,9.999999999998899e-05,6.666666666665932e-05,-3.500000000000725e-05,-0.0010656574240370809,-0.0015016370937102064,0.0023402209984708655
150000000000.0,3,-0.1327624277,-0.02870406455,-0.08659271949999998,-0.013397,-0.010316,-0.008886,-2.0152665749999996,-9.576978256999999,0.6248307047499999,-1.8714,1.3539,-1.3925,9.999999999998899e-05,3.333333333310762e-05,1.999999999990898e-05,-0.0002273586355299173,-0.00019541489771879306,-0.00019054045193467317
150000000000.0,3,-0.1684390204,-0.04802316505,0.0042462794499999994,-0.010088,0.004573,-0.006764,-2.0171298385,-9.5766840575,0.6236342934499999,-1.8706,1.3538,-1.3933,0.00019999999999997797,3.333333333355171e-05,-5.999999999994898e-05,0.0010443147990852886,-0.00013931777459030847,7.935046464835338e-05
150000000000.0,3,-0.17539193525,-0.042286274799999995,0.07014696744999999,0.006086,0.026814,-0.004633,-2.0194834345,-9.5760956585,0.6244678587,-1.8707,1.3535,-1.393,9.999999999998899e-05,3.333333333310762e-05,-9.999999999998899e-05,-0.0002611869577751058,-0.0005919845723492134,0.0011435035986244735
150000000000.0,3,-0.1403527748,-0.0197113665,0.0672147791,0.023265,0.042652,-0.000355,-2.021738964,-9.5755072595,0.62665474165,-1.8714,1.3532,-1.3919,9.999999999998899e-05,-9.999999999976694e-05,5.999999999994898e-05,-0.0002539224026936182,0.0012860880647826978,0.00041215272100458833
150000000000.0,3,-0.11233517574999999,-0.0025693423,0.046257968049999994,0.028768,0.066044,0.003889,-2.0241906265,-9.574820793999999,0.6289004645,-1.872,1.3529,-1.3906,9.999999999998899e-05,-0.00010000000000021103,1.0000000000065512e-05,0.000381302778203807,0.00010008125834426451,0.00012527156446440202
150000000000.0,3,-0.11931751055,-0.01293497135,0.03282285755,0.02575,0.092702,0.010247,-2.0275248875,-9.574036262,0.6302145556,-1.8722,1.3526,-1.3896,0.00019999999999997797,3.333333333355171e-05,9.99999999995449e-06,0.00048742513562816114,0.0005584141854735325,3.09569686796074e-05
150000000000.0,3,-0.1031855713,-0.030498681499999996,0.013788149899999998,0.020494,0.10659,0.016622,-2.0312514145,-9.573251729999999,0.63040088195,-1.8717,1.3522,-1.389,0.00019999999999997797,3.333333333310762e-05,7.999999999996898e-05,-0.0017648256666042972,0.0002401947844428154,0.0007597788020308194
150000000000.0,3,-0.08052240314999999,-0.041129090099999994,-0.024124358999999998,0.019436,0.1098,0.019821,-2.035076008,-9.572467198,0.62955751005,-1.8708,1.3518,-1.3888,9.999999999998899e-05,3.333333333355171e-05,2.0000000000020002e-05,0.0007770468967767119,0.000563119454925598,0.001196506220909388
150000000000.0,3,-0.04573821559999999,-0.039010853699999994,-0.0717062248,0.018362,0.10874,0.018756,-2.0383122025,-9.571878799,0.62790999285,-1.8696,1.3516,-1.3888,9.999999999998899e-05,3.333333333310762e-05,-5.999999999994898e-05,0.0009373213705856642,0.000871910250211938,0.0011581148770414273
150000000000.0,3,0.031185147,-0.04961184235,-0.08277793265,0.013073,0.11092,0.012338,-2.039587067,-9.571780732499999,0.6255171702499999,-1.8684,1.3515,-1.3889,9.999999999998899e-05,3.333333333355171e-05,0.00013999999999991797,-0.0008082608096973143,-0.0004935088889117534,0.0010954012032189375
150000000000.0,3,0.10050835585,-0.0906330593,-0.0548191735,0.005617,0.10886,0.005918,-2.0390967344999997,-9.572074932,0.6229870545499999,-1.8673,1.3516,-1.3889,9.999999999998899e-05,3.333333333310762e-05,-9.99999999995449e-06,0.0017714070991265984,0.0003175305802316508,0.0007103812019559896
150000000000.0,3,0.1586127571,-0.10004744329999998,-0.014405968849999999,-0.003976,0.10681,0.000559,-2.0370373379999998,-9.572663331,0.6202902258,-1.8664,1.3519,-1.3888,5.0000000000105516e-05,-9.999999999976694e-05,2.999999999997449e-05,0.0007311436306558505,0.0007250120232598078,0.0016167884641538066
150000000000.0,3,0.19638797289999999,-0.0519360184,0.013140911,-0.006159,0.097247,-0.004775,-2.03389921,-9.5735459295,0.6177404968,-1.8657,1.3523,-1.3885,4.999999999988347e-05,4.999999999988347e-05,4.0000000000040004e-05,0.000232756155209346,-0.0008133240301855249,0.0002158404530838709
150000000000.0,3,0.21155886044999997,0.0254384501,0.052171378,-0.002005,0.083358,-0.003687,-2.0306630155,-9.574232395,0.6165636988,-1.8656,1.3527,-1.3877,9.999999999998899e-05,4.999999999988347e-05,-7.999999999996898e-05,0.0014351129246568117,0.0005888728284915157,0.0006156585883676513
150000000000.0,3,0.19739805785,0.06989199454999999,0.0874949313,3.9e-05,0.071618,-0.003673,-2.0277210205,-9.574918860499999,0.6167009918999999,-1.866,1.353,-1.3866,-3.333333333332966e-05,4.999999999988347e-05,-4.999999999999449e-05,0.0002898349913176279,0.0005585775195324771,0.0004880717182498273
150000000000.0,3,0.18036390679999997,0.07277514965,0.09793901354999998,0.003126,0.0588,-0.000452,-2.025269358,-9.575409192999999,0.61747571725,-1.8667,1.3532,-1.3853,-3.333333333332966e-05,5.000000000032756e-05,0.00013999999999991797,-0.0003023369394532516,-0.00017145072408220052,0.0001671681231996125
150000000000.0,3,0.1672229958,0.036951457199999996,0.09707602835,0.002944,0.037485,0.002778,-2.0230138285,-9.5757033925,0.6186427085999999,-1.8676,1.3534,-1.384,-3.333333333332966e-05,9.999999999976694e-05,-0.00012000000000000899,0.0005991725729701525,0.0013654684822781427,0.00022711630510441339
150000000000.0,3,0.18701281549999998,-0.019064127599999998,0.08320942525,0.004851,0.011887,0.008153,-2.0206602325,-9.576193725,0.62024119255,-1.8686,1.3536,-1.3828,-3.333333333332966e-05,3.333333333355171e-05,8.000000000008001e-05,-0.0012039306818427686,-0.0003228660943246364,-0.00031828543606549076
150000000000.0,3,0.20371354044999998,-0.06669502664999999,0.0588595133,0.006793,-0.008383,0.014585,-2.01820857,-9.576585991,0.6219867762499999,-1.8697,1.3537,-1.3818,-3.333333333332966e-05,3.333333333310762e-05,1.333333333330966e-05,-0.0002591806538472241,9.839883348949918e-05,-0.0002499940232976172
150000000000.0,3,0.21385361655,-0.08607296704999999,0.042727574049999995,0.010904,-0.0276,0.015681,-2.0157569075,-9.5768801905,0.6240559793999999,-1.871,1.3539,-1.3807,-3.333333333332966e-05,3.333333333355171e-05,1.333333333330966e-05,-0.0006357822562297333,0.00037313480610201566,-0.0009583828595878252
150000000000.0,3,0.19802568345,-0.0912802982,0.011767979999999999,0.011852,-0.042528,0.015697,-2.0135994445,-9.5772724565,0.6261349892,-1.8723,1.3541,-1.3799,-5.0000000000105516e-05,4.999999999988347e-05,1.333333333330966e-05,0.0001243707228273383,-0.0002992645439747754,-0.00046438398192227837
150000000000.0,3,0.15487642345,-0.05845744065,-0.0179853961,0.013956,-0.046807,0.014632,-2.0120303804999997,-9.577468589499999,0.6280570926,-1.8734,1.3542,-1.3792,-4.999999999988347e-05,4.999999999988347e-05,-7.999999999996898e-05,0.0008494937249157175,-3.3191942367061245e-05,0.00012653729467704267
150000000000.0,3,0.08840694975,-0.02409493905,-0.01369989005,0.017212,-0.040439,0.013554,-2.0115400479999996,-9.577370522999999,0.63036165535,-1.8745,1.3541,-1.3785,-9.999999999998899e-05,4.999999999988347e-05,-2.999999999997449e-05,0.00026007801697724986,0.0005608286494598325,-0.0004136750871750472
150000000000.0,3,0.0073353742,0.01266038515,0.00028439285,0.01837,-0.029791,0.01247,-2.012520713,-9.577076323499998,0.63283293115,-1.8755,1.354,-1.3779,-5.0000000000105516e-05,5.000000000032756e-05,2.999999999997449e-05,0.0006103908342556252,-3.226241575715605e-05,-0.00045653188469430006
150000000000.0,3,-0.06046780389999999,0.02586013605,-0.039618866,0.016331,-0.016988,0.013515,-2.014678176,-9.5764879245,0.6342745086999999,-1.8758,1.3537,-1.3777,-4.999999999988347e-05,2.4999999999941735e-05,-9.99999999995449e-06,-0.00014954879012285538,4.785789270012053e-05,-0.0006434992986212862
150000000000.0,3,-0.09450668605,0.02356537995,-0.07604076409999999,0.017497,-0.004209,0.0135,-2.017620171,-9.575801459,0.6347844544999999,-1.8756,1.3534,-1.3779,-9.999999999998899e-05,2.4999999999941735e-05,-1.0000000000065512e-05,0.00011438082688974838,7.934897468042656e-05,-0.00041253400989038624
150000000000.0,3,-0.0878087441,0.014896301349999998,-0.07612902395,0.013339,0.008616,0.01134,-2.0204640995,-9.57521306,0.6347256146,-1.8752,1.3531,-1.3783,-5.0000000000105516e-05,2.4999999999941735e-05,2.0000000000020002e-05,0.0006761328941515821,0.0004887649052525145,-0.0006666688978946844
150000000000.0,3,-0.04219801495,-0.002157463,-0.07677626284999998,0.002771,0.020427,0.009169,-2.0222292965,-9.574918860499999,0.6335782365499999,-1.8744,1.353,-1.3788,-4.999999999988347e-05,2.4999999999941735e-05,-2.999999999997449e-05,-9.80989023542378e-05,-5.729625798234217e-05,0.00038613024221945125
150000000000.0,3,0.017857909649999996,-0.041619422600000004,-0.09947865759999999,-0.008983,0.019458,0.010216,-2.0228176955,-9.575016927,0.6308421811999999,-1.8731,1.353,-1.38,-9.999999999998899e-05,5.000000000032756e-05,-2.0000000000020002e-05,0.0002929840200667222,0.0006545341995525256,-0.0003362789405190192
