Time,placement_label,user_acc_x(m/s^2),user_acc_y(m/s^2),user_acc_z(m/s^2),rotation_rate_x(rad/s),rotation_rate_y(rad/s),rotation_rate_z(rad/s),gravity_x(m/s^2),gravity_y(m/s^2),gravity_z(m/s^2),attitude_roll(rad),attitude_pitch(rad),attitude_yaw(rad),target_delta_x,target_delta_y,target_delta_z,target_delta_roll,target_delta_pitch,target_delta_yaw
150000000000.0,3,0.02678196115,-0.00050013915,0.0270467407,0.013474,-0.049417,-0.004557,-2.5543381254999997,-9.417129862,0.9819398644999999,-1.9378,1.288,-2.5219,0.0,0.0,0.0,0.0,0.0,0.0
150000000000.0,3,0.0171812508,0.020309572149999996,0.0036676871,0.023106,-0.043107,-0.000283,-2.5535535934999998,-9.416933729,0.9852741254999999,-1.939,1.2879,-2.5211,7.999999999996898e-05,9.999999999998899e-05,-9.99999999995449e-06,-0.00030174637981073005,-0.0002569238433567378,-0.0007004919364632656
150000000000.0,3,-0.0072373077,0.042286274799999995,-0.030106415499999997,0.028516,-0.033561,-0.000289,-2.5535535934999998,-9.4166395295,0.9884122535,-1.9401,1.2878,-2.5203,7.00000000000145e-05,-4.999999999988347e-05,-2.0000000000020002e-05,0.0003773131145079489,-0.00013432467914320512,-0.0003635008072819801
150000000000.0,3,-0.0223003221,0.04341403955,-0.04553227595,0.025444,-0.016486,0.000745,-2.554043926,-9.416247263499999,0.9906677829999999,-1.9408,1.2877,-2.5198,7.00000000000145e-05,-5.0000000000105516e-05,-9.99999999995449e-06,-0.00043930317991414114,-0.0001822382737257655,-0.000716398829414544
150000000000.0,3,-0.02635046855,0.0172793173,-0.03382313585,0.020249,-0.00152,-0.003558,-2.5543381254999997,-9.4160511305,0.992236847,-1.9413,1.2876,-2.5193,9.999999999998899e-05,-2.4999999999941735e-05,-2.999999999997449e-05,-0.00011677373562379856,8.054083206809892e-06,-1.968458348455826e-05
150000000000.0,3,-0.0384812946,-0.018828768,-0.0496020357,0.023545,0.010176,-0.004638,-2.5545342585,-9.415854997499999,0.993413645,-1.9417,1.2875,-2.5188,9.999999999998899e-05,-2.500000000016378e-05,-2.0000000000020002e-05,-0.0003845884629734009,-4.1893453086361276e-05,-0.0003149477661934519
150000000000.0,3,-0.04919996305,-0.04700327345,-0.057525808899999996,0.026836,0.021872,-0.004651,-2.5549265245,-9.4156588645,0.9942962434999999,-1.9419,1.2875,-2.5183,0.00012000000000000899,-2.4999999999941735e-05,2.0000000000020002e-05,0.00014537532104452744,-0.00034698457053705667,9.934643417830458e-05
150000000000.0,3,-0.056045004749999995,-0.07734504854999999,-0.04353171935,0.031181,0.032492,-0.003593,-2.5554168569999995,-9.415364664999998,0.9955711079999999,-1.9423,1.2874,-2.5176,7.999999999996898e-05,-2.4999999999941735e-05,-4.999999999999449e-05,-0.00038052203164440357,-8.830410747595607e-05,0.00024648216980160953
150000000000.0,3,-0.03794192885,-0.07436382695,-0.026389695149999996,0.028057,0.041045,-0.005747,-2.5556129899999998,-9.415168532,0.9966498395,-1.9426,1.2873,-2.5168,0.00014999999999998348,-4.999999999988347e-05,-1.0000000000065512e-05,0.0002192608815705377,-5.6093639278831375e-05,0.0004178190656345393
150000000000.0,3,-0.006237029399999999,-0.06493963629999999,-0.03682397075,0.020653,0.050695,-0.003643,-2.5556129899999998,-9.415168532,0.9967479059999999,-1.9427,1.2873,-2.5162,9.999999999998899e-05,-5.0000000000105516e-05,2.0000000000020002e-05,-0.00031586962094487525,-0.00019825854323718417,0.000640037368246027
150000000000.0,3,0.024712757999999998,-0.054250387799999994,-0.054132707999999995,0.015364,0.056068,-0.004732,-2.5551226574999997,-9.415364664999998,0.9959633739999999,-1.9425,1.2874,-2.5159,0.0001500000000000945,-5.0000000000105516e-05,9.99999999995449e-06,5.8256297756020814e-05,-0.00031784760615471974,0.0004001906549864209
150000000000.0,3,0.04570879565,-0.05163201224999999,-0.07072555979999999,0.013248,0.058218,-0.005811,-2.554240059,-9.415756930999999,0.9945904429999999,-1.9421,1.2875,-2.5156,0.00013999999999997348,-4.999999999988347e-05,-1.999999999990898e-05,-0.00015603065732761046,-0.00013590812627350957,0.0005883233220171924
150000000000.0,3,0.056574563849999995,-0.05207331149999999,-0.0481506515,0.006831,0.057204,-0.004758,-2.5531613275000002,-9.416247263499999,0.9931194455,-1.9418,1.2877,-2.5154,0.00010999999999999899,-4.999999999988347e-05,-1.5000000000098268e-05,-0.00016124200792422272,0.00015037864556077807,0.0006818180535770324
150000000000.0,3,0.0648807964,-0.04938628939999999,-0.03945215294999999,0.005696,0.049753,-0.003685,-2.5519845295,-9.4166395295,0.9917465145,-1.9414,1.2878,-2.5152,0.00012999999999996348,-5.0000000000105516e-05,-1.4999999999987246e-05,-4.4221270301791904e-05,-0.00012807382787505261,0.0004311206555454028
150000000000.0,3,0.08426854345,-0.05023946795,-0.025879749349999998,0.00782,0.048669,-0.003686,-2.5506115984999997,-9.4172279285,0.9907658494999999,-1.9413,1.288,-2.5148,0.000150000000000039,-5.0000000000105516e-05,1.0000000000065512e-05,-0.00012157209039376227,8.740355166403369e-05,0.0004364664914344729
150000000000.0,3,0.10258736565,-0.0393835064,-0.02038802535,0.01947,0.040045,-0.000457,-2.549140601,-9.417522127999998,0.9907658494999999,-1.9415,1.2882,-2.5142,8.999999999997899e-05,-4.999999999988347e-05,-6.666666666710341e-06,-0.0006022125815197121,-0.000249255698754558,0.00045086536751126616
150000000000.0,3,0.115914603,-0.024340105299999998,-0.043678819099999995,0.021557,0.035763,0.001681,-2.5476696035,-9.417914393999999,0.9910600489999999,-1.9418,1.2883,-2.5135,9.999999999998899e-05,-9.999999999998899e-05,-6.666666666599319e-06,0.00029280349041349574,8.452397237412868e-05,0.000436812185687252
150000000000.0,3,0.11278628165,-0.00222610955,-0.06122291595,0.024707,0.030407,0.002755,-2.5464928055,-9.4182085935,0.9915503815,-1.9421,1.2884,-2.5128,0.00010999999999999899,-5.0000000000105516e-05,-6.666666666710341e-06,-0.00020904866640480968,-0.00025845309431726804,0.00036727721493612364
150000000000.0,3,0.12401489589999999,-0.0103558224,-0.043884758749999996,0.023625,0.026158,-0.001518,-2.5447276084999997,-9.4186008595,0.9923349134999999,-1.9426,1.2885,-2.512,8.00000000000245e-05,-4.999999999988347e-05,9.99999999995449e-06,0.00033262163598912764,-0.00018239193325042535,3.019683370020232e-06
150000000000.0,3,0.1310756839,-0.0415409694,-0.046875787,0.020413,0.025118,-0.001532,-2.542472079,-9.4191892585,0.9929233125,-1.9431,1.2887,-2.5113,7.999999999996898e-05,-9.999999999998899e-05,-9.99999999995449e-06,-0.0006231611923612768,-2.5458645499298882e-05,0.0006006821954191999
150000000000.0,3,0.12658423819999998,-0.0669990328,-0.033931009,0.01824,0.019808,-0.002604,-2.5401184829999996,-9.419679591,0.9935117115,-1.9436,1.289,-2.5105,7.00000000000145e-05,-9.999999999998899e-05,2.999999999997449e-05,-7.835084837637396e-05,-0.0003243358702429422,3.631526285552411e-05
150000000000.0,3,0.1218182063,-0.0625272004,-0.0021770762999999997,0.017098,0.012354,0.0006,-2.5380590864999997,-9.4201699235,0.9946885095,-1.9443,1.2891,-2.5096,4.999999999999449e-05,-9.999999999998899e-05,-9.99999999995449e-06,-4.623776766887744e-05,-8.077655318916577e-05,0.000331174401009271
150000000000.0,3,0.12704515074999997,-0.047738772199999994,0.026164142199999997,0.019112,0.00061,0.005952,-2.536195823,-9.420464123,0.9967479059999999,-1.9453,1.2892,-2.5087,6.0000000000004494e-05,-5.0000000000105516e-05,-3.0000000000085514e-05,-0.00011356381721694397,1.5894024821383468e-05,0.0002935428168204801
150000000000.0,3,0.13427265179999998,-0.05259306394999999,0.019848659600000002,0.015894,-0.000433,0.008074,-2.534626759,-9.420660256,0.9986111695,-1.9461,1.2893,-2.5078,6.0000000000004494e-05,-4.999999999988347e-05,2.0000000000020002e-05,-5.559483127659526e-05,-4.90910734358696e-05,5.709712798029898e-05
150000000000.0,3,0.12649597835,-0.06385109815,-0.014268675749999998,0.014769,-0.006819,0.00914,-2.5331557614999998,-9.4209544555,0.9999841005,-1.9468,1.2894,-2.5072,2.999999999997449e-05,-9.999999999998899e-05,-2.0000000000020002e-05,-0.00013727939164542846,-0.00017676509940511842,-6.95536120751683e-05
150000000000.0,3,0.12362262989999999,-0.0817286211,-0.037657536,0.009379,-0.014234,0.008066,-2.5314886309999998,-9.421346721499999,1.0005724994999998,-1.9472,1.2895,-2.5069,-9.99999999995449e-06,-5.0000000000105516e-05,-9.99999999995449e-06,-6.314845849875184e-05,0.00016338787580316705,-4.4173955023651956e-05
150000000000.0,3,0.1166795217,-0.09956691745,-0.0490724766,0.004014,-0.016323,0.010186,-2.529919567,-9.4217389875,1.0005724994999998,-1.9474,1.2897,-2.5068,3.999999999998449e-05,-5.0000000000105516e-05,-9.99999999995449e-06,-0.0002759110235324158,-4.2269930069283035e-05,-0.00023199224012238062
150000000000.0,3,0.09525199144999999,-0.11612054265,-0.02176095635,-0.00349,-0.020525,0.010171,-2.5286447025000003,-9.422033186999998,1.0003763665,-1.9475,1.2898,-2.5069,-1.0000000000010001e-05,-9.999999999998899e-05,-1.0000000000065512e-05,-0.00017952030833701116,-0.00015974957746589524,-9.2580072331927e-05
150000000000.0,3,0.07658012985,-0.11151141714999999,0.00612915625,-0.012053,-0.022588,0.012288,-2.527762104,-9.4223273865,1.000082167,-1.9475,1.2899,-2.5072,-1.0000000000010001e-05,-4.999999999988347e-05,1.0000000000065512e-05,0.00012939146564305837,0.00014962401369600364,-0.0002741709726867825
150000000000.0,3,0.0624879738,-0.09171179079999998,0.00867888525,-0.020629,-0.025718,0.015475,-2.5274679045,-9.422523519499999,0.9990034354999999,-1.9472,1.29,-2.5078,-2.999999999997449e-05,-5.0000000000105516e-05,1.999999999990898e-05,7.876369285808593e-05,-0.0002073503326187609,7.226784453528978e-06
150000000000.0,3,0.04019745835,-0.08095389574999999,-0.0061781894999999995,-0.027011,-0.02247,0.016521,-2.527762104,-9.4227196525,0.996944039,-1.9465,1.29,-2.5088,-1.0000000000010001e-05,-2.4999999999941735e-05,1.0000000000065512e-05,7.933904909007694e-05,7.724020482768879e-05,-0.0005597862533841536
150000000000.0,3,0.0323227184,-0.06857790344999999,-0.00840429905,-0.025914,-0.019281,0.015446,-2.5282524365,-9.422817719,0.9946885095,-1.9456,1.2901,-2.5099,-1.0000000000010001e-05,-2.500000000016378e-05,2.999999999997449e-05,0.0003023000730182357,-8.968210553828015e-05,-0.00035209365221922084
150000000000.0,3,0.03896182045,-0.039854225599999994,0.009483030549999999,-0.020568,-0.017196,0.016516,-2.5289389019999997,-9.422817719,0.9931194455,-1.945,1.2901,-2.5107,-1.999999999996449e-05,-2.4999999999941735e-05,2.0000000000020002e-05,1.748300295845162e-05,0.00034301823573401613,-0.0004850422300735069
150000000000.0,3,0.0564078508,-0.00924767095,-0.00095124505,-0.017305,-0.010827,0.014372,-2.529135035,-9.422817719,0.9917465145,-1.9445,1.2901,-2.5114,-2.0000000000020002e-05,-2.4999999999941735e-05,9.99999999995449e-06,0.0002658522480649683,0.0001244183940218857,-7.634737747341802e-05
150000000000.0,3,0.05992843815,-0.00065704555,0.004393379199999999,-0.01196,-0.010869,0.012242,-2.5292331014999996,-9.422915785499999,0.990863916,-1.9442,1.2901,-2.5118,-2.0000000000020002e-05,-3.333333333332966e-05,2.0000000000020002e-05,-4.806287322578484e-05,3.446862526024219e-05,-0.0002998130366784757
150000000000.0,3,0.06261546024999999,0.010787315,0.0114737805,-0.010887,-0.010878,0.011173,-2.5292331014999996,-9.423013851999999,0.9901774505,-1.944,1.2902,-2.5122,-1.0000000000010001e-05,-3.333333333332966e-05,2.0000000000020002e-05,0.00014121293021140957,-6.375494400168158e-05,-0.00022136557359697662
150000000000.0,3,0.054005221549999996,0.01764216335,0.00640374245,-0.006616,-0.009849,0.012243,-2.5294292345,-9.423013851999999,0.989883251,-1.9438,1.2901,-2.5125,-1.999999999996449e-05,-3.333333333332966e-05,-9.99999999995449e-06,0.0002327327112117139,2.0538899683231193e-05,-8.653626652277424e-05
150000000000.0,3,0.03647093135,0.00610954295,0.009433997299999998,-0.001255,-0.006696,0.012244,-2.5300176335,-9.422817719,0.9899813175,-1.9438,1.2901,-2.5126,-3.0000000000030003e-05,-5.0000000000105516e-05,4.999999999921734e-06,-0.00013460590436231712,0.00012673977473731668,-0.00021687513640777922
150000000000.0,3,0.02395764595,0.006158576199999999,-0.0034127142,0.003029,-0.004601,0.012246,-2.5308021655,-9.422523519499999,0.9902755169999999,-1.9438,1.29,-2.5127,-1.999999999996449e-05,-4.999999999988347e-05,5.000000000032756e-06,0.00013464314588507165,1.9619860905706332e-05,-6.306292494784316e-05
150000000000.0,3,-0.0026281822,0.01434712895,-0.0157690932,0.003045,-0.002469,0.012243,-2.5320770299999995,-9.42222932,0.9903735834999999,-1.9436,1.2899,-2.5128,-1.0000000000010001e-05,-4.999999999988347e-05,-9.99999999995449e-06,-0.00014487152819531168,2.39281927851831e-05,-0.00014267463248618384
150000000000.0,3,-0.00938496405,0.0060310897499999995,-0.00736479415,0.005201,-0.000355,0.011176,-2.5333518945,-9.421837054,0.9906677829999999,-1.9435,1.2897,-2.5129,2.999999999997449e-05,-5.0000000000105516e-05,-9.99999999995449e-06,-0.00013469646349384412,3.424895510351078e-05,-2.5671929599901944e-05
150000000000.0,3,-0.0053936575,-0.0223395487,0.016465365349999997,-4.3e-05,0.008218,0.006883,-2.5342344929999996,-9.421640921,0.9907658494999999,-1.9435,1.2896,-2.5129,-2.999999999997449e-05,-5.0000000000105516e-05,-1.0000000000065512e-05,0.00014083989807645025,-2.89348644602061e-05,-0.00019009187735807842
150000000000.0,3,-0.0062958693,-0.048042778349999996,0.02903749065,-0.006356,0.017862,0.00472,-2.5348228919999998,-9.421444788,0.9902755169999999,-1.9432,1.2896,-2.513,1.0000000000010001e-05,-4.999999999988347e-05,-1.0000000000065512e-05,-6.652695482500803e-05,0.00021072867427496256,-2.8447515550311664e-05
150000000000.0,3,-0.026046462399999998,-0.04961184235,0.059663658599999995,-0.006367,0.016795,0.00579,-2.5357054905000003,-9.421248655,0.9901774505,-1.9431,1.2895,-2.5131,9.99999999995449e-06,-3.333333333332966e-05,2.0000000000020002e-05,7.392226794089574e-05,-0.00013294539429731245,4.200046863456208e-05
150000000000.0,3,-0.0398738389,-0.0383047749,0.07520719884999999,-0.002113,0.014629,0.005804,-2.5368822884999997,-9.420856388999999,0.9906677829999999,-1.9431,1.2894,-2.5129,3.0000000000030003e-05,-3.333333333332966e-05,-2.0000000000020002e-05,0.0002540158303887541,0.00016392925805641667,0.00012581408048584208
150000000000.0,3,-0.00426589275,-0.00869849855,0.0617426684,0.008598,0.018803,0.004748,-2.5376668204999997,-9.4205621895,0.9918445809999998,-1.9434,1.2893,-2.5124,2.0000000000020002e-05,-3.333333333332966e-05,2.0000000000020002e-05,1.6268991667178767e-05,-0.0001395273275799358,9.374971873876703e-05
150000000000.0,3,0.06130136914999999,0.0164947853,0.07055884675,0.013925,0.016628,0.003691,-2.537176488,-9.420464123,0.9938059109999999,-1.9441,1.2892,-2.5115,2.999999999997449e-05,-3.333333333332966e-05,-9.99999999995449e-06,1.798531751973087e-05,3.666352415199192e-05,4.787425707419857e-06
150000000000.0,3,0.11329622745,0.034823414149999996,0.0620957078,0.012809,0.011306,0.005826,-2.5360977565,-9.4205621895,0.9959633739999999,-1.945,1.2893,-2.5105,3.999999999998449e-05,-3.333333333332966e-05,-1.0000000000065512e-05,-0.00026573593769718684,-0.00012946879793562793,7.187700899802252e-05
150000000000.0,3,0.11006983959999998,0.006541035549999999,0.0183580488,0.007422,0.006019,0.007954,-2.5351170915,-9.420660256,0.9970421054999999,-1.9455,1.2893,-2.51,2.0000000000020002e-05,-3.333333333332966e-05,-9.99999999995449e-06,-0.00014119561736025688,0.00016017297333736913,3.373486007385296e-05
150000000000.0,3,0.09797824014999999,-0.02336924695,0.02079990465,0.008461,0.001748,0.006888,-2.53403836,-9.420856388999999,0.9981208369999999,-1.946,1.2894,-2.5095,2.0000000000020002e-05,7.1428571428722165e-06,-2.999999999997449e-05,0.0001438745171804534,6.982067204863718e-05,-0.00048592547228443195
150000000000.0,3,0.07817861379999999,-0.039393313049999996,0.0080806796,0.006342,0.002832,0.005809,-2.533253828,-9.4209544555,0.9988073024999999,-1.9464,1.2894,-2.5091,-2.0000000000020002e-05,7.1428571428722165e-06,9.99999999995449e-06,-8.858174227066584e-05,-0.00024555153710159594,0.0005753488899009618
150000000000.0,3,0.027733206199999996,-0.054220967849999996,0.00783551335,0.002095,0.006062,0.006861,-2.533253828,-9.4209544555,0.9991015019999999,-1.9465,1.2894,-2.5089,1.0000000000010001e-05,7.1428571428722165e-06,-5.999999999994898e-05,-0.0003111117345806491,0.00029016302284023965,-0.0005353957873612814
150000000000.0,3,0.00981645665,-0.04510078334999999,0.00634490255,-0.001079,0.011413,0.010046,-2.5339402934999997,-9.420856388999999,0.998905369,-1.9463,1.2894,-2.509,1.0000000000010001e-05,7.1428571428722165e-06,-1.0000000000065512e-05,0.00018901145731997637,-2.0349236449890284e-05,1.127664785594007e-05
150000000000.0,3,0.01893664115,-0.024114552349999995,0.0423255014,0.001043,0.010328,0.011118,-2.534626759,-9.4205621895,0.9994937679999999,-1.9464,1.2893,-2.5088,2.999999999997449e-05,7.1428571428722165e-06,-9.99999999995449e-06,-9.362339655916152e-05,6.295642148912428e-05,0.00013478007795519886
150000000000.0,3,0.015700446649999998,-0.0046189321499999995,0.07124531225,0.007448,0.010274,0.011129,-2.535607424,-9.4201699235,1.000866699,-1.9468,1.2891,-2.5084,-5.000000000032756e-06,7.1428571428722165e-06,-1.0000000000065512e-05,0.0003954673934849495,3.004194588607234e-05,-2.1477677589309963e-05
150000000000.0,3,0.0310282406,0.0019024901,0.0471895998,0.014927,0.011278,0.011138,-2.5362938895,-9.4197776575,1.002631896,-1.9473,1.289,-2.5078,-4.999999999977245e-06,7.142857142650172e-06,-1.999999999990898e-05,-0.0003217493146419059,0.000110994088933003,4.0667690466733575e-05
150000000000.0,3,0.04204110855,-0.0439730186,0.013297817399999998,0.018134,0.011252,0.010073,-2.5364900224999998,-9.4195815245,1.00420096,-1.9478,1.2889,-2.5071,3.999999999998449e-05,7.1428571428722165e-06,-9.99999999995449e-06,9.099371691023705e-05,-2.7122547208824344e-05,2.9511542318783057e-05
150000000000.0,3,0.052730357049999996,-0.09797824014999999,0.02448720505,0.018157,0.013383,0.008996,-2.5362938895,-9.419385391499999,1.0060642235,-1.9484,1.2888,-2.5064,1.0000000000010001e-05,7.1428571428722165e-06,-1.0000000000065512e-05,-0.00017947930498074527,1.4586767625335284e-05,6.942503938578426e-05
150000000000.0,3,0.06765607835,-0.11515949095,0.02166288985,0.011722,0.009173,0.008986,-2.535607424,-9.419483458,1.0074371545,-1.949,1.2889,-2.5057,-2.999999999997449e-05,7.1428571428722165e-06,5.000000000032756e-06,-5.3427200151112686e-05,-0.00014260675660215938,3.5826290075924305e-05
150000000000.0,3,0.0666656067,-0.10566665374999999,-0.01130706745,0.00215,0.012449,0.007889,-2.5349209585,-9.419679591,1.007142955,-1.949,1.2889,-2.5056,4.999999999977245e-06,7.1428571428722165e-06,5.000000000032756e-06,2.3412336222161656e-05,1.599322697032335e-05,6.653303453640902e-05
150000000000.0,3,0.0867888525,-0.0816697812,-0.0240655191,-0.003197,0.010362,0.006808,-2.5339402934999997,-9.4199737905,1.0062603565,-1.9488,1.2891,-2.5057,5.000000000032756e-06,7.1428571428722165e-06,4.999999999921734e-06,-9.31377341517603e-06,0.00018414513514963815,-0.0001053490964815218
150000000000.0,3,0.09125087825,-0.0467384939,-0.023290793749999997,-0.005349,0.008248,0.006801,-2.5330576949999997,-9.420366056499999,1.0051816249999999,-1.9486,1.2892,-2.5058,-1.0000000000010001e-05,7.1428571428722165e-06,5.000000000032756e-06,2.6489859479950084e-05,-3.0253883199993226e-05,5.1869020786465825e-05
150000000000.0,3,0.07089227285,-0.03872646085,-0.01581812645,-0.005404,0.002918,0.008939,-2.5325673624999996,-9.420660256,1.00420096,-1.9483,1.2893,-2.5061,-2.0000000000020002e-05,7.1428571428722165e-06,-1.0000000000065512e-05,0.00014895613326748602,9.508994795504044e-05,7.426320036252321e-06
150000000000.0,3,0.05751600225,-0.027674366299999996,-0.012444638849999998,-0.007552,0.001868,0.01,-2.5325673624999996,-9.4207583225,1.003220295,-1.948,1.2893,-2.5064,-7.00000000000145e-05,-9.999999999998899e-05,4.999999999999449e-05,-0.00018377813944825405,-0.0002223060769939167,0.0005102201635693859
150000000000.0,3,0.0563293976,-0.01711260425,0.028154892149999996,-0.006513,0.000789,0.014269,-2.532861562,-9.420660256,1.003024162,-1.9478,1.2893,-2.5065,-1.999999999996449e-05,9.999999999998899e-05,1.0000000000065512e-05,0.000193985454008061,4.448447637983577e-05,-1.3669163697827003e-05
150000000000.0,3,0.060104957849999995,-0.0027458619999999995,0.028762904449999998,-0.002233,0.002883,0.015336,-2.5333518945,-9.4205621895,1.0031222285,-1.9478,1.2892,-2.5066,-3.0000000000030003e-05,2.4999999999941735e-05,-2.0000000000020002e-05,2.54089829783144e-05,0.00014567553623079377,-0.0001702600389776876
150000000000.0,3,0.0644296905,0.0017063571,0.010247949249999999,0.003123,0.006034,0.016403,-2.533842227,-9.420366056499999,1.003416428,-1.9478,1.2892,-2.5065,-1.999999999996449e-05,2.500000000016378e-05,9.99999999995449e-06,0.00013478255721421917,-4.184859152212006e-05,1.889144029521006e-05
150000000000.0,3,0.044326057999999995,-0.0046189321499999995,0.0122583125,0.007402,0.008128,0.017471,-2.5349209585,-9.4199737905,1.0041028934999998,-1.9479,1.2891,-2.5063,-7.00000000000145e-05,2.4999999999941735e-05,-1.0000000000065512e-05,-7.834362325409572e-05,0.00014548209375164767,-6.281739366142958e-05
150000000000.0,3,0.04041320464999999,-0.02019189235,0.01442558215,0.006347,0.008138,0.015331,-2.5358035569999995,-9.419679591,1.0047893589999999,-1.9481,1.2889,-2.5062,-3.999999999998449e-05,2.4999999999941735e-05,-9.99999999995449e-06,0.0001914278475185771,4.2186876924699135e-05,-4.265707163586541e-05
150000000000.0,3,0.0410702502,-0.0301652554,-0.018593408399999997,0.002159,0.015636,0.011037,-2.5362938895,-9.4195815245,1.004397093,-1.9479,1.2889,-2.5062,-4.0000000000040004e-05,2.4999999999941735e-05,-9.99999999995449e-06,2.9108011109668652e-05,0.00013329357411229203,0.0003170400003238427
150000000000.0,3,0.02878251775,-0.05749638895,-0.02695848085,-0.003122,0.019946,0.006747,-2.536588089,-9.419679591,1.003220295,-1.9474,1.2889,-2.5065,-3.999999999998449e-05,2.4999999999941735e-05,-9.99999999995449e-06,-7.312593137154266e-05,0.000172930378230296,-8.855846085964458e-05
150000000000.0,3,0.013886216399999998,-0.07557985155,-0.017730423199999998,-0.004215,0.016759,0.006748,-2.536980355,-9.419679591,1.002043497,-1.947,1.2889,-2.5068,-3.999999999998449e-05,2.500000000016378e-05,9.99999999995449e-06,-7.956911193041094e-06,-0.00013536650690815222,0.0002804236066040744
150000000000.0,3,0.01324878415,-0.0957521306,0.00726672765,-0.003128,0.019945,0.007809,-2.537176488,-9.419679591,1.0011608985,-1.9466,1.2889,-2.507,-3.0000000000030003e-05,2.4999999999941735e-05,9.99999999995449e-06,2.6520319448053442e-05,0.00029178658464346086,-1.1848694150273786e-05
150000000000.0,3,0.03725546335,-0.08552379464999998,0.023810546199999998,-0.007392,0.021044,0.008863,-2.5372745545,-9.4197776575,1.000474433,-1.9464,1.289,-2.507,-4.999999999999449e-05,5.0000000000105516e-05,1.0000000000065512e-05,0.0005208948253241363,-0.00016049080111835146,0.00018973454859505523
150000000000.0,3,0.060291284199999996,-0.04650313429999999,0.008335652499999999,-0.004234,0.015689,0.008873,-2.5370784215,-9.419875723999999,0.9997879675,-1.9462,1.289,-2.5071,-3.999999999998449e-05,4.999999999988347e-05,9.99999999995449e-06,-0.0001180620991068082,0.00023487265449406713,-9.015181395621852e-05
150000000000.0,3,0.06580262149999999,-0.009914523149999998,-0.010022396299999998,-6e-06,0.01139,0.009951,-2.5370784215,-9.4199737905,0.9991015019999999,-1.946,1.289,-2.5072,-2.999999999997449e-05,4.999999999988347e-05,1.0000000000065512e-05,0.00019511700404573062,0.00015263357864658822,0.00024803938035855566
150000000000.0,3,0.045306723,0.01585735305,-0.01026756255,0.004247,0.010288,0.011024,-2.5375687539999996,-9.419875723999999,0.9991015019999999,-1.9459,1.289,-2.5072,-3.0000000000030003e-05,5.0000000000105516e-05,9.99999999995449e-06,-0.00033334010033247985,-2.41091960209161e-05,-0.00021592451984586702
150000000000.0,3,0.0244381718,0.02101565095,-0.0156318001,0.009574,0.008116,0.008901,-2.5381571529999998,-9.4195815245,0.9994937679999999,-1.9459,1.2889,-2.507,-4.999999999999449e-05,1.999999999990898e-05,9.99999999995449e-06,0.0005072625210398307,1.1066465261944103e-06,0.00022243415563538704
150000000000.0,3,0.01585735305,0.010022396299999998,-0.014592295199999999,0.009596,0.010248,0.007829,-2.5388436185,-9.419385391499999,0.9997879675,-1.9459,1.2888,-2.5069,-7.00000000000145e-05,2.0000000000131024e-05,-9.99999999995449e-06,-0.00011764218842835739,0.00019123917908125954,-0.0001294535770073324
150000000000.0,3,0.0131997509,-0.0048444850999999995,-0.01832862885,0.009612,0.012379,0.007824,-2.539530084,-9.4191892585,1.000082167,-1.946,1.2888,-2.5067,-2.999999999997449e-05,1.999999999990898e-05,-2.0000000000020002e-05,-0.00038862392318494976,6.04829396619877e-05,-0.0001129513065869503
150000000000.0,3,0.00306948145,-0.0283804451,-0.00648219565,0.006467,0.018799,0.006739,-2.5402165494999998,-9.4189931255,1.0001802334999998,-1.9459,1.2887,-2.5066,-3.0000000000030003e-05,2.0000000000131024e-05,1.0000000000065512e-05,-3.9384350473348206e-05,-3.376800048959794e-05,0.00043256664762392205
150000000000.0,3,0.00289296175,-0.05167123885,0.011287454149999999,0.002236,0.022033,0.00459,-2.5406088155,-9.418895058999999,1.000082167,-1.9458,1.2886,-2.5065,-9.99999999995449e-06,1.999999999990898e-05,5.000000000032756e-06,0.00043350073590331384,-1.0421257654602556e-05,3.695177093110402e-05
150000000000.0,3,0.0060997363,-0.058810480049999996,0.00403053315,-0.002061,0.020998,0.008853,-2.5412952809999996,-9.418796992499999,0.9993957014999999,-1.9455,1.2886,-2.5066,-5.0000000000050004e-05,3.333333333332966e-05,4.999999999921734e-06,-2.6423604330139128e-05,0.00019399014996657193,0.00021505546436717538
150000000000.0,3,0.014258869099999998,-0.0516025923,-0.0066979419499999995,-0.003105,0.025267,0.010976,-2.542079813,-9.418698926,0.9985131029999998,-1.9451,1.2886,-2.5068,-2.4999999999997247e-05,3.333333333332966e-05,-9.99999999995449e-06,3.734305741120991e-05,0.00032804546928977274,3.252732044467521e-05
150000000000.0,3,0.026585828149999997,-0.0365003513,0.0010983447999999999,-0.000943,0.02951,0.012037,-2.5430604779999997,-9.418502793,0.9976305044999999,-1.9446,1.2885,-2.507,-2.4999999999997247e-05,3.333333333332966e-05,-1.0000000000065512e-05,0.00014052471454828463,6.647627223110852e-05,0.00013459404848070733
150000000000.0,3,0.0277920461,-0.038010575399999996,0.03319551025,-0.002003,0.02952,0.010966,-2.5437469435,-9.418306659999999,0.9972382384999999,-1.9444,1.2884,-2.5069,-1.999999999996449e-05,5.0000000000105516e-05,4.0000000000040004e-05,-0.00012698502688479607,8.543049971287964e-05,-3.625414730556997e-05
150000000000.0,3,0.021182364,-0.0348724474,0.00781590005,-0.003086,0.027397,0.010965,-2.5447276084999997,-9.4182085935,0.9963556399999999,-1.944,1.2884,-2.5071,-2.0000000000020002e-05,4.999999999988347e-05,-2.0000000000020002e-05,0.0004021354058445503,0.0002109308386466502,8.577350128069483e-05
150000000000.0,3,0.017465643649999998,-0.04062895095,-0.02625240205,-0.006306,0.025292,0.010961,-2.5456102069999997,-9.418110527,0.9946885095,-1.9433,1.2884,-2.5075,-2.0000000000020002e-05,4.999999999988347e-05,4.0000000000040004e-05,-2.0269787067261902e-05,-0.00010326943880323292,0.00034190442280124245
150000000000.0,3,0.020123245799999998,-0.0447575506,-0.013935249649999999,-0.005279,0.02102,0.012036,-2.5464928055,-9.418012460499998,0.9933155785,-1.9427,1.2883,-2.5079,-1.999999999996449e-05,5.0000000000105516e-05,9.99999999995449e-06,1.08516831482941e-05,0.00038671349094587804,9.054236083816392e-05
150000000000.0,3,0.03478418755,-0.03880491404999999,-0.020593965,-0.005277,0.022085,0.013098,-2.547179271,-9.418012460499998,0.9917465145,-1.9421,1.2883,-2.5083,-3.0000000000030003e-05,5.0000000000105516e-05,1.0000000000065512e-05,0.00031587863941417993,-0.000251943110095576,0.00022942175183349178
150000000000.0,3,0.020084019199999997,-0.01369989005,-0.025458063399999998,-0.003184,0.017804,0.014175,-2.5483560689999996,-9.4178163275,0.99047165,-1.9415,1.2883,-2.5087,-1.999999999996449e-05,5.0000000000105516e-05,3.3333333333551707e-06,8.718429250564874e-05,0.0002451056531700413,-0.00016384246799372448
150000000000.0,3,0.027703786249999997,-0.0030989013999999995,0.005452497399999999,-0.006362,0.019962,0.013096,-2.5494348005,-9.4176201945,0.989490985,-1.941,1.2882,-2.509,-1.0000000000010001e-05,9.999999999998899e-05,3.3333333332441484e-06,7.79552913430237e-05,-2.701997599330319e-05,-0.00010499881247216791
150000000000.0,3,0.05165162555,-0.0060016698,0.036421898099999996,-0.008497,0.018915,0.012023,-2.5498270665000002,-9.417522127999998,0.9889025859999999,-1.9408,1.2882,-2.5091,-1.0000000000010001e-05,4.999999999988347e-05,3.3333333333551707e-06,5.8559003983438274e-05,0.00021271935615096993,-5.5783001080556005e-05
150000000000.0,3,0.0505630874,-0.0168085981,0.029978929049999995,-0.008513,0.016783,0.012024,-2.5502193324999998,-9.417522127999998,0.988118054,-1.9405,1.2882,-2.5093,-1.0000000000010001e-05,5.0000000000105516e-05,-9.99999999995449e-06,0.0004019831812369645,0.0002440452338376975,0.00011600530068367476
150000000000.0,3,0.04396321195,-0.0158671597,0.022525875049999998,-0.004244,0.016747,0.012028,-2.5508077315,-9.4174240615,0.987725788,-1.9402,1.2881,-2.5094,-4.999999999999449e-05,5.0000000000105516e-05,3.999999999992898e-05,-0.0001599650432821953,-0.00012624382142845114,0.00013085407173685226
150000000000.0,3,0.01825017565,-0.00911037785,0.007600153749999999,0.00213,0.014561,0.014176,-2.5518864629999998,-9.417129862,0.9875296549999999,-1.94,1.288,-2.5094,-1.0000000000010001e-05,4.999999999988347e-05,-9.99999999995449e-06,0.0001732123211950487,2.8426436623707474e-05,0.00019049635156287437
150000000000.0,3,-0.00418743955,-0.0194760069,-0.0032361944999999997,0.004291,0.016677,0.012041,-2.5532593939999995,-9.4168356625,0.9872354554999999,-1.9398,1.2879,-2.5095,-3.999999999998449e-05,4.999999999988347e-05,9.99999999995449e-06,0.00010457543391706459,0.00024982196118927824,7.4355874879472594e-06
150000000000.0,3,-0.0018142302499999999,-0.037716375899999995,0.006805815099999999,0.001155,0.024163,0.010955,-2.554436192,-9.416541463,0.9869412559999998,-1.9395,1.2878,-2.5095,1.0000000000010001e-05,5.0000000000105516e-05,-9.99999999995449e-06,0.00012384372411911038,1.6329136756088047e-05,-3.6217653437198294e-05
150000000000.0,3,0.025458063399999998,-0.03990325885,0.0101400761,-0.00419,0.022076,0.009879,-2.5551226574999997,-9.4164433965,0.9861567239999999,-1.9391,1.2878,-2.5097,-1.0000000000010001e-05,9.999999999998899e-05,-1.0000000000065512e-05,6.633847235493207e-05,0.0001932076155335416,0.00014501546040124325
150000000000.0,3,0.04555188925,-0.037686955949999996,0.0111207411,-0.006317,0.024222,0.012003,-2.5556129899999998,-9.4164433965,0.9851760589999998,-1.9387,1.2877,-2.5098,-1.0000000000010001e-05,4.999999999988347e-05,2.0000000000020002e-05,-0.00013388229028166165,-0.00022954618810255845,0.00028548408388306967
150000000000.0,3,0.06844061035,-0.045473436049999996,0.01803442935,-0.010562,0.026389,0.010919,-2.5556129899999998,-9.416541463,0.983803128,-1.9383,1.2878,-2.5101,-1.0000000000010001e-05,5.0000000000105516e-05,-9.99999999995449e-06,0.0003659560415765206,0.00033801129256838536,0.00014196159728419033
150000000000.0,3,0.06236048735,-0.04851349755,0.0195152335,-0.012731,0.023207,0.01305,-2.555809123,-9.4166395295,0.9823321304999999,-1.9377,1.2878,-2.5104,-9.99999999995449e-06,9.999999999998899e-05,9.99999999995449e-06,0.00021001401090670058,-0.00010220114690273618,-5.444464936221749e-06
150000000000.0,3,0.05290687674999999,-0.05065134725,0.0384028414,-0.011681,0.02213,0.015184,-2.5562994555,-9.4166395295,0.9812533989999999,-1.9373,1.2878,-2.5107,-2.0000000000020002e-05,9.999999999998899e-05,1.4999999999987246e-05,0.0002188451350173537,0.00012585242996676627,0.0003083871793361226
150000000000.0,3,0.04523807645,-0.042178401649999996,0.05758464879999999,-0.006372,0.019951,0.017329,-2.5571820539999996,-9.4164433965,0.9808611329999999,-1.9371,1.2877,-2.5107,-2.0000000000020002e-05,9.999999999998899e-05,1.4999999999987246e-05,0.0003482175713587221,0.0002610015919555231,-0.00011617774365246802
150000000000.0,3,0.040795663999999995,-0.01862282835,0.03884414065,-0.008543,0.015705,0.018397,-2.5582607855,-9.416149197,0.98034138055,-1.9367,1.2877,-2.511,-4.999999999993898e-05,9.999999999998899e-05,2.0000000000020002e-05,0.0003906590326014925,4.3474134684418075e-05,0.00023483057940909546
150000000000.0,3,0.035137226949999996,0.00118660465,-0.00834545915,-0.007493,0.013565,0.0184,-2.5596337165,-9.415953064,0.9790469027499998,-1.9361,1.2876,-2.5115,-2.0000000000020002e-05,9.999999999998899e-05,1.0000000000065512e-05,0.00013999863506031218,-3.6972734355211756e-05,7.765361208944555e-05
150000000000.0,3,0.0326169179,0.00104931155,-0.041217349949999996,-0.008547,0.013577,0.015193,-2.5609085809999996,-9.415756930999999,0.9771934458999999,-1.9353,1.2875,-2.5121,-6.0000000000060005e-05,9.999999999998899e-05,2.999999999997449e-05,0.0003694508446738798,0.000132908304380841,0.0003967057590159584
150000000000.0,3,0.0379713488,-0.00069627215,-0.054632847150000004,-0.011754,0.010411,0.010921,-2.5615950465,-9.415854997499999,0.9748986897999999,-1.9345,1.2875,-2.5129,-2.0000000000020002e-05,9.999999999998899e-05,9.99999999995449e-06,0.00015240508381886286,-2.7922803324198497e-05,6.151338507720538e-05
150000000000.0,3,0.034078108749999995,-0.0035990405499999995,-0.046238354749999995,-0.012847,0.00616,0.008789,-2.5620853789999996,-9.415953064,0.9727902600499999,-1.9337,1.2876,-2.5136,-4.999999999999449e-05,4.999999999988347e-05,2.0000000000020002e-05,0.00014386835843804846,1.3320588022835977e-05,2.6164433043263102e-05
150000000000.0,3,0.0281058589,-0.0109638347,-0.0115914603,-0.012823,0.007229,0.005582,-2.5621834454999997,-9.4160511305,0.9712211960499999,-1.9331,1.2876,-2.5141,-2.999999999997449e-05,5.0000000000105516e-05,1.0000000000065512e-05,0.00015818163440628474,0.00013657912328990385,0.00014031116813084665
150000000000.0,3,0.01293497135,-0.0086690786,0.01675956485,-0.006405,0.007179,0.002391,-2.5622815119999998,-9.416149197,0.9705445372,-1.9329,1.2876,-2.5143,-9.99999999995449e-06,9.999999999998899e-05,-1.0000000000065512e-05,-6.247373044754312e-05,2.2721231726530178e-05,-3.3712949909947554e-05
150000000000.0,3,-0.00467777205,0.019387747049999998,0.014768814899999998,0.006467,0.012407,-0.002933,-2.5624776449999995,-9.4160511305,0.9707504768499999,-1.9329,1.2876,-2.5142,6.666666666710341e-06,9.999999999998899e-05,-9.99999999995449e-06,0.00034841610291591607,-0.00016554446265892864,4.330233407534578e-05
150000000000.0,3,-0.015445473749999999,0.0288511643,-0.0014709974999999999,0.015115,0.025125,-0.005073,-2.5626737779999997,-9.415953064,0.9714271356999998,-1.9331,1.2876,-2.5137,6.666666666599319e-06,9.999999999998899e-05,-9.99999999995449e-06,-0.0005431546160723499,-0.00012518551678453171,1.6786591148232333e-05
150000000000.0,3,-0.0102381426,0.051239746249999996,0.027703786249999997,0.021591,0.033598,-0.006142,-2.5627718445,-9.415756930999999,0.9730746528999998,-1.9337,1.2875,-2.5128,6.666666666710341e-06,9.999999999998899e-05,-1.0000000000065512e-05,0.0002689157499524697,6.100271956022141e-06,0.00011980014414803009
150000000000.0,3,-0.021260817199999997,0.023987065899999997,0.02888058425,0.022664,0.036781,-0.001874,-2.563262177,-9.415364664999998,0.9748888831499999,-1.9342,1.2874,-2.5119,-1.0000000000065512e-05,5.0000000000105516e-05,2.0000000000020002e-05,-0.00021746037488079573,-0.00029574737097215476,0.0006646732489166141
150000000000.0,3,-0.04029552484999999,-0.03966789925,0.0023634026499999997,0.019502,0.044262,0.002379,-2.5643409084999997,-9.4150704655,0.9756636084999999,-1.9344,1.2872,-2.5113,2.0000000000020002e-05,4.999999999988347e-05,-2.0000000000020002e-05,-6.246100768225737e-05,-4.787880895751329e-06,0.0005133618303521104
150000000000.0,3,-0.0401288118,-0.08331729839999999,-0.010914801449999999,0.021664,0.050634,0.006642,-2.5657138394999994,-9.414678199499999,0.9759283880499999,-1.9343,1.2871,-2.5108,4.999999999999449e-05,0.00010000000000021103,-1.0000000000065512e-05,-0.00033745764635462194,6.707194473509759e-05,0.00011300860289775727
150000000000.0,3,-0.034705734349999996,-0.09500682519999999,-0.030792880999999998,0.021622,0.049563,0.013049,-2.5673809699999994,-9.414187867,0.9760558744999999,-1.9341,1.2869,-2.5105,2.999999999997449e-05,4.999999999988347e-05,-2.999999999997449e-05,6.134734080376347e-05,-7.649988551228226e-05,0.0006726197772390918
150000000000.0,3,-0.028596191400000002,-0.10117520804999999,-0.038118448549999996,0.01414,0.049623,0.01517,-2.5692442334999996,-9.413697534499999,0.97559496195,-1.9337,1.2867,-2.5104,2.0000000000020002e-05,5.0000000000105516e-05,1.0000000000065512e-05,-0.00018207225416100314,9.26848578650663e-05,0.00040927970474013975
150000000000.0,3,0.0151414676,-0.09865489899999999,-0.02448720505,0.006607,0.044352,0.019433,-2.5708132975,-9.413403335,0.9746829435,-1.9332,1.2866,-2.5104,2.999999999997449e-05,9.999999999998899e-05,9.99999999995449e-06,3.475746600978269e-05,0.00016431353237345014,0.0006422306906288533
150000000000.0,3,0.0742363405,-0.08673981925,-0.0253796102,0.001197,0.03587,0.020499,-2.571499763,-9.4133052685,0.9733296258,-1.9326,1.2866,-2.5106,3.0000000000085514e-05,4.999999999988347e-05,2.500000000016378e-06,6.786254287516336e-05,-7.210123435164029e-05,0.000438821007603174
150000000000.0,3,0.11455147865,-0.058496667249999995,-0.0471503732,-0.001013,0.027362,0.021568,-2.5717939624999997,-9.413403335,0.9716134620499999,-1.932,1.2867,-2.5109,9.99999999995449e-06,5.0000000000105516e-05,2.4999999999053557e-06,-0.00020500043062487983,0.000531527057523018,0.00019427906758551217
150000000000.0,3,0.13243880824999998,-0.02017227905,-0.04886653694999999,2e-05,0.022027,0.019435,-2.5716958959999996,-9.413599468,0.9701914978,-1.9315,1.2867,-2.5111,5.000000000032756e-06,9.999999999998899e-05,2.500000000016378e-06,0.000533705638422477,0.00014608471489552244,-8.298871749357062e-05
150000000000.0,3,0.13314488705,-0.013366463949999999,-0.04994526845,-0.00319,0.019924,0.017289,-2.571499763,-9.413795601,0.9685734005499999,-1.931,1.2868,-2.5115,4.999999999977245e-06,9.999999999998899e-05,2.500000000016378e-06,0.0004059342237978658,0.00010091828350233811,0.00015300781615090742
150000000000.0,3,0.12173975309999999,-0.01530818065,-0.054005221549999996,-0.009643,0.01252,0.015147,-2.5712055634999995,-9.4140898005,0.96649439075,-1.9304,1.2869,-2.512,-1.999999999996449e-05,9.999999999998899e-05,1.0000000000065512e-05,-6.064582011333641e-05,0.00017938449953169844,0.0002725275314086062
150000000000.0,3,0.09246690284999999,-0.024281265399999998,-0.07565830474999999,-0.01501,0.008302,0.01407,-2.5711074970000003,-9.414383999999998,0.9637583354,-1.9294,1.287,-2.5129,9.99999999995449e-06,9.999999999998899e-05,-2.999999999997449e-05,-8.362835368602717e-05,0.0003667240773905789,-0.0001918375874292444
150000000000.0,3,0.07061768665,-0.03294053735,-0.08970142755,-0.009685,0.005066,0.009809,-2.570911364,-9.414776265999999,0.96104189335,-1.9285,1.2871,-2.5137,-9.99999999995449e-06,9.999999999998899e-05,2.999999999997449e-05,3.2938028738271896e-05,0.00017181687859335604,-7.543356457695438e-06
150000000000.0,3,0.06532209565,-0.03682397075,-0.0733341287,-0.005419,0.003968,0.007678,-2.570519098,-9.4150704655,0.95904133675,-1.9279,1.2872,-2.5143,-6.0000000000060005e-05,4.999999999988347e-05,-1.0000000000065512e-05,5.0007854361044934e-05,-0.00017276272864696907,-1.9755190619807905e-05
150000000000.0,3,0.04619912815,-0.0461500949,-0.0669794195,-0.003296,0.001822,0.005547,-2.570322965,-9.415266598499999,0.9573153663499999,-1.9273,1.2873,-2.5148,1.0000000000065512e-05,5.0000000000105516e-05,2.0000000000020002e-05,-0.0001454114063634826,2.7785895213128242e-05,-2.8321484175641842e-06
150000000000.0,3,0.0273997801,-0.042580474300000004,-0.0926336159,-0.008582,0.007196,0.00339,-2.5702248985,-9.415560798,0.9548538971999999,-1.9265,1.2874,-2.5156,-3.0000000000085514e-05,9.999999999998899e-05,9.99999999995449e-06,0.000197478013342689,-0.00010423512279111868,-0.00012002511727970955
150000000000.0,3,0.0372064301,-0.021260817199999997,-0.0722553972,-0.008556,0.008266,-0.000885,-2.5696364994999996,-9.415953064,0.9525689477499999,-1.9258,1.2876,-2.5162,-9.99999999995449e-06,4.999999999988347e-05,1.0000000000065512e-05,0.00016319508069884137,-8.268885146311966e-05,0.00012034759178725096
150000000000.0,3,0.04029552484999999,0.010493115499999999,-0.04542440279999999,-0.004294,0.007167,-0.001946,-2.5690481005,-9.416247263499999,0.9510293036999999,-1.9253,1.2877,-2.5166,-2.0000000000020002e-05,5.0000000000105516e-05,1.0000000000065512e-05,-1.4939284836312794e-05,-8.928525958284972e-05,5.408822245156486e-05
150000000000.0,3,0.0157494799,0.0178284897,-0.05311281639999999,0.007461,0.009203,-0.002998,-2.568753901,-9.4164433965,0.9503428381999999,-1.9251,1.2877,-2.5167,-2.999999999997449e-05,-6.666666666710341e-06,-3.3333333333551707e-06,0.0001605508290491997,-3.810697413220154e-05,-3.887087306253534e-06
150000000000.0,3,-0.007119627899999999,0.00344213415,-0.05811420789999999,0.018138,0.011245,-0.001915,-2.568753901,-9.41634533,0.9505487778499999,-1.9252,1.2877,-2.5165,-2.999999999997449e-05,-6.666666666710341e-06,-3.3333333333551707e-06,-7.95493956164961e-05,-0.00018413140729922617,-0.00011322806520475126
150000000000.0,3,-0.013817569850000001,-0.015288567349999999,-0.03398004225,0.023508,0.016528,-0.000847,-2.568950034,-9.416247263499999,0.9517059625499998,-1.9256,1.2877,-2.5159,-5.000000000032756e-06,-6.666666666488297e-06,-3.3333333333551707e-06,-0.00028022921063852735,2.615693788676765e-06,0.00019210764691246496
150000000000.0,3,-0.0255169033,-0.010375435699999998,-0.01609271265,0.026731,0.020762,0.001287,-2.5695384329999995,-9.415854997499999,0.95343193295,-1.9261,1.2876,-2.5152,-5.000000000032756e-06,-6.666666666710341e-06,-1.0000000000065512e-05,0.00033719267769871664,-0.00019259324998199823,0.0001865327111900683
150000000000.0,3,-0.0386578143,-0.0146315218,-0.0023143694,0.026761,0.027152,0.005548,-2.570715231,-9.415364664999998,0.9552069366,-1.9266,1.2874,-2.5144,4.999999999999449e-05,-6.666666666710341e-06,-9.99999999995449e-06,-0.0007206781183120015,0.00017653696743913372,-4.1596080393446755e-05
150000000000.0,3,-0.044914457,-0.033322996699999996,0.012827098199999998,0.022522,0.031448,0.006603,-2.5722842949999998,-9.414776265999999,0.95682503385,-1.9269,1.2872,-2.5138,-9.99999999995449e-06,-6.666666666710341e-06,-9.99999999995449e-06,-1.5110235179971454e-05,-0.00010584157304704966,0.0001766459216407945
150000000000.0,3,-0.031547993049999994,-0.07075497975,0.0116306869,0.016114,0.032563,0.009793,-2.573657226,-9.4142859335,0.957717439,-1.927,1.287,-2.5133,9.99999999995449e-06,-6.666666666710341e-06,-5.000000000032756e-06,-0.0002995641097496282,-7.965965535117192e-05,0.0002203437702328337
150000000000.0,3,-0.00840429905,-0.07373620134999999,-0.032146198699999996,0.011813,0.029401,0.010857,-2.574834024,-9.413991734,0.9575016927,-1.9268,1.2869,-2.5132,2.999999999997449e-05,-6.666666666488297e-06,-5.000000000032756e-06,0.00021806334146368123,0.00016723432331344767,0.0004624220100373222
150000000000.0,3,0.024212618849999996,-0.04961184235,-0.05311281639999999,0.007557,0.030503,0.009778,-2.5755204894999997,-9.4138936675,0.9566190941999999,-1.9264,1.2868,-2.5133,1.5000000000098268e-05,-6.666666666710341e-06,2.0000000000020002e-05,-4.394010032271467e-05,-3.43918261955789e-05,0.00024107550048491078
150000000000.0,3,0.06002650464999999,-0.042913900399999996,-0.03723585005,0.005457,0.033719,0.007629,-2.575422423,-9.413991734,0.9557168824,-1.9261,1.2869,-2.5132,1.4999999999987246e-05,-6.666666666710341e-06,-9.99999999995449e-06,2.2089147486026306e-05,0.0004564857465794159,8.415294042718457e-05
150000000000.0,3,0.06877403644999999,-0.06696961285,-0.035362779899999995,0.000133,0.032702,0.003346,-2.5747359574999997,-9.414383999999998,0.9542851114999998,-1.9257,1.287,-2.5133,9.99999999995449e-06,-6.666666666710341e-06,1.0000000000065512e-05,4.044472511854913e-05,-0.00012474925931749148,0.00019580196214308287
150000000000.0,3,0.07122569895,-0.0665675402,-0.041335029749999995,-0.003121,0.026335,0.003345,-2.5739514255,-9.414776265999999,0.95262778765,-1.9253,1.2871,-2.5135,1.0000000000065512e-05,-6.666666666710341e-06,9.99999999995449e-06,0.00011512878057073905,-8.018109531726658e-05,0.0004425472409339548
150000000000.0,3,0.07368716809999999,-0.047503412599999996,-0.0372456567,-0.001001,0.024187,0.002279,-2.5730688269999997,-9.415168532,0.95123524335,-1.9249,1.2873,-2.5136,9.99999999995449e-06,-6.666666666488297e-06,9.99999999995449e-06,-9.403899193394238e-05,4.130669164359446e-05,0.0002307212847343365
150000000000.0,3,0.08378801759999999,-0.022045349199999998,-0.0065312289,0.002165,0.019898,0.002286,-2.572088162,-9.4154627315,0.9507449108499999,-1.9249,1.2874,-2.5135,2.0000000000020002e-05,-6.666666666710341e-06,2.0000000000020002e-05,6.511676225140484e-05,2.5419869638776404e-05,-3.3023039694768386e-05
150000000000.0,3,0.06390013139999999,-0.020564545049999997,0.0167301449,0.00426,0.015617,0.00336,-2.571499763,-9.415560798,0.9509704637999999,-1.925,1.2874,-2.5131,5.000000000032756e-06,-6.666666666710341e-06,2.0000000000020002e-05,0.00030272777718876043,-2.3999632011051375e-05,0.00028523168776173335
150000000000.0,3,0.05367179544999999,-0.029312076849999997,0.0027556686499999998,0.005269,0.010277,0.00657,-2.5712055634999995,-9.4156588645,0.9511862100999999,-1.9251,1.2875,-2.5129,4.999999999921734e-06,-1.4285714285744433e-05,5.000000000032756e-06,0.0001218688293871395,-2.4369223938780493e-06,0.00021731772258615223
150000000000.0,3,0.0528774568,-0.02762533305,-0.01517088755,0.006264,0.002807,0.008715,-2.5710094305,-9.4156588645,0.9513038898999999,-1.9252,1.2875,-2.5128,5.000000000032756e-06,-1.4285714285744433e-05,4.999999999921734e-06,-8.828030196239567e-05,1.7019760485181834e-05,-1.2294288843417434e-05
150000000000.0,3,0.0672147791,-0.018917027849999997,-0.019819239649999997,0.006219,-0.001457,0.010853,-2.5708132975,-9.415756930999999,0.9514607962999999,-1.9253,1.2875,-2.5127,5.000000000032756e-06,-1.4285714285744433e-05,9.99999999995449e-06,-0.0001711387886920157,0.00012832513973815018,-0.00016027392989625966
150000000000.0,3,0.07284379619999999,-0.019848659600000002,-0.0191033542,0.006173,-0.005722,0.01299,-2.570715231,-9.4156588645,0.9519413221499999,-1.9254,1.2875,-2.5126,-6.0000000000060005e-05,-1.4285714285522388e-05,1.0000000000065512e-05,0.00016873926521654425,-0.00045099817223182015,0.00025376008191724253
150000000000.0,3,0.05396599495,-0.0252815437,-0.02278084795,0.005105,-0.005713,0.012984,-2.570911364,-9.4156588645,0.952029582,-1.9255,1.2875,-2.5126,5.000000000032756e-06,-1.4285714285744433e-05,-2.0000000000020002e-05,5.7234727731891866e-05,0.00016628590152745204,-0.00026164930085181837
150000000000.0,3,0.04127618985,-0.021143137399999998,-0.033862362449999996,0.000827,-0.006744,0.012975,-2.5712055634999995,-9.415560798,0.95174518915,-1.9253,1.2874,-2.5128,5.000000000032756e-06,-1.4285714285744433e-05,1.4999999999987246e-05,-0.0004485874346271679,0.000363808539568522,-0.00028087279787891717
150000000000.0,3,0.0345390213,-0.02064299825,-0.027909725899999998,0.000839,-0.005677,0.011903,-2.5716958959999996,-9.4154627315,0.95147060295,-1.9252,1.2874,-2.513,-5.0000000000105516e-05,-1.4285714285744433e-05,1.4999999999987246e-05,0.00036016915756498236,-0.00015353544437735067,0.00016845019295974595
150000000000.0,3,0.0224572285,-0.024320492,-0.028194118749999997,0.00513,-0.004643,0.008704,-2.5719900955,-9.415364664999998,0.9514607962999999,-1.9251,1.2874,-2.5131,-1.999999999990898e-05,-1.666666666655381e-05,-4.999999999921734e-06,-5.889450919815964e-05,1.7616708435586048e-05,-6.130600486864424e-05
150000000000.0,3,0.02368305975,-0.02285930115,-0.0067077486,0.006216,-0.001457,0.009766,-2.572480428,-9.415266598499999,0.9519707420999999,-1.9252,1.2873,-2.513,-2.0000000000020002e-05,-1.6666666666775853e-05,-5.000000000032756e-06,-6.381136387578756e-05,-0.00011317198772120562,-0.00023372921266284763
150000000000.0,3,0.02448720505,-0.0308321076,0.0228887211,0.004089,-0.001438,0.008692,-2.5727746275000003,-9.4150704655,0.95290237385,-1.9255,1.2872,-2.5128,-2.0000000000020002e-05,-1.6666666666775853e-05,-9.99999999995449e-06,-0.00020028580003050855,6.874489190744626e-05,-9.286806592934127e-05
150000000000.0,3,0.02582090945,-0.021103910799999997,0.0262229821,-0.003392,-0.002444,0.009747,-2.57326496,-9.414874332499998,0.9531475401,-1.9255,1.2872,-2.5128,2.0000000000020002e-05,-1.666666666655381e-05,-1.0000000000065512e-05,0.00012633242453996552,0.0001472296174942489,-2.7787503415588333e-05
150000000000.0,3,0.02203554255,-0.02017227905,0.0235555733,-0.003394,-0.003509,0.008679,-2.573657226,-9.414776265999999,0.9532848332,-1.9255,1.2871,-2.5129,-4.0000000000040004e-05,-1.666666666655381e-05,-4.999999999921734e-06,0.00021770041959046083,-1.780003650075912e-05,-0.00012245804839094987
150000000000.0,3,0.02872367785,-0.01765197,0.00228494945,-0.001255,-0.003525,0.007614,-2.5737552925,-9.414776265999999,0.9531475401,-1.9255,1.2871,-2.513,-9.99999999995449e-06,-1.6666666666775853e-05,-5.000000000032756e-06,-0.0002122470235836893,8.688902968589929e-05,-3.604449356808814e-05
150000000000.0,3,0.023751706299999998,-0.031136113749999996,-0.01166010685,0.003043,-0.000363,0.006546,-2.573853359,-9.414776265999999,0.9530298603,-1.9254,1.2871,-2.513,-1.0000000000065512e-05,-1.999999999990898e-05,1.0000000000065512e-05,0.00019924029487006223,-0.00010377089506019566,-0.0002519046165816441
150000000000.0,3,0.0030989013999999995,-0.04545382275,-0.011365907350000001,0.00092,0.001785,0.007605,-2.5743436915,-9.414678199499999,0.95288276055,-1.9253,1.2871,-2.5131,-9.99999999995449e-06,-2.0000000000131024e-05,9.99999999995449e-06,-7.259193736897096e-05,8.027172754720979e-05,0.00020713172550079761
150000000000.0,3,0.0063645158499999995,-0.04076624405,-0.0065704555,0.000925,0.001786,0.006536,-2.5747359574999997,-9.4144820665,0.95272585415,-1.9252,1.2871,-2.5132,-9.99999999995449e-06,-1.999999999990898e-05,9.99999999995449e-06,0.00010894074196143855,-9.959147601001916e-05,-5.786320596001815e-06
150000000000.0,3,0.040491657849999994,-0.04274718735,-0.01397447625,-0.00012,0.003927,0.005459,-2.5744417579999994,-9.414678199499999,0.95235320145,-1.9251,1.2871,-2.5132,-6.666666666710341e-06,-2.0000000000131024e-05,-9.99999999995449e-06,-0.0002199177270485464,5.550002124676823e-05,-0.00028304511880605787
150000000000.0,3,0.0716866115,-0.05473091365,-0.0117287534,-0.00333,0.002887,0.00545,-2.573657226,-9.414972399,0.9517549957999999,-1.925,1.2872,-2.5133,-6.666666666599319e-06,-1.999999999990898e-05,2.500000000016378e-06,1.7592043913383648e-05,0.00016382901724520949,-9.713451617265889e-05
150000000000.0,3,0.0781001606,-0.06059529034999999,0.000588399,-0.002342,-0.005649,0.007595,-2.572676561,-9.415168532,0.95154905615,-1.9251,1.2873,-2.5133,-6.666666666710341e-06,-1.666666666655381e-05,2.4999999999053557e-06,0.000209183956771275,-6.136245023502518e-05,4.0528345732759874e-05
150000000000.0,3,0.0703529071,-0.060408963999999996,0.00177500365,-0.00342,-0.005642,0.009722,-2.5721862285,-9.415364664999998,0.95127446995,-1.925,1.2874,-2.5134,-1.4999999999987246e-05,-1.6666666666775853e-05,2.500000000016378e-06,7.333955853527918e-05,-9.274757388832988e-05,9.827028869757726e-06
150000000000.0,3,0.05516240625,-0.05171046544999999,0.010375435699999998,-0.004532,-0.009899,0.011857,-2.572088162,-9.415364664999998,0.9511960167499999,-1.925,1.2874,-2.5135,-1.4999999999987246e-05,-1.6666666666775853e-05,2.500000000016378e-06,5.9870778477799647e-05,0.00014633450488887867,-5.483212285684047e-05
150000000000.0,3,0.059261585949999994,-0.0331857036,0.0014906108,-0.001359,-0.012059,0.013997,-2.572088162,-9.415364664999998,0.9514019564,-1.9251,1.2874,-2.5136,-2.0000000000020002e-05,-1.666666666655381e-05,9.99999999995449e-06,-1.7604104376678364e-05,-0.00011601396095750616,-0.00035202168166792447
150000000000.0,3,0.061585761999999995,-0.008757338449999999,0.00846313895,0.001842,-0.012086,0.013998,-2.5723823615,-9.415266598499999,0.9519119022,-1.9252,1.2873,-2.5136,-3.0000000000085514e-05,-1.666666666655381e-05,-9.99999999995449e-06,-2.1438503533532938e-05,0.00029168220861697236,-0.000147503434261953
150000000000.0,3,0.056574563849999995,0.0033636809499999996,-0.0141608026,0.003984,-0.011038,0.013997,-2.572676561,-9.415168532,0.9523924280499999,-1.9253,1.2873,-2.5136,-5.999999999994898e-05,-1.6666666666775853e-05,2.0000000000020002e-05,-0.00011668454176394505,1.898294182867133e-05,-0.0001482334300613175
150000000000.0,3,0.057339482549999994,0.0002941995,-0.0310282406,0.005063,-0.00998,0.012925,-2.5728726939999995,-9.4150704655,0.9526474009499999,-1.9254,1.2872,-2.5137,-4.0000000000040004e-05,-6.249999999985434e-06,-2.0000000000020002e-05,-0.00016860163656340355,0.0001955994553226592,-0.00034739322696220043
150000000000.0,3,0.0451302033,-0.02852754485,-0.013082071099999999,-0.000292,-0.013132,0.01185,-2.5730688269999997,-9.414972399,0.9529514070999999,-1.9255,1.2872,-2.5137,-2.999999999997449e-05,-6.249999999985434e-06,5.000000000032756e-06,-4.567798626919917e-05,-0.00017339675000727084,-0.00018680303524210018
150000000000.0,3,0.04170768245,-0.05065134725,0.011356100699999998,-0.008804,-0.01093,0.010761,-2.5731668935,-9.414972399,0.9527552740999999,-1.9254,1.2872,-2.5139,-5.999999999994898e-05,-6.249999999985434e-06,4.999999999921734e-06,-6.236052499142275e-05,3.8975948299491137e-05,-0.00015671053436472349
150000000000.0,3,0.050935740099999995,-0.0746089932,0.02654660155,-0.018408,-0.011916,0.009674,-2.5729707604999996,-9.4150704655,0.9519315155,-1.9252,1.2873,-2.5144,-3.500000000000725e-05,-6.249999999985434e-06,1.0000000000065512e-05,5.335166863495999e-05,5.7441141444458665e-05,-0.00015576915314508
150000000000.0,3,0.0560351981,-0.06797969779999999,0.042815833899999996,-0.018432,-0.015114,0.009675,-2.572480428,-9.415266598499999,0.9512254366999999,-1.925,1.2873,-2.5147,-3.500000000000725e-05,-6.249999999985434e-06,9.99999999995449e-06,0.00025703557075495986,1.768015911762788e-05,-0.00023565958171856138
150000000000.0,3,0.0423255014,-0.03656899785,0.03592175895,-0.016238,-0.009801,0.006464,-2.5722842949999998,-9.4154627315,0.9504899379499999,-1.9248,1.2874,-2.5151,-2.0000000000020002e-05,-6.249999999985434e-06,1.0000000000065512e-05,-0.0002090816266240303,3.72806297574968e-05,-0.00046645392043931366
150000000000.0,3,0.05563312545,0.0003726527,0.01630845895,-0.007668,-0.00561,0.006468,-2.5719900955,-9.415560798,0.9500486387,-1.9246,1.2874,-2.5153,-4.0000000000040004e-05,-6.249999999985434e-06,5.000000000032756e-06,0.00015267963320941824,-1.90246057005794e-05,-0.00020521381168991937
150000000000.0,3,0.056143071249999996,0.0140823494,0.018917027849999997,-0.004452,-0.00457,0.0054,-2.571499763,-9.4156588645,0.9501368985499999,-1.9247,1.2875,-2.5153,-5.999999999994898e-05,-6.249999999985434e-06,4.999999999921734e-06,0.00012608232578381617,0.00015334546146505978,-2.238360656692251e-05
150000000000.0,3,0.053936574999999994,0.01115016105,0.034725347649999995,-0.001244,-0.004596,0.004335,-2.5711074970000003,-9.415756930999999,0.9506468443499999,-1.9249,1.2875,-2.5151,-7.00000000000145e-05,-6.2500000002074785e-06,9.99999999995449e-06,0.00031647943851820237,-5.945282816899322e-05,0.0002504426329750231
150000000000.0,3,0.0458362821,-0.0045502856,0.024497011699999998,0.002994,-0.007829,0.005413,-2.5708132975,-9.415756930999999,0.9514411829999999,-1.9253,1.2875,-2.5149,-2.0000000000020002e-05,-6.249999999985434e-06,-9.99999999995449e-06,-0.0007147922138570628,5.256922159713184e-05,-0.00037496530955305474
150000000000.0,3,0.0291649771,-0.00475622525,0.00718827445,0.004052,-0.008904,0.005415,-2.570715231,-9.4156588645,0.9521374551499999,-1.9255,1.2875,-2.5148,-5.999999999994898e-05,-6.249999999985434e-06,-2.0000000000020002e-05,0.000375602792308527,-4.824745108034101e-05,-0.0001466654321049532
150000000000.0,3,-0.00842391235,-0.00099047165,0.005678050349999999,0.009339,-0.014276,0.006501,-2.5713036299999996,-9.415364664999998,0.9533436730999999,-1.9258,1.2874,-2.5145,-3.500000000000725e-05,-6.249999999985434e-06,-2.0000000000020002e-05,0.00024614201957517956,4.56116176605903e-06,-0.00010230340216432765
150000000000.0,3,-0.03241097825,-0.011110934449999998,0.008786758399999999,0.01042,-0.013218,0.005436,-2.5721862285,-9.414972399,0.9548735104999999,-1.9263,1.2872,-2.5143,-3.500000000000725e-05,-6.249999999985434e-06,-9.99999999995449e-06,-0.0005812381689471735,0.00032957550601597774,-0.00034183129302878257
150000000000.0,3,-0.026811381099999997,-0.01485707475,-0.0078649333,0.012581,-0.011102,0.003303,-2.5728726939999995,-9.414678199499999,0.95611895505,-1.9266,1.2871,-2.514,-2.0000000000020002e-05,-6.249999999985434e-06,9.99999999995449e-06,-0.00030499298786512696,-0.00014314097670431458,-0.0003255174403609118
150000000000.0,3,-0.0053642375499999995,-0.00967916355,0.00061781895,0.014776,-0.004725,0.001161,-2.5730688269999997,-9.4144820665,0.9576585991,-1.9271,1.287,-2.5136,-2.0000000000020002e-05,-6.249999999985434e-06,-1.999999999990898e-05,-0.00021984081729198302,-6.705020642461257e-05,-0.0001185405310715204
150000000000.0,3,-0.00045110589999999997,0.00036284604999999996,-0.0157494799,0.018038,0.001644,-0.00098,-2.5729707604999996,-9.414383999999998,0.9590707566999999,-1.9276,1.287,-2.513,1.0000000000065512e-05,-6.249999999985434e-06,-1.0000000000065512e-05,-4.1897525572709426e-05,1.5585726605760186e-05,-0.00012111274166581865
150000000000.0,3,-0.017622550049999998,0.009610516999999999,-0.01232695905,0.018094,0.008039,-0.002057,-2.5731668935,-9.414187867,0.9602769746499998,-1.928,1.2869,-2.5126,-3.0000000000085514e-05,-1.2499999999970868e-05,1.0000000000065512e-05,-6.363172386381066e-05,-0.0002953372344467464,-3.4781103777969946e-05
150000000000.0,3,-0.041129090099999994,-0.013915636349999998,-0.01058137535,0.012824,0.015543,-0.003144,-2.573657226,-9.413991734,0.96092421355,-1.9281,1.2869,-2.5122,4.0000000000040004e-05,-1.2499999999970868e-05,-3.0000000000085514e-05,-0.00020173767464659598,1.9128607442020495e-05,-2.7608077599605707e-05
150000000000.0,3,-0.0699998677,-0.05426019444999999,-0.0008825985,0.008581,0.018775,-0.003154,-2.5744417579999994,-9.413795601,0.9612576396499999,-1.9282,1.2868,-2.512,-9.99999999995449e-06,-1.2499999999970868e-05,-1.999999999990898e-05,-0.00013103945088044355,-0.0002626292494962712,0.00014476529461848742
150000000000.0,3,-0.07214752405,-0.06530248235,0.0270467407,0.00545,0.027326,-0.003171,-2.57522629,-9.4135014015,0.96161067905,-1.9282,1.2867,-2.5118,1.999999999990898e-05,-1.2500000000192912e-05,-5.000000000032756e-06,8.664469273189646e-05,-8.715033210404677e-05,0.00021857282629555996
150000000000.0,3,-0.039726739149999996,-0.0529951366,0.0314793465,0.005502,0.033719,-0.00318,-2.575618556,-9.413403335,0.96166951895,-1.9281,1.2866,-2.5115,6.0000000000060005e-05,-1.2499999999970868e-05,-5.000000000032756e-06,8.45586206290605e-05,1.5804248012729616e-05,-7.08202742139008e-06
150000000000.0,3,-0.023771319599999997,-0.0404622379,0.023888999399999996,0.010825,0.034737,0.001098,-2.5762069549999995,-9.413207201999999,0.9620715915999999,-1.9282,1.2866,-2.511,2.0000000000020002e-05,-1.2499999999970868e-05,2.0000000000020002e-05,0.00019464713954064905,-0.0001461573524583759,0.00040367227401194583
150000000000.0,3,-0.004795451849999999,-0.01116977435,0.03911872685,0.015068,0.034696,0.006443,-2.5770895535,-9.412814936,0.9630032233499999,-1.9284,1.2864,-2.5105,3.999999999992898e-05,-1.2499999999970868e-05,9.99999999995449e-06,0.0003364316793477151,-2.8705074524904006e-05,0.00029599873376850994
150000000000.0,3,0.021839409549999998,0.007649186999999999,0.025654196399999996,0.01507,0.036823,0.00964,-2.577972152,-9.4125207365,0.9638956285,-1.9286,1.2863,-2.5099,4.0000000000040004e-05,-1.2499999999970868e-05,1.0000000000065512e-05,0.00011406677757364037,-0.00011144803702944905,0.00031246829626230266
150000000000.0,3,0.04115851005,0.013082071099999999,-0.00208881645,0.007595,0.037947,0.012825,-2.5788547504999997,-9.4123246035,0.9638171752999999,-1.9285,1.2862,-2.5097,5.999999999994898e-05,9.999999999998899e-05,9.99999999995449e-06,-0.00021263156947304296,1.7637671094528073e-05,0.0003141076831822964
150000000000.0,3,0.052328284399999994,-0.004236472799999999,-0.03178335265,0.003303,0.03585,0.013885,-2.579737349,-9.412128470499999,0.9626796039,-1.928,1.2862,-2.5098,5.000000000032756e-06,-9.999999999998899e-05,-2.999999999997449e-05,0.00032036711122085393,1.3768102582467634e-05,0.0003486630912163946
150000000000.0,3,0.058094594599999994,-0.040923150449999994,-0.03692203725,0.004331,0.030514,0.012824,-2.5802276815,-9.412128470499999,0.9615322258499999,-1.9275,1.2862,-2.5099,5.000000000032756e-06,-1.6666666666775853e-05,2.999999999997449e-05,-0.0002591908252946862,-0.00010487236344114415,0.0007234552748669465
150000000000.0,3,0.0580161414,-0.06586146139999999,-0.029047297299999997,0.006427,0.024107,0.009631,-2.580325748,-9.412226536999999,0.9608359536999999,-1.9273,1.2862,-2.5099,4.0000000000040004e-05,-1.666666666655381e-05,-2.0000000000020002e-05,0.00043670433560261124,0.00018195010345967155,0.0003912876420186784
150000000000.0,3,0.06559668184999999,-0.04382591885,-0.014464808749999999,0.001054,0.016696,0.00536,-2.5798354155000003,-9.4123246035,0.9603260078999999,-1.9272,1.2863,-2.5098,2.999999999997449e-05,-1.666666666655381e-05,1.0000000000065512e-05,-0.0003778753650807154,-0.00010301075443708285,0.0001200920004262862
150000000000.0,3,0.07228481715,-0.04074663075,-0.01371950335,-0.003208,0.01354,-0.001052,-2.578756684,-9.412716869499999,0.95943360275,-1.927,1.2864,-2.5099,2.0000000000020002e-05,-1.6666666666775853e-05,-1.4999999999987246e-05,0.0005388350654333962,0.00011592957672168502,0.00021932379820377434
150000000000.0,3,0.09489895205,-0.031185147,-0.0216923098,0.001023,0.007115,-0.004243,-2.5767953539999997,-9.4133052685,0.9588746237,-1.927,1.2866,-2.5097,2.999999999997449e-05,-1.6666666666775853e-05,-1.4999999999987246e-05,-0.0003886200618810065,4.510279397318406e-05,-0.00012907578055365576
150000000000.0,3,0.09032905315,-0.0102185293,-0.009051537949999999,0.009507,0.00065,-0.004223,-2.5749320905,-9.413795601,0.95939437615,-1.9275,1.2868,-2.5093,4.999999999999449e-05,-1.666666666655381e-05,-1.5000000000098268e-05,0.000291804629610537,0.00014474136113928893,0.00019220975279043984
150000000000.0,3,0.06260565359999999,0.0221434157,-0.00022555294999999998,0.015869,-0.003666,-0.003141,-2.573657226,-9.413991734,0.9608947936,-1.9281,1.2869,-2.5086,4.999999999999449e-05,9.999999999998899e-05,-1.4999999999987246e-05,0.0001126224599212744,-0.00023189514791699395,-0.000511218741228614
150000000000.0,3,0.036745517549999995,0.037461403,-0.016867438,0.015854,-0.004733,-0.002074,-2.5729707604999996,-9.4140898005,0.9622775312499999,-1.9287,1.2869,-2.5081,2.999999999997449e-05,-3.333333333332966e-05,2.0000000000020002e-05,-0.000364702709757303,-0.00024075917781640754,-0.00016642773057018445
150000000000.0,3,0.0104538889,0.051367232699999994,-0.0460324151,0.014794,-0.003658,-0.002077,-2.572676561,-9.413991734,0.9630130299999999,-1.929,1.2869,-2.5078,2.999999999997449e-05,-3.333333333332966e-05,-4.999999999999449e-05,5.945576380117501e-05,0.0001691807441446258,-9.457034949100773e-05
150000000000.0,3,-0.028027405699999997,0.02711538725,-0.0701371608,0.015868,-0.001536,-0.00101,-2.5731668935,-9.4138936675,0.96347394255,-1.9291,1.2868,-2.5077,2.0000000000020002e-05,-3.333333333332966e-05,-9.99999999995449e-06,-0.0003340764673829266,-3.903120800563542e-05,-9.413575827954546e-05
150000000000.0,3,-0.0610365896,-0.01464132845,-0.0602716709,0.016952,0.001652,5.8e-05,-2.574049492,-9.413599468,0.9639348551,-1.9291,1.2867,-2.5076,2.999999999997449e-05,-5.0000000000105516e-05,-4.0000000000040004e-05,-0.00025387373150898007,-0.0001133379306388349,6.0262019111689824e-05
150000000000.0,3,-0.07767847464999998,-0.0586633803,-0.0487194372,0.014872,0.008065,-0.001021,-2.5751282234999997,-9.413207201999999,0.9643565410499999,-1.9291,1.2866,-2.5075,6.0000000000060005e-05,-4.999999999988347e-05,-9.99999999995449e-06,-0.0005297718819197161,-0.0002958723570047894,0.00013374759651618717
150000000000.0,3,-0.0521909913,-0.0966739557,-0.03501954715,0.01279,0.015541,3.1e-05,-2.575618556,-9.4131091355,0.9645624807,-1.9291,1.2865,-2.5073,4.999999999999449e-05,-4.999999999988347e-05,-3.0000000000085514e-05,-0.0002826170886007784,0.00010110255900386278,-0.0001584435837589382
150000000000.0,3,-0.01721067075,-0.09905697165,-0.01760293675,0.008586,0.023036,-0.001057,-2.5755204894999997,-9.4131091355,0.9645134474499999,-1.9291,1.2865,-2.5071,5.999999999994898e-05,-5.0000000000105516e-05,1.0000000000065512e-05,0.00048181181309070453,-0.00014363318843191308,0.0005337521377897225
150000000000.0,3,0.01034601575,-0.08360169124999998,0.01417060925,0.00432,0.025199,0.002131,-2.575422423,-9.4131091355,0.9644644142,-1.9291,1.2866,-2.5069,6.0000000000060005e-05,-2.4999999999941735e-05,1.0000000000065512e-05,0.0005079248827624117,-0.00022470856062639655,-0.00013818601348214443
150000000000.0,3,0.026674088000000002,-0.046964046849999996,0.04638545449999999,0.004269,0.019869,0.004273,-2.5753243565,-9.4131091355,0.96502339325,-1.9293,1.2865,-2.5064,5.999999999994898e-05,-2.500000000016378e-05,9.99999999995449e-06,0.0004454582817225994,-0.00013951503864184644,0.0003188397659195097
150000000000.0,3,0.03717701015,-0.013395883899999999,0.044541804299999994,0.008528,0.019831,0.006413,-2.5753243565,-9.413011069,0.96596483165,-1.9296,1.2865,-2.5059,7.00000000000145e-05,-2.4999999999941735e-05,4.999999999921734e-06,3.382441011812176e-05,-7.334511653578346e-06,4.758963551854123e-05
150000000000.0,3,0.04967068225,-0.0028243152,0.05150452579999999,0.013809,0.013391,0.007497,-2.575422423,-9.412814936,0.9676809954,-1.9302,1.2864,-2.5052,7.00000000000145e-05,-2.4999999999941735e-05,5.000000000032756e-06,-5.438937454549375e-05,5.732630022015073e-05,-5.901946364428312e-05
150000000000.0,3,0.03490186735,-0.0192014207,0.05151433245,0.011695,0.015539,0.007487,-2.575618556,-9.412618802999999,0.9693088993,-1.9307,1.2864,-2.5045,6.0000000000004494e-05,-2.4999999999941735e-05,-9.99999999995449e-06,-0.00014592807539659525,0.00010914172372156195,0.00020828508630676978
150000000000.0,3,0.025752262899999996,-0.05246557749999999,-0.00891424485,0.005312,0.016659,0.005337,-2.5757166225,-9.4125207365,0.9694363857499999,-1.9308,1.2863,-2.5043,7.00000000000145e-05,-2.500000000016378e-05,2.500000000016378e-06,-0.0001549054221658963,-0.00012031477290674886,5.205270244523774e-05
150000000000.0,3,0.032254071849999996,-0.0806498896,-0.0505238608,0.001017,0.015626,0.00853,-2.575814689,-9.412618802999999,0.9682497810999999,-1.9304,1.2864,-2.5046,6.0000000000004494e-05,-2.500000000016378e-05,2.4999999999053557e-06,-0.00027714383262722464,0.0001345014617943896,-0.00021176122082877669
150000000000.0,3,0.040285718199999994,-0.06897016945,-0.06168382849999999,0.001027,0.016693,0.007456,-2.5757166225,-9.412814936,0.9668376234999999,-1.9299,1.2864,-2.5049,6.0000000000004494e-05,-2.4999999999941735e-05,2.500000000016378e-06,0.00014752498982084639,-2.521658534337945e-05,0.00030719376446519675
150000000000.0,3,0.0595263655,-0.05984998495,-0.05035714775,2e-06,0.020966,0.005307,-2.57522629,-9.4131091355,0.9653862393,-1.9295,1.2865,-2.5051,6.999999999995898e-05,-4.999999999988347e-05,2.500000000016378e-06,0.00017044760229545375,-6.372921355279892e-05,-7.84012230719e-05
150000000000.0,3,0.06916630245,-0.058928159849999995,-0.04994526845,-0.005345,0.021008,0.007426,-2.5747359574999997,-9.413403335,0.96363084895,-1.9289,1.2867,-2.5055,7.00000000000145e-05,-5.0000000000105516e-05,2.999999999997449e-05,-0.0003180038600723023,-0.00023397581716055882,0.00016659994931877975
150000000000.0,3,0.07860029974999999,-0.048572337449999996,-0.027262487,-0.005333,0.022074,0.006351,-2.5741475585,-9.413795601,0.9620421716499998,-1.9285,1.2868,-2.5057,4.999999999999449e-05,-3.333333333332966e-05,2.0000000000020002e-05,0.0003598509920306192,5.617680989322693e-05,8.282814056714827e-05
150000000000.0,3,0.10224413289999999,-0.010591182,0.004128599649999999,-0.003235,0.018857,0.008488,-2.5733630264999996,-9.413991734,0.9613262861999999,-1.9283,1.2869,-2.5057,3.999999999998449e-05,-3.333333333332966e-05,-2.0000000000020002e-05,0.00013414731907257504,-5.3135853139485434e-05,0.00028440870392021367
150000000000.0,3,0.11537523724999998,-0.00244185585,0.01560238015,0.00632,0.013448,0.009574,-2.572480428,-9.4142859335,0.9616793255999999,-1.9286,1.287,-2.5053,4.0000000000040004e-05,-3.333333333332966e-05,1.0000000000065512e-05,-0.0004610796066724099,0.00023872399316271498,-9.435324462225836e-05
150000000000.0,3,0.12284790455,-0.01056176205,0.006688135299999999,0.01268,0.010195,0.012784,-2.5716958959999996,-9.414383999999998,0.9626599906,-1.929,1.287,-2.5048,6.0000000000004494e-05,-2.4999999999941735e-05,-1.0000000000065512e-05,-6.363459486369294e-05,0.00010419130944283594,1.786126305702851e-05
150000000000.0,3,0.11607150939999998,-0.0414625162,0.0189856744,0.016911,0.004832,0.011725,-2.570715231,-9.4144820665,0.96443499425,-1.9297,1.287,-2.504,3.999999999998449e-05,-2.4999999999941735e-05,-9.99999999995449e-06,-0.00016462506579184577,4.3835472009368104e-05,-0.00016058674697383424
150000000000.0,3,0.12663327145,-0.0918294706,0.0109638347,0.011526,-0.001518,0.011717,-2.5694403665,-9.414678199499999,0.9657196653999999,-1.9303,1.2871,-2.5034,2.0000000000020002e-05,-2.500000000016378e-05,-1.0000000000065512e-05,-0.0005495442547123197,0.0004608367212342035,-0.00033369269550087566
150000000000.0,3,0.12449542174999999,-0.106304086,0.0016279038999999999,0.001929,-0.001439,0.010622,-2.5680674354999997,-9.414972399,0.96608251145,-1.9306,1.2872,-2.5031,1.4999999999987246e-05,-2.4999999999941735e-05,1.0000000000065512e-05,0.00014604777881332964,-0.00039331380971385776,8.489266252409422e-05
150000000000.0,3,0.12570163969999998,-0.09223154324999999,-0.00842391235,-0.004493,-0.004583,0.009539,-2.566596438,-9.4154627315,0.9656510188499999,-1.9307,1.2874,-2.5031,1.4999999999987246e-05,-2.4999999999941735e-05,-2.0000000000020002e-05,-0.0002621444012715912,0.0002683220942354403,-0.00036311072579930936
150000000000.0,3,0.11569885669999999,-0.0750993257,-0.023967452599999998,-0.006692,-0.009898,0.013805,-2.5655177065,-9.415854997499999,0.9647390004,-1.9305,1.2875,-2.5034,-2.0000000000020002e-05,-2.500000000016378e-05,-5.000000000032756e-06,-7.994484815831981e-05,-9.520517934658024e-05,-3.2624778887324624e-05
150000000000.0,3,0.10329344445000001,-0.0728045696,0.00530539765,-0.007821,-0.016285,0.015941,-2.5649293075,-9.4160511305,0.9643467344,-1.9304,1.2876,-2.5036,-2.999999999997449e-05,-2.4999999999941735e-05,-4.999999999921734e-06,0.0002403917454589788,0.00013729081553481848,-3.6148912294642344e-05
150000000000.0,3,0.11357081364999999,-0.05098477334999999,0.014445195449999998,-0.006829,-0.023757,0.01915,-2.564438975,-9.416149197,0.9644840275000001,-1.9305,1.2876,-2.5038,-3.999999999998449e-05,-2.4999999999941735e-05,3.999999999992898e-05,0.00022569907699243608,2.453554129022706e-05,-0.00014069661944660083
150000000000.0,3,0.1314483366,-0.04955300245,0.0018142302499999999,-0.010058,-0.027993,0.018074,-2.563654443,-9.41634533,0.9643957676499999,-1.9306,1.2877,-2.504,-4.0000000000040004e-05,1.1111111111183902e-05,1.0000000000065512e-05,-0.00013721760432416907,0.00012096411475481794,-0.0002500366221220851
150000000000.0,3,0.14426562815,-0.028478511599999996,0.010954028049999998,-0.00789,-0.025877,0.014862,-2.5625757114999996,-9.4166395295,0.9645330607499999,-1.9308,1.2878,-2.5041,-4.999999999999449e-05,1.1111111110961858e-05,9.99999999995449e-06,0.00023290454720537035,6.432062354311263e-05,-0.0003206128918864515
150000000000.0,3,0.1662031042,-0.013484143749999998,0.03592175895,-0.00997,-0.022659,0.009504,-2.560712448,-9.417129862,0.9648566801999999,-1.9311,1.288,-2.504,-8.999999999997899e-05,1.1111111111183902e-05,9.99999999995449e-06,0.00032417335903978106,-3.534652499670443e-05,-0.00035620665349078706
150000000000.0,3,0.15536675595,-0.0101008495,0.02160404995,-0.006721,-0.019486,0.005224,-2.5585549850000002,-9.417718261,0.96525875285,-1.9316,1.2882,-2.5039,-6.0000000000004494e-05,1.1111111111183902e-05,1.0000000000065512e-05,0.00044064704426682866,-1.1117040696007052e-05,-0.00016912926678580575
150000000000.0,3,0.09371234739999999,0.00012748645,0.018858187949999997,-0.006743,-0.023747,0.003091,-2.5571820539999996,-9.418012460499998,0.9654646924999999,-1.9318,1.2883,-2.5039,-8.999999999997899e-05,1.1111111110961858e-05,-5.000000000032756e-06,-0.0002979972955778898,0.0002751964858511702,-0.00041615204879308365
150000000000.0,3,0.03956983275,-0.027076160649999997,0.025350190249999998,-0.009906,-0.020522,0.000942,-2.5564955885,-9.4182085935,0.9655529523499999,-1.9319,1.2884,-2.504,-0.0001000000000000445,1.1111111111183902e-05,-5.000000000032756e-06,0.00015569704345552715,-0.00017655362217916526,-4.5619958316756026e-05
150000000000.0,3,0.008688691899999998,-0.07999284404999998,0.056143071249999996,-0.012013,-0.019437,-0.002268,-2.5557110565,-9.418404726499999,0.9657294720499999,-1.9321,1.2885,-2.504,-6.999999999995898e-05,1.1111111111183902e-05,-9.99999999995449e-06,0.00018616228050505335,0.0001535444543518949,-0.00026995152093656216
150000000000.0,3,-0.009561483749999999,-0.09974343714999999,0.054858400099999996,-0.013074,-0.018364,-0.001205,-2.5551226574999997,-9.418502793,0.96582753855,-1.9322,1.2885,-2.5041,-7.00000000000145e-05,1.1111111110961858e-05,2.999999999997449e-05,0.00018990018527009767,-9.095320150032116e-05,-0.00046418671885017915
150000000000.0,3,-0.019113160849999998,-0.058163241149999996,0.038118448549999996,-0.006676,-0.01629,0.003073,-2.5551226574999997,-9.418502793,0.965955025,-1.9322,1.2885,-2.5043,-6.999999999995898e-05,1.1111111111183902e-05,2.0000000000020002e-05,5.831281459789395e-05,-0.00030135796949282145,-0.0001347894938192873
150000000000.0,3,-0.0076099604,0.005687856999999999,0.04061914429999999,0.002945,-0.014238,0.003087,-2.5554168569999995,-9.418306659999999,0.96704356315,-1.9326,1.2884,-2.5041,-8.000000000008001e-05,1.4285714285744433e-05,-2.500000000016378e-06,0.00016351267965819538,-9.635142032138333e-05,-2.9689679665878543e-05
150000000000.0,3,-0.0188483813,0.054779946899999994,0.03029274185,0.011458,-0.015377,0.006308,-2.5562994555,-9.417914393999999,0.9689852798499999,-1.9331,1.2883,-2.5037,-3.999999999992898e-05,1.4285714285744433e-05,-2.500000000016378e-06,-0.0001304421255643451,0.00021549483448368711,-0.0003803846514442988
150000000000.0,3,-0.05427000109999999,0.0543680676,0.03509800035,0.01787,-0.012236,0.009521,-2.557966586,-9.4172279285,0.97151539555,-1.9338,1.288,-2.5031,-8.000000000008001e-05,1.4285714285744433e-05,-2.4999999999053557e-06,-0.0004272099061906065,8.296864770063195e-05,-4.303640050595803e-05
150000000000.0,3,-0.08577876755,0.041335029749999995,0.050376761049999996,0.014707,-0.007947,0.009515,-2.5602221155000002,-9.416247263499999,0.9741926109999999,-1.9344,1.2877,-2.5026,-4.999999999999449e-05,1.4285714285522388e-05,-2.500000000016378e-06,-0.0004140907172012209,-9.908410990355776e-06,-0.0002888776371205992
150000000000.0,3,-0.0825916063,0.01830901555,0.04061914429999999,0.010556,0.003814,0.005224,-2.5622815119999998,-9.415560798,0.9760166479,-1.9347,1.2874,-2.5022,-7.00000000000145e-05,1.4285714285744433e-05,9.99999999995449e-06,2.107857220390308e-05,-0.00016569227405516251,4.435346014730612e-05
150000000000.0,3,-0.08240527995000001,-0.02021150565,-0.00960071035,0.012819,0.018716,0.003072,-2.5639486425,-9.4150704655,0.9765658202999999,-1.9347,1.2872,-2.5021,-9.99999999995449e-06,1.4285714285744433e-05,-2.0000000000020002e-05,-0.0002455345225800265,-8.358642000727556e-05,-0.00010644479389299022
150000000000.0,3,-0.09334950134999999,-0.05014140145,-0.01521011415,0.011838,0.028318,0.000924,-2.5655177065,-9.414580133,0.9766344668499999,-1.9345,1.2871,-2.502,-9.99999999995449e-06,1.4285714285744433e-05,1.0000000000065512e-05,0.0001704156310435856,0.0001032672986160943,0.00023176904353050531
150000000000.0,3,-0.0832584585,-0.05810440124999999,0.0078060934,0.010824,0.036849,0.004114,-2.5672829035,-9.4140898005,0.97681098655,-1.9344,1.2869,-2.5018,-1.0000000000065512e-05,1.6666666666775853e-05,4.999999999921734e-06,-0.00033194785002454985,7.089365024759431e-05,3.267521923833172e-05
150000000000.0,3,-0.05167123885,-0.04963145565,0.014121576,0.007675,0.043268,0.0041,-2.5686558345,-9.413697534499999,0.9766344668499999,-1.9341,1.2868,-2.5016,-2.0000000000020002e-05,1.666666666655381e-05,5.000000000032756e-06,0.0001732481823655263,3.502972490720957e-05,0.000334591854850963
150000000000.0,3,-0.02982202265,-0.01271922505,0.00289296175,0.009798,0.043249,0.006241,-2.569930699,-9.413403335,0.9764873671,-1.9339,1.2866,-2.5014,4.0000000000040004e-05,1.666666666655381e-05,2.0000000000020002e-05,-0.00014275215526460272,-0.0001390525133440068,0.0004233925517391768
150000000000.0,3,-0.00944380395,0.0054132708,-0.01026756255,0.015136,0.046398,0.010515,-2.571499763,-9.413011069,0.9764775604499999,-1.9337,1.2865,-2.5011,9.99999999995449e-06,1.6666666666775853e-05,-2.500000000016378e-06,0.00017890333287606808,-4.488273480385274e-05,0.0003164129821051631
150000000000.0,3,0.0037167203499999996,0.0038245934999999996,-0.006688135299999999,0.016173,0.042128,0.009456,-2.5728726939999995,-9.412618802999999,0.9767815665999999,-1.9336,1.2863,-2.5007,3.0000000000085514e-05,1.6666666666775853e-05,-2.4999999999053557e-06,0.00016748576261815806,9.405715694077443e-05,0.00047154950414407537
150000000000.0,3,0.01456287525,0.0116306869,-0.023928225999999997,0.015099,0.040008,0.007323,-2.573853359,-9.4123246035,0.9768207931999999,-1.9335,1.2862,-2.5004,-1.0000000000065512e-05,1.666666666655381e-05,-2.500000000016378e-06,-0.00020513421506085372,0.0001623917945896558,0.00038839462901796296
150000000000.0,3,0.0308321076,-0.006678328649999999,-0.047424959399999994,0.010822,0.037914,0.005182,-2.574245625,-9.412226536999999,0.9762225875499999,-1.9333,1.2862,-2.5002,4.999999999999449e-05,1.0000000000065512e-05,-2.500000000016378e-06,5.416210246389497e-05,-0.00012761016840800998,0.00040793624267143613
150000000000.0,3,0.0688819096,-0.0277920461,-0.040040551949999996,0.008708,0.037936,0.000903,-2.5735591595,-9.4125207365,0.9754282488999999,-1.9331,1.2863,-2.5,9.99999999995449e-06,9.999999999843467e-06,2.999999999997449e-05,-0.0001553931559259425,2.0509573134042114e-05,0.00017941837044332942
150000000000.0,3,0.08925032164999999,-0.0425020211,-0.009237864299999999,0.007617,0.033684,-0.001233,-2.5721862285,-9.4129130025,0.9749967562999999,-1.9331,1.2865,-2.4996,1.0000000000065512e-05,1.0000000000065512e-05,5.000000000032756e-06,0.0001653121599423102,-5.7690162955648105e-05,0.00044492298065978986
150000000000.0,3,0.09066247925,-0.051769305349999996,-0.004501252349999999,0.009739,0.031536,-0.0023,-2.5706171644999998,-9.413403335,0.9747515900499999,-1.9332,1.2866,-2.4992,2.0000000000020002e-05,1.0000000000065512e-05,4.999999999921734e-06,0.0002740423918750068,1.9585505165897743e-05,0.0003241573086105731
150000000000.0,3,0.07846300664999999,-0.05888893325,-0.00381478685,0.012917,0.029377,-0.00123,-2.5691461669999995,-9.413795601,0.9749575297,-1.9335,1.2868,-2.4986,2.0000000000020002e-05,1.0000000000065512e-05,-9.99999999995449e-06,-0.00010616841345090222,-0.00012187284365405837,0.00024498202065004193
150000000000.0,3,0.05673147025,-0.05167123885,0.005766310199999999,0.01502,0.026161,-0.000158,-2.5682635685,-9.413991734,0.9757028350999999,-1.9339,1.2868,-2.498,2.0000000000020002e-05,9.999999999843467e-06,-1.0000000000065512e-05,0.00014482337884436092,0.0001366869963954631,0.00015167243547375975
150000000000.0,3,0.054250387799999994,-0.05455439395,-0.0006080123,0.013908,0.021905,0.001977,-2.5675771029999996,-9.4140898005,0.9763893006,-1.9342,1.2869,-2.4974,1.999999999990898e-05,1.0000000000065512e-05,-9.99999999995449e-06,5.385330640717001e-05,-1.1843348585616198e-05,0.0003752020680032331
150000000000.0,3,0.056682437,-0.057025669749999994,-0.021780569649999998,0.012779,0.017646,0.007315,-2.567184837,-9.414187867,0.9767717599499999,-1.9344,1.2869,-2.497,-9.99999999995449e-06,1.0000000000065512e-05,4.0000000000040004e-05,-0.0007556916276547643,-0.00013243629286008307,3.1476256981743944e-05
150000000000.0,3,0.06088948985,-0.042207821599999994,-0.01887780125,0.01056,0.009136,0.010523,-2.566988704,-9.414187867,0.9771542192999999,-1.9345,1.2869,-2.4967,9.99999999995449e-06,9.999999999843467e-06,-1.0000000000065512e-05,0.00025100705562230985,1.5920563297244783e-05,0.00023723222158711366
150000000000.0,3,0.0815128748,-0.0237909329,-0.012905551399999998,0.005141,0.000651,0.013725,-2.5668906375,-9.414187867,0.9774778387499999,-1.9346,1.2869,-2.4966,-2.999999999997449e-05,1.0000000000065512e-05,5.000000000032756e-06,3.857363820025661e-05,-0.0002770775253899682,0.00011072267244793821
150000000000.0,3,0.07498164589999999,-0.010169496049999999,-0.0214373369,0.004066,-0.001469,0.011587,-2.5667925709999997,-9.414187867,0.9776249385,-1.9347,1.2869,-2.4965,-9.99999999995449e-06,2.0000000000131024e-05,5.000000000032756e-06,-8.515234418027262e-06,0.0001067689417677542,-4.4783088521960224e-05
150000000000.0,3,0.06686173969999999,-0.017946169499999998,-0.03680435745,0.007226,-0.005759,0.012662,-2.5666945045,-9.414187867,0.9777230049999999,-1.9348,1.2869,-2.4965,-2.0000000000020002e-05,1.999999999990898e-05,-1.0000000000065512e-05,1.6398470625400563e-05,0.00011390045889214662,-8.707615488701137e-05
150000000000.0,3,0.0498766219,-0.031165533699999998,-0.027350746849999996,0.006168,-0.005748,0.010521,-2.5667925709999997,-9.4140898005,0.9780073978499999,-1.9348,1.2869,-2.4965,-2.0000000000020002e-05,2.0000000000131024e-05,-9.99999999995449e-06,-0.0001020054778817503,0.00018362278780070795,3.3214912558143794e-06
150000000000.0,3,0.0285569648,-0.04904305665,-0.0163967188,0.004089,0.000663,0.009435,-2.566988704,-9.413991734,0.9781152709999998,-1.9348,1.2869,-2.4965,-2.0000000000020002e-05,1.999999999990898e-05,-1.0000000000065512e-05,-0.0003618149837831819,6.828430414285158e-05,-0.0001130581965056443
150000000000.0,3,0.028390251749999998,-0.0557802252,-0.012523092049999998,-0.000152,0.002831,0.007286,-2.5670867705,-9.413991734,0.9778406847999999,-1.9347,1.2869,-2.4966,-1.999999999990898e-05,2.0000000000131024e-05,1.0000000000065512e-05,-0.00017395365021211084,0.0001635450197678967,-0.00015539724536317578
150000000000.0,3,0.035264713399999995,-0.06153672875,-0.025212897149999997,-0.004426,0.002865,0.008343,-2.5670867705,-9.4140898005,0.9770561527999999,-1.9345,1.2869,-2.4968,-2.0000000000020002e-05,1.4285714285744433e-05,-1.0000000000065512e-05,8.501083780254604e-06,5.682982411858717e-05,-0.00015094576107266278
150000000000.0,3,0.021711923099999995,-0.065900688,-0.03700049045,-0.006526,0.006082,0.006196,-2.567184837,-9.414187867,0.9756832217999999,-1.934,1.287,-2.4972,-2.4999999999941735e-05,1.4285714285744433e-05,-9.99999999995449e-06,0.00016248476235003473,0.00017190764452768015,-5.338223815298804e-05
150000000000.0,3,0.0122779258,-0.054789753549999994,-0.032479624799999995,-0.008672,0.006097,0.008325,-2.5676751694999997,-9.4142859335,0.9741533843999999,-1.9334,1.287,-2.4978,-2.5000000000052758e-05,1.4285714285744433e-05,4.999999999999449e-05,-0.00010870347541258596,-0.00032715666758309503,0.00044471410518243104
150000000000.0,3,0.00850236555,-0.0355981395,-0.0270859673,-0.005515,0.002871,0.011537,-2.5684597014999997,-9.414187867,0.9729471664499999,-1.9329,1.2869,-2.4982,-2.0000000000020002e-05,1.4285714285522388e-05,9.99999999995449e-06,-2.6081367185515347e-05,6.575155736654459e-05,8.620207066512009e-05
150000000000.0,3,0.0177892631,-0.010728475099999999,-0.00784532,-0.006568,0.003947,0.010464,-2.5692442334999996,-9.4140898005,0.9721136011999999,-1.9325,1.2869,-2.4986,-2.0000000000020002e-05,1.4285714285744433e-05,-1.999999999990898e-05,-0.0001714193789554841,0.0003674571555909445,-0.0003564863991627476
150000000000.0,3,0.028311798549999996,0.0077472535,0.023928225999999997,-0.008695,0.003965,0.009391,-2.5697345659999997,-9.413991734,0.9716134620499999,-1.9323,1.2868,-2.4988,-2.0000000000020002e-05,1.4285714285744433e-05,2.999999999997449e-05,-7.996216553651792e-05,-0.00021861429064817806,0.0001306901420865536
150000000000.0,3,0.02778223945,-0.00512887795,-0.0131212977,-0.005482,0.005005,0.008326,-2.5701268319999997,-9.413991734,0.9706524103499999,-1.9319,1.2868,-2.4992,1.0000000000065512e-05,1.4285714285744433e-05,3.3333333333551707e-06,0.0004403506740313645,7.732478124511388e-05,-8.862415547650215e-05
150000000000.0,3,0.007286340949999999,-0.024085132399999997,-0.03245020485,-0.001213,0.006035,0.009397,-2.570911364,-9.4138936675,0.96963251875,-1.9315,1.2868,-2.4995,-4.0000000000040004e-05,1.4285714285744433e-05,3.3333333332441484e-06,-0.00019446673339418297,7.375539708487366e-05,-1.8327405653106865e-05
150000000000.0,3,0.007992419749999998,-0.05590771165,-0.0216923098,0.000877,0.000689,0.009409,-2.5714016964999997,-9.413795601,0.9692010261499999,-1.9312,1.2868,-2.4997,9.99999999995449e-06,1.4285714285744433e-05,3.3333333333551707e-06,0.0002382318189257937,-3.914387581405165e-06,-0.000190594542453848
150000000000.0,3,0.032283491799999994,-0.08256218634999998,-0.0120817928,-0.000193,0.001761,0.011536,-2.5715978295,-9.413697534499999,0.9688676000499999,-1.9311,1.2868,-2.4999,-3.999999999992898e-05,1.4285714285744433e-05,2.0000000000020002e-05,-0.00016069702132481822,-1.5500803778989436e-05,0.00023014783320407517
150000000000.0,3,0.06620469414999999,-0.08351343139999999,-0.0127094184,-0.002381,-0.003551,0.01367,-2.5714016964999997,-9.413795601,0.9684459140999999,-1.931,1.2868,-2.5,2.0000000000020002e-05,1.4285714285522388e-05,-2.0000000000020002e-05,0.0001339658877654859,0.00035581523073946464,-3.3219947427109986e-05
150000000000.0,3,0.09946885094999999,-0.0790808256,-0.013346850649999999,-0.004567,-0.009927,0.01367,-2.570715231,-9.4140898005,0.9678869350499999,-1.9309,1.2869,-2.5002,-4.999999999999449e-05,1.4285714285744433e-05,2.999999999997449e-05,0.0001578408740459114,0.00016254275765303916,-0.00039916954245455827
150000000000.0,3,0.1216220733,-0.0636647718,-0.00295180165,-0.007804,-0.013101,0.015795,-2.5698326325,-9.414383999999998,0.9673671825999999,-1.9308,1.287,-2.5004,-4.0000000000040004e-05,1.4285714285744433e-05,2.0000000000020002e-05,9.138164254629544e-05,-6.975069558112779e-05,-0.0002833380654534423
150000000000.0,3,0.10842232239999999,-0.0327934376,0.02083913125,-0.011007,-0.01414,0.014716,-2.5692442334999996,-9.414580133,0.96706317645,-1.9308,1.2871,-2.5006,-7.00000000000145e-05,1.4285714285744433e-05,2.999999999997449e-05,-0.00011965908691058402,0.00018964618102490505,-0.0002958792152853995
150000000000.0,3,0.094339973,-0.016720338249999998,0.02529135035,-0.011041,-0.01734,0.01685,-2.5690481005,-9.414678199499999,0.9669553032999999,-1.9308,1.2871,-2.5008,-7.999999999996898e-05,-9.999999999998899e-05,6.0000000000060005e-05,0.00015277722892781398,-0.0002203033697760759,0.00016300195204044243
150000000000.0,3,0.07316741565,-0.00736479415,0.018524761849999998,-0.006807,-0.021638,0.01686,-2.5692442334999996,-9.414580133,0.9669945298999999,-1.9308,1.2871,-2.5011,-6.0000000000060005e-05,9.999999999998899e-05,9.99999999995449e-06,4.6709324229787796e-05,0.0001714084518491532,-0.00028767135341656314
150000000000.0,3,0.05727083599999999,-0.020182085699999998,0.03294053735,-0.007819,-0.0163,0.01471,-2.5695384329999995,-9.4144820665,0.9672396961499999,-1.9308,1.287,-2.5013,-2.0000000000020002e-05,4.999999999988347e-05,-3.999999999992898e-05,0.0003024503820863167,0.00029712115944757755,-0.000739468206986782
150000000000.0,3,0.0432080999,-0.02884135765,0.025144250599999998,-0.010983,-0.009884,0.017892,-2.5701268319999997,-9.414383999999998,0.9669454966499998,-1.9306,1.287,-2.5016,-7.999999999996898e-05,5.0000000000105516e-05,2.0000000000020002e-05,-0.0004456289120096102,7.115085549291855e-05,-0.000518422622278969
150000000000.0,3,0.0413056098,-0.0574865823,0.018917027849999997,-0.018428,-0.007691,0.016805,-2.5708132975,-9.4142859335,0.9658471518499999,-1.9302,1.287,-2.5022,-7.00000000000145e-05,5.0000000000105516e-05,-4.0000000000040004e-05,0.00023964444952895292,0.00038278754453502373,-0.00022664569183383776
150000000000.0,3,0.051239746249999996,-0.0385401345,0.025428643449999996,-0.018454,-0.009825,0.018939,-2.5714016964999997,-9.414187867,0.9647193870999999,-1.9297,1.2869,-2.5028,-4.999999999999449e-05,4.999999999988347e-05,2.0000000000020002e-05,-0.000105849218365206,-3.65691695620729e-05,-0.00022785930644397823
150000000000.0,3,0.0469542402,-0.026595634799999997,0.0185541818,-0.017386,-0.007706,0.022136,-2.5725784945,-9.413991734,0.96351316915,-1.9292,1.2869,-2.5035,-7.999999999996898e-05,9.999999999998899e-05,1.4999999999987246e-05,7.364475598148346e-05,0.0003755795647117921,-4.287775492084478e-05
150000000000.0,3,0.030577134699999998,-0.029076717250000002,0.0074432473499999995,-0.014152,-0.005598,0.018933,-2.573853359,-9.413795601,0.9623559844499999,-1.9286,1.2868,-2.5041,-0.00012999999999996348,5.0000000000105516e-05,1.4999999999987246e-05,4.747278008454536e-05,-0.00028746115162481267,-0.00036752626793079557
150000000000.0,3,0.02303582085,-0.020201699,0.010198915999999999,-0.012018,-0.005616,0.018935,-2.5751282234999997,-9.4135014015,0.9613949327499999,-1.9281,1.2867,-2.5047,-6.0000000000060005e-05,4.999999999988347e-05,-2.0000000000020002e-05,0.00045392499883512016,0.0005019113531283814,-0.0003899609361077694
150000000000.0,3,-0.0008335652500000001,-0.0017063571,0.0207704847,-0.010896,-0.000295,0.016793,-2.5766972874999996,-9.413207201999999,0.9607084672499999,-1.9277,1.2866,-2.5052,-9.00000000000345e-05,4.999999999988347e-05,2.999999999997449e-05,0.00011193282911214908,-0.00012886790840105355,-5.244923219294151e-06
150000000000.0,3,0.00122583125,-0.006688135299999999,0.0447575506,-0.00757,0.012469,0.012507,-2.577972152,-9.412814936,0.9605025276,-1.9274,1.2864,-2.5053,-8.999999999992347e-05,5.0000000000105516e-05,2.0000000000020002e-05,0.00025110636551284315,9.389246630342463e-05,3.270053730952682e-05
150000000000.0,3,-0.00051975245,0.010404855650000001,0.039079500249999996,-0.003228,0.018831,0.008234,-2.5790508835,-9.412618802999999,0.9602083281,-1.9272,1.2863,-2.5054,-7.00000000000145e-05,5.0000000000105516e-05,6.666666666710341e-06,0.00017347663338496133,0.00011143584571926546,0.00012906755788177904
150000000000.0,3,-0.024693144699999996,0.02768417295,0.024516625,0.001089,0.024124,0.007167,-2.5805218809999997,-9.412226536999999,0.96010045495,-1.927,1.2862,-2.5054,-4.0000000000040004e-05,4.999999999988347e-05,6.666666666599319e-06,-0.00022799514297178192,-7.04930383477187e-05,-0.00020296656536666902
150000000000.0,3,-0.05051405415,0.02591897595,0.029223817,0.008598,0.028326,0.006109,-2.5823851445,-9.411638137999999,0.9606300140499999,-1.9269,1.286,-2.5052,-5.999999999994898e-05,4.999999999988347e-05,6.666666666710341e-06,0.00030315934503200026,-9.77911263566611e-06,0.00016041696616664325
150000000000.0,3,-0.0527009371,0.0070705946499999995,0.02788030595,0.012839,0.026158,0.008259,-2.5842484079999997,-9.411049739,0.9615224191999999,-1.927,1.2858,-2.5048,-2.0000000000020002e-05,5.0000000000105516e-05,9.99999999995449e-06,-0.0001529022824573456,0.00011830493418640842,0.0002949947872972203
150000000000.0,3,-0.036196345149999996,-0.0323227184,0.05919293939999999,0.008614,0.030456,0.007179,-2.585621339,-9.4105594065,0.9625325041499999,-1.9272,1.2856,-2.5044,-5.999999999994898e-05,5.0000000000105516e-05,1.0000000000065512e-05,0.0003036062724628419,-0.00016489086236459727,0.0004328585966897336
150000000000.0,3,-0.011983726299999999,-0.0351274203,0.07778634779999999,0.004379,0.034752,0.008232,-2.586798137,-9.4101671405,0.9633856827,-1.9273,1.2855,-2.5039,1.999999999990898e-05,4.999999999988347e-05,-2.999999999997449e-05,-0.00022314663941669366,8.144046693736584e-05,-0.00014907607311931415
150000000000.0,3,-0.01962310665,-0.012160246,0.0332837701,0.00648,0.030472,0.008245,-2.5880730014999997,-9.4097748745,0.96345432925,-1.9272,1.2853,-2.5037,-1.999999999990898e-05,9.999999999998899e-05,9.99999999995449e-06,0.0001970591956070855,-2.3511847047297252e-05,0.00036592100714427644
150000000000.0,3,-0.0248108245,0.029370916749999997,0.005197524499999999,0.011836,0.030432,0.003987,-2.5893478659999998,-9.4093826085,0.96370930215,-1.9271,1.2852,-2.5035,-2.0000000000020002e-05,5.0000000000105516e-05,9.99999999995449e-06,-0.00015002519993645436,7.407131724179727e-05,0.00028195289497956466
150000000000.0,3,-0.009296704199999999,0.0738244612,-0.03851071455,0.018281,0.034645,0.001858,-2.5903285309999995,-9.409088408999999,0.9638662085499999,-1.927,1.2851,-2.5032,2.999999999997449e-05,4.999999999988347e-05,-2.999999999997449e-05,9.042585380880652e-05,7.111827970351925e-05,0.00021804056100505065
150000000000.0,3,-0.00679600845,0.0768056828,-0.0527990036,0.024667,0.032463,0.000807,-2.5912111295,-9.4087942095,0.9645428674,-1.9271,1.285,-2.5027,-2.999999999997449e-05,4.999999999988347e-05,4.0000000000040004e-05,0.00023917813475726746,-0.0003967216316991262,0.0007305762488760692
150000000000.0,3,-0.011964112999999998,0.04094276375,-0.03884414065,0.023649,0.036737,-0.002403,-2.591897595,-9.40850001,0.96525875285,-1.9273,1.2849,-2.5021,7.00000000000145e-05,5.0000000000105516e-05,-2.999999999997449e-05,-0.0004950969776511549,0.00014525578542623485,-0.0003712643022724116
150000000000.0,3,-0.016553625199999998,-0.014778621550000001,-0.01495514125,0.019387,0.038902,-0.000279,-2.5923879274999995,-9.408303877,0.9659059917499999,-1.9275,1.2848,-2.5016,-1.0000000000065512e-05,3.333333333332966e-05,-1.0000000000065512e-05,-0.00015733801262918234,-0.0002656855883229614,0.0005811053977948788
150000000000.0,3,0.0006374322499999999,-0.06039915735,-0.010247949249999999,0.018295,0.037842,0.002922,-2.592682127,-9.408205810499998,0.9664355508499999,-1.9276,1.2848,-2.501,2.0000000000020002e-05,3.333333333332966e-05,-2.0000000000020002e-05,0.00033392419727529266,0.00012138361843883061,0.0004442592353961494
150000000000.0,3,-0.0017455836999999998,-0.0733341287,-0.030361388399999995,0.014022,0.036813,0.001848,-2.5929763264999997,-9.408205810499998,0.9661903846,-1.9275,1.2847,-2.5007,4.999999999999449e-05,3.333333333332966e-05,-3.999999999992898e-05,-0.0001160511708693246,3.1041679626753194e-05,0.0004347503086941096
150000000000.0,3,-0.00085317855,-0.05859473375,-0.0319892923,0.010783,0.033641,0.003982,-2.5934666589999997,-9.408107743999999,0.9657196653999999,-1.9273,1.2847,-2.5006,2.0000000000020002e-05,4.999999999988347e-05,-2.0000000000020002e-05,-0.00044595276325587463,1.5343070680406967e-05,0.00025565193860277446
150000000000.0,3,0.02211399575,-0.048052584999999995,-0.0467188806,0.008609,0.028332,0.002917,-2.5934666589999997,-9.408107743999999,0.9648959067999999,-1.927,1.2847,-2.5006,4.0000000000040004e-05,5.0000000000105516e-05,-2.0000000000020002e-05,-0.00012685429069447807,7.025243396019398e-05,0.0004995283889379643
150000000000.0,3,0.03254827135,-0.041962655349999996,-0.039206986699999995,0.010729,0.026185,0.001854,-2.593270526,-9.408205810499998,0.9644251876,-1.9268,1.2848,-2.5004,4.999999999999449e-05,5.0000000000105516e-05,9.99999999995449e-06,6.796629254202102e-05,-0.00010511063718987579,1.348380962218343e-05
150000000000.0,3,0.03533335995,-0.04906266994999999,-0.03358777625,0.014978,0.024018,0.001862,-2.5929763264999997,-9.408303877,0.9644840275000001,-1.9269,1.2848,-2.5001,9.99999999995449e-06,4.999999999988347e-05,5.000000000032756e-06,5.4336507937513545e-06,-6.826262312475961e-05,0.0002889285422003063
150000000000.0,3,0.0550153065,-0.0323227184,-0.021270623849999996,0.016035,0.022944,0.001861,-2.5922898610000003,-9.40850001,0.9650331998999999,-1.9272,1.2849,-2.4996,2.0000000000020002e-05,3.333333333332966e-05,5.000000000032756e-06,-0.00027734871394180516,-6.054250544473838e-05,0.00013969071933317423
150000000000.0,3,0.0614484689,-0.03947176625,-0.0114149406,0.01597,0.017612,0.006135,-2.5917995285,-9.40850001,0.96594521835,-1.9275,1.2849,-2.499,2.999999999997449e-05,3.333333333332966e-05,-2.999999999997449e-05,7.195687968741815e-05,0.00010595850308803278,0.0002365656253813242
150000000000.0,3,0.047503412599999996,-0.06424336415,-0.0126309652,0.0106,0.016584,0.01146,-2.591897595,-9.4084019435,0.9664257441999999,-1.9277,1.2848,-2.4987,2.999999999997449e-05,3.333333333332966e-05,2.999999999997449e-05,-0.00013383354468277098,0.00010422104167462365,0.0001959780922540233
150000000000.0,3,0.0528186169,-0.08393511735,-0.008786758399999999,0.007365,0.014476,0.014656,-2.5921917945,-9.408303877,0.9666218771999999,-1.9277,1.2848,-2.4985,2.0000000000020002e-05,3.333333333332966e-05,-2.0000000000020002e-05,-1.0088592905521665e-06,-7.479815798960843e-06,0.00010881335992429797
150000000000.0,3,0.05746696899999999,-0.10658847885,-0.024183198899999998,-0.000134,0.013468,0.018908,-2.592682127,-9.408303877,0.9660040582499999,-1.9275,1.2848,-2.4986,9.99999999995449e-06,3.333333333332966e-05,9.99999999995449e-06,-0.00013200256424972245,7.833270378210244e-05,-9.740557844306608e-05
150000000000.0,3,0.05110245315,-0.09865489899999999,-0.05900661305,-0.006587,0.008192,0.019968,-2.593270526,-9.408303877,0.9641702147,-1.9268,1.2848,-2.4992,1.0000000000065512e-05,3.333333333332966e-05,9.99999999995449e-06,0.00017926704454174214,-4.89312753710891e-05,0.00017590295936953382
150000000000.0,3,0.06406684445,-0.0925551627,-0.07465802645,-0.011955,0.003975,0.018893,-2.593858925,-9.4084019435,0.9615616457999999,-1.9258,1.2848,-2.5002,-1.0000000000065512e-05,4.999999999988347e-05,1.0000000000065512e-05,-0.0001821566048694212,0.00022838896892496408,-0.00017810458397748974
150000000000.0,3,0.08043414329999998,-0.0738048479,-0.0702352273,-0.013071,-0.002408,0.017827,-2.5940550579999995,-9.408598076499999,0.9590805633499999,-1.9249,1.2849,-2.5011,-9.99999999995449e-06,5.0000000000105516e-05,1.0000000000065512e-05,0.0004661206799057016,0.00017865504249270359,0.00011458218343518567
150000000000.0,3,0.0805322098,-0.0359315656,-0.05420135455,-0.010964,-0.006686,0.015698,-2.5941531244999996,-9.408696143,0.9572663331,-1.9243,1.285,-2.5018,-2.0000000000020002e-05,9.999999999998899e-05,9.99999999995449e-06,-8.833829804189008e-05,4.989481563044684e-05,-0.00012022316823134815
150000000000.0,3,0.07113743909999999,-0.0033146476999999994,-0.048905763549999995,-0.009892,-0.007757,0.012494,-2.5941531244999996,-9.408892276,0.9557070757499999,-1.9238,1.285,-2.5024,2.999999999997449e-05,0.00010000000000021103,-9.99999999995449e-06,0.0001396429077415995,0.0002931001260491062,-0.00044814674170501334
150000000000.0,3,0.0740794341,0.020466478549999997,-0.0742559538,-0.008794,-0.006695,0.007152,-2.593858925,-9.4091864755,0.9538241989499999,-1.9232,1.2851,-2.503,-5.000000000032756e-06,3.333333333332966e-05,-2.500000000016378e-06,0.00038328769255091544,8.696440038136188e-05,-0.00021726774499875035
150000000000.0,3,0.0642727841,0.024026292499999997,-0.06396877795,-0.00665,-0.005646,0.006083,-2.5934666589999997,-9.409480675,0.95221590835,-1.9227,1.2852,-2.5036,-4.999999999921734e-06,3.333333333332966e-05,-2.500000000016378e-06,-0.00013996969042917584,-3.66323048435202e-05,-0.0001450319521039134
150000000000.0,3,0.0369906838,-0.0020005566,-0.04351210605,-0.003432,-0.004604,0.003949,-2.593270526,-9.409578741499999,0.95121563005,-1.9224,1.2853,-2.504,-2.0000000000020002e-05,3.333333333332966e-05,-2.500000000016378e-06,0.00010892057438849356,-9.221848957219336e-05,1.0831686898526982e-06
150000000000.0,3,0.00318716125,-0.0033832942499999997,-0.049768748749999994,-0.001286,-0.001427,0.006081,-2.5937608585,-9.409578741499999,0.9502938049499999,-1.922,1.2853,-2.5043,1.0000000000065512e-05,-1.666666666655381e-05,-2.500000000016378e-06,-0.00014319261088124868,0.0002975124435344867,-0.00028227196248620245
150000000000.0,3,-0.00485429175,-0.009051537949999999,-0.0579376882,0.002973,-0.001462,0.007156,-2.594447324,-9.4093826085,0.9494798529999999,-1.9216,1.2852,-2.5047,5.000000000032756e-06,-1.6666666666775853e-05,-9.99999999995449e-06,4.094831470835558e-05,-7.593037400832614e-06,-0.00016851720088739697
150000000000.0,3,-0.019917306149999998,-0.0152591474,-0.062144741049999994,0.008321,0.000626,0.007162,-2.595427989,-9.4091864755,0.9490385537499999,-1.9213,1.2851,-2.505,4.999999999921734e-06,-1.6666666666775853e-05,-1.0000000000065512e-05,5.986831570248263e-05,-7.868286998857776e-05,-0.00018124927133911228
150000000000.0,3,-0.014298095700000001,-0.04074663075,-0.061575955349999996,0.010462,0.002739,0.00823,-2.5963105874999997,-9.4089903425,0.9487737742,-1.9212,1.2851,-2.5051,3.3333333333551707e-06,-1.666666666655381e-05,-9.99999999995449e-06,0.0002437186369075306,-0.00015991792473823985,0.00013512373033197633
150000000000.0,3,-0.0099047165,-0.049543195799999995,-0.0593694591,0.009456,0.00808,0.003948,-2.5968009199999997,-9.408892276,0.9485089946499999,-1.921,1.285,-2.5052,3.3333333332441484e-06,-1.666666666655381e-05,-9.99999999995449e-06,-0.00016077970058669955,0.00016602795848541518,-1.827084845240634e-05
150000000000.0,3,0.00899269805,-0.04619912815,-0.0537796686,0.010553,0.010206,0.000743,-2.5967028535,-9.4089903425,0.94831286165,-1.921,1.285,-2.5051,3.3333333333551707e-06,-1.6666666666775853e-05,-3.3333333333551707e-06,-0.00026941941816427395,5.807930971024611e-05,-0.00020055420877307384
150000000000.0,3,0.02644853505,-0.0252227038,-0.056270557699999994,0.011661,0.014462,-0.0014,-2.5962125209999996,-9.409088408999999,0.94795982225,-1.9209,1.2851,-2.505,2.0000000000020002e-05,-3.333333333332966e-05,-3.3333333333551707e-06,0.00013769682976971787,-0.0001908335563969299,0.00018720041665343246
150000000000.0,3,0.0151610809,-0.006246836049999999,-0.046463907699999994,0.012774,0.019782,-0.002476,-2.5958202549999996,-9.409284542,0.9477342693,-1.9209,1.2851,-2.5048,2.0000000000020002e-05,-3.333333333332966e-05,-3.3333333333551707e-06,-0.00032642706115293407,4.62746951692683e-05,6.3381285096753e-05
150000000000.0,3,0.0037657536,-0.0060703163499999995,-0.029017877349999995,0.012763,0.018717,-0.002475,-2.5956241220000003,-9.409284542,0.94794020895,-1.921,1.2851,-2.5045,-9.99999999995449e-06,-3.333333333332966e-05,2.0000000000020002e-05,-2.796698814799825e-05,-0.0003345228545246215,0.00038475879965416127
150000000000.0,3,0.008571012099999999,-0.0101596894,-0.019544653449999998,0.011676,0.017658,-0.000341,-2.5956241220000003,-9.4091864755,0.9483422815999999,-1.9211,1.2851,-2.5042,2.0000000000020002e-05,-0.00010000000000021103,9.99999999995449e-06,0.00015339707635542155,9.408997456050727e-06,0.000255464402672434
150000000000.0,3,0.014749201599999998,-0.0030302548499999997,-0.0129840046,0.011665,0.017656,0.001793,-2.5957221884999995,-9.4091864755,0.94882280745,-1.9212,1.2851,-2.5038,2.999999999997449e-05,-5.0000000000105516e-05,-2.999999999997449e-05,-0.00016847281880627563,-5.932589914126041e-05,0.000246843620677506
150000000000.0,3,0.0270467407,-0.0126113519,-0.020662611549999998,0.012748,0.019779,0.001789,-2.5955260555,-9.4091864755,0.9491660402,-1.9214,1.2851,-2.5035,9.99999999995449e-06,-4.999999999988347e-05,-2.0000000000020002e-05,-0.0003058298580955743,-3.0493458605951318e-05,0.00018808030225825334
150000000000.0,3,0.024693144699999996,-0.041972461999999995,-0.02566400305,0.008506,0.021947,-0.000359,-2.5951337894999997,-9.409284542,0.94907778035,-1.9214,1.2852,-2.5032,2.0000000000020002e-05,-9.999999999998899e-05,-2.999999999997449e-05,0.00025701938991939954,-0.00015416825635483633,4.3680870653872717e-07
150000000000.0,3,0.029625889649999997,-0.07230443045,-0.0173381572,0.006371,0.021965,-0.000366,-2.5945453905,-9.409480675,0.9488326141,-1.9214,1.2852,-2.503,4.0000000000040004e-05,-5.0000000000105516e-05,-2.0000000000020002e-05,-3.5010638654631165e-05,0.0001875920849709889,0.00038794934140717885
150000000000.0,3,0.0329895706,-0.0932808548,-0.019466200249999996,0.005283,0.018778,-0.001434,-2.5937608585,-9.4097748745,0.9484109281499999,-1.9213,1.2853,-2.5028,3.999999999992898e-05,-4.999999999988347e-05,-9.99999999995449e-06,-3.4582472205890724e-05,-0.00017566459412488022,5.924478662677757e-05
150000000000.0,3,0.0270271274,-0.0737656213,-0.02309466075,0.003094,0.013466,0.000703,-2.5931724595,-9.4099710075,0.9478519491,-1.9212,1.2854,-2.5028,2.999999999997449e-05,-9.999999999998899e-05,-5.000000000032756e-06,-0.00014802488277587678,-5.563898935756484e-05,0.00016930036345330635
150000000000.0,3,0.03283266419999999,-0.03478418755,-0.00036284604999999996,0.005209,0.01238,0.002841,-2.5927801935,-9.410069073999999,0.94801866215,-1.9213,1.2854,-2.5026,4.0000000000040004e-05,-5.0000000000105516e-05,-4.999999999921734e-06,9.73284385203943e-05,-5.2463618322784455e-05,0.00022090965752985525
150000000000.0,3,0.044404511199999996,0.00050013915,0.0323227184,0.007339,0.012361,0.003909,-2.5925840604999997,-9.4099710075,0.9489993271499999,-1.9217,1.2854,-2.5021,2.0000000000020002e-05,-4.999999999988347e-05,-1.0000000000065512e-05,0.00017288056962616594,-2.8699100144580214e-05,0.00025582599769879977
150000000000.0,3,0.04531652965,0.01705376435,0.04672868725,0.009486,0.012345,0.001776,-2.5922898610000003,-9.4099710075,0.9503036116,-1.9222,1.2854,-2.5015,4.999999999999449e-05,-4.999999999988347e-05,-9.99999999995449e-06,-4.200265552434246e-05,8.687654529238031e-05,-5.678889143290178e-05
150000000000.0,3,0.034950900599999994,0.0066979419499999995,0.025330576949999996,0.011652,0.015525,0.000704,-2.5919956615,-9.4099710075,0.9515000228999999,-1.9226,1.2854,-2.5009,2.999999999997449e-05,-5.0000000000105516e-05,-2.0000000000020002e-05,-0.00017545986433886718,-0.00021706615017147435,4.4868712721246595e-05
150000000000.0,3,0.01485707475,-0.01927006725,0.008335652499999999,0.013812,0.018704,0.000701,-2.591897595,-9.409872941,0.9524806879,-1.923,1.2854,-2.5004,2.0000000000020002e-05,-5.0000000000105516e-05,-2.0000000000020002e-05,-0.0001972560085929942,0.000211486014695339,0.00021640658129218338
150000000000.0,3,-0.0020005566,-0.05512317965,0.0102773692,0.011712,0.022983,0.000689,-2.5919956615,-9.4097748745,0.95323579995,-1.9232,1.2853,-2.4999,4.0000000000040004e-05,-4.999999999988347e-05,-9.99999999995449e-06,-0.0001345407391606379,-0.00017452446523180676,5.9293234936586003e-05
150000000000.0,3,-0.0007060788,-0.0599970847,-0.006629295399999999,0.009562,0.022998,0.003887,-2.5921917945,-9.409676808,0.9533828996999999,-1.9232,1.2853,-2.4996,5.999999999994898e-05,-9.999999999998899e-05,-1.0000000000065512e-05,-0.0003032576879395954,9.327426178717957e-05,0.0001893318921006859
150000000000.0,3,0.0183188222,-0.0592910059,-0.0016279038999999999,0.005272,0.020901,0.004948,-2.5923879274999995,-9.409676808,0.9533240598,-1.9232,1.2853,-2.4995,4.0000000000040004e-05,-5.0000000000105516e-05,-2.0000000000020002e-05,0.0006267777076200964,3.238416856454762e-06,0.0001247367104828534
150000000000.0,3,0.04588531535,-0.06515538259999999,0.0083944924,-0.002218,0.01883,0.006002,-2.592093728,-9.4097748745,0.9528729538999999,-1.9231,1.2853,-2.4994,4.999999999999449e-05,-4.999999999988347e-05,5.000000000032756e-06,-0.0002353445752176775,-4.7280122617010534e-05,3.333597768007124e-05
150000000000.0,3,0.08662213945,-0.06069335685,0.031185147,-0.006549,0.011404,0.007068,-2.5912111295,-9.410069073999999,0.9525395278,-1.9231,1.2854,-2.4993,9.99999999995449e-06,-4.999999999988347e-05,5.000000000032756e-06,0.0004198891709443764,-0.00016079308020700012,0.00046531570537000633
150000000000.0,3,0.11384539984999999,-0.0310282406,0.04757205915,-0.002311,0.006042,0.004942,-2.589936265,-9.4103632735,0.95290237385,-1.9234,1.2855,-2.499,2.999999999997449e-05,-5.0000000000105516e-05,2.0000000000020002e-05,-0.0001658739846557289,0.0001375104698151386,3.9232846322345694e-05
150000000000.0,3,0.12616255224999998,0.005952636549999999,0.057869041649999994,0.002981,-0.000395,0.003888,-2.5882691345,-9.410657473,0.9541282051,-1.924,1.2857,-2.4984,3.0000000000085514e-05,-3.333333333332966e-05,-2.0000000000020002e-05,0.0002567976008416295,-4.028658953014741e-05,0.00010369366056472984
150000000000.0,3,0.11701294779999999,0.025879749349999998,0.05226944449999999,0.008311,-0.004697,-0.00144,-2.5865039375,-9.411049739,0.9558345622,-1.9248,1.2858,-2.4976,9.99999999995449e-06,-3.333333333332966e-05,9.99999999995449e-06,6.6833314818604e-05,-0.000128769535140405,-2.9825289281859568e-05
150000000000.0,3,0.09022118,0.029135557149999998,0.0419136221,0.014719,-0.006878,-0.0057,-2.584640674,-9.411245871999999,0.9581097049999999,-1.9258,1.2859,-2.4967,2.0000000000020002e-05,-3.333333333332966e-05,-2.999999999997449e-05,5.976664528195563e-05,7.241224982590388e-05,-4.437709786886401e-05
150000000000.0,3,0.04747399265,0.0383832281,0.01840708205,0.017895,-0.010101,-0.005691,-2.5833658094999996,-9.4113439385,0.9603750411499999,-1.9267,1.2859,-2.4958,-9.99999999995449e-06,-3.333333333332966e-05,-1.4999999999987246e-05,-7.345659165647334e-05,-0.00021082687144469148,-0.00013883640836720446
150000000000.0,3,0.00363826715,0.030528101449999998,-0.0043345393,0.022137,-0.013333,-0.005677,-2.5827774105,-9.4113439385,0.9627678637499999,-1.9276,1.2859,-2.4951,2.999999999997449e-05,-3.333333333332966e-05,-1.4999999999987246e-05,-8.959191796664712e-05,1.1957618566871275e-05,-9.9341156832633e-05
150000000000.0,3,-0.03788308895,0.0087671451,-0.010954028049999998,0.024235,-0.014421,-0.000332,-2.5831696765,-9.4109516725,0.9651901062999999,-1.9284,1.2858,-2.4944,9.99999999995449e-06,-3.333333333332966e-05,-2.999999999997449e-05,-0.00021032577808677289,-0.00015116586290164769,-0.0002468740572356687
150000000000.0,3,-0.05267151714999999,-0.05108283985,-0.006060509699999999,0.022082,-0.013343,0.005002,-2.5839542085,-9.4105594065,0.9674848623999999,-1.9291,1.2856,-2.4938,2.0000000000020002e-05,-3.333333333332966e-05,-3.0000000000085514e-05,-9.526889025091023e-05,-0.00022131711331230264,-1.2188150747771687e-05
150000000000.0,3,-0.0413448364,-0.11053075215,-0.006168382849999999,0.013584,-0.007946,0.006045,-2.584640674,-9.4101671405,0.9689362466,-1.9295,1.2855,-2.4935,4.0000000000040004e-05,-3.333333333332966e-05,-9.99999999995449e-06,-7.056318064124767e-05,-0.00024914591950220277,-0.00012492372850081424
150000000000.0,3,-0.012729031699999999,-0.1373911665,0.016994924449999997,0.00296,-0.003594,0.003883,-2.584640674,-9.410069073999999,0.9695638722,-1.9297,1.2854,-2.4933,9.99999999995449e-06,-3.333333333332966e-05,-9.99999999995449e-06,-0.00040320249450376267,-6.437113962109997e-05,-0.0004676149145610431
150000000000.0,3,0.02001537265,-0.10595104659999999,-0.00406975975,0.002987,-0.001461,0.001741,-2.584052275,-9.410265207,0.969681552,-1.9298,1.2855,-2.4932,9.99999999995449e-06,-3.333333333332966e-05,1.999999999990898e-05,5.1560114032955795e-05,5.811899997865133e-05,0.00013652585562473618
150000000000.0,3,0.04162922925,-0.03525490675,-0.0389912404,0.009428,0.001687,-0.001459,-2.5832677429999995,-9.41046134,0.96973058525,-1.9299,1.2856,-2.493,4.0000000000040004e-05,-3.333333333332966e-05,1.0000000000065512e-05,-4.4382454073677025e-05,-8.981967714505323e-05,-0.0002435705954262346
150000000000.0,3,0.06582223479999999,0.011934693049999999,-0.052975523299999994,0.018012,0.004818,-0.006791,-2.5816986789999996,-9.410853606,0.97039743745,-1.9303,1.2857,-2.4926,1.0000000000065512e-05,-3.333333333332966e-05,9.99999999995449e-06,-2.304478475423366e-05,-0.00011053946428929429,-4.618047543392123e-05
150000000000.0,3,0.06236048735,0.02756649315,-0.039609059349999996,0.016976,0.006961,-0.010003,-2.5800315484999996,-9.411147805499999,0.971250616,-1.9308,1.2858,-2.492,9.99999999995449e-06,-9.999999999998899e-05,1.0000000000065512e-05,-0.0006625083790674502,-0.00017971400892591305,0.00034423084032519924
150000000000.0,3,0.0510926465,0.03219523195,-0.0372064301,0.014779,0.000584,-0.007863,-2.5786586175,-9.411442005,0.97214302115,-1.9313,1.2859,-2.4914,2.999999999997449e-05,-4.999999999988347e-05,-2.0000000000020002e-05,4.349451323681919e-05,-6.734924166829082e-05,0.0002169128202216264
150000000000.0,3,0.03333280335,0.0201624724,-0.05359334225,0.013699,0.000591,-0.005733,-2.577579886,-9.411736204499999,0.9725156738499999,-1.9316,1.286,-2.4911,4.999999999999449e-05,-5.0000000000105516e-05,-1.0000000000065512e-05,-9.202297630306333e-05,-0.0001367707877004687,-0.000191879199890721
150000000000.0,3,0.011767979999999999,-0.019181807399999997,-0.06247816714999999,0.011551,0.000606,-0.003604,-2.576991487,-9.411834271,0.9725745137499999,-1.9317,1.2861,-2.491,2.999999999997449e-05,-5.0000000000105516e-05,-1.999999999990898e-05,-0.0005083951793511954,-5.4089754627950626e-05,-0.0001284459623458467
150000000000.0,3,-0.00442279915,-0.07771770125,-0.059545978799999996,0.007261,-0.000426,-0.001476,-2.5766972874999996,-9.412030404,0.9723391541499999,-1.9316,1.2861,-2.491,2.999999999997449e-05,-4.999999999988347e-05,-2.0000000000020002e-05,0.0005699513930932376,-7.874870728685757e-05,-0.0002253951950734745
150000000000.0,3,-0.0013533177,-0.10671596529999999,-0.03317589695,-0.00236,-0.00035,0.001708,-2.5763050214999996,-9.412226536999999,0.97155462215,-1.9314,1.2862,-2.4912,3.0000000000085514e-05,-4.999999999988347e-05,-1.0000000000065512e-05,9.841472915561589e-05,7.7385799459595e-06,-0.00011319012981170218
150000000000.0,3,0.01791674955,-0.0892012884,-0.016131939249999998,-0.006638,-0.003508,-0.001499,-2.5755204894999997,-9.4125207365,0.9706720236499999,-1.9312,1.2863,-2.4914,4.0000000000040004e-05,-5.0000000000105516e-05,-9.99999999995449e-06,0.00025947344683840967,-6.159367744174027e-05,-0.0002046871319536514
150000000000.0,3,0.05127897285,-0.02788030595,-0.032263878499999996,-0.005619,-0.009909,-0.002558,-2.5743436915,-9.4129130025,0.9697403918999999,-1.9311,1.2865,-2.4917,1.4999999999987246e-05,-5.0000000000105516e-05,1.4999999999987246e-05,-2.7115553688172866e-05,-0.00012362079525152225,3.896972252670494e-05
150000000000.0,3,0.0585260872,0.0009414384,-0.030537908099999997,-0.000298,-0.012083,-0.003616,-2.5730688269999997,-9.4133052685,0.9693677392,-1.9311,1.2866,-2.4918,1.4999999999987246e-05,-4.999999999988347e-05,1.4999999999987246e-05,0.00020325134805121436,-0.0003259833670572476,-0.00013693864894426255
150000000000.0,3,0.05300494325,0.009894909849999998,-0.0114149406,0.003933,-0.015317,-0.001472,-2.571892029,-9.413599468,0.9698384583999999,-1.9314,1.2867,-2.4916,4.999999999999449e-05,-5.0000000000105516e-05,-9.99999999995449e-06,-0.0001288471847062933,-5.872983155574829e-06,-0.0002837913352493615
150000000000.0,3,0.02693886755,-0.0037559469499999997,0.0092770909,0.006084,-0.013204,-0.001473,-2.5711074970000003,-9.413697534499999,0.9708485433499999,-1.9318,1.2867,-2.4913,-1.0000000000065512e-05,-5.0000000000105516e-05,-1.0000000000065512e-05,0.00011159281065542537,-0.00021091235521186746,5.81892615616475e-05
150000000000.0,3,0.0087279185,-0.037059330349999996,0.0063645158499999995,0.003976,-0.00999,-0.001484,-2.570519098,-9.413697534499999,0.97167230195,-1.9322,1.2868,-2.491,4.0000000000040004e-05,-9.999999999998899e-05,-9.99999999995449e-06,-0.0002507449008257723,-4.6808172975199014e-05,-0.00040267728073661857
150000000000.0,3,-0.00140235095,-0.0424235679,0.0166516917,0.00291,-0.009981,-0.001486,-2.5701268319999997,-9.413795601,0.9724568339499999,-1.9325,1.2868,-2.4908,4.0000000000040004e-05,-9.999999999998899e-05,-2.0000000000020002e-05,-0.00026448807191692403,5.2154742158361245e-06,-0.00021574925183154292
150000000000.0,3,-0.01419022255,-0.02968472955,0.029292463549999998,0.008218,-0.012158,0.000662,-2.5700287655,-9.413697534499999,0.9738787981999999,-1.933,1.2867,-2.4904,3.500000000000725e-05,-4.999999999988347e-05,2.0000000000020002e-05,0.0004978776173705235,-0.0002992588785786232,-1.6117465978737755e-05
150000000000.0,3,-0.028135278849999997,-0.01615155255,0.01917200075,0.01142,-0.012185,0.000669,-2.570322965,-9.413403335,0.9754674755,-1.9335,1.2866,-2.49,3.500000000000725e-05,-5.0000000000105516e-05,-2.999999999997449e-05,-0.0005381997880853362,0.00013665332722112566,-0.00024403739226563914
150000000000.0,3,-0.02389880605,0.00630567595,0.01819133575,0.014695,-0.003686,-0.000406,-2.570715231,-9.4131091355,0.9773503523,-1.9341,1.2865,-2.4895,3.999999999992898e-05,-9.999999999998899e-05,-1.0000000000065512e-05,-0.00015246253526490783,-0.00015945855834731404,-0.0003904820342484072
150000000000.0,3,-0.026389695149999996,0.00324600115,0.0087671451,0.013631,-0.00474,-0.002539,-2.570911364,-9.4129130025,0.9788409630999999,-1.9346,1.2865,-2.489,4.0000000000040004e-05,-9.999999999998899e-05,-2.0000000000020002e-05,-0.0003936630767231719,0.00012952705651469998,-0.00038155449786803075
150000000000.0,3,-0.0190445143,0.0039128533499999995,-0.0150630144,0.009388,-0.001508,-0.002551,-2.570911364,-9.412814936,0.9796353017499999,-1.9349,1.2864,-2.4888,6.0000000000004494e-05,-9.999999999998899e-05,-6.666666666599319e-06,-0.000279283784303308,-0.0001985880994772593,-0.0001273272048294416
150000000000.0,3,-0.006501808949999999,0.0016573238499999997,-0.01581812645,0.009409,0.000624,-0.003621,-2.570715231,-9.412814936,0.9802335073999999,-1.9351,1.2864,-2.4885,4.999999999999449e-05,-4.999999999988347e-05,-6.666666666710341e-06,0.00014574863163452356,-0.00013031466273338843,-8.960531559232265e-05
150000000000.0,3,0.0041776329,-0.01417060925,0.0002549729,0.009435,0.003821,-0.003627,-2.570322965,-9.412814936,0.9809591994999999,-1.9354,1.2864,-2.4882,8.999999999997899e-05,-5.0000000000105516e-05,-6.666666666599319e-06,-0.0004968311283968241,-0.00015538436042317194,-0.00011923898239407649
150000000000.0,3,0.0023732093,-0.03866762095,0.0213392704,0.006252,0.005978,-0.003638,-2.5698326325,-9.4129130025,0.9816456649999998,-1.9357,1.2865,-2.4878,6.0000000000004494e-05,-9.999999999998899e-05,-1.0000000000065512e-05,-0.00024031641513255764,-9.558687046506975e-05,-6.343536667818839e-05
150000000000.0,3,0.00797280645,-0.053809088549999995,0.033107250399999996,0.004154,0.010257,-0.00365,-2.5691461669999995,-9.413011069,0.9823321304999999,-1.936,1.2865,-2.4874,9.999999999998899e-05,-9.999999999998899e-05,-2.0000000000020002e-05,0.00029251486763448575,-7.023558824026388e-05,-2.3831406519292386e-06
150000000000.0,3,0.016504591949999998,-0.05743754905,0.03733391655,0.006267,0.008107,-0.002577,-2.5684597014999997,-9.4131091355,0.983214729,-1.9364,1.2865,-2.487,7.00000000000145e-05,-9.999999999998899e-05,-1.999999999990898e-05,-0.000302645877037655,-0.0001504523693034443,-2.9911239271207535e-05
150000000000.0,3,0.0262229821,-0.0459539619,0.042080335149999995,0.006303,0.012368,-0.002587,-2.5676751694999997,-9.413207201999999,0.9840973274999999,-1.9368,1.2866,-2.4864,9.999999999998899e-05,-9.999999999998899e-05,-1.0000000000065512e-05,-0.0002326188887984415,-0.00011426306821604726,0.00013800932369001373
150000000000.0,3,0.03629441165,-0.0309301741,0.04830755789999999,0.009496,0.012339,-0.00045,-2.566988704,-9.4133052685,0.9853721919999999,-1.9373,1.2866,-2.4858,2.0000000000020002e-05,-9.999999999998899e-05,4.0000000000040004e-05,0.00030812366281085524,-0.0002546422872335974,0.0004050656814063025
150000000000.0,3,0.0393835064,-0.0011375714,0.044414317849999996,0.011606,0.009124,-0.000443,-2.5663022384999996,-9.4133052685,0.9868431894999999,-1.9379,1.2866,-2.4851,0.00010999999999999899,-4.999999999988347e-05,-3.3333333333551707e-06,0.0001062023368931797,7.111930402148303e-06,-7.374308236540728e-05
150000000000.0,3,0.03550987965,0.0099047165,0.018416888699999998,0.010516,0.008064,0.002757,-2.5660080389999997,-9.4133052685,0.9879219209999999,-1.9383,1.2866,-2.4846,4.999999999999449e-05,-5.0000000000105516e-05,-3.3333333333551707e-06,0.00021222002182308408,-0.00023836230281926163,0.0001739327253158507
150000000000.0,3,0.043257133149999995,-0.00705098135,0.00683523505,0.011568,0.008051,0.005958,-2.5658119059999995,-9.413207201999999,0.9888045194999999,-1.9386,1.2866,-2.4842,8.999999999997899e-05,-5.0000000000105516e-05,-3.3333333333551707e-06,-0.0003722709300140181,-0.00013626565442592664,6.88012856198128e-06
150000000000.0,3,0.04341403955,-0.033440676499999995,0.0101400761,0.008319,0.002749,0.007026,-2.5657138394999994,-9.413207201999999,0.9897851845,-1.939,1.2866,-2.4838,8.00000000000245e-05,-4.999999999988347e-05,-9.99999999995449e-06,8.513669113763278e-05,-5.291758693792836e-05,0.0002274547517271408
150000000000.0,3,0.043737659,-0.051769305349999996,-0.00891424485,0.006196,0.002768,0.004883,-2.5653215735,-9.413207201999999,0.9900793839999998,-1.9391,1.2866,-2.4836,8.999999999997899e-05,-4.999999999988347e-05,-9.99999999995449e-06,-0.0002904719227276864,0.0001613868666823226,-0.0001849330284025008
