Time,placement_label,user_acc_x(m/s^2),user_acc_y(m/s^2),user_acc_z(m/s^2),rotation_rate_x(rad/s),rotation_rate_y(rad/s),rotation_rate_z(rad/s),gravity_x(m/s^2),gravity_y(m/s^2),gravity_z(m/s^2),attitude_roll(rad),attitude_pitch(rad),attitude_yaw(rad),target_delta_x,target_delta_y,target_delta_z,target_delta_roll,target_delta_pitch,target_delta_yaw
153000000000.0,4,-0.32449224185,0.06857790344999999,0.06445911045,0.083296,0.077496,-0.037912,-0.01399408955,-4.5560715235,-8.6840827745,-0.001611,0.48317,-0.47736,0.0,0.0,0.0,0.0,0.0,0.0
153000000000.0,4,-0.33837845825,0.08546495475,-0.0020986231,0.15835,0.12802,-0.031467,-0.0024908890999999996,-4.570291166,-8.6766297205,-0.000287,0.4848,-0.47791,5.0000000000105516e-05,-0.00010000000000021103,0.00019999999999997797,-0.002567999293818013,-0.0007508918723337921,0.0006772995066441911
153000000000.0,4,-0.23044646835,0.01460210185,-0.013807763199999998,0.20756,0.14786,-0.027148,0.01167972015,-4.588727668,-8.6668230705,0.001347,0.48694,-0.47825,5.0000000000105516e-05,-3.333333333332966e-05,9.999999999998899e-05,-0.0019631897200567683,0.00028977631678284155,0.00010199231965257738
153000000000.0,4,-0.07628593035,-0.10957950709999999,-0.037157396849999996,0.22644,0.11359,-0.016381,0.023908612699999998,-4.609517766,-8.655741555999999,0.002763,0.48934,-0.47871,4.999999999988347e-05,-3.333333333332966e-05,0.00019999999999997797,-0.0020887048053369606,0.0005280458219338868,-9.701414568685784e-06
153000000000.0,4,0.019338713799999997,-0.17956956815,-0.07800209409999999,0.22265,0.045408,-0.003457,0.030488874849999997,-4.6302097975,-8.6446600415,0.003527,0.49173,-0.47884,5.0000000000105516e-05,-3.333333333332966e-05,9.999999999998899e-05,-0.0016252919648552244,0.002313763942759728,-0.0003315701383447278
153000000000.0,4,0.13723426009999998,-0.23969413929999997,-0.04918034975,0.19295,-0.053469,0.016947,0.027968565799999998,-4.647959834,-8.635147590999999,0.003239,0.49378,-0.47893,0.00019999999999997797,-5.0000000000105516e-05,0.00019999999999997797,-1.1326761975682942e-05,0.0017933654880304406,-0.0005147373481139139
153000000000.0,4,0.22456247834999998,-0.2550709665,-0.0879852638,0.13972,-0.15854,0.03732,0.014709975,-4.6608065455,-8.628282936,0.001705,0.49527,-0.47855,9.999999999998899e-05,-4.999999999988347e-05,9.999999999998899e-05,-0.0002613051622983864,0.0014012048007081557,-0.00012033173512793205
153000000000.0,4,0.23449661479999998,-0.21367709684999997,-0.1196999699,0.083651,-0.21885,0.058677,-0.00644296905,-4.6688479984999995,-8.623968009999999,-0.000747,0.4962,-0.47805,0.00019999999999997797,-9.999999999998899e-05,9.999999999998899e-05,-0.0004963235854837378,0.00046133255218228086,0.0001993008619758374
153000000000.0,4,0.10174399375,-0.18217813705,-0.0778844143,0.03783,-0.20356,0.070312,-0.0291649771,-4.672476458999999,-8.6219086135,-0.003383,0.49663,-0.47722,9.999999999998899e-05,-5.0000000000105516e-05,9.999999999998899e-05,7.929453058574953e-05,-0.000659255181325813,0.0010100395814839347
153000000000.0,4,-0.10314634469999999,-0.12905551399999998,-0.01713221755,0.002302,-0.11481,0.062622,-0.045296916349999994,-4.672672592,-8.6217124805,-0.005254,0.49665,-0.47659,1.2499999999970868e-05,-4.999999999988347e-05,9.999999999998899e-05,-0.0009502350821870564,-0.0016876534601582005,0.0012290159940691048
153000000000.0,4,-0.25782663515,-0.0441103117,0.03333280335,-0.006157,0.017408,0.045296,-0.0496804889,-4.671691927,-8.622202813,-0.005762,0.49654,-0.476,1.2499999999970868e-05,-0.00019999999999997797,0.00020000000000020002,0.0009978736845450698,-0.002630529983039809,0.0008359499208661081
153000000000.0,4,-0.36807299444999997,-0.04398282525,0.07901217904999999,0.01426,0.15366,0.020541,-0.04043281795,-4.672280325999999,-8.62200668,-0.00469,0.4966,-0.47586,1.2499999999970868e-05,-9.999999999998899e-05,0.00019999999999997797,-0.0017246594670706217,-0.0009746858999151176,0.0006837256283390714
153000000000.0,4,-0.34810665505,-0.04215878835,0.12926145365,0.045851,0.2195,-0.005139,-0.0222414822,-4.675810719999999,-8.6201434165,-0.00258,0.49701,-0.47587,1.2500000000192912e-05,-9.999999999998899e-05,0.00019999999999997797,-0.0021194852408426557,-0.00036717045940837245,-0.0002678922598684519
153000000000.0,4,-0.22880875779999998,-0.00406975975,0.0902800199,0.082025,0.19684,-0.021047,-0.0029812216,-4.6825773085,-8.616514956,-0.000346,0.4978,-0.47624,1.2499999999970868e-05,-9.999999999998899e-05,0.00029999999999996696,-0.0020348356782946553,0.0005451695571898618,-0.0007316779834771747
153000000000.0,4,-0.06990180119999999,-0.035558912899999996,0.06608701435,0.11549,0.10812,-0.02617,0.010493115499999999,-4.6923839585,-8.6111212985,0.001219,0.49894,-0.47658,1.2499999999970868e-05,-2.4999999999941735e-05,0.00019999999999997797,-0.00205698605638277,0.0013966911302383256,-0.0012146241619128695
153000000000.0,4,0.06694999955,-0.0614876955,0.04751321925,0.1422,-0.016777,-0.021633,0.013552790299999999,-4.704446138,-8.604550842999998,0.001575,0.50034,-0.47707,1.2499999999970868e-05,-2.500000000016378e-05,0.00019999999999997797,-0.0010931215774783176,0.0017176252837447503,-0.001825279233690802
153000000000.0,4,0.11825839234999999,-0.0956540641,0.0685877101,0.16149,-0.13629,-0.013917,0.00534462425,-4.718175447999999,-8.5969997225,0.000621,0.50193,-0.47727,1.2499999999970868e-05,-2.4999999999941735e-05,0.00019999999999997797,-0.00172575707168382,0.0026241310735659606,-0.0012273018620767573
153000000000.0,4,0.16311400944999999,-0.10649041235,0.1047154087,0.16603,-0.23437,-0.012669,-0.012572125299999999,-4.7324931569999995,-8.5891544025,-0.001464,0.5036,-0.47757,9.999999999998899e-05,-2.4999999999941735e-05,9.999999999998899e-05,-0.0010220424613043289,0.0021849242272857783,-0.000610514983188537
153000000000.0,4,0.15038497774999998,-0.08059104969999999,0.1015380541,0.15168,-0.29392,-0.011522,-0.03725546335,-4.7459282675,-8.5817013485,-0.004341,0.50517,-0.47765,5.0000000000105516e-05,-1.999999999990898e-05,9.999999999998899e-05,-0.0009034246371244503,0.000648487980933421,-0.0003110939702783977
153000000000.0,4,0.0439141787,-0.0699214145,0.0475622525,0.12398,-0.27879,0.004415,-0.06306656615,-4.757205914999999,-8.5752289595,-0.007354,0.50648,-0.47775,4.999999999988347e-05,-2.0000000000131024e-05,9.999999999998899e-05,-0.0010648243499311039,0.0002752524288571756,0.000808411405911813
153000000000.0,4,-0.11930770389999999,-0.055280086049999996,0.0927316824,0.10537,-0.19235,0.024511,-0.08360169124999998,-4.7666202989999995,-8.569835302,-0.009755,0.50758,-0.47746,9.999999999998899e-05,-1.999999999990898e-05,9.999999999998899e-05,-0.0006339674066530576,-0.0004694107726550545,0.0009747128824606488
153000000000.0,4,-0.21144118064999998,-0.035264713399999995,0.1783045103,0.09125,-0.075038,0.047762,-0.09501663184999999,-4.7745636854999995,-8.565324243,-0.011093,0.5085,-0.47712,9.999999999998899e-05,-2.0000000000131024e-05,9.999999999998899e-05,-0.00014710561619590834,-0.0006533313717613787,0.000888331356315275
153000000000.0,4,-0.25810122134999997,-0.03627479835,0.20816575954999997,0.076989,0.019909,0.060378,-0.09773307389999998,-4.781330273999999,-8.5614996495,-0.011415,0.50929,-0.47646,9.999999999998899e-05,-1.999999999990898e-05,5.0000000000105516e-05,-0.00012398450857070697,2.9654883567653556e-05,0.0007366920688652856
153000000000.0,4,-0.19820220314999998,-0.026556408199999996,0.20220331634999997,0.054933,0.066972,0.065593,-0.09523237814999999,-4.786429732,-8.5587537875,-0.011127,0.50988,-0.47593,9.999999999998899e-05,-5.0000000000105516e-05,5.0000000000105516e-05,0.00018734115816015917,0.00033835641489199375,0.0005664011323935902
153000000000.0,4,-0.1338411592,-0.0113168741,0.16445752049999998,0.023953,0.060833,0.064484,-0.09211386345,-4.789175594,-8.557184723499999,-0.010764,0.51021,-0.47522,9.999999999998899e-05,-4.999999999988347e-05,-0.00010000000000021103,8.575192761273165e-05,0.00019561684233604382,0.00020524881097916392
153000000000.0,4,-0.06310579275,-0.037853669,0.1132864208,-0.000788,0.032271,0.059154,-0.0908684189,-4.789763993,-8.556890524,-0.010619,0.51028,-0.47473,9.999999999998899e-05,-4.999999999988347e-05,-4.999999999988347e-05,0.00019533828707485323,0.0004543201539766173,0.00017387857291673026
153000000000.0,4,-0.0141019627,-0.03160683295,0.15099299004999997,-0.01907,0.006855,0.049561,-0.09154507775,-4.7886852614999995,-8.557478923,-0.010697,0.51015,-0.47418,4.999999999988347e-05,-5.0000000000105516e-05,-5.0000000000105516e-05,-0.00010040451388154681,0.0007648730707257023,5.816559866222981e-05
153000000000.0,4,-0.0188483813,0.026281822,0.178873296,-0.030925,-0.013285,0.041037,-0.09397712694999999,-4.786429732,-8.5587537875,-0.01098,0.50989,-0.47386,5.0000000000105516e-05,2.4999999999941735e-05,9.999999999998899e-05,0.0007823692614530309,0.0005081401616824355,-9.447127905803931e-05
153000000000.0,4,0.013533176999999999,0.016985117799999998,0.13649876135,-0.037572,-0.046261,0.037882,-0.09927271794999999,-4.783389670499999,-8.560322851499999,-0.011596,0.50953,-0.47342,9.999999999998899e-05,2.500000000016378e-05,-9.999999999998899e-05,-0.0007978487185800742,0.0011464005678170075,5.431198498551115e-05
153000000000.0,4,-0.015180694199999997,0.00867888525,0.08228760014999999,-0.031409,-0.074021,0.041144,-0.107677017,-4.7806438085,-8.561793848999999,-0.012576,0.50921,-0.47309,9.999999999998899e-05,2.4999999999941735e-05,3.333333333332966e-05,-0.0005993444636833156,0.0007950002067542705,-3.356423420575183e-05
153000000000.0,4,-0.014396162199999998,0.03213639205,0.14316728335,-0.000623,-0.091327,0.04443,-0.1181897458,-4.780153476,-8.5618919155,-0.013803,0.50915,-0.47254,3.333333333332966e-05,2.4999999999941735e-05,3.333333333332966e-05,-0.0010052150005275817,0.0009069252297830843,0.00026288684049013966
153000000000.0,4,0.013817569850000001,-0.0019221033999999998,0.20726354775,0.036786,-0.080983,0.047678,-0.12814349555,-4.782703205,-8.560322851499999,-0.014968,0.50946,-0.47217,3.333333333332966e-05,3.333333333332966e-05,3.333333333332966e-05,-0.0013436623265009051,0.000976926983862425,-0.00022560553245065673
153000000000.0,4,-0.03766734265,0.0361473119,0.2389096073,0.073054,-0.078092,0.054141,-0.13771478595,-4.788489128499999,-8.5569885905,-0.016092,0.51013,-0.47154,3.333333333332966e-05,3.333333333332966e-05,-9.999999999998899e-05,-0.001972239970589207,0.001598513933700696,7.179107732835366e-05
153000000000.0,4,-0.09972382384999999,0.034176175249999996,0.18471805939999997,0.094241,-0.091063,0.063807,-0.14822751474999998,-4.796236382,-8.5524775315,-0.01733,0.51104,-0.47099,-9.999999999998899e-05,3.333333333332966e-05,5.0000000000105516e-05,-0.0013905397909996786,0.0009562576799697631,-0.0002821883456598506
153000000000.0,4,-0.09515392495,-0.03747120965,0.1267607579,0.11014,-0.10611,0.059591,-0.15982878169999998,-4.8055526995,-8.5469858075,-0.018697,0.51212,-0.47027,-5.0000000000105516e-05,-9.999999999998899e-05,4.999999999988347e-05,-0.0008343565800383312,0.0005583548853660414,-0.0004331018990753055
153000000000.0,4,-0.096889702,0.00354020065,0.1387837108,0.10908,-0.11673,0.040394,-0.17170463484999998,-4.815163216499999,-8.541396016999999,-0.0201,0.51325,-0.46991,-4.999999999988347e-05,-2.4999999999941735e-05,-1.6666666666775853e-05,-0.0010148845875253554,-0.00032479890665859656,-0.00021540742082293285
153000000000.0,4,-0.14829616129999998,0.055064339749999996,0.02278084795,0.09978,-0.099578,0.009394,-0.18135437845,-4.823891134999999,-8.536296559,-0.021242,0.51427,-0.4697,-9.999999999998899e-05,-2.4999999999941735e-05,-1.666666666655381e-05,-0.001048556846328541,-0.0002886784757349936,-0.0002368893675279704
153000000000.0,4,-0.20201698999999998,0.02842947835,0.019505426849999997,0.10141,-0.044155,-0.014184,-0.18584582414999998,-4.8324229205,-8.5312951675,-0.02178,0.51527,-0.46997,-5.0000000000105516e-05,-2.500000000016378e-05,-1.666666666655381e-05,-0.0010610263793293662,-0.0006818644374384508,-1.5585017332675477e-05
153000000000.0,4,-0.23325117025,-0.019662333249999997,0.14030374155,0.10397,0.001661,-0.028137,-0.18512993869999997,-4.841346972,-8.526293776,-0.02171,0.51631,-0.47023,-4.999999999988347e-05,-2.4999999999941735e-05,-1.6666666666775853e-05,-0.001020129451279439,-0.000541081938137955,-0.0004411085468675191
153000000000.0,4,-0.23324136359999997,-0.0526813238,0.1051076747,0.10205,0.021936,-0.039918,-0.18156031809999998,-4.850172957,-8.521292384499999,-0.021303,0.51735,-0.47081,-9.999999999998899e-05,-3.333333333332966e-05,-1.6666666666775853e-05,-0.0006714060438884895,0.0004310583212572272,-0.00038562746012749116
153000000000.0,4,-0.14513842,-0.09947865759999999,0.1351160237,0.095655,0.018797,-0.04526,-0.1774807517,-4.858606676,-8.516585192500001,-0.020836,0.51834,-0.4713,3.333333333332966e-05,-3.333333333332966e-05,-1.666666666655381e-05,-0.000543086125182668,0.000554084227639251,-0.0005673607506019307
153000000000.0,4,-0.07483454614999999,-0.1393524965,0.17805934404999998,0.078288,-0.010909,-0.033496,-0.17610782069999997,-4.8657655305,-8.512564466,-0.020685,0.51918,-0.47188,3.333333333332966e-05,-3.333333333332966e-05,-9.999999999998899e-05,-0.0002711068700456676,0.0009428007389744586,-0.0005170167494928934
153000000000.0,4,-0.039177566750000004,-0.20866589869999996,0.16130958584999996,0.056451,-0.060834,-0.013165,-0.17958918145,-4.8710611214999995,-8.509426338,-0.021102,0.51981,-0.47206,3.333333333332966e-05,-9.999999999998899e-05,-9.999999999998899e-05,-3.4076418842510225e-05,0.002265781959382984,-0.000586688724007578
153000000000.0,4,0.0015592573499999998,-0.2388311541,0.16842921374999997,0.027118,-0.11389,0.007158,-0.1886014928,-4.8740031165,-8.5075630745,-0.022166,0.52015,-0.47218,9.999999999998899e-05,-9.999999999998899e-05,-9.999999999998899e-05,0.0012095850081569326,0.0003123872931920513,-0.0003165589863484142
153000000000.0,4,0.028596191400000002,-0.20462555889999998,0.16321207595,-0.004204,-0.15947,0.014657,-0.20232099615,-4.873905049999999,-8.507268875,-0.023778,0.52014,-0.472,5.0000000000105516e-05,-9.999999999998899e-05,-0.00019999999999997797,0.000565142350953729,0.0009146916182030118,-0.00012661003247671498
153000000000.0,4,0.014494228699999999,-0.15509216974999998,0.11326680749999998,-0.036242,-0.15921,0.021006,-0.21770762999999999,-4.871355321,-8.5083476065,-0.025582,0.51984,-0.47194,4.999999999988347e-05,-9.999999999998899e-05,-9.999999999998899e-05,0.000702779000227749,4.066045905126714e-05,0.0005476511409875373
153000000000.0,4,-0.1032836378,-0.12922222705,0.1250936274,-0.058277,-0.10469,0.029409,-0.22996594249999996,-4.866844262,-8.510603135999999,-0.027014,0.51931,-0.47161,4.999999999988347e-05,-9.999999999998899e-05,-0.00019999999999997797,0.0012211440751550562,-0.00030005268045041333,0.0009586737279634328
153000000000.0,4,-0.17355809169999997,-0.1280356224,0.17107700924999997,-0.077994,-0.029942,0.037782,-0.23630103839999997,-4.860764139,-8.513937397,-0.027747,0.51859,-0.47138,5.0000000000105516e-05,-0.00020000000000020002,-0.00019999999999997797,0.00144300325214336,-0.0006984108159966418,0.0008677473142822967
153000000000.0,4,-0.20536105765,-0.1434516762,0.12159265335,-0.10734,0.041687,0.046144,-0.23666388445,-4.852526553,-8.518644588999999,-0.027775,0.51763,-0.47089,-2.4999999999941735e-05,-0.00019999999999997797,-9.999999999998899e-05,0.0016461438719569954,-0.001257304687745986,0.0007210426554932203
153000000000.0,4,-0.232809871,-0.1741464907,0.0088848249,-0.1357,0.096267,0.044931,-0.23181939934999998,-4.8420334375,-8.524724712,-0.027187,0.51639,-0.47057,-2.500000000016378e-05,-9.999999999998899e-05,-9.999999999998899e-05,0.0015682661534821007,-0.0006662050210948234,0.0005626229052901888
153000000000.0,4,-0.21220609934999998,-0.14526590644999998,-0.0023928226,-0.13746,0.13253,0.027786,-0.22264037495,-4.830951923,-8.5312951675,-0.026091,0.5151,-0.47024,-2.4999999999941735e-05,-0.00019999999999997797,-9.999999999998899e-05,0.000492604226529525,-5.945837760035211e-05,0.0002955782830040832
153000000000.0,4,-0.1693608455,-0.13850912459999998,0.024447978449999998,-0.12552,0.14524,0.006436,-0.21087239495000001,-4.8207530069999995,-8.537375290499998,-0.024695,0.51391,-0.47032,-2.4999999999941735e-05,-0.00019999999999997797,-9.999999999998899e-05,0.0009235934196150097,-0.0007196592613869512,-0.00036255409424612584
153000000000.0,4,-0.15406247149999996,-0.11606170275,0.0522890578,-0.10525,0.13018,-0.015917,-0.19863369574999998,-4.8122212215,-8.542376681999999,-0.023249,0.51291,-0.47048,-4.999999999988347e-05,-9.999999999998899e-05,-9.999999999998899e-05,0.0003290855446112517,9.523780158260386e-05,-0.0006972503361306615
153000000000.0,4,-0.1391563635,-0.07887488594999999,0.035696206,-0.082086,0.078858,-0.036067,-0.1889937588,-4.805454633,-8.546495475,-0.02211,0.51211,-0.47104,-5.0000000000105516e-05,-0.00019999999999997797,4.999999999988347e-05,-0.00033920580380703,-6.611637056197495e-05,-0.0008706836699529097
153000000000.0,4,-0.07340277525,-0.10031222285,0.018161915799999998,-0.042021,0.011409,-0.048688,-0.18471805939999997,-4.8016300395,-8.548652938,-0.021605,0.51167,-0.47156,-9.999999999998899e-05,-0.00019999999999997797,5.0000000000105516e-05,-0.00019504413972215584,0.0005179675524451532,-0.0008601670999258682
153000000000.0,4,-0.04663062075,-0.08524920844999999,0.07155912504999999,0.007643,-0.050801,-0.051694,-0.1860517638,-4.801924239,-8.548554871499999,-0.021761,0.5117,-0.4723,-9.999999999998899e-05,-9.999999999998899e-05,-2.4999999999941735e-05,-0.0007492280788829464,0.0005544760178972652,-0.0007160314128767942
153000000000.0,4,-0.044404511199999996,-0.0781001606,0.1501986514,0.050976,-0.096983,-0.045134,-0.19202401365,-4.806043032,-8.546103209,-0.022466,0.51218,-0.47279,-9.999999999998899e-05,-9.999999999998899e-05,-2.500000000016378e-05,-0.0009540508084371346,0.000419322826396451,-0.000877168463975897
153000000000.0,4,-0.07642322345,-0.06139943565,0.13598881555,0.078549,-0.1132,-0.037586,-0.20040869939999997,-4.812907687,-8.541984416,-0.023457,0.51298,-0.47334,-9.999999999998899e-05,-9.999999999998899e-05,-2.4999999999941735e-05,-0.00038772620869442775,0.0002797004571017947,-0.000643610593078936
153000000000.0,4,-0.08762241775,-0.05267151714999999,0.10454869565,0.079754,-0.099361,-0.039742,-0.20820498615,-4.8202626745,-8.53766949,-0.024382,0.51385,-0.47372,-9.999999999998899e-05,-0.00019999999999997797,-2.4999999999941735e-05,-0.00024605647487480065,-0.00023189838520787376,-0.00016853816247941467
153000000000.0,4,-0.0738440745,-0.05280881025,0.052092924799999996,0.061934,-0.062978,-0.045174,-0.2128631449,-4.8265389305,-8.534041029499999,-0.024937,0.51458,-0.47435,-4.999999999988347e-05,-9.999999999998899e-05,-1.999999999990898e-05,0.00023926003845886612,-0.0006838342082251536,5.297198363474198e-05
153000000000.0,4,-0.11302164125,-0.08687711235,-0.016985117799999998,0.023981,-0.010439,-0.05494,-0.21273565845,-4.8298731915,-8.532079699499999,-0.024929,0.51498,-0.47493,-5.0000000000105516e-05,-0.00020000000000020002,-2.0000000000131024e-05,0.0011289282300028236,-0.0016605493240773317,-1.7794365600343198e-05
153000000000.0,4,-0.144157755,-0.0844940964,-0.055172212899999996,-0.007575,0.047361,-0.052961,-0.20764600709999997,-4.830167391,-8.532079699499999,-0.024332,0.51501,-0.47571,-9.999999999998899e-05,-9.999999999998899e-05,-1.999999999990898e-05,0.00044176068927437306,-0.0006946916521228808,0.00026148177504881076
153000000000.0,4,-0.14359877594999998,-0.11400230624999999,-0.023800739549999998,-0.03818,0.094491,-0.044558,-0.19831988295,-4.827813795,-8.5336487635,-0.023236,0.51473,-0.47625,-9.999999999998899e-05,-9.999999999998899e-05,-2.0000000000131024e-05,0.0007569435982768824,-0.0006745738476785501,0.0004218575292732618
153000000000.0,4,-0.10274427205,-0.10837328915,-0.0204762852,-0.059457,0.10744,-0.036079,-0.18755218124999998,-4.8234008025,-8.5363946255,-0.021967,0.51421,-0.47685,-5.0000000000105516e-05,-9.999999999998899e-05,-1.999999999990898e-05,0.0007557360915760869,-0.000534026864039916,1.6446991470409067e-05
153000000000.0,4,-0.034499794699999996,-0.10729455764999998,-0.01903470765,-0.067028,0.1011,-0.026474,-0.17739249185,-4.818007145,-8.53963082,-0.02077,0.51358,-0.47719,-4.999999999988347e-05,-9.999999999998899e-05,9.999999999998899e-05,0.00046419970723549087,-0.00013194940858340942,-0.000156080496100941
153000000000.0,4,0.008571012099999999,-0.08568070104999999,0.06390013139999999,-0.04803,0.078564,-0.021065,-0.16928239229999997,-4.8137902855,-8.542180549,-0.019815,0.51308,-0.47763,-9.999999999998899e-05,-9.999999999998899e-05,6.666666666665932e-05,-0.00120185439296705,0.0011349311377242266,-0.00029976234940543023
153000000000.0,4,0.050415987649999994,-0.05147510585,0.1255055067,-0.020675,0.033575,-0.014533,-0.16488901309999998,-4.811632822499999,-8.54355348,-0.019297,0.51283,-0.4778,-9.999999999998899e-05,-4.999999999988347e-05,6.666666666665932e-05,-0.0006140506233170417,0.0008953805152078775,-0.0005098155612788258
153000000000.0,4,0.05565273875,-0.04865079065,0.07824726035,0.009687,-0.03488,-0.007955,-0.16638943055,-4.8120250884999995,-8.5432592805,-0.019473,0.51288,-0.47807,-9.999999999998899e-05,-5.0000000000105516e-05,6.666666666665932e-05,-0.0004393393538822399,0.0004497121085653699,-0.0006772995261755677
153000000000.0,4,0.0042855060499999995,-0.03965809259999999,0.0251834772,0.037051,-0.084118,-0.012091,-0.17262645995,-4.814869017,-8.5414940835,-0.020208,0.51322,-0.47816,-0.00019999999999997797,-5.0000000000105516e-05,9.999999999998899e-05,-0.0010528498691327326,-0.0004596006170389799,-0.0005021885934688441
153000000000.0,4,-0.06325289249999999,-0.019309293849999996,0.021839409549999998,0.070118,-0.091838,-0.022694,-0.18020700039999998,-4.8202626745,-8.5383559555,-0.021102,0.51385,-0.47851,-0.00019999999999997797,-4.999999999988347e-05,0.00019999999999997797,-0.0013251649749712047,-0.0014601199641242069,-0.0005737313780516118
153000000000.0,4,-0.19655468594999997,-0.014405968849999999,0.07142183195,0.10363,-0.048411,-0.038722,-0.1842669535,-4.82879446,-8.5334526305,-0.021591,0.51484,-0.47886,-0.000300000000000189,-9.999999999998899e-05,0.00019999999999997797,-0.0020091854356535377,-0.0013305218079007197,4.270773588699317e-05
153000000000.0,4,-0.31190050324999996,-0.0016867438,0.08809313695,0.13747,0.03232,-0.062289,-0.1810111457,-4.840170174,-8.527078307999998,-0.021225,0.51617,-0.47963,-0.00019999999999997797,-9.999999999998899e-05,0.00019999999999997797,-0.002465924180794332,-0.0024166449801332757,0.00023404375991686877
153000000000.0,4,-0.2976514408,0.00752170055,0.08713208525,0.16385,0.11525,-0.086941,-0.16891954625,-4.8538014175,-8.5195271875,-0.019825,0.51778,-0.48052,-0.00039999999999995595,-9.999999999998899e-05,0.00019999999999997797,-0.0019719363322563965,-0.002417352774918724,-0.0004316742903792692
153000000000.0,4,-0.2979848669,0.019809433,0.03707894365,0.1771,0.16204,-0.10194,-0.1510812499,-4.8690017249999995,-8.511191535,-0.017749,0.51956,-0.48181,-0.00029999999999996696,-9.999999999998899e-05,0.00019999999999997797,-0.001996508202303293,-0.0018354444564914196,-0.0008579948072721111
153000000000.0,4,-0.24378351234999998,-0.0343428883,-0.02464411145,0.18145,0.16308,-0.11475,-0.13136007675,-4.884496232,-8.502561683,-0.015448,0.52139,-0.48308,-0.00029999999999996696,-0.00019999999999997797,0.00029999999999996696,-0.0006212819790947233,-0.0017809128388663886,-0.0003949021914546602
153000000000.0,4,-0.11943519035,-0.08415086364999999,0.009414384,0.18655,0.13001,-0.12108,-0.11355120035,-4.9004810715,-8.493735698,-0.013368,0.52326,-0.4846,-0.00019999999999997797,-9.999999999998899e-05,0.00010000000000021103,-0.0012629535457254204,-0.0013089683743379155,-0.0006984913800143211
153000000000.0,4,-0.05351488905,-0.07661935645,0.09091745215,0.18615,0.082064,-0.11887,-0.0998709236,-4.9163678445,-8.48471358,-0.01177,0.52513,-0.48594,-0.00029999999999996696,-5.0000000000105516e-05,0.00019999999999997797,-0.0016186001606118827,-0.0003679643699003865,-0.0005513177275994208
153000000000.0,4,-0.0177696498,-0.06410607105,0.13684199409999998,0.1868,0.036228,-0.10918,-0.09072131915,-4.931960418,-8.475691462,-0.010703,0.52698,-0.48736,-0.00020000000000020002,-4.999999999988347e-05,9.999999999998899e-05,-0.00231402879117637,-0.0007891052073558669,6.723572683997592e-05
153000000000.0,4,-0.01003220295,-0.035980598849999997,0.19837872285,0.18654,0.013841,-0.095263,-0.0851413353,-4.9477491245000005,-8.466571277499998,-0.010056,0.52883,-0.48844,-0.00019999999999997797,4.999999999988347e-05,0.00019999999999997797,-0.0014434535456509523,-0.0021222779028631233,0.0004557140743300936
153000000000.0,4,0.01521011415,0.035274520049999994,0.23792894229999997,0.18767,0.030865,-0.07928,-0.08014975044999999,-4.963243631499999,-8.4575491595,-0.009477,0.53067,-0.48948,-0.00029999999999996696,5.0000000000105516e-05,9.999999999998899e-05,-0.0020429954392640615,-0.002227953608057387,0.0019332615577831724
153000000000.0,4,0.0317931593,0.03601982545,0.28061728975,0.2042,0.10637,-0.064441,-0.07069613984999999,-4.979914936499999,-8.447840575999999,-0.008368,0.53264,-0.49019,-0.00029999999999996696,5.0000000000105516e-05,0.00019999999999997797,-0.003988441278636068,-0.0039502900988661604,0.0020206289095666685
153000000000.0,4,-0.05396599495,-0.0019221033999999998,0.32104030105,0.23703,0.22542,-0.038976,-0.053171656299999995,-4.9988417709999995,-8.4367590615,-0.006302,0.53488,-0.49078,-0.00029999999999996696,4.999999999988347e-05,0.00039999999999995595,-0.0028643095629271587,-0.004691613536534023,0.002111060477728466
153000000000.0,4,-0.22072807819999998,0.0576827153,0.27940126514999997,0.28908,0.34324,-0.014542,-0.026615248099999995,-5.021789331999999,-8.423323951,-0.00316,0.5376,-0.49094,-0.00039999999999995595,-4.999999999988347e-05,0.00029999999999996696,-0.0031169878025146813,-0.005040478209363153,0.0014911566767422668
153000000000.0,4,-0.39007911705,0.1312522036,0.2353988266,0.35057,0.42692,-0.015651,0.00805125965,-5.049836350999999,-8.4065545795,0.000958,0.54094,-0.49124,-0.000700000000000145,-5.0000000000105516e-05,0.00039999999999995595,-0.005697570914091621,-0.005825562493210867,-0.00015363913124577522
153000000000.0,4,-0.33150399659999996,0.20453729904999998,0.1795989881,0.41608,0.45095,-0.065749,0.047934905199999996,-5.083375094,-8.3861567475,0.005716,0.54493,-0.49181,-0.0005999999999999339,9.999999999998899e-05,0.000400000000000178,-0.007254938943919376,-0.0035661908915733953,-0.00010028843111875574
153000000000.0,4,-0.1164049355,0.2057239037,0.06255662035,0.49303,0.41204,-0.15414,0.08991717384999999,-5.122797826999999,-8.361738188999999,0.010753,0.54964,-0.49354,-0.0006999999999999229,9.999999999998899e-05,0.0005999999999999339,-0.007250218560508337,-0.003796496203380517,-0.0010166258213826218
153000000000.0,4,0.03125379355,0.28067612965,0.00101008495,0.58261,0.35066,-0.24247,0.13126201024999998,-5.169281348,-8.332514371999999,0.015751,0.55521,-0.4962,-0.000700000000000145,0.00019999999999997797,0.0005999999999999339,-0.008102640412570583,-0.001169165348661405,-0.001360002806722438
153000000000.0,4,0.10874594184999999,0.3677689883,0.06977431475,0.70766,0.22498,-0.27405,0.16629136405,-5.224688920499999,-8.2973084985,0.020038,0.56187,-0.49968,-0.0005999999999999339,0.00029999999999996696,0.000700000000000145,-0.009453627734828385,0.0018124089049784686,-0.0021923373749354047
153000000000.0,4,-0.029410143349999997,0.28512834875,0.18325686854999998,0.82439,0.041754,-0.2255,0.18623809015,-5.289903143,-8.255434102999999,0.022555,0.56975,-0.50271,-0.0006999999999999229,0.00039999999999995595,0.0006999999999999229,-0.010917696050288583,0.002148982598934035,-0.0027670443333414063
153000000000.0,4,-0.07781576774999999,0.1045585023,-0.026517181599999995,0.91382,-0.20095,-0.14699,0.1830117023,-5.362864619,-8.208362183,0.022292,0.57861,-0.50508,-0.000500000000000167,0.000500000000000167,0.0004999999999999449,-0.010766900655493017,0.002983346529829678,-0.002091336660136389
153000000000.0,4,0.1103836524,-0.11998436274999999,-0.28353967145,0.97687,-0.40721,-0.07287,0.1573182793,-5.4408274865,-8.157367602999999,0.019283,0.58814,-0.50634,-0.0004999999999999449,0.00039999999999995595,0.0005999999999999339,-0.010106027963433961,0.003988258126760069,-0.0017799839757890457
153000000000.0,4,0.21910998094999998,-0.10233239274999999,-0.16124093929999997,1.0002,-0.52254,-0.019256,0.11712082095,-5.521045883499999,-8.104019426999999,0.014452,0.598,-0.50704,-0.00039999999999995595,0.0004999999999999449,0.000500000000000167,-0.008671733389601477,0.003279795875653857,-0.000544524432863569
153000000000.0,4,0.2849224091,-0.01132668075,-0.12414238235,0.96452,-0.54788,0.038366,0.07151989845,-5.600087482499999,-8.050082852,0.008884,0.60778,-0.50689,-0.00029999999999996696,0.0004999999999999449,0.0004999999999999449,-0.007260583087185357,0.002165609410406333,0.00014778751312938265
153000000000.0,4,0.1631434294,-0.06300772624999999,-0.11847413864999999,0.87616,-0.48222,0.10428,0.0261445289,-5.672264426499999,-7.999676671,0.003268,0.61678,-0.50608,-0.00019999999999997797,0.00039999999999995595,0.00029999999999996696,-0.005077076988087681,0.0010023232119158454,0.001057056479577323
153000000000.0,4,0.01493552795,-0.15831855759999997,-0.0006472389,0.75846,-0.35557,0.16362,-0.013582210249999999,-5.7354192525,-7.954566080999999,-0.001708,0.6247,-0.50426,-9.999999999998899e-05,0.000300000000000189,0.00019999999999997797,-0.0041894141072846836,0.00035674825660914067,0.0025178843809507967
153000000000.0,4,-0.0631155994,-0.23929206664999997,0.08009091055,0.62301,-0.19678,0.19406,-0.04297274029999999,-5.7863157659999995,-7.917496943999999,-0.005428,0.63111,-0.50211,-9.999999999998899e-05,0.00019999999999997797,-9.999999999998899e-05,-0.0011053528657475331,-0.0009599230708587925,0.0026169162651951128
153000000000.0,4,-0.06990180119999999,-0.14399104194999998,0.26476974335,0.46119,-0.020688,0.19027,-0.05908506625,-5.8250520335,-7.888959592499999,-0.007489,0.63601,-0.4997,4.999999999988347e-05,9.999999999998899e-05,-9.999999999998899e-05,0.0008643639835632655,-0.0007676944751628945,0.0024368271869656954
153000000000.0,4,-0.04534594959999999,-0.0893974214,0.36827893409999995,0.27679,0.13002,0.18221,-0.0620957078,-5.849666725,-7.8706211569999995,-0.007889,0.63914,-0.49755,5.0000000000105516e-05,-6.666666666665932e-05,-0.00019999999999997797,0.0006956902888790584,-0.0004444488811774505,0.0026842492805143614
153000000000.0,4,-0.13565538945,-0.21707019774999997,0.34569421915,0.085345,0.2062,0.17961,-0.05708450965,-5.859375308499999,-7.8634623024999994,-0.007259,0.64037,-0.49533,5.0000000000105516e-05,-6.666666666665932e-05,-0.00039999999999995595,0.003124401786289699,-0.0018342976009353418,0.002530712498741261
153000000000.0,4,-0.1138748198,-0.2757433847,0.27185995129999996,-0.071199,0.22776,0.15475,-0.04833697785,-5.855942981,-7.866110098,-0.006144,0.63993,-0.49355,4.999999999988347e-05,-6.666666666665932e-05,-0.00029999999999996696,0.0029471819292955503,-0.0024128228998969714,0.0025727397378642047
153000000000.0,4,-0.038157675149999994,-0.30056401585,0.39108920199999997,-0.16263,0.25092,0.12787,-0.0363630582,-5.843978868,-7.875034149499999,-0.004617,0.63841,-0.49194,0.00019999999999997797,-9.999999999998899e-05,-0.000400000000000178,0.0023412711571519917,-0.0010041442417758617,0.0026875448861889417
153000000000.0,4,-0.12541724685,-0.256149698,0.6455129296,-0.20492,0.29284,0.11705,-0.0206331916,-5.828288227999999,-7.8868021294999995,-0.002616,0.63642,-0.49068,9.999999999998899e-05,-9.999999999998899e-05,-0.00039999999999995595,0.0028970158123549083,-0.001416302227359001,0.0022160106822810555
153000000000.0,4,-0.24300878699999998,-0.1869735889,0.6694901888499999,-0.22603,0.32391,0.12123,-0.0023928226,-5.810832390999999,-7.899648841,-0.000303,0.6342,-0.4892,0.00019999999999997797,-0.00010000000000021103,-0.0004999999999999449,0.0024842803314375494,-0.000656727711006333,0.0024263486910529597
153000000000.0,4,-0.0889463155,-0.21716826425,0.50693515845,-0.23572,0.31333,0.12123,0.01577889985,-5.7922978225,-7.9132800845,0.001994,0.63186,-0.48787,0.00019999999999997797,-0.00019999999999997797,-0.00029999999999996696,0.0025837839447635513,-0.0004118495327731786,0.0024849451652939614
153000000000.0,4,0.1550431365,-0.36060032714999996,0.31452868544999996,-0.22846,0.28344,0.11489,0.032156005349999996,-5.773959387,-7.926617128499999,0.004057,0.62955,-0.48641,0.00029999999999996696,-0.00019999999999997797,-0.0004999999999999449,0.002385608948774598,0.0003909025825590273,0.002237900566808504
153000000000.0,4,0.17439165695,-0.3469004371,0.27414490075,-0.21688,0.26629,0.11921,0.046767913849999995,-5.75650355,-7.939169640499999,0.005891,0.62735,-0.48514,9.999999999998899e-05,-0.00019999999999997797,-0.000400000000000178,0.0023762064082765155,-0.000493366525646799,0.0016425992983198912
153000000000.0,4,-0.06981354135,-0.31261638869999997,0.32563961989999995,-0.21385,0.25027,0.12885,0.0599382448,-5.7396361119999995,-7.9513298865,0.007538,0.62522,-0.48356,0.00019999999999997797,-0.00029999999999996696,-0.00039999999999995595,0.002510373824565204,0.0006612768994693763,0.0008243076726764942
153000000000.0,4,-0.23448680815,-0.27398799435,0.24951059595,-0.22074,0.18746,0.12575,0.06838177044999999,-5.7234551394999995,-7.9629017335,0.008588,0.6232,-0.48213,-3.333333333332966e-05,-0.00029999999999996696,-0.00029999999999996696,0.001686898336398568,5.584625248267194e-05,0.0003314771555750218
153000000000.0,4,-0.3001619432,-0.21844312875,0.07163757825,-0.21689,0.11607,0.094923,0.07270650309999999,-5.707470299999999,-7.9742774475,0.009118,0.62119,-0.48079,-3.333333333332966e-05,-0.00039999999999995595,-0.00039999999999995595,0.0019492603000793585,-0.00038671934563860866,-0.000681436183274875
153000000000.0,4,-0.29647464279999997,-0.11465935179999999,0.046218741449999996,-0.18499,0.067909,0.039558,0.07546217174999999,-5.693839056499999,-7.9840840975,0.009451,0.61948,-0.48026,-3.333333333332966e-05,-0.00029999999999996696,-0.00019999999999997797,0.0007214697437570861,-0.0001751735557340428,-0.0002620082864214224
153000000000.0,4,-0.2265532283,0.0403837847,0.0122583125,-0.16158,0.028345,-0.012634,0.07765886135,-5.68197301,-7.992419749999999,0.009717,0.618,-0.48019,-9.999999999998899e-05,-0.00020000000000020002,-0.00019999999999997797,0.00018903291695471225,-0.00034046948662092014,-0.0003545915066738292
153000000000.0,4,-0.22519991059999997,0.035568719549999996,-0.2050570515,-0.11334,0.033316,-0.050986,0.08199340064999999,-5.673147025,-7.998696005999999,0.010251,0.61689,-0.48084,-9.999999999998899e-05,-0.00019999999999997797,-9.999999999998899e-05,0.00044409487041663365,-0.0002883343116628634,-0.00027916908751690617
153000000000.0,4,-0.15330735945,-0.0674501387,-0.035813885799999993,-0.054666,0.021132,-0.070077,0.08821081674999999,-5.669028232,-8.0015399345,0.011024,0.61638,-0.48168,-9.999999999998899e-05,-0.00019999999999997797,-4.999999999988347e-05,-6.82179657727211e-05,-0.0003978896000116361,0.00015233669143421835
153000000000.0,4,-0.0894170347,-0.025350190249999998,-0.19945745434999998,-0.017515,0.003765,-0.059308,0.09285916884999999,-5.668047567,-8.0022264,0.011604,0.61625,-0.48269,-9.999999999998899e-05,-9.999999999998899e-05,-5.0000000000105516e-05,3.988699511681126e-06,-0.0002961017516547315,-0.00011075732453658116
153000000000.0,4,-0.10054758244999999,-0.15938748244999998,-0.28302972565,0.009116,0.018426,-0.02513,0.0956148375,-5.669616630999999,-8.001049602,0.011949,0.61645,-0.4831,-0.00019999999999997797,-0.00019999999999997797,-9.999999999998899e-05,0.0007747937468441934,-0.00011488734655062949,-0.00021625344459896834
153000000000.0,4,-0.13322334025,-0.19869253565,-0.23500656059999997,-0.002622,0.033416,-0.000626,0.09776249384999999,-5.670891495499999,-8.0001670035,0.012219,0.6166,-0.48331,-0.00019999999999997797,-0.00019999999999997797,-0.00010000000000021103,0.0017409502200946836,-0.0009552476088623418,-0.00037778150884215655
153000000000.0,4,-0.09957672409999999,-0.11567924339999998,-0.32400190934999995,-0.043238,0.023097,-0.002813,0.0991256182,-5.668832098999999,-8.0015399345,0.012388,0.61635,-0.48326,-9.999999999998899e-05,-0.00019999999999997797,-9.999999999998899e-05,0.0012824093070606946,0.00011895290402241798,5.4980403120019616e-05
153000000000.0,4,-0.011003061299999999,-0.08552379464999998,-0.37682052625,-0.095576,0.006494,-0.017818,0.0998905369,-5.662555843,-8.006050993499999,0.012476,0.61556,-0.48356,6.666666666665932e-05,-0.00019999999999997797,-0.00019999999999997797,0.002367429267607468,0.000991952358914805,-0.0002963988237272286
153000000000.0,4,-0.025889555999999998,-0.11349236045,-0.2830591456,-0.13932,0.004728,-0.022161,0.10086139525,-5.652160793999999,-8.0133079145,0.012585,0.61427,-0.48377,6.666666666665932e-05,-0.00019999999999997797,-0.00019999999999997797,0.0029751406081570675,0.0006058207689687567,8.899975413489969e-05
153000000000.0,4,-0.08905418865,-0.12498575424999998,-0.16549702539999997,-0.20665,-0.00219,-0.009456,0.1008712019,-5.6369604865000005,-8.023997162999999,0.012571,0.61237,-0.48405,6.666666666665932e-05,-0.00019999999999997797,-0.00029999999999996696,0.004187913447062042,0.0016010317358750026,0.0007398581954570771
153000000000.0,4,-0.039030467,-0.14947295929999999,-0.1443342747,-0.29328,-0.014286,0.011763,0.09933155785,-5.61528779,-8.0391974705,0.012356,0.60968,-0.48391,0.00019999999999997797,-0.00020000000000020002,-0.00039999999999995595,0.004638720725752776,0.0013399241070148893,0.0018585372250430332
153000000000.0,4,0.19845717605000002,-0.3127340685,0.01167972015,-0.39407,-0.031647,0.08527,0.0933396947,-5.58586784,-8.0597914355,0.01158,0.60601,-0.48329,0.00019999999999997797,-0.00019999999999997797,-0.0004999999999999449,0.005346060084728821,0.00170140237386196,0.001409516108879627
153000000000.0,4,-0.07860029974999999,-0.4711604992499999,0.10186167355,-0.49567,-0.003198,0.17684,0.08353304469999999,-5.547818038,-8.086073257499999,0.010331,0.60131,-0.48133,0.00039999999999995595,-0.00029999999999996696,-0.000400000000000178,0.005991517118925205,0.0015334288732218315,0.0013712287994239736
153000000000.0,4,-0.018828768,-0.55075127065,0.27559628495,-0.5468,0.025962,0.20765,0.07374600799999999,-5.5047668445,-8.115591274,0.009086,0.59599,-0.47895,0.00019999999999997797,-0.00019999999999997797,-0.00029999999999996696,0.004207260860607631,0.0020229475013553433,0.0008953239927895762
153000000000.0,4,0.27507653249999997,-0.503277278,0.4274522602,-0.53588,0.044003,0.18843,0.06624392074999999,-5.461029185499999,-8.145207356999999,0.008133,0.59061,-0.47651,0.00020000000000020002,-0.00019999999999997797,-0.00029999999999996696,0.0034889184930360084,0.0013951593743528612,0.0005575379092981336
153000000000.0,4,0.16961581839999998,-0.19019997674999997,0.49957036429999996,-0.47827,0.023315,0.15654,0.059771531749999995,-5.420919987,-8.171881445,0.007315,0.5857,-0.47466,-3.333333333332966e-05,-0.00019999999999997797,-0.00019999999999997797,0.0025136343913547687,0.0018345392626892831,-0.000973507527912254
153000000000.0,4,-0.03131263345,0.033126863699999995,0.41586079989999997,-0.39414,-0.015705,0.12474,0.05225963785,-5.3872831775,-8.1941425405,0.006378,0.58159,-0.47303,-3.333333333332966e-05,-0.00019999999999997797,-0.00019999999999997797,0.0012469750199897156,0.0014187204931974673,-0.001463708278492959
153000000000.0,4,-0.14059794105,0.0346370878,0.37321167904999997,-0.30481,-0.081394,0.079108,0.04213917504999999,-5.361099422000001,-8.2114022445,0.005132,0.5784,-0.47208,-3.333333333332966e-05,-0.00029999999999996696,-9.999999999998899e-05,-2.2435904303175214e-05,0.001636335698411262,-0.0019599015646908358
153000000000.0,4,-0.15738692585,0.06465524345,0.17958918145,-0.21568,-0.17585,0.026059,0.027644946349999998,-5.3423687205,-8.223660556999999,0.003362,0.57612,-0.4716,-0.000300000000000189,-0.00029999999999996696,-9.999999999998899e-05,0.0006309419142350725,0.0006078367295325737,-0.002961808969614288
153000000000.0,4,-0.1545135774,0.09381041389999999,0.021937476049999998,-0.11986,-0.2437,-0.043037,0.0108657682,-5.331679472,-8.2306232785,0.00132,0.57482,-0.47212,-0.00019999999999997797,-0.000300000000000189,-9.999999999998899e-05,-0.0001442151638155753,0.0007279517151281834,-0.002476198543959862
153000000000.0,4,-0.09791940025,0.18204084394999998,0.10048874254999998,-0.041811,-0.26239,-0.10371,-0.00577611685,-5.328541344,-8.232682675,-0.000702,0.57443,-0.47319,-9.999999999998899e-05,-0.00019999999999997797,-9.999999999998899e-05,4.232424085370834e-05,0.0005180845142285229,-0.002049838021928818
153000000000.0,4,-0.1357436493,0.19163174765,0.14236313805,-0.012676,-0.24341,-0.13892,-0.0189856744,-5.329031676499999,-8.2323884755,-0.002306,0.57449,-0.47497,-0.00019999999999997797,-0.00029999999999996696,-9.999999999998899e-05,0.0012383413762063755,0.0003214353821183735,-0.001906474826605442
153000000000.0,4,-0.09450668605,0.023026014199999997,0.12062179499999999,-0.022966,-0.20176,-0.14968,-0.027605719749999997,-5.329522009000001,-8.2319962095,-0.003353,0.57455,-0.4768,-1.999999999990898e-05,-0.00039999999999995595,-0.00019999999999997797,0.0019050325131007018,0.0001466361564446128,-0.0014279762602147361
153000000000.0,4,0.00722750105,-0.17315601904999997,0.22584714949999998,-0.063235,-0.15882,-0.13595,-0.03341125655,-5.3266780805,-8.233859472999999,-0.004058,0.5742,-0.47871,-2.0000000000131024e-05,-0.00029999999999996696,-0.00019999999999997797,0.002147215194707508,-6.563566403006149e-05,-0.00029395933387021955
153000000000.0,4,0.0550545331,-0.25423740125,0.23777203589999998,-0.12172,-0.11681,-0.10624,-0.0376967626,-5.318538561,-8.239056997499999,-0.004575,0.57322,-0.48009,-1.999999999990898e-05,-0.00029999999999996696,-0.00020000000000020002,0.0025167006565884886,-0.00047304779189460966,-0.00039015053977875525
153000000000.0,4,0.0114737805,-0.3105569922,0.23756609625,-0.17572,-0.045001,-0.075506,-0.0387166542,-5.305593782999999,-8.24739265,-0.004694,0.57166,-0.48124,-2.0000000000131024e-05,-0.000400000000000178,-0.00029999999999996696,0.002382456435137126,-0.00018877133691885817,-0.000476742037126332
153000000000.0,4,-0.0093555441,-0.2385565679,0.34634145805,-0.21259,0.020295,-0.066079,-0.034931287299999995,-5.288922478,-8.258179964999998,-0.00423,0.56963,-0.48203,-1.999999999990898e-05,-0.00039999999999995595,-0.00039999999999995595,0.0020639205144430406,-0.0005696143781741547,-0.0013308928717361557
153000000000.0,4,0.0319304524,-0.14708013669999997,0.32076571485,-0.23049,0.040705,-0.081089,-0.0278901126,-5.2699956435,-8.2702421445,-0.003372,0.56733,-0.48311,-3.333333333332966e-05,-0.00039999999999995595,-0.00029999999999996696,0.0025767838776811214,0.0001560690136686027,-0.0012010391736727577
153000000000.0,4,0.05141626595,-0.11784651304999999,0.30154468084999997,-0.23369,0.024777,-0.10775,-0.020142859099999997,-5.2505784765,-8.282598523499999,-0.002432,0.56499,-0.48431,-3.333333333332966e-05,-0.00029999999999996696,-0.00019999999999997797,0.0019583396934532704,0.0001189343081267058,-0.00126764710187377
153000000000.0,4,0.0068450417,-0.05282842355,0.20835208589999998,-0.23808,-0.003935,-0.13012,-0.01372931,-5.230867109999999,-8.295052968999999,-0.001655,0.56262,-0.48595,-3.333333333332966e-05,-0.00039999999999995595,-0.00029999999999996696,0.0019543108143158516,0.00045165954583636925,-0.0020275538477747546
153000000000.0,4,-0.042286274799999995,-0.0348136075,0.1019107068,-0.22855,-0.022114,-0.14502,-0.0079826131,-5.2119402755,-8.307017082,-0.000962,0.56033,-0.48762,-9.999999999998899e-05,-0.00039999999999995595,-0.00029999999999996696,0.0011939784780434781,-0.00022751869084691734,-0.0018902783415690738
153000000000.0,4,-0.029890669199999997,-0.02776262615,0.11821916575,-0.21261,-0.039279,-0.1599,-0.0027360553499999997,-5.194778637999999,-8.317804397,-0.000328,0.55827,-0.48966,-5.0000000000105516e-05,-0.00020000000000020002,-0.00020000000000020002,0.0006117443673224754,5.188220252150266e-05,-0.001572017463886799
153000000000.0,4,0.019858466249999998,0.0147295883,0.045375369549999996,-0.19142,-0.067147,-0.17263,0.0010885381499999998,-5.179284131,-8.327316847499999,0.000131,0.55641,-0.49167,-4.999999999988347e-05,-0.00029999999999996696,-9.999999999998899e-05,0.00029118248893156284,-0.0009296407947798624,-0.0011947999936579023
153000000000.0,4,0.06755801185,-0.05779058844999999,-0.07098053269999999,-0.14335,-0.064339,-0.18002,0.0044129925,-5.1674180844999995,-8.3347699015,0.00053,0.55498,-0.49395,-0.00019999999999997797,-0.00019999999999997797,-4.999999999988347e-05,0.00020803117876511124,-0.0017801622264868033,-0.0008484627087419483
153000000000.0,4,0.01962310665,-0.09722312809999999,0.00811009955,-0.077837,-0.006279,-0.17254,0.011503200449999999,-5.1607495624999995,-8.3388886945,0.001379,0.55418,-0.49601,-4.999999999988347e-05,-9.999999999998899e-05,-5.0000000000105516e-05,0.00010043878838705833,-0.0015660524224292427,0.0001308110280434649
153000000000.0,4,-0.07927695859999999,0.0849059757,0.06862693669999999,-0.025128,0.064654,-0.14482,0.02346731345,-5.1586901659999995,-8.340163558999999,0.002813,0.55393,-0.49799,-5.0000000000105516e-05,3.333333333332966e-05,9.999999999998899e-05,-0.0005379434386356685,0.0002907648604408841,0.0006501531280114214
153000000000.0,4,-0.10019454305,0.05502511314999999,-0.06153672875,0.0112,0.10479,-0.091458,0.037049523699999996,-5.159768897499999,-8.339379027,0.004442,0.55407,-0.49923,5.0000000000105516e-05,3.333333333332966e-05,-4.999999999988347e-05,-0.0003790387199672507,-0.00022499779289808508,0.000368347630173127
153000000000.0,4,0.042698154099999996,-0.08569050769999999,-0.11724830739999999,0.027845,0.090737,-0.028427,0.047532832549999994,-5.162416693,-8.3377118965,0.005701,0.55438,-0.49992,4.999999999988347e-05,3.333333333332966e-05,-5.0000000000105516e-05,-0.0007538180211337231,0.0016751069545515307,0.0002544002004549739
153000000000.0,4,0.142196425,-0.09968459724999999,-0.19388727714999998,0.031298,0.0299,0.037865,0.0499354618,-5.1653586879999995,-8.3359466995,0.00599,0.55473,-0.49965,4.999999999988347e-05,9.999999999998899e-05,5.0000000000105516e-05,-0.0010563946424705373,0.00275970176860163,4.722219249642112e-05
153000000000.0,4,0.21489312144999997,-0.08455293629999999,-0.21340251065,0.03572,-0.05756,0.080723,0.04308061345,-5.1685948825,-8.333887303,0.005169,0.55513,-0.49897,5.0000000000105516e-05,9.999999999998899e-05,4.999999999988347e-05,0.0009232614697751718,0.001159161249246532,-0.0001989985763786173
153000000000.0,4,0.29924011809999995,-0.09243748289999999,-0.1601033679,0.034929,-0.14921,0.09476,0.02756649315,-5.171831076999999,-8.3320240395,0.003309,0.55551,-0.49787,1.4285714285744433e-05,9.999999999998899e-05,1.999999999990898e-05,-0.00019161742579099084,0.0012501471547969878,-0.0008591721129240781
153000000000.0,4,0.28185292765,-0.0324992381,-0.20706741474999998,0.01642,-0.20552,0.078817,0.0071000146,-5.1734982075,-8.330945308,0.000852,0.55572,-0.49706,1.4285714285744433e-05,9.999999999998899e-05,2.0000000000131024e-05,0.0007204091453549832,0.0005030896556095232,4.9759353166978215e-05
153000000000.0,4,0.20064405899999999,0.0312439869,-0.2159620463,-0.011131,-0.19461,0.054198,-0.012856518150000001,-5.173400141,-8.3310433745,-0.001543,0.5557,-0.49636,1.4285714285744433e-05,5.0000000000105516e-05,1.999999999990898e-05,0.0005462241428794146,-0.0006429819636835088,0.0005571521260073764
153000000000.0,4,0.07110801915,0.01569064,-0.13477279095,-0.041313,-0.10909,0.039051,-0.026360275199999998,-5.170556212499999,-8.3328085715,-0.003164,0.55536,-0.49603,1.4285714285522388e-05,4.999999999988347e-05,2.0000000000131024e-05,0.0010595620585247545,-0.0009665853877784958,0.0010815495939950903
153000000000.0,4,-0.059967664749999997,0.03176373935,-0.063154826,-0.069088,0.014753,0.030245,-0.029665116249999998,-5.1650644885,-8.336142832499998,-0.003558,0.55471,-0.49565,1.4285714285744433e-05,9.999999999998899e-05,1.999999999990898e-05,0.0010125040844732869,-0.0012247756094783124,0.0012275638094716435
153000000000.0,4,-0.07236327035,0.07439324689999999,0.052524417399999995,-0.084126,0.1321,0.024675,-0.021908056099999997,-5.1582979,-8.340359692,-0.002627,0.5539,-0.49552,1.4285714285744433e-05,0.00020000000000020002,5.0000000000105516e-05,0.00048294428995820926,-0.0005214512511353409,0.000778465906051351
153000000000.0,4,-0.0240655191,-0.021103910799999997,0.12311268409999998,-0.081565,0.19068,0.032048,-0.0078060934,-5.151433245,-8.344674617999999,-0.000935,0.55307,-0.4952,1.4285714285744433e-05,9.999999999998899e-05,4.999999999988347e-05,0.0006587783807266989,-7.913036211526503e-05,0.000685491325996046
153000000000.0,4,0.0022947561,-0.11845452534999999,0.09762520075,-0.071006,0.17887,0.035289,0.006678328649999999,-5.145156989,-8.3484992115,0.0008,0.55232,-0.495,3.333333333332966e-05,0.00019999999999997797,5.0000000000105516e-05,-0.0002091005296702697,0.00032219878893879894,-0.00010504096588270784
153000000000.0,4,0.07226520384999999,-0.11239401565,0.06246836049999999,-0.045894,0.11047,0.026915,0.01691647125,-5.1407439964999995,-8.3512450735,0.002026,0.55179,-0.4947,3.333333333332966e-05,9.999999999998899e-05,5.0000000000105516e-05,0.0005901876411092966,0.0002141618326012562,-0.0004021910806689677
153000000000.0,4,0.1405292945,-0.094339973,0.08328787845,-0.014622,0.016441,0.023933,0.0197309798,-5.138782666499999,-8.352421871499999,0.002362,0.55155,-0.49465,3.333333333332966e-05,0.00029999999999996696,9.999999999998899e-05,-0.0008625458751669868,0.000921933948907494,-0.00045529874661953684
153000000000.0,4,0.11764057339999999,-0.09925310464999999,0.043247326499999995,0.011306,-0.073283,0.027337,0.014337322299999998,-5.138978799499999,-8.352323805,0.001717,0.55157,-0.49436,5.0000000000105516e-05,0.00019999999999997797,9.999999999998899e-05,-0.0006790994387102511,0.0004856566694035891,0.0001765864898291003
153000000000.0,4,0.10307769815,-0.0864161998,0.0209077778,0.037648,-0.11399,0.028522,0.004059953099999999,-5.141430462,-8.350754741,0.000487,0.55187,-0.4942,4.999999999988347e-05,0.00029999999999996696,0.00019999999999997797,-0.0006591603607855046,0.00035792829998904097,0.0003657194889783444
153000000000.0,4,0.08714189189999999,-0.03592175895,0.056496110649999993,0.056939,-0.10137,0.032803,-0.0067862018,-5.1458434545,-8.3481069455,-0.000813,0.5524,-0.49381,3.333333333332966e-05,0.00019999999999997797,9.999999999998899e-05,-0.0004811271105306103,-7.953536318816568e-05,0.0008092131988403084
153000000000.0,4,0.011159967699999999,0.02964550295,0.04585589539999999,0.063668,-0.052423,0.045538,-0.014749201599999998,-5.151040978999999,-8.344870751,-0.001768,0.55302,-0.49347,3.333333333332966e-05,0.00029999999999996696,9.999999999998899e-05,7.312110917534476e-06,-0.0005917920659856968,0.0011150051323794985
153000000000.0,4,-0.0741578873,0.047738772199999994,0.0639589713,0.055493,0.001974,0.060371,-0.01862282835,-5.156042370499999,-8.341732623,-0.002232,0.55362,-0.4928,3.333333333332966e-05,0.000300000000000189,9.999999999998899e-05,-0.0004724621992564515,0.00024286531978479076,0.0013072858167564316
153000000000.0,4,-0.038569554449999995,0.0057074703,-0.0018142302499999999,0.037659,0.047929,0.073068,-0.0190445143,-5.159866963999999,-8.3394770935,-0.002284,0.55407,-0.49215,9.999999999998899e-05,0.00029999999999996696,0.00019999999999997797,-0.0001663078542797347,0.00011330251524421797,0.0014452090963714692
153000000000.0,4,-0.020084019199999997,-0.046581587499999993,0.0020790098,0.020699,0.073627,0.090071,-0.0173185439,-5.1620244269999995,-8.338104162499999,-0.002078,0.55433,-0.49116,4.999999999988347e-05,0.00029999999999996696,5.0000000000105516e-05,-0.0007400781698070347,0.0005037051275069704,0.0009639582285612125
153000000000.0,4,-0.05546641239999999,-0.07389310774999999,0.035568719549999996,0.011061,0.075827,0.10072,-0.01546508705,-5.1632992915,-8.3373196305,-0.001855,0.55449,-0.49019,5.0000000000105516e-05,0.00029999999999996696,4.999999999988347e-05,-0.0007024844901017957,0.0007013660843131486,0.000839347430363846
153000000000.0,4,-0.0577219419,-0.0791004389,0.04749360595,0.019468,0.054452,0.093305,-0.014994367849999999,-5.164770289,-8.3363389655,-0.001799,0.55467,-0.48908,3.333333333332966e-05,0.00029999999999996696,9.999999999998899e-05,-0.0003215180730818945,0.00024357667332441935,0.00029638620027705453
153000000000.0,4,-0.0173577705,-0.0203782187,0.10039067604999999,0.036337,0.024484,0.085916,-0.016455558699999998,-5.167516150999999,-8.334671835,-0.001975,0.555,-0.48825,3.333333333332966e-05,0.00029999999999996696,0.00019999999999997797,-0.000502777634635021,0.0005486112484012207,0.0004950029405818013
153000000000.0,4,-0.00408937305,0.000784532,0.09933155785,0.053124,-0.012944,0.081741,-0.020750871399999996,-5.171634944,-8.332122105999998,-0.00249,0.55549,-0.48729,3.333333333332966e-05,0.000400000000000178,0.00019999999999997797,-0.0009866879841421428,0.0006608974245763122,0.0006914961544292053
153000000000.0,4,0.04582647545,-0.019348520449999997,0.06989199454999999,0.071025,-0.041864,0.08289,-0.027870499299999997,-5.177126667999999,-8.3286897785,-0.003346,0.55615,-0.48649,4.999999999988347e-05,0.00029999999999996696,0.00019999999999997797,-0.0006822106762452984,0.0001257620454959696,0.0007078584182843572
153000000000.0,4,0.0790023724,-0.006423355749999999,0.07825706699999999,0.090121,-0.050556,0.091478,-0.03680435745,-5.1840893895,-8.3243748525,-0.004422,0.55698,-0.48543,5.0000000000105516e-05,0.0004999999999999449,9.999999999998899e-05,-0.002730459602662494,0.0013072411616374957,0.0009035690795382578
153000000000.0,4,0.02711538725,0.017848103,0.08744589804999998,0.11349,-0.052897,0.1086,-0.0467188806,-5.1927192415,-8.3188831285,-0.005616,0.55803,-0.48434,3.333333333332966e-05,0.00039999999999995595,9.999999999998899e-05,-0.0016844304539048727,0.0009138933200583121,0.0008922061374397883
153000000000.0,4,0.0048444850999999995,0.03627479835,0.09415364664999999,0.13698,-0.043514,0.12037,-0.05661379045,-5.2037026895,-8.311920406999999,-0.006812,0.55934,-0.48295,3.333333333332966e-05,0.0004999999999999449,0.00020000000000020002,-0.0012901663306911226,0.000896488289576558,0.0008485799451715126
153000000000.0,4,-0.0164359454,0.0240655191,0.1301734721,0.14444,-0.04145,0.12571,-0.06645966704999999,-5.215568736,-8.304467353,-0.008003,0.56077,-0.48159,3.333333333332966e-05,0.00029999999999996696,9.999999999998899e-05,-0.0008379366987611991,0.00045718524880822287,0.0004907620156109349
153000000000.0,4,-0.0758838577,-0.02085874455,0.09036827974999999,0.12938,-0.056245,0.12678,-0.0774921483,-5.2266502505000005,-8.297406565,-0.009339,0.5621,-0.48007,4.999999999988347e-05,0.000300000000000189,0.00019999999999997797,-0.0009516978898646,0.0014529222162338318,0.00040362599092846896
153000000000.0,4,-0.089632781,-0.09411442005,0.0769233626,0.11008,-0.076318,0.11291,-0.08947587459999999,-5.236162701,-8.2912283755,-0.010792,0.56325,-0.47883,5.0000000000105516e-05,0.00029999999999996696,9.999999999998899e-05,-0.0011106086417725924,0.0016379931194507868,0.0004343407336623306
153000000000.0,4,-0.03594137225,-0.12495633429999999,0.17536251529999997,0.087603,-0.093168,0.10009,-0.10201857995000001,-5.2437138215,-8.2863250505,-0.012311,0.56417,-0.47762,9.999999999998899e-05,0.00029999999999996696,4.999999999988347e-05,-0.000711260859748486,0.0012094948447443077,0.00028508563411222543
153000000000.0,4,-0.046777720499999995,-0.17609801405,0.1919749804,0.068341,-0.10366,0.094736,-0.11527717074999999,-5.249597811499999,-8.2824023905,-0.013918,0.56488,-0.47666,9.999999999998899e-05,0.00019999999999997797,5.0000000000105516e-05,-0.00036057138137279843,0.0006841808973889751,0.0007921657719887065
153000000000.0,4,-0.0753935252,-0.17354828505,0.2212184107,0.055642,-0.08864,0.09789,-0.12781006944999998,-5.25440307,-8.279166196,-0.015436,0.56546,-0.47552,0.00010000000000021103,0.00029999999999996696,2.4999999999941735e-05,-5.830210328405805e-05,0.0005105253677875066,0.0009513719027141043
153000000000.0,4,-0.11619899585,-0.1649086264,0.23783087579999998,0.036623,-0.060786,0.10528,-0.1387837108,-5.2576392645,-8.277008732999999,-0.016766,0.56585,-0.47444,5.0000000000105516e-05,0.00019999999999997797,2.500000000016378e-05,-6.501247629064899e-05,0.0003249748664400087,0.0012435553434044788
153000000000.0,4,-0.11731695394999998,-0.1912100617,0.17776514455,0.016695,-0.019061,0.10304,-0.1466486441,-5.2592083285,-8.275831935,-0.017718,0.56603,-0.47321,4.999999999988347e-05,0.00019999999999997797,2.4999999999941735e-05,0.00012432454417865557,-0.00031863031159429234,0.0012752214548483742
153000000000.0,4,-0.1318209893,-0.15841662410000001,0.1826782762,-0.007349,0.040814,0.099687,-0.14964947899999997,-5.258914128999999,-8.2759300015,-0.01808,0.566,-0.47217,9.999999999998899e-05,9.999999999998899e-05,2.4999999999941735e-05,0.00041487164567488577,0.0004352838190886388,0.0015392420648898675
153000000000.0,4,-0.20448826579999999,-0.1499829051,0.18494361235,-0.032496,0.093248,0.089944,-0.14790389529999998,-5.256560533,-8.277499065499999,-0.017867,0.56572,-0.47107,9.999999999998899e-05,0.00020000000000020002,-4.999999999988347e-05,0.0006620892199367123,-0.0004467115202069216,0.0009458880143067283
153000000000.0,4,-0.21660928519999997,-0.13016366545,0.15428802445,-0.055629,0.12436,0.071703,-0.1422160383,-5.252441739999999,-8.2802449275,-0.017174,0.56522,-0.47031,1.999999999990898e-05,4.999999999988347e-05,-5.0000000000105516e-05,0.0005570302229358504,-9.417238754561019e-05,0.0004209914935033865
153000000000.0,4,-0.21297101805,-0.1166599084,0.13810705195,-0.071513,0.12557,0.052461,-0.13479240425,-5.2472442155,-8.283677254999999,-0.01627,0.56459,-0.46964,2.0000000000131024e-05,5.0000000000105516e-05,-9.090909090847532e-06,0.0007185645777847416,-0.0001928379928815005,0.00019537222554344424
153000000000.0,4,-0.21083316835,-0.13772459259999997,0.11711101429999998,-0.074784,0.10218,0.029014,-0.12765316305,-5.2415563585,-8.287305715499999,-0.015402,0.56391,-0.46936,1.999999999990898e-05,5.0000000000105516e-05,-9.090909091069577e-06,0.00021146847223763032,-0.00018855514589266598,7.259840610784885e-05
153000000000.0,4,-0.15600418819999998,-0.14410872175,0.13932307654999998,-0.067492,0.068044,0.008806,-0.1221712457,-5.2364569004999995,-8.290738043,-0.014735,0.56328,-0.4692,2.0000000000131024e-05,4.999999999988347e-05,-9.090909090847532e-06,0.00011558107019504771,-3.4032098958025614e-05,3.96731319972643e-05
153000000000.0,4,-0.1319582824,-0.1311737504,0.19021959005,-0.049573,0.032744,-0.00391,-0.11898408444999999,-5.232436174,-8.2931897055,-0.014346,0.5628,-0.46936,1.999999999990898e-05,9.999999999998899e-05,-9.090909090847532e-06,0.0002872810580686336,0.00024205170899072037,-0.00029252435130910914
153000000000.0,4,-0.1177190266,-0.11317854764999999,0.24133184984999997,-0.034933,-0.001477,-0.000622,-0.1185623985,-5.229984511499999,-8.294856836,-0.014292,0.5625,-0.46937,3.333333333332966e-05,5.0000000000105516e-05,-9.090909090847532e-06,-1.94442185220689e-05,0.0003211884628606665,-3.276726622403192e-05
153000000000.0,4,-0.11002080634999999,-0.11229594914999999,0.2276711864,-0.024567,-0.031412,0.012257,-0.12146516689999999,-5.228317380999999,-8.295837501,-0.014641,0.5623,-0.46937,3.333333333332966e-05,4.999999999988347e-05,-9.090909091069577e-06,-2.060316653718086e-05,0.00048191034699929247,0.0003168663688876139
153000000000.0,4,-0.08607296704999999,-0.13857777114999997,0.21815873589999998,-0.010822,-0.041131,0.02404,-0.1264077185,-5.2276309155,-8.296229767,-0.015236,0.56222,-0.46909,3.333333333332966e-05,9.999999999998899e-05,-9.090909090847532e-06,-0.00010289428272935996,-0.00029532402450049844,0.0008335389324315434
153000000000.0,4,-0.08695556554999999,-0.07030387384999999,0.23960587944999998,0.004102,-0.032746,0.040062,-0.1319582824,-5.228023181499999,-8.295837501,-0.015906,0.56228,-0.46876,-1.6666666666775853e-05,5.0000000000105516e-05,-9.090909090847532e-06,-0.00018998591452767943,-7.13494878457066e-05,0.0005397716956653253
153000000000.0,4,-0.1368812207,-0.0311263071,0.1801481605,0.01173,0.00021,0.058162,-0.13605746209999997,-5.2291999795,-8.295052968999999,-0.0164,0.56242,-0.46808,-1.666666666655381e-05,4.999999999988347e-05,-9.090909090847532e-06,0.00016675067310500946,-0.0004058402200135536,0.0008319297623350375
153000000000.0,4,-0.15764189874999998,-0.032803244249999995,0.15232669445,0.017331,0.034262,0.059179,-0.1374500064,-5.230867109999999,-8.293974237499999,-0.01657,0.56261,-0.46748,-1.666666666655381e-05,-2.4999999999941735e-05,-9.090909091069577e-06,6.569657532651263e-05,0.00011171465972159567,0.0003158931558484568
153000000000.0,4,-0.1524345676,-0.023222147199999998,0.1323505484,0.015375,0.052399,0.05274,-0.13651837465,-5.232632307,-8.2927974395,-0.016461,0.56283,-0.46681,-1.6666666666775853e-05,-2.4999999999941735e-05,-9.090909090847532e-06,4.247997249129387e-05,2.9201012689217265e-05,-8.057933193061917e-05
153000000000.0,4,-0.14325554319999997,-0.029243430299999998,0.08994659379999999,0.008971,0.046069,0.043133,-0.13506699045,-5.234005237999999,-8.2920129075,-0.016287,0.56299,-0.46641,-1.6666666666775853e-05,-2.500000000016378e-05,-2.4999999999941735e-05,0.0005771454071070714,0.00014968414275262631,-0.00043040743546463034
153000000000.0,4,-0.12294597104999999,-0.0710785992,0.07156893169999999,-0.000838,0.011,0.028234,-0.13532196335,-5.234593637,-8.2916206415,-0.016319,0.56307,-0.466,-1.666666666655381e-05,-2.4999999999941735e-05,-2.4999999999941735e-05,-0.00024781234940407515,0.000884766702328843,-0.000800823593781752
153000000000.0,4,-0.08969162089999999,-0.09725254805,0.08089505585,-0.008537,-0.033665,0.002682,-0.13775401255,-5.234495570499999,-8.2916206415,-0.016612,0.56305,-0.46601,-5.0000000000105516e-05,-9.999999999998899e-05,-2.500000000016378e-05,0.0003430689655005148,0.0009242962842341829,-0.0014896346630844937
153000000000.0,4,-0.0854943747,-0.0842195102,0.1272510904,-0.013127,-0.090078,-0.022844,-0.14330457644999997,-5.2339071715,-8.291914840999999,-0.017281,0.56298,-0.46619,-4.999999999988347e-05,-9.999999999998899e-05,-2.4999999999941735e-05,-0.0007278675980613158,0.0016856889810461517,-0.0015565304345122044
153000000000.0,4,-0.09709564165,-0.11685604139999999,0.16475172,-0.013384,-0.14013,-0.051576,-0.15175790874999998,-5.2333187725,-8.2922090405,-0.018299,0.56291,-0.46683,-4.999999999988347e-05,-0.00019999999999997797,-3.333333333332966e-05,0.00023020241552484944,0.0005885554145095284,-0.0013587466375412083
153000000000.0,4,-0.0891032219,-0.11081514499999999,0.21202957965,-0.010356,-0.17849,-0.078188,-0.16229025085,-5.2327303735,-8.292307107,-0.019568,0.56284,-0.46768,-5.0000000000105516e-05,-9.999999999998899e-05,-3.333333333332966e-05,-0.0004477647440523924,-0.0001842025644542833,-0.0015149606489459622
153000000000.0,4,-0.09789978695,-0.11031500585,0.1897782908,-0.001767,-0.18387,-0.097377,-0.17309717915,-5.23282844,-8.2920129075,-0.020872,0.56285,-0.46891,-9.999999999998899e-05,-0.00010000000000021103,-3.333333333332966e-05,-0.0018214184422343793,-8.60274663485594e-05,-0.0009828433266122483
153000000000.0,4,-0.1561022547,-0.10738281749999999,0.22150280355,0.025326,-0.13933,-0.10808,-0.1805796531,-5.234691703499999,-8.290738043,-0.021778,0.56307,-0.47014,-0.00020000000000020002,-9.999999999998899e-05,-1.999999999990898e-05,-3.228103439856245e-05,-0.0016303929718473054,-0.0005122651989063476
153000000000.0,4,-0.22243443529999998,-0.00848275225,0.29430737315,0.055864,-0.054333,-0.10498,-0.1815799314,-5.2390066294999995,-8.287992181,-0.021906,0.5636,-0.47151,-9.999999999998899e-05,-9.999999999998899e-05,-2.0000000000131024e-05,-0.00023073504401993628,-0.001000911311832331,-0.00035663818088782495
153000000000.0,4,-0.27253661014999997,0.03827535494999999,0.2518739986,0.074444,0.013697,-0.086919,-0.17697080589999997,-5.245184818999999,-8.284167587499999,-0.02136,0.56435,-0.47257,-0.00019999999999997797,-9.999999999998899e-05,-1.999999999990898e-05,-0.0007019310734047712,-0.0007104700879918546,-0.00034107110141123886
153000000000.0,4,-0.26355371875,0.00089240515,0.12310287745,0.077877,0.052014,-0.072037,-0.16935103885,-5.251951407499999,-8.279950728,-0.02045,0.56516,-0.47356,-9.999999999998899e-05,-0.00019999999999997797,-2.0000000000131024e-05,-0.00047012506133803367,-0.00013814143596335704,-0.00046814412396523064
153000000000.0,4,-0.14663883744999998,-0.013778343249999998,0.06977431475,0.075743,0.055223,-0.06671,-0.1611624861,-5.258717996000001,-8.2759300015,-0.019472,0.56597,-0.47433,-9.999999999998899e-05,-9.999999999998899e-05,-1.999999999990898e-05,-0.00014847092027592268,-5.260784095373339e-05,-0.0008717001710669692
153000000000.0,4,-0.0438553388,-0.05216157135,0.08797545714999999,0.070096,0.022226,-0.057055,-0.15546482244999998,-5.2650923185,-8.271909275,-0.018792,0.56674,-0.47514,-9.999999999998899e-05,-9.999999999998899e-05,-5.0000000000105516e-05,-0.0007598600638137887,0.0001680555647305404,-0.0009428214829750869
153000000000.0,4,0.00330484105,-0.11598324955,0.08520017519999999,0.055719,-0.03308,-0.044173,-0.15489603675,-5.270387909499999,-8.268575014,-0.01873,0.56739,-0.47567,2.4999999999941735e-05,-9.999999999998899e-05,-4.999999999988347e-05,-0.0009071832290287185,0.001371228788324963,-0.0008717490200192968
153000000000.0,4,0.07411866069999999,-0.1423141048,0.1446088609,0.043579,-0.080936,-0.03984,-0.15881869675,-5.274702835499999,-8.265731085499999,-0.019211,0.56791,-0.47626,2.500000000016378e-05,-9.999999999998899e-05,-9.999999999998899e-05,0.00042258686801532885,0.000518488114073401,-0.0005330430236959449
153000000000.0,4,0.08249353979999999,-0.13126201024999998,0.17727481204999998,0.019886,-0.10419,-0.033436,-0.16584025814999998,-5.2772525644999995,-8.2639658885,-0.020066,0.56822,-0.47663,2.4999999999941735e-05,-0.00019999999999997797,-0.00020000000000020002,0.0008016979045243344,-1.5371410281961317e-05,4.639035413700476e-06
153000000000.0,4,0.07775692785,-0.13914655685,0.18560065789999997,-0.006666,-0.083734,-0.024979,-0.17262645995,-5.277546763999999,-8.263671688999999,-0.020887,0.56826,-0.47704,2.4999999999941735e-05,-9.999999999998899e-05,-0.00019999999999997797,0.00022221978772407613,0.0004117693782670351,0.00021329364708744247
153000000000.0,4,0.0710785992,-0.1337430927,0.22373871974999998,-0.044796,-0.038679,-0.010181,-0.17672563965,-5.2748989685,-8.265240753,-0.021378,0.56793,-0.47717,9.999999999998899e-05,-9.999999999998899e-05,-0.00019999999999997797,0.0017776209482507355,-0.0004036548455568223,0.0004273322093439891
153000000000.0,4,0.031773546,-0.13170330949999998,0.1462367648,-0.092543,0.00645,0.00887,-0.1779710842,-5.2682304465,-8.2694576125,-0.021518,0.56713,-0.47724,9.999999999998899e-05,-0.00019999999999997797,-0.00019999999999997797,0.0026206820024464728,-0.0006794982280957651,0.0004733336221919293
153000000000.0,4,0.0020299765499999997,-0.16597755125,0.10268543214999999,-0.13068,0.048307,0.022606,-0.17605878745,-5.2582276635000005,-8.2759300015,-0.02127,0.56592,-0.47702,9.999999999998899e-05,-9.999999999998899e-05,-0.00019999999999997797,0.00191627813740336,0.00014377598013748383,2.5247543882223056e-06
153000000000.0,4,0.0273605535,-0.15811261794999998,0.13211518879999998,-0.16475,0.063497,0.03106,-0.17250878014999999,-5.245479018499999,-8.284069521,-0.020821,0.56437,-0.47686,9.999999999998899e-05,-0.00019999999999997797,-0.00019999999999997797,0.0015950861071575284,8.808433516072078e-05,-0.0006250166728632989
153000000000.0,4,-0.019122967499999997,-0.10958931374999999,0.08207185384999999,-0.17872,0.048699,0.027859,-0.1694196854,-5.2309651765,-8.293287772,-0.020425,0.56263,-0.47656,-4.999999999988347e-05,-0.00020000000000020002,-0.00019999999999997797,0.0011599798106843862,0.00023976821774951418,-0.0015997630807943475
153000000000.0,4,-0.06402761785,-0.100223963,0.08785777735,-0.16722,-0.000379,-0.005124,-0.16836056719999998,-5.217333933,-8.301917624,-0.020276,0.56098,-0.47667,-5.0000000000105516e-05,-0.00029999999999996696,-9.999999999998899e-05,-0.0003356785655040939,0.0006105862052503408,-0.0019355137762387953
153000000000.0,4,-0.060301090849999996,-0.08585722075,0.07459918655,-0.12471,-0.062465,-0.07112,-0.16939026545,-5.2066446845,-8.308586146,-0.020385,0.5597,-0.47734,-0.00019999999999997797,-0.00039999999999995595,-5.0000000000105516e-05,0.0007902826462358181,-0.0005966143651843225,-0.002635187877644496
153000000000.0,4,-0.051975244999999996,-0.03044964825,0.1162676424,-0.070147,-0.094799,-0.15209,-0.16978253144999997,-5.200564561499999,-8.312410739499999,-0.020423,0.55897,-0.47908,-9.999999999998899e-05,-0.00019999999999997797,-4.999999999988347e-05,-0.0004374392873033317,-0.00032011256757313866,-0.002041753520573786
153000000000.0,4,-0.10584317345,0.018867994599999997,0.17158695505,-0.028276,-0.10254,-0.21285,-0.167693715,-5.198603231499999,-8.313685604,-0.020168,0.55873,-0.48146,-0.00019999999999997797,-0.00029999999999996696,-9.999999999998899e-05,0.0007058357341528376,-0.0014325800036147918,-0.001707026116033572
153000000000.0,4,-0.14083330065,-0.0216530832,0.06855829014999999,-0.006679,-0.083519,-0.23419,-0.16323168924999998,-5.198603231499999,-8.313685604,-0.019632,0.55873,-0.48432,2.4999999999941735e-05,-0.00019999999999997797,-0.00019999999999997797,-0.0009490373153597798,0.00020466297919363718,-0.0008898936140977476
153000000000.0,4,-0.09249632279999999,-0.12431890205,0.06326269915,0.003197,-0.036726,-0.21824,-0.15575902195,-5.199681963,-8.3131952715,-0.018734,0.55885,-0.48697,2.4999999999941735e-05,-0.00019999999999997797,-2.4999999999941735e-05,0.00032933313725480584,-0.0010860876037717127,9.571257324048066e-05
153000000000.0,4,-0.04810161824999999,-0.14791370194999998,0.08368014445000001,-0.005218,0.010177,-0.16711,-0.14628579805,-5.2002703619999995,-8.3129991385,-0.017595,0.55893,-0.48924,2.500000000016378e-05,-0.00019999999999997797,-2.500000000016378e-05,0.00041760282448488617,-0.0010084856859722269,0.0003270504088406234
153000000000.0,4,-0.0610169763,-0.19727057139999998,-0.04298254694999999,-0.0137,0.05706,-0.099957,-0.136508568,-5.199681963,-8.313489471,-0.016418,0.55886,-0.49062,2.4999999999941735e-05,-9.999999999998899e-05,-2.4999999999941735e-05,0.00035991704102023014,-0.0007748732144940984,0.0011530865427336057
153000000000.0,4,-0.06493963629999999,-0.2186294551,-0.004236472799999999,-0.020002,0.10607,-0.041348,-0.1259958392,-5.198603231499999,-8.314470136,-0.015153,0.55872,-0.49139,5.0000000000105516e-05,-0.00010000000000021103,-2.4999999999941735e-05,0.0007594280512380758,-0.000850449808176057,0.000452799121447911
153000000000.0,4,-0.0420313019,-0.1669876362,0.0223787753,-0.023245,0.12949,0.003436,-0.1153850439,-5.1969361009999995,-8.315548867499999,-0.013875,0.55853,-0.49146,4.999999999988347e-05,-9.999999999998899e-05,-5.0000000000105516e-05,0.0003785995394481878,-0.00019034325515288053,0.0005733570388196663
153000000000.0,4,-0.021084297499999998,-0.1483942278,-0.01081673495,-0.035239,0.11464,0.031194,-0.10700035815,-5.194386372,-8.3173140645,-0.012864,0.55823,-0.49128,9.999999999998899e-05,-9.999999999998899e-05,-5.0000000000105516e-05,0.0005140040098703391,0.0002695321820103125,7.056022643525672e-05
153000000000.0,4,0.00048052584999999995,-0.12504459415,-0.01932890715,-0.042015,0.072073,0.036594,-0.10238142599999998,-5.1911501775,-8.319373461,-0.012306,0.55783,-0.49082,9.999999999998899e-05,-9.999999999998899e-05,-4.999999999988347e-05,0.0006062399210646774,0.00025093022962985323,-0.00020046824338026958
153000000000.0,4,0.05276958365,-0.11462012519999999,0.02958666305,-0.046666,0.01884,0.02814,-0.10170476715,-5.187325584,-8.321727057,-0.012221,0.55738,-0.49057,9.999999999998899e-05,-9.999999999998899e-05,-5.0000000000105516e-05,0.0007866006153063321,0.0006644085849136783,-0.0004556675439075786
153000000000.0,4,0.06873480985,-0.10504883479999999,0.0906722859,-0.055528,-0.034353,0.011141,-0.10465656879999999,-5.1831087245,-8.324276786,-0.012571,0.55687,-0.49037,5.0000000000105516e-05,-0.00019999999999997797,-5.0000000000105516e-05,0.0002848401202437678,0.0001575093742889333,-0.0001966743750387856
153000000000.0,4,0.06679309315,-0.0823954733,0.08587683404999999,-0.0578,-0.066278,-0.012289,-0.10958931374999999,-5.1786957319999996,-8.327022648,-0.01316,0.55634,-0.49058,4.999999999988347e-05,-9.999999999998899e-05,-4.999999999988347e-05,-0.0002535085553434513,0.00029032037448861736,3.303417802569264e-05
153000000000.0,4,0.0623114541,-0.0751581656,0.10171457379999999,-0.050185,-0.055673,-0.024036,-0.11378655995,-5.174576939,-8.329572377,-0.01366,0.55584,-0.49082,9.999999999998899e-05,-5.0000000000105516e-05,-2.4999999999941735e-05,-0.000161949571454989,-0.00039889872443388263,0.00010065768190992141
153000000000.0,4,0.00556037055,-0.033734876,0.15925018935,-0.02962,-0.01642,-0.0198,-0.11509084439999999,-5.1720272099999995,-8.331141441,-0.013814,0.55554,-0.49119,9.999999999998899e-05,-4.999999999988347e-05,-2.4999999999941735e-05,3.760224652005206e-05,-0.0006098922903157167,0.0004205771509953049
153000000000.0,4,-0.0389520138,-0.0080218397,0.2094308174,0.003749,0.030182,-0.007017,-0.11293338139999999,-5.1719291435,-8.331141441,-0.013554,0.55553,-0.49131,0.00010000000000021103,-3.333333333332966e-05,-2.500000000016378e-05,-0.00020409597131054724,0.00011019251269650532,0.00044562390409397246
153000000000.0,4,-0.0112972608,0.031194953649999996,0.24007659864999997,0.021946,0.04813,0.010062,-0.1094618273,-5.1737924070000005,-8.3300627095,-0.013139,0.55575,-0.49137,9.999999999998899e-05,-3.333333333332966e-05,-2.4999999999941735e-05,0.0003259257849321795,-0.00019112424517908622,0.0006460418120575184
153000000000.0,4,0.01813249585,0.0083552658,0.17668641304999996,0.031343,0.037372,0.03358,-0.1074612707,-5.1764402025,-8.3284936455,-0.012902,0.55606,-0.49103,9.999999999998899e-05,-3.333333333332966e-05,-9.999999999998899e-05,8.249230512913375e-05,0.0005819623647760341,0.00018617896271255763
153000000000.0,4,0.0633901856,-0.04512039665,0.18742469479999999,0.032157,0.0171,0.051763,-0.10798102315,-5.179284131,-8.326630382,-0.012967,0.55641,-0.49061,0.00019999999999997797,-5.0000000000105516e-05,-9.999999999998899e-05,-0.0002425659031254357,0.0005261214221379262,0.0006840217464122444
153000000000.0,4,0.0884755963,0.011287454149999999,0.22934812355,0.025478,-0.011628,0.062476,-0.1113643174,-5.181833859999999,-8.325061318,-0.013377,0.55672,-0.4899,0.00019999999999997797,-4.999999999988347e-05,-9.999999999998899e-05,0.00021437141886060385,-0.0002882657991349902,0.0003594919557424747
153000000000.0,4,0.09338872795,0.019073934249999997,0.24291072049999998,0.013621,-0.025386,0.064615,-0.11658145519999999,-5.1835009905,-8.3239825865,-0.014005,0.55692,-0.48927,9.999999999998899e-05,-9.999999999998899e-05,-0.00019999999999997797,0.0005900796425336585,-0.00072038074482772,0.0005450983045215407
153000000000.0,4,0.043482686099999994,-0.005942829899999999,0.2632300993,-0.008523,0.001452,0.052787,-0.12010204254999998,-5.1835009905,-8.32388452,-0.014427,0.55691,-0.48862,0.00019999999999997797,-9.999999999998899e-05,-0.00019999999999997797,0.0011724417062995984,-0.0021011881102530605,0.0008728768114282248
153000000000.0,4,-0.06016379775,0.03138128,0.2933365148,-0.04295,0.080621,0.0227,-0.11685604139999999,-5.180853194999999,-8.3255516505,-0.014035,0.5566,-0.48839,5.0000000000105516e-05,-0.00019999999999997797,-0.00039999999999995595,0.001800511776673952,-0.0027571685846519145,0.00041442470868080505
153000000000.0,4,-0.13281146095,0.07781576774999999,0.3717897148,-0.082451,0.18542,-0.019182,-0.10331305774999999,-5.1750672715,-8.329376243999999,-0.012403,0.5559,-0.48849,4.999999999988347e-05,-0.00029999999999996696,-0.00039999999999995595,0.0026204235357898398,-0.003763544291779608,0.0009586160742003358
153000000000.0,4,-0.17986376764999998,0.1184251054,0.44479041739999997,-0.1316,0.28709,-0.056806,-0.07885527264999999,-5.1653586879999995,-8.3356525,-0.00946,0.55474,-0.48921,0.00019999999999997797,-0.00029999999999996696,-0.000500000000000167,0.003389715223161782,-0.0030198420112914626,0.0006730957595907361
153000000000.0,4,-0.19031765655,0.13253687474999998,0.49244092975,-0.19078,0.33556,-0.089014,-0.04716017985,-5.1509429125,-8.344772684499999,-0.005651,0.55301,-0.4902,9.999999999998899e-05,-0.000300000000000189,-0.0006999999999999229,0.004053709688110085,-0.002994876795900492,0.00019496637379501358
153000000000.0,4,-0.12271061144999999,0.040981990350000004,0.4095649306,-0.26108,0.3351,-0.11369,-0.013307624049999998,-5.1309373465,-8.357227129999998,-0.001592,0.55061,-0.49161,9.999999999998899e-05,-0.00039999999999995595,-0.0005999999999999339,0.003804045507024456,-0.0017731520850490234,-0.00013197667682030012
153000000000.0,4,-0.07334393535,-0.054220967849999996,0.30319219805,-0.32321,0.29834,-0.12761,0.018867994599999997,-5.1054400565,-8.3728197035,0.002254,0.54756,-0.49307,9.999999999998899e-05,-0.00029999999999996696,-0.000600000000000156,0.004156094913688679,-0.001836044761430733,-0.0008241776662023526
153000000000.0,4,-0.14017625509999998,-0.0521909913,0.239674526,-0.36302,0.24966,-0.1372,0.04755244585,-5.0760201065,-8.39056974,0.005667,0.54406,-0.49476,5.0000000000105516e-05,-0.00039999999999995595,-0.0006999999999999229,0.004118307432975199,-0.0018873280160776051,-0.0016519657014093525
153000000000.0,4,-0.15940709574999998,-0.045404789499999994,0.1769904192,-0.37822,0.20504,-0.15422,0.0732164489,-5.0446388265,-8.4093004415,0.008707,0.54032,-0.49648,4.999999999988347e-05,-0.00029999999999996696,-0.0005999999999999339,0.00425227405954115,-0.0019219749980492473,-0.000643615220251692
153000000000.0,4,-0.16928239229999997,-0.057869041649999994,0.0924178696,-0.36871,0.1826,-0.17124,0.09700738179999999,-5.0134536794999995,-8.427638877,0.01151,0.53662,-0.4985,9.999999999998899e-05,-0.00029999999999996696,-0.000500000000000167,0.003435367845569137,-0.001832629337072289,0.0003675019248126077
153000000000.0,4,-0.18323725524999998,-0.0217315364,0.02954743645,-0.34103,0.17598,-0.17118,0.11994513614999999,-4.984229862499999,-8.444702448,0.014202,0.53315,-0.50042,5.0000000000105516e-05,-0.000300000000000189,-0.00039999999999995595,0.002565656085855239,-0.0005746164530426867,0.0002909785502981377
153000000000.0,4,-0.18592427735,0.0053740442,-0.029145363799999997,-0.30808,0.181,-0.13805,0.14193164544999998,-4.9577519075000005,-8.4599027555,0.016776,0.53002,-0.50218,4.999999999988347e-05,-9.999999999998899e-05,-0.00039999999999995595,0.0019834266909016796,-0.000975228911705539,0.0003969425385649261
153000000000.0,4,-0.19843756275,-0.0444829644,-0.15821068445,-0.2721,0.17958,-0.080341,0.16132919915,-4.934314014,-8.473337866,0.019037,0.52724,-0.50318,-4.999999999988347e-05,-9.999999999998899e-05,-0.00019999999999997797,0.0012701264210203123,-0.0006277402563417134,0.0005291081559194444
153000000000.0,4,-0.14477557394999999,-0.058271114299999996,-0.21673677164999997,-0.21821,0.15137,-0.020424,0.17619608055,-4.9151910465,-8.484125181,0.020765,0.525,-0.50364,-5.0000000000105516e-05,-9.999999999998899e-05,-0.00019999999999997797,-0.00011103251045774254,0.00017127388686422051,0.00012474161374698145
153000000000.0,4,-0.1006554556,-0.0386578143,-0.2746646532,-0.15479,0.10605,0.026731,0.1850514855,-4.901461736499999,-8.4918724345,0.021788,0.52338,-0.50339,-5.0000000000105516e-05,-1.999999999990898e-05,-9.999999999998899e-05,-0.00043265083516697,0.00035862898592986525,0.00010921012115139295
153000000000.0,4,-0.08930916155,-0.0165928518,-0.33167070964999995,-0.085003,0.040449,0.047249,0.18716972189999997,-4.8936164165,-8.4963834935,0.022026,0.52246,-0.50295,-4.999999999988347e-05,-2.0000000000131024e-05,3.333333333332966e-05,-0.0014524207097553754,0.0009007833630585438,-0.00017315415965912795
153000000000.0,4,-0.072765343,0.012493672099999999,-0.38684292255,-0.01402,-0.025128,0.041082,0.18363932789999998,-4.89155702,-8.4975602915,0.021608,0.52222,-0.5024,-0.00019999999999997797,-1.999999999990898e-05,3.333333333332966e-05,-0.0016706800987379977,0.0013816566088038496,-0.0002717167935664122
153000000000.0,4,-0.0719415844,0.05204389155,-0.38925535845,0.057226,-0.071508,0.014602,0.17683351279999998,-4.895479679999999,-8.495500895,0.020812,0.52268,-0.50225,-0.00019999999999997797,-2.0000000000131024e-05,3.333333333332966e-05,-0.0013623030524401725,0.0006602554602439525,-0.00071292587461258
153000000000.0,4,-0.09229038314999999,0.0810617689,-0.3055359874,0.11475,-0.10073,-0.011931,0.16860573345,-4.904501798,-8.490499503499999,0.019855,0.52373,-0.50229,-0.00019999999999997797,-1.999999999990898e-05,5.0000000000105516e-05,-0.0009712377047523257,1.9530752526142336e-05,-0.0009536757677858221
153000000000.0,4,-0.09515392495,0.05854570049999999,-0.28669741275,0.13925,-0.12115,-0.035335,0.15964245534999996,-4.915877511999999,-8.4840271145,0.018815,0.52508,-0.50273,-0.00019999999999997797,5.0000000000105516e-05,4.999999999988347e-05,-0.0007299589832859277,0.00013238148889072043,-0.0007992523644578808
153000000000.0,4,-0.07371658805,-0.0027556686499999998,-0.2685256903,0.1436,-0.11904,-0.049207,0.15122834965,-4.9279396915,-8.4771624595,0.017838,0.5265,-0.50328,-0.00019999999999997797,4.999999999988347e-05,9.999999999998899e-05,-0.001056228076716681,0.00042195367480180046,-0.000548670730780132
153000000000.0,4,-0.043561139299999996,-0.05598616484999999,-0.1382541517,0.12983,-0.10402,-0.044988,0.1441185284,-4.9391192725,-8.4708862035,0.017012,0.52781,-0.50394,-0.00019999999999997797,4.999999999988347e-05,9.999999999998899e-05,-0.0006879737096470162,0.0008905600189419438,-0.0002833283795182773
153000000000.0,4,-0.024251845449999997,-0.0897504608,-0.1016753472,0.10425,-0.086776,-0.023715,0.13783246575,-4.948141390499999,-8.465688679,0.016279,0.52888,-0.50431,-9.999999999998899e-05,5.0000000000105516e-05,1.2499999999970868e-05,-0.0007757431388183966,0.0012169135486310712,-0.00011438007636699332
153000000000.0,4,0.0179853961,-0.1634376289,-0.023800739549999998,0.080766,-0.070627,0.003968,0.13165427624999998,-4.955104111999999,-8.4616679525,0.015558,0.5297,-0.5045,-3.333333333332966e-05,5.0000000000105516e-05,1.2499999999970868e-05,-0.0007872772378395565,0.0017517899915242552,0.0002816085828740711
153000000000.0,4,0.06553784195,-0.16617368425,0.0525048041,0.047547,-0.069325,0.036998,0.12435812864999998,-4.9593209714999995,-8.4593143565,0.0147,0.53021,-0.50418,-3.333333333332966e-05,4.999999999988347e-05,1.2499999999970868e-05,-8.413499658221912e-05,0.0018731410331627174,0.0002904894315469697
153000000000.0,4,0.062105514449999996,-0.20802846644999998,0.0619191881,0.015207,-0.091468,0.067936,0.11402191954999999,-4.9608900355,-8.4585298245,0.013479,0.53039,-0.50359,-3.333333333332966e-05,-2.4999999999941735e-05,1.2499999999970868e-05,-0.00013848869462756985,0.001906982352210207,-0.00012080094605060321
153000000000.0,4,0.09013292014999999,-0.24801998514999998,0.06506712275,-0.017122,-0.12212,0.082878,0.10020434969999999,-4.9597132375,-8.459412423,0.011844,0.53025,-0.50265,-3.333333333332966e-05,-2.4999999999941735e-05,1.2500000000192912e-05,0.0002281630214112651,0.0011478407292537796,0.0002399466007551032
153000000000.0,4,0.11378655995,-0.22292476779999998,0.0710589859,-0.035367,-0.13476,0.083936,0.0846313895,-4.9565751095,-8.461373753,0.010002,0.52989,-0.50176,-3.333333333332966e-05,-2.500000000016378e-05,1.2499999999970868e-05,-0.00011012250402725465,0.0007981783809631882,6.688386039233052e-05
153000000000.0,4,0.059447912299999996,-0.17022383069999997,0.134351105,-0.031961,-0.11559,0.071098,0.0705882667,-4.953535048,-8.463335083,0.008341,0.52952,-0.5009,-3.333333333332966e-05,-2.4999999999941735e-05,1.2499999999970868e-05,-0.00022557940829742718,6.245056703058083e-05,-0.000160109089679894
153000000000.0,4,-0.03841264805,-0.0710785992,0.1907981824,-0.015502,-0.072012,0.049702,0.0607031635,-4.951769851,-8.464413814499999,0.007172,0.52932,-0.50036,-0.00019999999999997797,-5.0000000000105516e-05,1.2499999999970868e-05,-0.00036615959889385596,-0.00036631453003233005,-0.00010938019377870756
153000000000.0,4,-0.1245052284,0.00085317855,0.19328907149999996,0.01172,-0.024258,0.019779,0.05642746409999999,-4.9522601835,-8.4642176815,0.006666,0.52936,-0.50005,-0.00010000000000021103,-4.999999999988347e-05,9.999999999998899e-05,-0.0007701985119152877,-0.00029818533678604986,7.28949360540021e-06
153000000000.0,4,-0.14381452225,0.0112384209,0.1654577988,0.040962,0.012826,-0.007989,0.0571727695,-4.955300244999999,-8.4624524845,0.006756,0.52973,-0.50021,-0.00019999999999997797,-1.4285714285744433e-05,9.999999999998899e-05,-0.0012999215919724527,-0.0002204354806829567,-0.00023994550999684172
153000000000.0,4,-0.12603506579999998,0.0016279038999999999,0.12603506579999998,0.075253,0.021089,-0.02609,0.06034031744999999,-4.961184235,-8.4589220905,0.007133,0.53043,-0.50049,-9.999999999998899e-05,-1.4285714285744433e-05,0.00019999999999997797,-0.00136617257706928,0.0004212108371595136,-0.0004822779604902738
153000000000.0,4,-0.07856107315000001,-0.03649054465,0.12275964469999999,0.10817,0.000574,-0.028132,0.06269391345,-4.9701082864999995,-8.453724566,0.007417,0.53148,-0.50099,-0.00019999999999997797,-1.4285714285744433e-05,9.999999999998899e-05,-0.0018394267764265115,0.0009587886606485796,-0.000697303401811955
153000000000.0,4,-0.026134722249999996,-0.09524218479999999,0.11214884939999999,0.13543,-0.056136,-0.02158,0.0607031635,-4.9814840005,-8.446957977499999,0.007186,0.53283,-0.50129,-4.999999999988347e-05,-1.4285714285522388e-05,9.999999999998899e-05,-0.0019070073917585861,0.001850154823625827,-0.0009665409441881323
153000000000.0,4,0.04735631285,-0.1545135774,0.08812255689999998,0.15614,-0.12665,-0.007543,0.05245577084999999,-4.9946249115,-8.439210723999999,0.006216,0.53439,-0.5016,-5.0000000000105516e-05,-1.4285714285744433e-05,9.999999999998899e-05,-0.001767278459304522,0.0024977751843260343,-0.0008946817112376326
153000000000.0,4,0.08331729839999999,-0.17499966925,0.08742628474999999,0.15976,-0.19595,0.007528,0.037294689949999994,-5.008648420999999,-8.4310712045,0.004423,0.53604,-0.50158,-9.999999999998899e-05,-1.4285714285744433e-05,9.999999999998899e-05,-0.0014858648295032473,0.0018580605642477543,-0.0013182699734372028
153000000000.0,4,0.0750404858,-0.1670464761,0.0859258673,0.14976,-0.2417,0.015063,0.016985117799999998,-5.021789331999999,-8.423323951,0.002017,0.5376,-0.50154,-9.999999999998899e-05,-1.4285714285744433e-05,0.00010000000000021103,-0.001731307032719398,0.0012434899665692,-0.0010763711064274428
153000000000.0,4,0.08627890669999999,-0.17178308805,0.056290171,0.13259,-0.25861,0.010794,-0.0056290171,-5.033361179,-8.4163612295,-0.000669,0.53898,-0.50138,-5.0000000000105516e-05,-5.0000000000105516e-05,9.999999999998899e-05,-0.0009050453480147769,0.0007774339486645854,-0.0005389362626895267
153000000000.0,4,0.0356765927,-0.11104069794999999,0.06177208835,0.11579,-0.2265,0.006439,-0.0262425954,-5.043363961999999,-8.410379173,-0.003121,0.54017,-0.5014,-4.999999999988347e-05,-4.999999999988347e-05,4.999999999988347e-05,-0.0005409747127467224,-0.0007709213671949211,-0.0003098719765932678
153000000000.0,4,-0.031547993049999994,-0.0328718908,0.0757465646,0.091868,-0.1517,0.001996,-0.0410310236,-5.0516996144999995,-8.405279714999999,-0.004881,0.54116,-0.50136,-9.999999999998899e-05,-4.999999999988347e-05,5.0000000000105516e-05,0.00015276473821501657,-0.0014009401378201058,0.00017615171744700397
153000000000.0,4,-0.08420970354999999,-0.033107250399999996,0.0019809433,0.062858,-0.052349,-0.012106,-0.0471699865,-5.0575836044999996,-8.401749320999999,-0.005614,0.54186,-0.50156,-0.00019999999999997797,-5.0000000000105516e-05,9.999999999998899e-05,0.0003098787941615,-0.001994542156795287,0.00012075810715994617
153000000000.0,4,-0.12687843769999999,-0.0132193642,-0.004344345949999999,0.03387,0.0502,-0.025146,-0.043561139299999996,-5.0611139985,-8.399591857999999,-0.005186,0.54228,-0.50184,-2.4999999999941735e-05,-9.999999999998899e-05,4.999999999988347e-05,0.0008880801350139023,-0.0014548054660594723,0.00021922493877624127
153000000000.0,4,-0.12210259914999999,0.0060997363,0.0306163613,0.000285,0.11655,-0.030658,-0.03307783045,-5.0620946635,-8.399101525499999,-0.003938,0.54239,-0.50232,-2.500000000016378e-05,-0.00019999999999997797,5.0000000000105516e-05,0.0010705590529923037,-0.0007627167358417175,0.0001759013545261645
153000000000.0,4,-0.060536450449999994,-0.0691761091,0.03476457425,-0.025304,0.12209,-0.026443,-0.0208685512,-5.060721732499999,-8.399984124,-0.002484,0.54223,-0.50267,-2.4999999999941735e-05,-4.999999999988347e-05,9.999999999998899e-05,0.00018679680557415201,0.0004185723558591814,-0.00025968930567210613
153000000000.0,4,0.031626446249999995,-0.12068063489999999,0.0693722421,-0.04166,0.085977,-0.013599,-0.011581653649999999,-5.057681670999999,-8.401749320999999,-0.001378,0.54187,-0.50299,-2.4999999999941735e-05,-5.0000000000105516e-05,2.4999999999941735e-05,0.00013996250488484963,0.0004162561355216532,-0.0006627355905595156
153000000000.0,4,0.1057941402,-0.12933990685,0.11845452534999999,-0.035806,0.018795,-0.012403,-0.0077864801,-5.054739676,-8.4036125845,-0.000926,0.54152,-0.50314,-3.333333333332966e-05,-9.999999999998899e-05,2.4999999999941735e-05,-0.00042358379874363195,0.00044741099992773314,-0.0007631057564292387
153000000000.0,4,0.13902887705,-0.1028129186,0.1684978603,-0.014898,-0.041041,-0.021868,-0.00899269805,-5.0530725455,-8.4045932495,-0.00107,0.54133,-0.5035,-3.333333333332966e-05,-9.999999999998899e-05,2.500000000016378e-05,-0.0004972241348750739,0.0008049880093707884,-0.001002186750935996
153000000000.0,4,0.10813792955,-0.00414821295,0.22028677894999998,0.005149,-0.080614,-0.039909,-0.0134154972,-5.0532686785,-8.4043971165,-0.001596,0.54135,-0.5039,-3.333333333332966e-05,-9.999999999998899e-05,2.4999999999941735e-05,0.00010705612002037679,-0.000291678421345809,-0.0011032501354236723
153000000000.0,4,0.05243615755,0.0047660318999999994,0.14897282015,0.013673,-0.096644,-0.063349,-0.0187699281,-5.0544454765,-8.403710650999999,-0.002234,0.54148,-0.50468,-0.00019999999999997797,-0.00019999999999997797,5.0000000000105516e-05,-0.0003118061282418316,-0.00028996477573040025,-0.0014279718011482867
153000000000.0,4,-0.00752170055,0.00132389775,0.09036827974999999,0.008668,-0.075257,-0.095418,-0.02166288985,-5.055328074999999,-8.4032203185,-0.002577,0.54159,-0.50567,-0.00019999999999997797,-0.000300000000000189,4.999999999988347e-05,0.0010473313945668639,-0.0021302628399546553,-0.0019512525511162782
153000000000.0,4,-0.09028982655,-0.013837183149999998,0.0916529509,-0.002474,-0.028234,-0.13928,-0.0189464478,-5.0554261415,-8.403122252,-0.002255,0.5416,-0.50728,-0.00020000000000020002,-0.00029999999999996696,1.999999999990898e-05,0.0003854399975344869,-0.0024073944879867692,-0.002416826417100948
153000000000.0,4,-0.16703666944999998,-0.026291628649999996,0.08538650155,-0.021034,0.018858,-0.1917,-0.00938496405,-5.054151276999999,-8.403906784,-0.001117,0.54146,-0.50935,-0.00019999999999997797,-0.00039999999999995595,2.0000000000131024e-05,-2.14183532913359e-05,-0.0007423699836937026,-0.0016596783722372388
153000000000.0,4,-0.21140195404999998,-0.04989623519999999,0.0700390943,-0.047151,0.047912,-0.25691,0.006246836049999999,-5.0511112155,-8.405770047499999,0.000743,0.54109,-0.51228,-0.00029999999999996696,-0.00039999999999995595,1.999999999990898e-05,0.0009923088829156268,-0.0021554163204884347,-0.002808302394059492
153000000000.0,4,-0.22003180604999997,-0.11829761895,0.06049722385,-0.058358,0.073647,-0.32209,0.0275959131,-5.046698222999999,-8.408319776499999,0.003282,0.54057,-0.51586,-0.00029999999999996696,-0.00039999999999995595,2.0000000000131024e-05,0.00144254437881014,-0.002485253877096305,-0.002764679799874936
153000000000.0,4,-0.1941520567,-0.13593978229999998,0.12326959049999998,-0.062238,0.090781,-0.37229,0.053485469099999995,-5.0416968314999995,-8.4112617715,0.006359,0.53997,-0.52021,-0.00029999999999996696,-0.00039999999999995595,1.999999999990898e-05,0.0019213813165754878,-0.0035504518465141466,-0.003120850087618088
153000000000.0,4,-0.22031619889999998,-0.15613167465,0.1473154963,-0.054788,0.084339,-0.38187,0.0802576236,-5.036891572999999,-8.413909567,0.009538,0.5394,-0.52467,-0.00019999999999997797,-0.000400000000000178,5.0000000000105516e-05,0.00010730336656017414,-0.0010978877419784983,-0.0018169131819530948
153000000000.0,4,-0.24762771914999998,-0.183972754,0.15288567349999999,-0.03796,0.069257,-0.35727,0.10472521534999998,-5.033165046,-8.415870897,0.012443,0.53895,-0.52905,-9.999999999998899e-05,-0.00029999999999996696,4.999999999988347e-05,0.00030498330269274065,-0.0007091325407666549,-0.0014882371748041745
153000000000.0,4,-0.1809326925,-0.1853849116,0.18415908035,-0.023509,0.044567,-0.29849,0.12451503504999999,-5.030713383499999,-8.417047694999999,0.014793,0.53866,-0.53269,-4.999999999988347e-05,-0.00019999999999997797,-9.999999999998899e-05,0.0004129897646423242,-0.00019836613046320117,-0.0010249941021953646
153000000000.0,4,-0.08675943255,-0.19911422159999997,0.17286181955,-0.012475,0.006032,-0.21942,0.13747942635,-5.029242385999999,-8.417734160499998,0.016331,0.53849,-0.53561,-5.0000000000105516e-05,-0.00019999999999997797,-1.999999999990898e-05,-0.001215528162711088,0.0004902679437641666,-0.00046942316279752205
153000000000.0,4,0.03688281065,-0.23245683159999997,0.1486099741,-0.010044,-0.036702,-0.13288,0.14238275135,-5.0283597875,-8.418224492999999,0.016912,0.53838,-0.53736,9.999999999998899e-05,-0.00019999999999997797,-2.0000000000131024e-05,0.0008809030077573943,0.00016770874065352714,0.0002746399701567537
153000000000.0,4,0.13102665065,-0.22742602015,0.12794736255,-0.026616,-0.061152,-0.058145,0.14071562085,-5.026692657,-8.419205157999999,0.016712,0.53818,-0.53833,9.999999999998899e-05,-0.00019999999999997797,-1.999999999990898e-05,0.0013797138802054687,-0.00127434567678808,0.0006532313256379929
153000000000.0,4,0.1134825538,-0.15903444304999997,0.05727083599999999,-0.05224,-0.02584,0.002591,0.1373127133,-5.0230641965,-8.4214606875,0.016304,0.53776,-0.53843,5.0000000000105516e-05,-9.999999999998899e-05,-2.0000000000131024e-05,0.0014799068189111364,-0.0008647599246109916,0.0011345406846260397
153000000000.0,4,0.031018433949999997,-0.08582780079999999,0.0793750251,-0.071006,0.05632,0.046177,0.13777362585,-5.017866672,-8.424500749,0.016352,0.53714,-0.53808,4.999999999988347e-05,-9.999999999998899e-05,-1.999999999990898e-05,0.0011693485206555887,-0.0014164908823659506,0.0015312093606781874
153000000000.0,4,-0.0325384647,0.0018436501999999997,0.11332564739999999,-0.087471,0.14701,0.069471,0.1444715678,-5.011394283,-8.428227276,0.017139,0.53637,-0.53727,4.999999999988347e-05,-9.999999999998899e-05,-9.999999999998899e-05,8.80561245039102e-05,-0.0010295738818297817,0.0016993819755629636
153000000000.0,4,-0.06990180119999999,0.0793554118,0.03133224675,-0.09233,0.20991,0.074689,0.1566906537,-5.0042354284999995,-8.4322480025,0.01858,0.53552,-0.53647,5.0000000000105516e-05,-4.999999999988347e-05,2.4999999999941735e-05,0.0006856618591307706,-0.0008400024740036205,0.0013422092264588903
153000000000.0,4,-0.0684111904,0.06787182465,0.00871811185,-0.093193,0.23337,0.071444,0.17210670749999998,-4.996978507499999,-8.436268729,0.020398,0.53466,-0.53557,3.333333333332966e-05,-5.0000000000105516e-05,2.500000000016378e-05,0.0007689400987726525,-0.0001582841111538169,0.0007730854142748989
153000000000.0,4,-0.04347287945,0.05995785809999999,0.013376270599999998,-0.087019,0.20029,0.064041,0.18653228965,-4.990015785999999,-8.4400933225,0.022097,0.53384,-0.53487,3.333333333332966e-05,-9.999999999998899e-05,2.4999999999941735e-05,0.00010918307726476284,0.0013367526918037775,-0.0002473857713874983
153000000000.0,4,0.011905273099999999,0.020947004399999997,-0.023810546199999998,-0.067461,0.1053,0.055703,0.19474045569999998,-4.984524061999999,-8.443133384,0.023061,0.53319,-0.53417,3.333333333332966e-05,-0.00010000000000021103,2.4999999999941735e-05,-0.0007061750375796927,0.0009179179709466467,-0.00013456690055924092
153000000000.0,4,0.11509084439999999,-0.01228773245,-0.01705376435,-0.026748,-0.017563,0.038912,0.19390689044999998,-4.981974333,-8.4446043815,0.022958,0.53289,-0.53381,-4.999999999988347e-05,2.4999999999941735e-05,0.00019999999999997797,-0.0007964796955310383,0.0019484029185732332,-0.0006480705735183445
153000000000.0,4,0.16227063754999999,-0.04702288674999999,0.014523648649999998,0.026929,-0.11816,0.025306,0.18459057294999998,-4.9836414635,-8.443917916,0.021857,0.53308,-0.53349,-5.0000000000105516e-05,2.500000000016378e-05,9.999999999998899e-05,-0.001199138547043621,0.000690184309834807,-0.0006277825138457649
153000000000.0,4,0.15738692585,0.0050308114499999996,0.0517987253,0.076635,-0.17717,0.019092,0.16957659179999998,-4.989427387,-8.440779788,0.020087,0.53377,-0.53339,2.4999999999941735e-05,2.500000000016378e-05,0.00019999999999997797,-0.0009496046984159845,0.0009725694688726971,2.706458493229036e-05
153000000000.0,4,0.0820424339,0.012474058799999998,0.0033146476999999994,0.10647,-0.17955,0.023418,0.15288567349999999,-4.998155305499999,-8.4359745295,0.018121,0.5348,-0.53316,2.500000000016378e-05,2.4999999999941735e-05,9.999999999998899e-05,-0.0012468230150759485,0.0007755589610125568,0.00014464095381316877
153000000000.0,4,0.038255741649999994,-0.031077273849999996,-0.0205547384,0.11854,-0.13065,0.036161,0.13892100389999998,-5.007961955499999,-8.430384738999999,0.016477,0.53596,-0.53292,2.4999999999941735e-05,9.999999999998899e-05,0.00019999999999997797,-0.0009941291243065198,0.0006109742157398568,0.0008323131136842576
153000000000.0,4,0.014288289049999998,-0.04449277105,-0.007207887749999999,0.11459,-0.07735,0.055273,0.12876131449999997,-5.0177686055,-8.424696882,0.015283,0.53712,-0.53235,2.4999999999941735e-05,9.999999999998899e-05,0.00019999999999997797,-0.0013369977885459017,0.0004319126053993205,0.0010876041961424
153000000000.0,4,0.05226944449999999,-0.0730203159,-0.08719092514999999,0.098895,-0.027157,0.073303,0.1220535659,-5.0263003909999995,-8.4196954905,0.014495,0.53814,-0.53168,4.999999999988347e-05,9.999999999998899e-05,0.00019999999999997797,-0.0012324284704666733,-0.00043364502303400165,0.0011317534870429746
153000000000.0,4,0.09059383269999999,-0.06810718425,-0.07032348715,0.091761,0.022968,0.088147,0.11889582459999999,-5.0342437774999995,-8.414988298499999,0.014128,0.53908,-0.53071,5.0000000000105516e-05,9.999999999998899e-05,0.00020000000000020002,-0.001081808195890488,-7.323574103490493e-05,0.0011948264381693718
153000000000.0,4,0.0732164489,-0.04088392385,-0.02038802535,0.096276,0.059152,0.09663,0.11876833815,-5.0422852305,-8.41018304,0.014121,0.54004,-0.52976,5.0000000000105516e-05,9.999999999998899e-05,0.00029999999999996696,-0.001831762734558151,0.0001982087228520335,0.0005587456225375487
153000000000.0,4,0.08058124305,-0.01503359445,-0.0036480737999999998,0.10159,0.05591,0.096645,0.11933712384999999,-5.050817016,-8.405083582,0.014197,0.54105,-0.52868,4.999999999988347e-05,9.999999999998899e-05,0.00019999999999997797,-0.0010122813566981193,0.0007084577457017183,0.0001150805764063012
153000000000.0,4,0.11294318804999999,-0.017955976149999997,0.0005099458,0.10878,0.017495,0.091388,0.11749347365,-5.059839134,-8.3996899245,0.013987,0.54213,-0.52777,9.999999999998899e-05,9.999999999998899e-05,0.00019999999999997797,-0.0012504034200125358,0.0009039883803221294,0.0002663189742833083
153000000000.0,4,0.1660461978,-0.041384063,0.0209666177,0.11686,-0.042234,0.084035,0.11108973119999999,-5.069449650999999,-8.393904001,0.013233,0.54328,-0.52679,5.0000000000105516e-05,9.999999999998899e-05,0.00029999999999996696,-0.0012412946588506446,0.0011084854942868816,0.0005787052283561245
153000000000.0,4,0.16808598099999997,-0.07543275179999999,0.03115572705,0.12086,-0.081684,0.074505,0.10111636815,-5.0795505005,-8.3879219445,0.012054,0.54448,-0.52605,4.999999999988347e-05,9.999999999998899e-05,9.999999999998899e-05,-0.0014198041416411122,0.0001646396147498841,0.00022129823274541494
153000000000.0,4,0.12300481095,-0.07712930225,0.09878238545,0.11454,-0.077364,0.067015,0.09082919229999999,-5.0893571505,-8.382136021,0.010836,0.54565,-0.52526,9.999999999998899e-05,9.999999999998899e-05,0.00029999999999996696,0.0003654768663770569,-0.00040784042028341183,0.0008202407474322548
153000000000.0,4,0.04980797535,-0.06124252924999999,0.1056568471,0.093536,-0.039887,0.059441,0.0836703378,-5.097692802999999,-8.3771346295,0.009987,0.54664,-0.52469,9.999999999998899e-05,9.999999999998899e-05,9.999999999998899e-05,6.7918271128841745e-06,-0.000301989633561206,0.0009908216285854365
153000000000.0,4,0.0031185146999999996,-0.07030387384999999,0.0747070597,0.06415,0.017905,0.052883,0.08142461494999999,-5.103576792999999,-8.3736042355,0.009724,0.54734,-0.52407,9.999999999998899e-05,5.0000000000105516e-05,0.00019999999999997797,-0.00017287070669652627,0.00035402236511439256,0.0014756206351413947
153000000000.0,4,-0.01328801075,-0.11788573965,0.05085728689999999,0.027171,0.06403,0.053805,0.0834742048,-5.106518787999999,-8.371740972,0.00997,0.5477,-0.5236,9.999999999998899e-05,4.999999999988347e-05,9.999999999998899e-05,0.0002194505706428762,-0.0006747745181430176,0.0011462319737832738
153000000000.0,4,-0.06902900935,-0.14144131294999998,-0.0045698989,-0.012139,0.089924,0.060095,0.08774009754999999,-5.1063226550000005,-8.3718390385,0.010479,0.54767,-0.52293,0.00019999999999997797,9.999999999998899e-05,0.00010000000000021103,0.0009741822746662798,-0.0006630539923613288,0.0008188677959853896
153000000000.0,4,-0.09409480674999998,-0.15530791605,-0.07349103509999999,-0.048298,0.10514,0.061073,0.0934966011,-5.1029883940000005,-8.3738003685,0.011165,0.54727,-0.52235,0.00010000000000021103,9.999999999998899e-05,9.999999999998899e-05,0.0012834977221622412,-0.0006207412635388376,0.0011129240935511264
153000000000.0,4,-0.0779236409,-0.19340675129999998,-0.0386578143,-0.070597,0.11811,0.062079,0.10037106274999999,-5.09749667,-8.3771346295,0.011981,0.54661,-0.52163,9.999999999998899e-05,4.999999999988347e-05,9.999999999998899e-05,0.0012168365724778418,-0.0013053253733392722,0.0008536946236972209
153000000000.0,4,-0.078060934,-0.12961449305,-0.0067862018,-0.082314,0.12246,0.065254,0.10752991725,-5.0909262145,-8.380959223,0.01283,0.54583,-0.52104,9.999999999998899e-05,5.0000000000105516e-05,9.999999999998899e-05,0.0005871558570549884,-0.0011067859640945255,0.0011971422689147637
153000000000.0,4,-0.09435958629999999,-0.06476311659999999,0.0391481468,-0.072755,0.12025,0.069543,0.1145612853,-5.0848460915,-8.3845876835,0.013662,0.54511,-0.52024,0.00019999999999997797,9.999999999998899e-05,0.00029999999999996696,0.0006271179819830053,-0.0009617717636423162,0.001047534818285234
153000000000.0,4,-0.06538093554999999,-0.065508422,0.07348122844999999,-0.05783,0.12012,0.071704,0.12104348094999999,-5.079942766499999,-8.3875296785,0.014431,0.54452,-0.51953,9.999999999998899e-05,9.999999999998899e-05,0.00019999999999997797,-1.7822346675966383e-05,3.282869552401202e-05,0.0018070564175104442
153000000000.0,4,-0.0026674088,-0.0202605389,0.11697372119999999,-0.030153,0.11882,0.081361,0.1270157308,-5.0770988379999995,-8.3890987425,0.01514,0.54419,-0.51859,5.0000000000105516e-05,9.999999999998899e-05,0.00019999999999997797,-0.0004861674726828191,-0.00026848878249574604,0.0008587293856237022
153000000000.0,4,-0.0253207703,0.040207265,0.1328212676,0.004865,0.1036,0.095324,0.13126201024999998,-5.077294971,-8.3889026095,0.015646,0.54421,-0.51763,4.999999999988347e-05,0.000300000000000189,0.00029999999999996696,-0.002251826376481858,-0.00042311737258882154,0.0012564284802005776
153000000000.0,4,-0.0203193788,0.027693979599999998,0.06434143064999999,0.053831,0.081889,0.08691,0.1337430927,-5.0811195645,-8.3865490135,0.015946,0.54466,-0.51657,-2.4999999999941735e-05,0.00019999999999997797,0.00039999999999995595,-0.0020372466849074566,-7.662706460132007e-05,0.001333431808841934
153000000000.0,4,0.04969029555,0.07912985885,0.08375859764999999,0.11249,0.071826,0.076355,0.1357044227,-5.089749416499999,-8.381351489,0.01619,0.54569,-0.51579,-2.4999999999941735e-05,0.00019999999999997797,0.000300000000000189,-0.0030047723624177514,0.0008920543120449764,0.0010164306310809224
153000000000.0,4,-0.0414821295,0.16999827774999998,0.06253700705,0.16678,0.059656,0.079672,0.1368027675,-5.1029883940000005,-8.373310036,0.016337,0.54727,-0.5149,-2.500000000016378e-05,0.00019999999999997797,0.0004999999999999449,-0.0017851077145590866,0.00019433066574681135,0.001407304802596765
153000000000.0,4,-0.1102659726,0.1146005119,-0.015072821049999999,0.21457,0.041133,0.093664,0.1359986222,-5.120248098,-8.362718853999999,0.016261,0.54934,-0.51398,-2.4999999999941735e-05,0.00029999999999996696,0.00039999999999995595,-0.0025808893646029896,-0.00022258892284798826,0.0007217833873670587
153000000000.0,4,-0.10085158859999999,0.06324308584999999,-0.0494843559,0.26006,0.004514,0.10982,0.1315267898,-5.1413323955,-8.3498721425,0.015751,0.55186,-0.51277,-9.999999999998899e-05,0.00029999999999996696,0.00039999999999995595,-0.004558882675557263,0.0003479430719741661,0.0008479790150287547
153000000000.0,4,-0.08279754595000001,0.0729222494,-0.0753542986,0.30345,-0.02996,0.12703,0.12334804369999999,-5.165947087,-8.3347699015,0.014799,0.55481,-0.51149,-9.999999999998899e-05,0.00029999999999996696,0.0005999999999999339,-0.004469398047327489,0.001220522018679171,0.0006865641349717011
153000000000.0,4,-0.10096926839999999,0.06847983695,-0.08462158284999999,0.33412,-0.06006,0.13461,0.11204097625,-5.193405707,-8.317804397,0.013469,0.55811,-0.50998,-9.999999999998899e-05,0.00029999999999996696,0.000600000000000156,-0.0044553456091619426,0.0010232085066186336,0.0003474492158747067
153000000000.0,4,-0.13157582304999998,0.0757661779,-0.0657437816,0.36172,-0.080528,0.12936,0.09880199875,-5.223021789999999,-8.2994659615,0.011905,0.56167,-0.5086,-9.999999999998899e-05,0.00020000000000020002,0.0004999999999999449,-0.0038398730189200814,0.00042524957207978886,0.0008074905142453348
153000000000.0,4,-0.11934693049999999,0.08728899164999998,0.0013631243499999997,0.37565,-0.088079,0.10698,0.08582780079999999,-5.2537166045,-8.2802449275,0.010365,0.56537,-0.50732,-0.00020000000000020002,0.00029999999999996696,0.00039999999999995595,-0.0034796872206245277,0.0010136935483249232,0.0006503852762181905
153000000000.0,4,-0.1048919284,0.07439324689999999,0.09252574275,0.37265,-0.080565,0.078141,0.0746678331,-5.2843133525,-8.2608277605,0.009038,0.56907,-0.50647,-0.00019999999999997797,0.00019999999999997797,0.00029999999999996696,-0.0032152914112691944,0.00024355311936674617,-6.184906769723941e-05
153000000000.0,4,-0.090025047,0.0642727841,0.20241906264999998,0.35683,-0.072949,0.05355,0.06534170895,-5.3137333025,-8.2419989925,0.007927,0.57263,-0.5058,-9.999999999998899e-05,9.999999999998899e-05,0.000400000000000178,-0.0027932919024500347,-0.0009129653997075327,-0.00028319828894196597
153000000000.0,4,-0.0441103117,0.01932890715,0.3012014481,0.32495,-0.072659,0.026809,0.057427742399999995,-5.3406035235,-8.224641221999999,0.006982,0.5759,-0.50555,-9.999999999998899e-05,9.999999999998899e-05,0.00019999999999997797,-0.0017502857639327685,0.00018104787558614888,-0.0003417791233385481
153000000000.0,4,0.040246491599999996,-0.0356373661,0.39535509474999997,0.27922,-0.066934,0.006439,0.05118090634999999,-5.364041417,-8.2094409145,0.006234,0.57875,-0.50544,4.999999999988347e-05,9.999999999998899e-05,9.999999999998899e-05,-0.0011996347118055084,-0.00020211236178568903,2.3587522408385908e-05
153000000000.0,4,0.1285651815,-0.05418174125,0.46003975815,0.21854,-0.054705,-0.001159,0.0463658412,-5.382772118499999,-8.197182602,0.005656,0.58103,-0.50558,5.0000000000105516e-05,-7.500000000004725e-05,9.999999999998899e-05,-0.000157067388180665,-0.0007415328408331145,0.0003197258766470812
153000000000.0,4,0.1122469159,-0.0975369409,0.44303502705,0.15263,-0.023261,0.000806,0.04366901245,-5.3961091625,-8.1884546835,0.005334,0.58266,-0.50559,9.999999999998899e-05,-7.49999999998252e-05,-9.999999999998899e-05,0.00047166748768157074,-0.0005446364515653279,0.0009040255153062171
153000000000.0,4,0.11341390725,-0.11479664489999998,0.46192263494999997,0.07729,0.028507,0.001651,0.04474774395,-5.403562216499999,-8.183551358499999,0.005468,0.58357,-0.50572,0.00019999999999997797,-7.500000000004725e-05,-9.999999999998899e-05,0.0015004133065608105,-0.0005514772024852732,0.0010396289322944785
153000000000.0,4,0.13388038579999997,-0.10292079175,0.45872566704999995,-0.003402,0.083507,0.011021,0.0498766219,-5.404444815,-8.182864893,0.006095,0.58369,-0.50561,0.00020000000000020002,-7.500000000004725e-05,-0.00029999999999996696,0.00322333877446912,-0.0012923044868049516,-0.0010872261331515976
153000000000.0,4,0.13216422204999997,-0.1573575059,0.44738917964999997,-0.090611,0.12577,0.022537,0.058173047799999995,-5.3986588915,-8.1866894865,0.007106,0.58298,-0.50548,0.00019999999999997797,-0.00019999999999997797,-0.00020000000000020002,0.0021891372569954326,-0.0015385462518728854,-0.0009597425193065279
153000000000.0,4,0.1604564073,-0.20200718334999998,0.43073748794999994,-0.16949,0.14134,0.029844,0.06774433819999999,-5.386400578999999,-8.194632873,0.008267,0.58147,-0.50511,0.00039999999999995595,-4.999999999988347e-05,-0.00029999999999996696,0.0016163627741210274,-0.0004887955710610736,0.0018529632953450115
153000000000.0,4,0.17293046609999999,-0.18002067404999997,0.40608356985,-0.2207,0.14389,0.032953,0.07771770125,-5.3692389415,-8.205812453999998,0.009471,0.57939,-0.5048,0.00029999999999996696,-5.0000000000105516e-05,-0.00029999999999996696,0.003319321082067561,-0.0009827658126260186,0.00037712325919903034
153000000000.0,4,0.18188393754999999,-0.16373182839999997,0.4168414649,-0.24204,0.14406,0.033983,0.08791661725,-5.350115974,-8.218168833,0.010697,0.57706,-0.50438,0.00039999999999995595,-9.999999999998899e-05,-0.00019999999999997797,0.0012909448628201092,-6.451461084755472e-05,0.0006646050964124184
153000000000.0,4,0.11582634315,-0.11915079749999999,0.3986599358,-0.23467,0.13653,0.041481,0.09725254805,-5.3309930065,-8.230525212,0.011816,0.57473,-0.50401,0.00039999999999995595,9.999999999998899e-05,-0.00029999999999996696,0.0012857526328242663,0.0004407198062552631,0.0015314508520367642
153000000000.0,4,0.0641943309,-0.08670059264999999,0.37554566175,-0.20393,0.12028,0.056507,0.10490173504999999,-5.314027502,-8.2414105935,0.012728,0.57267,-0.50336,0.000400000000000178,9.999999999998899e-05,-0.00039999999999995595,0.0007282892837331412,0.0010560385429985164,0.0012674837443654718
153000000000.0,4,0.051769305349999996,-0.06687154635,0.36703348955,-0.16591,0.081586,0.073719,0.10894207485,-5.3002001255,-8.2502365785,0.013203,0.57099,-0.50263,0.00039999999999995595,4.999999999988347e-05,-0.00019999999999997797,0.0005588988721961785,0.0009511106308530692,0.0010847578131630842
153000000000.0,4,0.052230217899999994,-0.07094130609999999,0.29532726475,-0.12806,0.026908,0.095229,0.10772605025,-5.289510877,-8.2571012335,0.013046,0.5697,-0.50155,0.00039999999999995595,5.0000000000105516e-05,-0.000300000000000189,0.00019844720577899544,0.0012680711952328672,0.000841585504025355
153000000000.0,4,0.07067652655,-0.10307769815,0.222807088,-0.096555,-0.022392,0.11779,0.10095946174999999,-5.281665556999999,-8.262200691499999,0.012219,0.56875,-0.50033,0.0004999999999999449,9.999999999998899e-05,-0.00019999999999997797,0.0010180531468049203,0.0006097232749531223,0.0010182297293577225
153000000000.0,4,0.041844975549999996,-0.1292124204,0.15366039885,-0.063686,-0.04186,0.13069,0.0911822317,-5.2764680325,-8.265633019000001,0.011031,0.56812,-0.4988,0.00029999999999996696,4.999999999988347e-05,-0.00019999999999997797,-0.000504838878813918,0.0012423423788254784,0.00045740753596479333
153000000000.0,4,0.007453054,-0.11353158705,0.17058667675,-0.020944,-0.033688,0.13075,0.0814344216,-5.2745067025,-8.26700595,0.00985,0.56788,-0.49738,0.000400000000000178,5.0000000000105516e-05,-9.999999999998899e-05,-0.0005109737577561058,0.00021930614949017269,0.0008931154574719491
153000000000.0,4,-0.023888999399999996,-0.05035714775,0.2273377603,0.015453,-0.015874,0.13398,0.0731183824,-5.2756835005,-8.266319484499999,0.008845,0.56803,-0.49581,0.00029999999999996696,0.00019999999999997797,-0.00029999999999996696,-0.001613682057331589,0.0010018751677332016,0.0012604934778839283
153000000000.0,4,-0.03525490675,-0.0351666469,0.2001733398,0.042055,-0.021427,0.13937,0.0645865969,-5.2792138945,-8.264162021499999,0.007815,0.56845,-0.49435,0.00039999999999995595,9.999999999998899e-05,-9.999999999998899e-05,0.00013481915277790968,0.0014030918142748927,0.0008590386479612189
153000000000.0,4,-0.00854159215,-0.06993122115,0.1634572422,0.057911,-0.035418,0.1469,0.05447594075,-5.2841172195,-8.26112196,0.006594,0.56905,-0.49264,0.0004999999999999449,9.999999999998899e-05,-0.00019999999999997797,-0.0008381476001543264,0.0018700719635196261,0.0016065189978177186
153000000000.0,4,0.01458248855,-0.07701162245,0.21723691080000002,0.069472,-0.04938,0.15975,0.042580474300000004,-5.2901973425,-8.2572973665,0.005157,0.56978,-0.49093,0.0004999999999999449,9.999999999998899e-05,-0.00029999999999996696,-0.0007697715960395257,0.0017476567301704105,0.0016296536343283208
153000000000.0,4,-0.01854437515,-0.07029406719999999,0.2628574466,0.072523,-0.063267,0.16832,0.029017877349999995,-5.296571665,-8.2531785735,0.003516,0.57056,-0.48898,0.000500000000000167,-2.4999999999941735e-05,-0.00019999999999997797,-0.0006196926860682073,0.0013594112766046607,0.0014207379166852885
153000000000.0,4,-0.0172793173,-0.08460196954999999,0.29836732625,0.06595,-0.081334,0.17368,0.013837183149999998,-5.3026517879999995,-8.249353979999999,0.001677,0.57129,-0.48706,0.0004999999999999449,-2.4999999999941735e-05,-0.000300000000000189,-0.0009534722939585905,0.0018766087699004785,0.000202340383290478
153000000000.0,4,-0.008708305199999999,-0.13753826624999999,0.27128135895,0.049748,-0.10784,0.17049,-0.0034127142,-5.30735898,-8.246411985,-0.000414,0.57186,-0.48516,0.0004999999999999449,-2.500000000016378e-05,-0.00039999999999995595,-0.0013184578216021148,0.0023287160598794987,0.00037619160546342734
153000000000.0,4,-0.007198081099999999,-0.1635356954,0.2967884556,0.034696,-0.12689,0.16303,-0.02213360905,-5.310693241,-8.2441564555,-0.002685,0.57226,-0.48322,0.0004999999999999449,-2.4999999999941735e-05,-0.0004999999999999449,0.00041210976955652345,0.002385445310974399,-0.00018087382597753443
153000000000.0,4,-0.0206920315,-0.14780582879999998,0.39401158369999995,0.01424,-0.15122,0.1609,-0.04245298785,-5.312458437999999,-8.2429796575,-0.00515,0.57248,-0.48142,0.000400000000000178,-9.999999999998899e-05,-0.00039999999999995595,0.001478394089417523,0.0018985058780824904,0.0004374033588373516
153000000000.0,4,-0.0791396655,-0.1278983293,0.35602062160000003,-0.026476,-0.17539,0.1566,-0.06481214985,-5.31128164,-8.2435680565,-0.007862,0.57234,-0.47954,0.0005999999999999339,-9.999999999998899e-05,-0.0004999999999999449,0.001563717938254272,0.0015758353522521418,0.00013833984690980738
153000000000.0,4,-0.1206414083,-0.1148947114,0.31421487265,-0.076479,-0.16751,0.1437,-0.08660252615,-5.306182182,-8.246706184499999,-0.010501,0.57172,-0.47794,0.0004999999999999449,-0.00029999999999996696,-0.000700000000000145,0.0026741013165798577,0.0010377751373520372,0.0004896456785639103
153000000000.0,4,-0.17094952279999998,-0.0568001168,0.33449502485,-0.13899,-0.12648,0.12217,-0.10453888899999998,-5.296179399,-8.252884373999999,-0.012666,0.57051,-0.47646,0.0004999999999999449,-0.00029999999999996696,-0.0006999999999999229,0.0034793609929585356,-0.0006153648231175257,0.0005458959841283528
153000000000.0,4,-0.2304366617,-0.04231569475,0.21442240224999998,-0.21733,-0.067192,0.089904,-0.1164245488,-5.280194559499999,-8.2629852235,-0.014089,0.56857,-0.47546,0.000500000000000167,-0.000400000000000178,-0.0006999999999999229,0.0029924137035637344,-0.0005159105106504747,0.0004886640696544209
153000000000.0,4,-0.30743847750000003,-0.08520017519999999,0.04681694709999999,-0.29333,0.009134,0.049076,-0.12022952899999999,-5.2577373309999995,-8.277204866,-0.014524,0.56586,-0.47481,0.00029999999999996696,-0.00039999999999995595,-0.000600000000000156,0.0037903065473134934,-0.00036713264942966894,-0.00012569189162459082
153000000000.0,4,-0.3779090644,-0.02213360905,-0.0511514864,-0.35223,0.089589,0.004,-0.11500258455,-5.230180644499999,-8.2947587695,-0.013863,0.56253,-0.47482,0.00019999999999997797,-0.0004999999999999449,-0.0005999999999999339,0.005083077800852376,-0.0017279041561630848,-0.0005301076437405072
153000000000.0,4,-0.39046157639999995,-0.0062958693,-0.10144979424999999,-0.38995,0.14855,-0.038865,-0.10199896665,-5.1989954974999995,-8.314470136,-0.012267,0.55878,-0.47524,0.00039999999999995595,-0.00039999999999995595,-0.0004999999999999449,0.004169553745231758,-0.0007664942462610735,0.0006219023972735549
153000000000.0,4,-0.32737539695,-0.040491657849999994,-0.1809523058,-0.40352,0.17319,-0.06028,-0.08487655574999999,-5.1664374195,-8.334966034499999,-0.010183,0.55487,-0.47608,0.00029999999999996696,-0.00029999999999996696,-0.000500000000000167,0.0043996737355664894,-0.0008397703208007368,0.0004809983139835161
153000000000.0,4,-0.26053327055,-0.07864933299999999,-0.21667793175,-0.38332,0.16769,-0.053831,-0.06761685175,-5.1348600065,-8.354579334499999,-0.008094,0.55109,-0.4768,0.000400000000000178,-0.00029999999999996696,-0.0004999999999999449,0.0030156672972637133,0.0004037596916492969,0.0005236234591360356
153000000000.0,4,-0.16519301925,-0.1110505046,-0.2001341132,-0.34322,0.12897,-0.02594,-0.054466134099999994,-5.1060284555,-8.372329371,-0.006506,0.54764,-0.47732,0.00019999999999997797,-0.00020000000000020002,-0.00039999999999995595,0.0014835537519200526,0.00028729419108386445,0.0002444861568879908
153000000000.0,4,-0.08495500895,-0.08040472335,-0.23014246219999998,-0.2863,0.065591,0.012697,-0.04821929805,-5.081609897,-8.3871374125,-0.005749,0.54473,-0.47728,0.00029999999999996696,-0.00019999999999997797,-0.00029999999999996696,-0.0003644775629403352,0.0009458633086756318,0.0003188061269900899
153000000000.0,4,-0.029498403199999995,-0.08010071719999999,-0.24718641989999998,-0.21228,0.004208,0.04709,-0.049219576349999995,-5.062781129,-8.398611192999999,-0.00586,0.54248,-0.4769,0.00019999999999997797,-9.999999999998899e-05,-9.999999999998899e-05,-0.0001295605093999952,0.0010751299622533406,1.3193762626984018e-05
153000000000.0,4,-0.01442558215,-0.0219865093,-0.19692733865,-0.13165,-0.040166,0.066521,-0.055603705499999996,-5.050620883,-8.405868114,-0.006614,0.54103,-0.47614,9.999999999998899e-05,-9.999999999998899e-05,-0.00019999999999997797,-0.0004157303341319474,0.0015567327307821621,-7.570763205444475e-05
153000000000.0,4,-0.05327952945,0.0983999261,-0.15907366964999997,-0.0626,-0.075902,0.069906,-0.0656849417,-5.0442465604999995,-8.409594641,-0.007811,0.54027,-0.47538,0.00019999999999997797,-0.00019999999999997797,-9.999999999998899e-05,-0.00015831136761196296,0.0007164548667164539,-0.0002986485258429372
153000000000.0,4,-0.031420506599999995,0.09097629205,-0.16744854874999998,-0.017974,-0.10503,0.060428,-0.07810996725,-5.041991031,-8.4108695055,-0.009287,0.54001,-0.47458,9.999999999998899e-05,-9.999999999998899e-05,-9.999999999998899e-05,-0.00021146592705123535,0.00032255162739391885,-0.00019837574718895024
153000000000.0,4,-7.845319999999999e-05,0.0020692031499999998,-0.19745689775,0.009818,-0.10951,0.043406,-0.09060363935,-5.0424813635,-8.410477239499999,-0.010772,0.54006,-0.47407,5.0000000000105516e-05,-9.999999999998899e-05,-9.999999999998899e-05,-0.0001384032175759664,0.00029119544917599605,-0.0002704891610427751
153000000000.0,4,-0.0042855060499999995,0.01701453775,-0.1397447625,0.025161,-0.073377,0.019886,-0.09941981769999998,-5.044344626999999,-8.409202375,-0.011822,0.54029,-0.47374,4.999999999988347e-05,-9.999999999998899e-05,-0.00010000000000021103,-0.0005499743100806365,-0.0001607218574410929,-3.2520939388991366e-05
153000000000.0,4,-0.021103910799999997,0.05045521425,-0.04963145565,0.028891,-0.020105,-0.00155,-0.10264620555,-5.0469924225,-8.4075352445,-0.012208,0.5406,-0.47379,9.999999999998899e-05,-0.00019999999999997797,-4.999999999988347e-05,3.197147831407454e-05,-0.0007256037142857608,1.269345432419744e-05
153000000000.0,4,0.00885540495,0.018152109149999998,-0.03313667035,0.02081,0.024737,-0.020856,-0.1007339088,-5.0489537525,-8.406456513,-0.011982,0.54083,-0.47398,9.999999999998899e-05,-9.999999999998899e-05,-5.0000000000105516e-05,0.0010179816353647064,-0.0005790664205755913,-0.00021565534066791958
