Time,placement_label,user_acc_x(m/s^2),user_acc_y(m/s^2),user_acc_z(m/s^2),rotation_rate_x(rad/s),rotation_rate_y(rad/s),rotation_rate_z(rad/s),gravity_x(m/s^2),gravity_y(m/s^2),gravity_z(m/s^2),attitude_roll(rad),attitude_pitch(rad),attitude_yaw(rad),target_delta_x,target_delta_y,target_delta_z,target_delta_roll,target_delta_pitch,target_delta_yaw
153000000000.0,4,0.05449555405,0.24735313294999997,0.41024158945,0.2077,-0.079014,0.40744,-0.0751385523,-5.232632307,-8.293581971499998,-0.00906,0.56283,-1.4657,0.0,0.0,0.0,0.0,0.0,0.0
153000000000.0,4,0.06623411409999999,0.25435508105,0.4482815848,0.29336,-0.040292,0.40752,-0.10274427205,-5.255089535499999,-8.2790681295,-0.01241,0.56554,-1.4607,0.00017000000000000348,0.00019999999999997797,-0.00029999999999996696,-0.004838623806540987,0.00188191127805859,0.004060247549025786
153000000000.0,4,0.06374322499999999,0.19428934979999998,0.5220570127499999,0.33957,0.00727,0.41712,-0.12478962125,-5.2825481555,-8.261318093,-0.015104,0.56886,-1.456,0.00014999999999998348,0.00010000000000021103,-0.00019999999999997797,-0.002548235036011981,0.0002702937550753681,0.003127301577839914
153000000000.0,4,0.1660461978,0.028988457399999997,0.54159185955,0.36014,0.04227,0.41283,-0.1434516762,-5.3113797065,-8.242489325,-0.017402,0.57235,-1.451,4.999999999999449e-05,0.00019999999999997797,-0.00039999999999995595,-0.0027962969615602518,0.0005970874544545257,0.0032074379440002465
153000000000.0,4,0.25313905644999996,0.0056486304,0.5395422697,0.34227,0.05524,0.37968,-0.15917173615,-5.338544127,-8.224641221999999,-0.01935,0.57566,-1.4465,-5.999999999994898e-05,0.00010000000000021103,-0.0004999999999999449,-0.0012835028133107995,0.0012492182374410632,0.0020682747395163736
153000000000.0,4,0.33705456049999993,0.01707337765,0.34800858854999994,0.27312,0.04202,0.31875,-0.17244994025,-5.360903289,-8.209833180499999,-0.021002,0.57837,-1.4425,-0.00012000000000000899,-3.333333333355171e-05,-0.000500000000000167,0.00041665770545140646,0.0010194369064235875,0.0016923704685907759
153000000000.0,4,0.37659497329999997,-0.04412992499999999,0.18225659025,0.17094,0.023759,0.24068,-0.18311957545,-5.375613263999999,-8.200026530499999,-0.022328,0.58016,-1.4396,-7.00000000000145e-05,-3.333333333310762e-05,-0.0006999999999999229,-0.0005292531694404135,0.0011548626172834808,0.0003652062608178186
153000000000.0,4,0.35934507595,-0.153179873,0.1701846041,0.065519,0.007648,0.17328,-0.19159252104999996,-5.382085653,-8.195515471499998,-0.023374,0.58095,-1.4374,-8.500000000000174e-05,-3.333333333355171e-05,-0.0006999999999999229,0.0015148516296756842,0.0004783377779864484,0.0011726876917616536
153000000000.0,4,0.32105010770000003,-0.2587582669,0.13567500275,-0.039009,-0.014887,0.12938,-0.1990946083,-5.380320456,-8.1964961365,-0.024286,0.58074,-1.436,-8.500000000000174e-05,-9.999999999976694e-05,-0.0008000000000001339,0.0037988337391957616,0.00047620141769755264,0.0007529132735732413
153000000000.0,4,0.2737232148,-0.3151072778,0.076688003,-0.13716,-0.023652,0.11321,-0.20638094925,-5.370513806,-8.2027723925,-0.025155,0.57954,-1.4347,-0.00019000000000002348,-0.000300000000000189,-0.0008999999999999009,0.0026789913877691696,0.0011224387604098496,-0.00015892272327272527
153000000000.0,4,0.18918989179999998,-0.35173511555000003,0.00556037055,-0.22148,-0.024036,0.12267,-0.21417723599999997,-5.353842501,-8.213461640999999,-0.02607,0.57751,-1.4336,-0.00012999999999996348,-0.000300000000000189,-0.000700000000000145,0.0030508843185963475,0.0023035869969563194,0.0005761092750503627
153000000000.0,4,0.14477557394999999,-0.45597980504999996,-0.08052240314999999,-0.28782,-0.036295,0.13966,-0.22318954735,-5.331875605,-8.2274851505,-0.027121,0.57484,-1.4322,-0.00024000000000001798,-0.00019999999999997797,-0.0006999999999999229,0.0028464874973898047,0.0026251418170992746,0.00023455841280267675
153000000000.0,4,0.10109675485,-0.5104557458,-0.1573575059,-0.32855,-0.05834,0.14283,-0.23367285619999997,-5.306280248499999,-8.2437641895,-0.028338,0.57173,-1.4309,-0.00021000000000004349,-0.00019999999999997797,-0.0006999999999999229,0.0037331364389866506,0.0008559122328095636,0.0007409308966825345
153000000000.0,4,0.0375986961,-0.45387137529999994,-0.19430896309999998,-0.33935,-0.084874,0.12578,-0.24499953695,-5.278919695,-8.260925827,-0.029649,0.56842,-1.4296,-0.00025999999999992696,-9.999999999976694e-05,-0.000500000000000167,0.0020643355485099324,0.0010992164539924687,-1.4259637248159596e-05
153000000000.0,4,-0.03264633785,-0.4032886746,-0.1685370869,-0.32012,-0.096721,0.099145,-0.25585549849999994,-5.2527359395,-8.2773029325,-0.030901,0.56525,-1.4288,-0.00042000000000008697,-0.00010000000000021103,-0.0005999999999999339,0.0013396734200433746,0.0015141255477744142,-0.00018594241566699532
153000000000.0,4,-0.07842378005,-0.3584330575,-0.22353278009999997,-0.2836,-0.088461,0.06397,-0.26483838989999997,-5.229886445,-8.291424508499999,-0.031931,0.5625,-1.4282,-0.00046999999999997044,-9.999999999976694e-05,-0.00039999999999995595,0.0036513697243996113,-0.0005375617310039438,-0.0006711792909228076
153000000000.0,4,-0.1077554702,-0.24711777335,-0.27715554229999995,-0.23833,-0.061076,0.013832,-0.2697809415,-5.21125381,-8.303094422,-0.03248,0.56025,-1.4284,-0.00039999999999995595,-4.999999999988347e-05,-0.00019999999999997797,0.0020642576363413268,0.0013637905424230823,-0.002093673140048824
153000000000.0,4,-0.10292079175,-0.16185875824999998,-0.29485654554999996,-0.19293,-0.021965,-0.041663,-0.26908466934999997,-5.196543835,-8.312312673,-0.03236,0.55848,-1.4289,-0.0004899999999999904,-5.000000000032756e-05,-0.00029999999999996696,0.0015996982151933459,-0.000638812094572172,-0.0011372077097293043
153000000000.0,4,-0.08927974159999999,-0.13520428355,-0.31888283804999995,-0.15489,0.031052,-0.092925,-0.2620729146,-5.184971987999999,-8.319667660499999,-0.03149,0.5571,-1.4303,-0.000500000000000056,0.00019999999999997797,-0.00019999999999997797,0.0001503601567062196,-0.0033231465060505894,-0.0005432796014196994
153000000000.0,4,-0.07946328495,-0.1059314333,-0.29387588054999997,-0.12224,0.086236,-0.13353,-0.24868683735,-5.1762440695,-8.3255516505,-0.029862,0.55605,-1.4318,-0.0005699999999999594,0.00019999999999997797,-0.00019999999999997797,3.7940866353114444e-06,-0.0035711269111453614,-0.000637330235415734
153000000000.0,4,-0.030890947499999998,-0.1125607287,-0.2273966002,-0.076836,0.14237,-0.1645,-0.22918141049999996,-5.170850411999999,-8.329474310499998,-0.027508,0.55539,-1.434,-0.0005100000000000104,0.00019999999999997797,1.2499999999970868e-05,-0.0006814721241474864,-0.0022434767170909087,-9.273844598156611e-05
153000000000.0,4,-0.00936535075,-0.10741223744999999,-0.1498063854,-0.018771,0.18667,-0.18369,-0.2049197584,-5.1695755475,-8.330945308,-0.024593,0.55524,-1.4362,-0.0005600000000000049,0.00010000000000021103,1.2499999999970868e-05,-1.9508707741922038e-05,-0.0028324815419873417,-0.0005970391884878579
153000000000.0,4,0.0167301449,-0.10824580269999999,-0.1440793018,0.034669,0.19901,-0.18149,-0.17923614205,-5.172615609,-8.329572377,-0.021515,0.55561,-1.4386,-0.0004899999999999904,0.00019999999999997797,1.2499999999970868e-05,0.0003288144313488006,-0.0006003559721108331,-0.0011281468150334817
153000000000.0,4,0.15381730525,-0.16476152665,-0.11470838505,0.077114,0.16989,-0.18136,-0.15546482244999998,-5.179087998,-8.326041983,-0.01867,0.55639,-1.4407,-0.00041999999999997595,9.999999999976694e-05,1.2500000000192912e-05,-0.0011767784671165016,0.00015497880521819773,-0.0014531173176173806
153000000000.0,4,0.2974160812,-0.197898197,-0.0769429759,0.10429,0.10147,-0.17906,-0.13670470099999998,-5.18771785,-8.3210405915,-0.016427,0.55742,-1.443,-0.0003500000000000725,0.00010000000000021103,1.2499999999970868e-05,-0.001702850477265705,-0.002227278497378249,-0.0008875588597969108
153000000000.0,4,0.35265694065,-0.20155607744999998,-0.09323182155,0.10996,0.012972,-0.17356,-0.12551531335,-5.1970341675,-8.3153527345,-0.015093,0.55855,-1.445,-0.00039000000000000146,9.999999999976694e-05,1.2499999999970868e-05,-0.0008635077702041638,-0.0017027808824998658,-0.0011702856339795842
153000000000.0,4,0.33198452245,-0.22234617544999996,-0.08379782425,0.095619,-0.037007,-0.15962,-0.11994513614999999,-5.2052717535,-8.3102532765,-0.014433,0.55954,-1.4471,-0.00031999999999998696,0.00010000000000021103,1.2499999999970868e-05,-0.0012517772347261369,-0.0011956368338217338,-0.00046559320261557735
153000000000.0,4,0.26762347849999996,-0.20198757004999998,-0.012395605599999998,0.077408,-0.031553,-0.13618,-0.11634609559999999,-5.212038342,-8.3061344835,-0.014006,0.56035,-1.4487,-0.00036999999999998145,0.00010000000000021103,1.2499999999970868e-05,0.00042169457976537483,-0.0008583700996638299,-0.0007543554741856751
153000000000.0,4,0.19198478705,-0.20180124369999997,0.0727457297,0.057366,0.014404,-0.10854,-0.11057978539999999,-5.2171378,-8.3029963555,-0.013318,0.56097,-1.4503,-0.00032999999999994145,-3.333333333355171e-05,-3.333333333332966e-05,0.00038481840059667594,-0.00047980465191743704,-0.00033987007941177483
153000000000.0,4,0.20385083355,-0.26555427535,0.11359042694999999,0.033039,0.058265,-0.080907,-0.10239123265,-5.220472061,-8.3010350255,-0.012335,0.56136,-1.4513,-0.000300000000000078,-3.333333333310762e-05,-3.333333333332966e-05,0.00036037852421177963,-0.001030706043515739,-0.0001891238951325369
153000000000.0,4,0.2545414074,-0.29977948385,0.12412276905,0.001105,0.077688,-0.06285,-0.09278071565,-5.221256593,-8.3006427595,-0.011177,0.56146,-1.4523,-0.00030999999999992145,-3.333333333355171e-05,-3.333333333332966e-05,0.00046989292342314304,-7.422016316538382e-05,0.00028682665964330223
153000000000.0,4,0.2952193916,-0.2841574904,0.1237010831,-0.034322,0.057721,-0.051134,-0.08422931684999999,-5.2191971965,-8.3020156905,-0.010145,0.56121,-1.453,-0.000200000000000089,-4.999999999988347e-05,-0.00010000000000021103,-0.00046944147144467596,-0.0001342426679951103,-0.00027574950380898633
153000000000.0,4,0.31476404505,-0.2885900962,0.17848102999999998,-0.057017,0.028055,-0.038312,-0.07803151405,-5.2152745365,-8.3045654195,-0.009396,0.56073,-1.4538,-0.00024000000000001798,-5.000000000032756e-05,-9.999999999998899e-05,0.00024961599863448924,1.5832768090140448e-05,-0.00025680829142027406
153000000000.0,4,0.30076995549999996,-0.3009857018,0.24516625,-0.059371,0.007816,-0.026539,-0.07391272105,-5.210665411,-8.3075074145,-0.008897,0.56017,-1.4542,-0.00020999999999993246,-0.00019999999999997797,-9.999999999998899e-05,0.0014840503462552057,0.0006489293343487912,-0.0005726895770770124
153000000000.0,4,0.3364857748,-0.24307743355,0.24367563919999996,-0.053161,-0.011414,-0.023294,-0.07161796494999999,-5.206546617999999,-8.3100571435,-0.008619,0.55969,-1.4549,-0.000260000000000038,-9.999999999976694e-05,-5.0000000000105516e-05,0.0020247649901249387,0.0019022438587648072,-0.0015680422877104583
153000000000.0,4,0.36931843899999994,-0.16301594295,0.13773439925,-0.050238,-0.048729,-0.027492,-0.0721377174,-5.203016224,-8.312312673,-0.008679,0.55926,-1.4553,-0.00024000000000001798,-0.00010000000000021103,-4.999999999988347e-05,0.00030490174457065145,0.000987121628109655,-0.0012305336282129598
153000000000.0,4,0.3661705043499999,-0.1547685503,0.0323423317,-0.054793,-0.089179,-0.033833,-0.0761780572,-5.1993877635,-8.314470136,-0.009162,0.55883,-1.456,-0.00017999999999995797,-9.999999999976694e-05,1.999999999990898e-05,0.0003887170855799704,0.0010052159199620547,-0.0009591869981045997
153000000000.0,4,0.35042102445,-0.1068728717,-0.062144741049999994,-0.06034,-0.12109,-0.042325,-0.08271909274999999,-5.1958573695,-8.316627599,-0.009946,0.5584,-1.4565,-0.00017000000000000348,-0.00010000000000021103,2.0000000000131024e-05,5.150004972698241e-05,0.0006158699991765104,-0.0007224608433658575
153000000000.0,4,0.27685153614999997,-0.03358777625,-0.126701918,-0.066724,-0.1221,-0.047672,-0.0892012884,-5.191738576500001,-8.319177327999999,-0.010722,0.55791,-1.4575,-0.00010999999999994348,-9.999999999976694e-05,1.999999999990898e-05,4.2231726294028604e-05,0.00015458333137763347,-0.0002537394081935096
153000000000.0,4,0.17425436384999998,-0.0037069137,-0.12833962855,-0.063283,-0.090164,-0.04452,-0.09344756784999998,-5.187815916499999,-8.321530924,-0.011229,0.55743,-1.4581,-0.00017000000000000348,1.6666666666775853e-05,2.0000000000131024e-05,0.00025204952710555784,-0.00024227233422879912,-0.0005026142034567083
153000000000.0,4,0.13237996835,0.0136704701,-0.15483719685,-0.052388,-0.057228,-0.037087,-0.09511469834999998,-5.184677788499999,-8.323492254,-0.011427,0.55706,-1.4589,-0.00012000000000000899,1.6666666666331764e-05,1.999999999990898e-05,0.00017187233240045785,0.00017113615255359704,-0.0002081314378022947
153000000000.0,4,0.1285063416,0.0410702502,-0.16783100809999998,-0.032951,-0.022233,-0.027509,-0.09454591265,-5.183206791,-8.3243748525,-0.011357,0.55688,-1.4594,-8.000000000008001e-05,1.6666666666775853e-05,9.999999999998899e-05,-0.00040537225543324507,-0.00010895364394247764,-0.0001110105723121646
153000000000.0,4,0.11901350439999998,0.0177108099,-0.14698207019999998,-0.003002,-0.004379,-0.013612,-0.092378643,-5.1836971235,-8.324178719499999,-0.011098,0.55693,-1.4599,-4.999999999999449e-05,1.6666666666775853e-05,0.00020000000000020002,-0.00012885576188748082,6.601062606792496e-05,-0.0001933382589313637
153000000000.0,4,0.14788428199999998,0.0029714149499999996,-0.06910746255,0.035344,-0.003644,0.000329,-0.090417313,-5.186737185,-8.322315455999998,-0.010864,0.5573,-1.4601,-2.0000000000020002e-05,1.6666666666331764e-05,5.0000000000105516e-05,-0.0031549697867691018,-0.0016712506498950397,0.0005404326493186895
153000000000.0,4,0.18341377495,-0.0085121722,0.03458805455,0.082036,-0.023224,0.017522,-0.0906330593,-5.193209574,-8.318196662999998,-0.010895,0.55808,-1.4603,-1.999999999990898e-05,1.6666666666775853e-05,4.999999999988347e-05,-0.0014344936606750514,0.0006296926772570988,-0.00011857213143612322
153000000000.0,4,0.2479513386,-0.024595078199999995,0.090417313,0.12234,-0.050202,0.022977,-0.09352602104999999,-5.202722024499999,-8.3122146065,-0.011251,0.55922,-1.4604,-1.0000000000065512e-05,4.999999999988347e-05,0.00019999999999997797,-0.0015794585179200737,0.0004255412904115019,-6.880411504062156e-05
153000000000.0,4,0.25820909449999996,0.016818404749999998,0.11055036545,0.15307,-0.078163,0.022013,-0.09914523149999999,-5.214588071,-8.304663485999999,-0.011937,0.56066,-1.4602,4.0000000000040004e-05,5.000000000032756e-05,0.00019999999999997797,-0.0019823458108626513,0.0009595365542161005,-0.00024890629603968595
153000000000.0,4,0.24506818349999998,0.014258869099999998,0.0825327664,0.16989,-0.11133,0.019966,-0.1078535367,-5.228121248,-8.2961317005,-0.013,0.56228,-1.4603,7.00000000000145e-05,9.999999999976694e-05,0.00019999999999997797,-0.0017125672940441206,0.0015692500537682896,-0.0005282195589422778
153000000000.0,4,0.21840390214999997,-0.01073828175,0.05939887904999999,0.18249,-0.14127,0.012569,-0.119052731,-5.242438957,-8.286913449499998,-0.014365,0.56401,-1.4601,9.99999999995449e-06,0.00010000000000021103,0.00019999999999997797,-0.0011259091439200786,0.0008683952699510833,-0.0006928530302262592
153000000000.0,4,0.17539193525,-0.02740958675,0.03933447314999999,0.1867,-0.15302,0.006192,-0.1312522036,-5.2570508655,-8.277499065499999,-0.015855,0.56577,-1.4604,-2.999999999997449e-05,9.999999999976694e-05,0.00019999999999997797,-0.0016408061380738248,0.00032852219553092255,-0.000562794979777903
153000000000.0,4,0.08586702739999999,-0.06991160785,0.06626353404999999,0.20396,-0.13397,-0.003418,-0.14212777845,-5.272741505499999,-8.267300149499999,-0.01719,0.56767,-1.4604,-2.999999999997449e-05,0.00019999999999997797,0.00029999999999996696,-0.0025873651560937017,-0.00042384990455257565,-0.0003969403248986758
153000000000.0,4,-0.026389695149999996,-0.07975748444999999,0.12712360395,0.2332,-0.088373,-0.016257,-0.14883552705,-5.290883807999999,-8.255630236,-0.018026,0.56987,-1.4608,-6.0000000000060005e-05,0.00010000000000021103,0.00029999999999996696,-0.0037895419952256315,-0.0006335003004438455,-0.00018274607917778685
153000000000.0,4,-0.12125922724999999,-0.03962867265,0.0956540641,0.24876,-0.02348,-0.035557,-0.1494337327,-5.3109874405,-8.242685458,-0.018128,0.5723,-1.4612,-0.00012999999999996348,0.00019999999999997797,0.000300000000000189,-0.0022821020179042417,-0.002127956602545167,0.00022966511252592303
153000000000.0,4,-0.1407646541,-0.04850369089999999,0.040354364749999996,0.24195,0.044799,-0.059172,-0.14279463064999998,-5.3309930065,-8.2298387465,-0.017349,0.57473,-1.4621,-0.00019000000000002348,0.00019999999999997797,0.00019999999999997797,-0.0017444788749216844,-0.0021388706979079686,-0.00028218791486989137
153000000000.0,4,-0.05857512045,-0.0759623109,0.039197180049999995,0.21913,0.11108,-0.086014,-0.1293693268,-5.3494295085,-8.2180707665,-0.01574,0.57698,-1.4631,-0.00019999999999997797,0.00010000000000021103,0.00019999999999997797,-0.00022347474194628347,-0.0017307189146675839,-6.648067609049679e-05
153000000000.0,4,0.0073549875,-0.10262659225,0.01879934805,0.17254,0.14665,-0.098967,-0.11150161049999999,-5.364433682999999,-8.2086563825,-0.013583,0.57879,-1.4646,-0.00021000000000004349,4.999999999988347e-05,9.999999999998899e-05,0.00013680479008615354,-0.0020173291103564583,0.00016588669059180994
153000000000.0,4,0.050210048,-0.15693581995,-0.0517202721,0.10127,0.16643,-0.11193,-0.0913587514,-5.3739461335,-8.202576259499999,-0.011137,0.57996,-1.4659,-0.00022999999999995246,4.999999999988347e-05,9.999999999998899e-05,0.0006745635767507752,-0.0024992871395617122,-0.000412954734533455
153000000000.0,4,0.11641474214999999,-0.19602512684999998,-0.0804733699,0.020334,0.17351,-0.13023,-0.06987238125,-5.377084261499999,-8.2008110625,-0.00852,0.58034,-1.4678,-0.00017999999999995797,-0.00010000000000021103,9.999999999998899e-05,0.0024469982152408587,-0.002314823194432769,-0.0004424818280403531
153000000000.0,4,0.12643713845,-0.18241349664999998,-0.008973084749999999,-0.058442,0.1827,-0.1496,-0.04727785965,-5.3739461335,-8.2029685255,-0.005764,0.57996,-1.4695,-0.0002700000000001035,-9.999999999976694e-05,-9.999999999998899e-05,0.003152327455428816,-0.002185039415601109,-0.0003139731406850421
153000000000.0,4,0.1353906099,-0.17960879475,0.031842192549999995,-0.1405,0.18446,-0.16575,-0.024212618849999996,-5.3643356165,-8.209342847999999,-0.002949,0.57878,-1.4716,-0.00028999999999990145,-9.999999999976694e-05,-9.999999999998899e-05,0.003993681032202767,-0.0022507755683023323,-0.001186084984864444
153000000000.0,4,0.15651413399999997,-0.14589353205,0.0712551189,-0.21623,0.18402,-0.17336,-0.0011964113,-5.348154643999999,-8.21993403,-0.000145,0.57682,-1.4736,-0.000260000000000038,-0.00010000000000021103,-0.00019999999999997797,0.0035366282427404805,-0.0013769696238048468,-0.001028347074762237
153000000000.0,4,0.2191394009,-0.1132079676,0.13430207175,-0.27507,0.16639,-0.17023,0.020878357849999998,-5.326874213499999,-8.2337614065,0.002536,0.57423,-1.4759,-0.00024999999999997247,-0.00019999999999997797,-0.00019999999999997797,0.004300244655113361,-0.0010085356774762744,-0.0013933531655440645
153000000000.0,4,0.26516200935,-0.08688691899999999,0.13657721455,-0.32559,0.12523,-0.1585,0.0397953857,-5.3013769234999994,-8.2500404455,0.004824,0.57114,-1.4777,-0.00017000000000000348,-0.00010000000000021103,-0.00020000000000020002,0.003276083720522349,-0.0003803914033471134,-0.0013009262634606222
153000000000.0,4,0.30203501335,-0.04585589539999999,0.10023376964999998,-0.34969,0.05828,-0.14028,0.053053976499999995,-5.273427970999999,-8.2678885485,0.006416,0.56776,-1.4797,-0.00012000000000000899,-0.00019999999999997797,-0.00019999999999997797,0.002899756178670998,-0.00012235565786000713,-0.001040724274847138
153000000000.0,4,0.3481753016,0.07361852155,0.07202984424999999,-0.34608,-0.016354,-0.12733,0.059585205399999994,-5.245282885499999,-8.2857366515,0.007191,0.56435,-1.4812,-4.999999999999449e-05,4.999999999988347e-05,-9.999999999998899e-05,0.0017899907549405736,-0.00030242799191237957,-0.0012679232934927342
153000000000.0,4,0.26678010659999996,0.14267695084999998,0.11020713269999999,-0.30051,-0.042324,-0.10799,0.06227222749999999,-5.2199817285000005,-8.301721490999999,0.007501,0.56131,-1.4828,-1.0000000000065512e-05,5.000000000032756e-05,3.333333333332966e-05,0.0007783765764363126,-0.00021449109821403134,-0.00046593232595831813
153000000000.0,4,0.17392093775,0.2298482627,0.13779323915,-0.21199,-0.03348,-0.088642,0.0641551043,-5.2015452265,-8.3131952715,0.007717,0.55909,-1.4838,4.0000000000040004e-05,0.00019999999999997797,3.333333333332966e-05,2.5781540194391717e-05,0.0003235304772530867,-0.0005289399435816078
153000000000.0,4,0.12047469525,0.3717897148,0.09950807754999999,-0.10312,-0.015218,-0.067137,0.0665675402,-5.191934709499999,-8.3192753945,0.008001,0.55793,-1.4849,0.00014999999999998348,0.00019999999999997797,3.333333333332966e-05,-0.0010061541547247144,0.0003388285520862233,6.651739669899515e-05
153000000000.0,4,0.14255927105,0.4010527584,0.0881421702,0.006724,-0.0055,-0.03921,0.0688819096,-5.191444376999999,-8.319569593999999,0.008279,0.55786,-1.4855,0.00019999999999997797,0.00019999999999997797,9.999999999998899e-05,-0.0022051054248447555,0.000623063433472959,5.0469698219535175e-06
153000000000.0,4,0.21635431229999996,0.3772029856,0.0764330301,0.1014,-0.022295,-0.00913,0.0691564958,-5.199093563999999,-8.3147643355,0.008317,0.55879,-1.486,0.0002500000000000835,0.000300000000000189,9.999999999998899e-05,-0.00280380893192278,0.001016696529560157,-0.00011016250864503974
153000000000.0,4,0.31317536775,0.32441378865,0.07912985885,0.1682,-0.056969,0.016664,0.065704555,-5.212724807499999,-8.306232549999999,0.00791,0.56044,-1.486,0.00027999999999994696,0.0002999999999997449,0.00010000000000021103,-0.003195400999352005,0.0006849232018109053,8.989676510529065e-06
153000000000.0,4,0.4327674645,0.2404394447,0.114345539,0.20412,-0.092444,0.030665,0.058643767,-5.229690312,-8.295641368,0.007069,0.56247,-1.486,0.00029000000000001247,0.000300000000000189,9.999999999998899e-05,-0.0022719712766127165,0.0008322785165311153,-1.3682162017802924e-05
153000000000.0,4,0.46524708929999997,0.1505320775,0.12183781959999998,0.20922,-0.11594,0.04139,0.048905763549999995,-5.2470480825,-8.284755986499999,0.005904,0.56457,-1.4857,0.00034999999999996145,0.00019999999999997797,-5.0000000000105516e-05,-0.0016782129072215879,0.0013817662408390774,-0.0005081682685676991
153000000000.0,4,0.48886150249999993,0.03912853349999999,0.11970977655000001,0.1889,-0.12323,0.040301,0.037716375899999995,-5.262934855499999,-8.274655137,0.004558,0.56649,-1.4855,0.00031000000000003247,9.999999999976694e-05,-4.999999999988347e-05,-0.0007806839567888746,0.0011496594354172274,-0.00047552883229107223
153000000000.0,4,0.5228317380999999,-0.055309505999999994,0.10990312655,0.14525,-0.11434,0.034872,0.02693886755,-5.275389301,-8.266809816999999,0.003259,0.56799,-1.4851,0.0003300000000000525,0.00019999999999997797,-0.00010000000000021103,-0.00016339701909429127,0.0008675688989983055,0.0001526279681834386
153000000000.0,4,0.488959569,-0.10641195914999999,0.09837050615,0.088964,-0.08723,0.026188,0.01830901555,-5.2829404215,-8.2620045585,0.002216,0.5689,-1.4851,0.00038999999999989043,5.000000000032756e-05,-9.999999999998899e-05,0.0010144800696599843,-0.0006067289303461898,0.00033336030869446365
153000000000.0,4,0.40355345415,-0.14490306039999998,0.11272744174999999,0.027496,-0.035575,0.02599,0.0136312435,-5.2852940175,-8.260533560999999,0.00165,0.56919,-1.4849,0.000500000000000056,4.999999999988347e-05,-9.999999999998899e-05,0.0007064190372243484,0.0001528578569749417,0.0004913858396330961
153000000000.0,4,0.34106548034999995,-0.183580488,0.09864509234999999,-0.02757,0.020284,0.0322,0.01372931,-5.2829404215,-8.2620045585,0.001662,0.56891,-1.4848,0.00039000000000000146,4.999999999988347e-05,-9.999999999998899e-05,0.0012763170318051964,-0.0006778592145593176,0.0008684472086989969
153000000000.0,4,0.262622087,-0.1843846333,0.05362276219999999,-0.06889,0.065368,0.044858,0.01765197,-5.277056431499999,-8.265731085499999,0.002135,0.5682,-1.4844,0.00046999999999997044,4.999999999988347e-05,-9.999999999998899e-05,-2.7386979135068934e-05,-0.0007669735246453868,0.001566853170648863
153000000000.0,4,0.17164579495,-0.19626048645,0.030841914249999994,-0.081512,0.095296,0.056524,0.024232232149999998,-5.269897576999999,-8.270340210999999,0.00293,0.56732,-1.4842,0.0005399999999999849,3.333333333355171e-05,-4.999999999988347e-05,-0.0010110274221353244,0.00019363848713394027,0.0015006411279935294
153000000000.0,4,0.11659126185,-0.19490716875,0.057967108149999995,-0.061267,0.096189,0.062962,0.03125379355,-5.2639155204999994,-8.274066738,0.003777,0.5666,-1.4836,0.00039000000000000146,3.333333333310762e-05,-5.0000000000105516e-05,0.00010874928489390534,0.00028800082110036485,1.249330863123399e-05
153000000000.0,4,0.09483030549999999,-0.15642587414999998,0.08498442889999999,-0.020919,0.067093,0.055612,0.0366964843,-5.2613657915,-8.2757338685,0.004434,0.56629,-1.4833,0.00029000000000001247,3.333333333355171e-05,5.0000000000105516e-05,-7.109895942747357e-05,0.0005508079072662486,-0.0002786289627718652
153000000000.0,4,0.0554467991,-0.13328218014999998,0.05716296285,0.018255,0.017768,0.038689,0.03911872685,-5.2625425895,-8.274949336499999,0.004728,0.56643,-1.483,0.000300000000000078,0.00019999999999997797,4.999999999988347e-05,0.00010693125320915264,-0.0006498488120263435,-0.000867810746296771
153000000000.0,4,0.0025497289999999997,-0.1111681844,0.03315628365,0.046853,-0.025063,0.012129,0.03890298055,-5.266367183,-8.272497673999998,0.004702,0.5669,-1.4832,0.00029999999999996696,4.999999999988347e-05,1.999999999990898e-05,-0.000172934959838833,0.0006113118862585143,-0.0009080885872557731
153000000000.0,4,-0.0306752012,-0.13128162354999998,0.05546641239999999,0.062781,-0.053934,-0.018747,0.037265269999999996,-5.2719569735,-8.268967279999998,0.004506,0.56758,-1.4834,0.00031000000000003247,5.000000000032756e-05,2.0000000000131024e-05,-0.00047023549114943997,0.0007656908513946625,-0.0008566773406450956
153000000000.0,4,-0.053681602099999996,-0.18258020969999997,0.016180972499999998,0.062754,-0.075216,-0.04753,0.034833220799999995,-5.278037096499999,-8.265142686499999,0.004214,0.56831,-1.4842,0.00019999999999997797,0.00019999999999997797,1.999999999990898e-05,-0.0006505946191989187,0.0005097827522781984,-0.0013183806283044164
153000000000.0,4,-0.08904438199999999,-0.20513550469999997,-0.0360296321,0.04458,-0.088903,-0.062481,0.032038325549999996,-5.282646222,-8.262102624999999,0.003877,0.56887,-1.485,0.00017999999999995797,9.999999999976694e-05,2.0000000000131024e-05,-0.00011155885770985918,-7.913609242327091e-05,-0.0007733928570162751
153000000000.0,4,-0.13625359509999999,-0.18624789679999998,-0.07318702895,0.015861,-0.081202,-0.067881,0.029410143349999997,-5.2850978845,-8.2606316275,0.00356,0.56917,-1.4861,0.000180000000000069,0.00010000000000021103,1.999999999990898e-05,0.0006747904717129272,-0.0005729086203394296,-0.00017444181106535117
153000000000.0,4,-0.17919691545,-0.15676910689999998,-0.1137375267,-0.012682,-0.045807,-0.063723,0.028811937699999998,-5.2850978845,-8.2606316275,0.003488,0.56917,-1.4869,0.00019999999999997797,9.999999999976694e-05,5.0000000000105516e-05,0.0009187359820370666,-0.001425044532935349,0.00031261127109094566
153000000000.0,4,-0.25135424615,-0.11500258455,-0.15109105655,-0.045337,0.017315,-0.046813,0.03197948565,-5.282450089,-8.262298758,0.003871,0.56884,-1.4879,0.00020999999999993246,0.00019999999999997797,4.999999999988347e-05,0.000831945189293859,-0.001813777566226582,0.001199905982030236
153000000000.0,4,-0.2974553078,-0.09846857264999999,-0.13120317034999998,-0.066181,0.092061,-0.027768,0.03992287215,-5.2777428969999995,-8.265240753,0.004831,0.56827,-1.4883,0.000180000000000069,0.00010000000000021103,9.999999999998899e-05,0.00019927754291948485,-0.0014345416795251698,0.0015113748091604151
153000000000.0,4,-0.27868537969999996,-0.107677017,-0.07954173815,-0.067955,0.1496,-0.007592,0.0518379519,-5.2723492395000005,-8.268575014,0.006269,0.56763,-1.4887,0.00012000000000000899,9.999999999976694e-05,9.999999999998899e-05,8.997516614384082e-05,-0.001023056434952041,0.0007811115153145698
153000000000.0,4,-0.20371354044999998,-0.12777084285,-0.02028995885,-0.052928,0.16651,0.000943,0.0654495821,-5.268034313499999,-8.271320875999999,0.007912,0.5671,-1.4887,9.999999999998899e-05,0.00019999999999997797,5.0000000000105516e-05,0.00039799178123045564,0.0003301927959433737,7.934868509806847e-06
153000000000.0,4,-0.06071297015,-0.1783829635,0.013876409749999999,-0.035091,0.13014,0.003173,0.07672722959999999,-5.265386517999999,-8.2727918735,0.009274,0.56679,-1.489,9.999999999998899e-05,0.00010000000000021103,5.0000000000105516e-05,0.00011876896601614728,0.00020116118338098232,-0.0002861074547179654
153000000000.0,4,0.022359162,-0.16140765235,0.00901231135,-0.01336,0.043645,0.000161,0.08178746099999999,-5.2643077865,-8.273478338999999,0.009886,0.56665,-1.4889,0.00014999999999998348,9.999999999976694e-05,0.00019999999999997797,3.4846069275618063e-05,0.0017241419361511134,-0.0006644054197659788
153000000000.0,4,0.0439926319,-0.1664580771,0.04204110855,0.001889,-0.048127,0.004619,0.07885527264999999,-5.264601986,-8.273282206,0.009531,0.56669,-1.4891,9.999999999998899e-05,0.00019999999999997797,0.00019999999999997797,-0.0002443398421493326,0.0013841324997696525,-0.00044957965781267095
153000000000.0,4,0.01834824215,-0.18782676745,0.01617116585,0.010868,-0.11854,0.015432,0.0685877101,-5.2656807175,-8.272693807,0.008291,0.56682,-1.4889,0.00017000000000000348,0.00010000000000021103,9.999999999998899e-05,-8.585362405977293e-05,0.0010222378838460333,-0.00037860718285870343
153000000000.0,4,-0.046542360899999996,-0.131016844,0.031165533699999998,0.022384,-0.14208,0.021898,0.054779946899999994,-5.2674459145,-8.271713142,0.006622,0.56703,-1.4889,0.00012000000000000899,0.00019999999999997797,0.00019999999999997797,-0.0004392016555258005,0.0005342517306641259,-4.528072304232911e-05
153000000000.0,4,-0.12847692165,-0.11107011789999999,0.08889728225,0.029975,-0.12085,0.033616,0.041384063,-5.269701443999999,-8.270340210999999,0.005004,0.56731,-1.4884,0.000140000000000029,0.00019999999999997797,0.00019999999999997797,-0.0006287513153315771,0.000286814374772959,0.0004622439918541832
153000000000.0,4,-0.18189374419999998,-0.10205780654999999,0.1311149105,0.040955,-0.074068,0.046362,0.030910560799999997,-5.273035704999999,-8.2682808145,0.003738,0.56771,-1.4881,0.00018999999999991246,0.00010000000000021103,9.999999999998899e-05,-0.0016938901652794325,-0.0002005708460468547,0.0012491295239170364
153000000000.0,4,-0.14513842,-0.06904862265,0.16804675439999997,0.041364,-0.011219,0.064397,0.024673531399999997,-5.276860298499999,-8.265829151999998,0.002985,0.56817,-1.4874,0.00017000000000000348,0.00019999999999997797,9.999999999998899e-05,-0.00021379686218936378,0.0004944841949148238,0.0015946748414581435
153000000000.0,4,-0.0823954733,-0.030498681499999996,0.2163739256,0.035287,0.045282,0.089905,0.0229867876,-5.280488759,-8.2635736225,0.002782,0.5686,-1.4867,0.0001100000000000545,4.999999999988347e-05,9.999999999998899e-05,0.00027419484098600844,0.0011259071145219846,0.0012006048711890038
153000000000.0,4,-0.04437509125,-0.039618866,0.23299619734999996,0.022481,0.071981,0.1336,0.0223787753,-5.283038488,-8.261906492,0.002709,0.56891,-1.4852,0.00026999999999999247,4.999999999988347e-05,9.999999999998899e-05,0.0008696052158739809,0.00040425604371652213,0.0017036867231361441
153000000000.0,4,0.0695291485,-0.10096926839999999,0.20949946395,0.00394,0.056092,0.1891,0.01876012145,-5.284215285999999,-8.2612200265,0.00227,0.56906,-1.4834,0.00029999999999996696,2.4999999999941735e-05,1.1111111111183902e-05,-0.0012376616560108022,0.0024774677990884175,0.0015959870040119228
153000000000.0,4,0.1962702931,-0.11209000949999999,0.22824977875,-0.009546,-0.001381,0.23187,0.00858081875,-5.2841172195,-8.2612200265,0.001039,0.56905,-1.4808,0.000300000000000078,2.5000000000385825e-05,1.1111111110961858e-05,-0.0008490372069128727,0.002836729114389147,0.0015249412865647738
153000000000.0,4,0.26112166955,-0.09355544099999999,0.19894750854999999,-0.020967,-0.078039,0.25974,-0.00958109705,-5.2829404215,-8.2620045585,-0.001159,0.5689,-1.4781,0.00031999999999998696,2.4999999999941735e-05,1.1111111111183902e-05,-0.0010830411761280079,0.0037289599196992373,0.0013633926670781893
153000000000.0,4,0.31060602545,-0.06863674335,0.15562172885,-0.025923,-0.16006,0.26948,-0.0355785262,-5.2810771579999995,-8.263181356499999,-0.004305,0.56868,-1.4749,0.00032999999999994145,2.4999999999941735e-05,1.1111111111183902e-05,0.0007662145834191891,0.0018892203512643757,0.0008376160855326775
153000000000.0,4,0.27059489345,-0.0453851762,0.22819093885,-0.010327,-0.21772,0.25894,-0.06694019289999999,-5.280096492999999,-8.2635736225,-0.0081,0.56856,-1.472,0.00026999999999999247,9.999999999976694e-05,1.1111111110961858e-05,-0.0005077848356367376,0.00264369571623968,0.0004332677026850362
153000000000.0,4,0.21871771494999998,0.01585735305,0.27973469124999994,0.012098,-0.23386,0.22698,-0.09886083864999999,-5.280881024999999,-8.2627890905,-0.011964,0.56865,-1.4692,0.0002500000000000835,0.00010000000000021103,1.1111111111183902e-05,-0.0014362005082129148,0.002003947418750096,0.0005049226289823849
153000000000.0,4,0.1592207694,0.0760799907,0.29164977099999995,0.037048,-0.20844,0.18535,-0.12689805099999998,-5.283626887,-8.2606316275,-0.015361,0.56899,-1.4671,0.00021999999999999797,0.00010000000000021103,1.1111111111183902e-05,-0.0012062446962410878,0.0010786997979210788,0.0007584386363935214
153000000000.0,4,0.14056852109999998,0.07726659535,0.28634437334999996,0.062238,-0.1532,0.14581,-0.14850210095,-5.2885302119999995,-8.2571012335,-0.017983,0.56958,-1.4653,0.00019999999999997797,9.999999999976694e-05,1.1111111110961858e-05,-0.0016425409196237917,0.0008058803370956102,0.0007476522859446444
153000000000.0,4,0.1471389766,0.0738244612,0.2456761958,0.081989,-0.10219,0.118,-0.16374163505,-5.295296800499999,-8.252492108,-0.019839,0.5704,-1.4641,0.00019000000000002348,9.999999999976694e-05,1.1111111111183902e-05,-0.0008925755613028441,0.000494635592743986,0.0005843930523987129
153000000000.0,4,0.1704199637,0.04174690905,0.20379199365,0.09513,-0.06711,0.10301,-0.17431320374999998,-5.3033382535,-8.2470984505,-0.021133,0.57137,-1.4629,0.00021999999999999797,0.00010000000000021103,2.4999999999941735e-05,0.000345977585337387,0.0008919628283190484,0.0006676863770190833
153000000000.0,4,0.17503889585,0.0015494506999999998,0.1142278592,0.10165,-0.050118,0.1062,-0.1829724757,-5.311771972499999,-8.24150866,-0.022198,0.57239,-1.4619,0.00023999999999990695,9.999999999976694e-05,2.4999999999941735e-05,-0.0006940335035439116,0.0012878865767251835,0.0008413025233656168
153000000000.0,4,0.1779906975,-0.027576299799999995,0.07020580735,0.10277,-0.04374,0.10939,-0.19100412205,-5.320303758,-8.2357227365,-0.023188,0.57344,-1.4607,0.0002500000000000835,0.00010000000000021103,2.500000000016378e-05,-0.001083057286931699,0.00028767665710627277,0.0007331582839996686
153000000000.0,4,0.19471103575,-0.0913391381,0.05503491979999999,0.10702,-0.045907,0.1094,-0.19920248145,-5.329129743,-8.229936812999998,-0.0242,0.57451,-1.4597,0.00019999999999997797,9.999999999976694e-05,2.4999999999941735e-05,-0.0014561779894721738,-0.0005104350431845983,0.0008360241885755904
153000000000.0,4,0.18768947435,-0.13715580689999998,0.030106415499999997,0.10483,-0.052279,0.10834,-0.20804807975,-5.337955728,-8.2239547565,-0.025292,0.57558,-1.4584,0.00026999999999999247,4.999999999988347e-05,3.333333333332966e-05,-0.0007334565051787534,0.0002455993553176494,0.0006522546880654012
153000000000.0,4,0.18064829964999998,-0.19458354929999996,0.00448163905,0.097328,-0.060736,0.10194,-0.21745265709999997,-5.3458991145,-8.218561099,-0.026453,0.57654,-1.4575,0.00031000000000003247,5.000000000032756e-05,3.333333333332966e-05,-0.0009244061989325258,0.000989483036005545,0.00035600054639545187
153000000000.0,4,0.20536105765,-0.21378497,-0.015288567349999999,0.083456,-0.06807,0.091256,-0.22721027384999998,-5.352861836,-8.2137558405,-0.027655,0.57739,-1.4564,0.00025999999999992696,3.333333333310762e-05,3.333333333332966e-05,-0.00017154960490350923,0.0008905139372763493,-0.00024100602225063383
153000000000.0,4,0.1973686379,-0.2057239037,-0.021682503149999997,0.065391,-0.068971,0.075215,-0.23627161845,-5.358451626499999,-8.209931247,-0.028772,0.57807,-1.4558,0.00021999999999999797,3.333333333355171e-05,1.999999999990898e-05,-0.0007813047890739,0.0008577244901692982,-1.3010185505424321e-05
153000000000.0,4,0.15179713535,-0.20582197019999998,-0.05002372164999999,0.047403,-0.063475,0.054894,-0.2439698387,-5.362472352999999,-8.206989252,-0.029718,0.57856,-1.4551,0.000140000000000029,3.333333333310762e-05,2.0000000000131024e-05,-0.00015629329237853984,0.00036883852943270234,-0.0004455533418610269
153000000000.0,4,0.0948891454,-0.1688901263,-0.052730357049999996,0.027374,-0.048366,0.030282,-0.24931446295,-5.365022081999999,-8.2051259885,-0.030376,0.57887,-1.4549,0.0001100000000000545,2.4999999999941735e-05,1.999999999990898e-05,0.0006449915921278304,0.0002429391075957632,-0.00012924101949596256
153000000000.0,4,0.0254188368,-0.1765981532,-0.04923918965,0.005289,-0.022582,0.005647,-0.2515209592,-5.366002747,-8.204439523,-0.030647,0.57899,-1.4548,6.999999999990347e-05,2.5000000000385825e-05,2.0000000000131024e-05,0.00043978626535678966,-0.00046228985575580417,2.2827337313013896e-05
153000000000.0,4,-0.06055606374999999,-0.16815462755,-0.05515259959999999,-0.015583,0.024495,-0.012618,-0.24919678315,-5.365316281499999,-8.205027922,-0.030362,0.57891,-1.4552,0.00010000000000010001,2.4999999999941735e-05,1.999999999990898e-05,0.0007860238422982002,-0.0021036171461288333,0.0005296958326500567
153000000000.0,4,-0.10346996415,-0.1548862301,-0.03325435015,-0.030983,0.091768,-0.025572,-0.24099842375,-5.363256885,-8.2064989195,-0.029358,0.57866,-1.4556,9.999999999998899e-05,2.4999999999941735e-05,5.0000000000105516e-05,0.0007392854118385417,-0.0016492417022662131,0.0008560467491182111
153000000000.0,4,-0.08312116539999999,-0.15379769194999998,-0.00848275225,-0.037959,0.14938,-0.03209,-0.22737698689999997,-5.3608052225,-8.208558316,-0.027692,0.57836,-1.4563,7.00000000000145e-05,0.00010000000000021103,4.999999999988347e-05,0.00025557335132142533,-0.0010219702689338028,0.0005417286603343618
153000000000.0,4,-0.01126784085,-0.11005022629999998,-0.01448442205,-0.028122,0.17594,-0.035321,-0.21064684199999997,-5.358745826,-8.210323512999999,-0.025651,0.57811,-1.4567,9.999999999998899e-05,4.999999999988347e-05,0.00019999999999997797,-0.00015197190026228213,-0.0010362580826235313,-0.00023542926627789784
153000000000.0,4,0.0656261018,-0.080218397,-0.05155355905,-0.004839,0.15017,-0.038438,-0.1950542685,-5.358353559999999,-8.2110099785,-0.023751,0.57806,-1.4574,0.00010999999999994348,4.999999999988347e-05,0.00020000000000020002,-0.0011593773880681502,-0.0007470269481566483,1.8126475722801683e-05
153000000000.0,4,0.0970662217,-0.03399965555,-0.0731968356,0.033105,0.093386,-0.038273,-0.1835608747,-5.360707156,-8.209735113999999,-0.022355,0.57835,-1.4579,0.00014999999999998348,0.00019999999999997797,0.00019999999999997797,-0.0007817042712706668,-4.354946841100826e-05,2.5972565697640615e-05
153000000000.0,4,0.08823043004999999,0.01154242705,-0.09491856535,0.0763,0.028023,-0.032745,-0.17801031080000002,-5.3664930795,-8.2061066535,-0.021689,0.57905,-1.4586,0.000160000000000049,0.00019999999999997797,0.00029999999999996696,-0.0013784988061593673,-0.0002614917797076899,-0.00024929586979527407
153000000000.0,4,0.0705686534,0.0148276548,-0.07269669645,0.11854,-0.021351,-0.025113,-0.17756901155000002,-5.3757113305,-8.200026530499999,-0.021651,0.58018,-1.4588,0.00015999999999993797,0.00019999999999997797,0.00019999999999997797,-0.0020901465208789105,0.0005776010799023457,-0.00037281039079201106
153000000000.0,4,0.0363630582,0.0053936575,-0.016622271749999997,0.15559,-0.053631,-0.017521,-0.18061887969999998,-5.387969643,-8.191887010999999,-0.022044,0.58167,-1.4592,0.00017000000000000348,0.00010000000000021103,0.00029999999999996696,-0.001857227854727972,0.0008381124195071532,0.0001949156775479799
153000000000.0,4,0.013346850649999999,0.0121994726,0.03382313585,0.1756,-0.079384,-0.005699,-0.18663035614999998,-5.402287352,-8.1823745605,-0.022805,0.58342,-1.4593,0.000150000000000039,0.00019999999999997797,0.00029999999999996696,-0.0011116740413207316,0.0005360755804477702,5.0057458577001945e-05
153000000000.0,4,-0.011356100699999998,0.0260660757,0.040285718199999994,0.17549,-0.085789,0.006054,-0.19424031655000001,-5.4168992605,-8.172469844,-0.023763,0.58521,-1.4594,0.00024000000000001798,0.00019999999999997797,0.00019999999999997797,-0.0013252174640752123,0.00032866451503643646,0.0007566369244781934
153000000000.0,4,-0.0236144132,0.011081514499999999,0.07663896975000001,0.15635,-0.068595,0.019866,-0.20129129789999997,-5.4302363045,-8.163447726,-0.024653,0.58683,-1.4591,0.00021999999999999797,9.999999999976694e-05,9.999999999998899e-05,-0.001553671186520611,0.0001826247220122479,0.0011336595732856503
153000000000.0,4,-0.04109967015,-0.02693886755,0.09525199144999999,0.11825,-0.018219,0.039992,-0.20549835075,-5.440533287,-8.156485004499999,-0.025189,0.5881,-1.459,0.00023000000000000798,0.00010000000000021103,9.999999999998899e-05,-0.00010584900689480925,-0.0012376550310757573,0.0017271956942384037
153000000000.0,4,-0.06257623365,-0.06325289249999999,0.1536898188,0.075095,0.068429,0.060045,-0.20438039264999996,-5.447201808999999,-8.1521700785,-0.025065,0.58891,-1.4583,0.00015999999999999348,9.999999999976694e-05,4.999999999988347e-05,6.573091865147429e-05,-0.0005841506260186868,0.0016317866839645756
153000000000.0,4,-0.05900661305,-0.043482686099999994,0.2023700294,0.04783,0.14109,0.081218,-0.19792761695,-5.450928336,-8.149816482499999,-0.024281,0.58937,-1.4577,0.00015999999999999348,0.00010000000000021103,5.0000000000105516e-05,-0.0011465075191303686,0.0002891859015026199,0.0012469670658393772
153000000000.0,4,-0.029155170449999997,-0.04617951484999999,0.17543116185,0.028759,0.16893,0.10142,-0.18931737824999997,-5.4529877325000005,-8.148541618,-0.023229,0.58963,-1.4565,0.00019999999999997797,9.999999999976694e-05,0.00010000000000021103,-0.0003626265121923211,-0.0003425575091577926,0.0011052744746885002
153000000000.0,4,0.0630763728,-0.0642139442,0.17563710149999998,0.028471,0.13696,0.10788,-0.18278614934999998,-5.4547529295,-8.147560953,-0.02243,0.58984,-1.4555,0.000130000000000019,0.00010000000000021103,5.0000000000105516e-05,-0.0013870254927236259,0.001199443307758452,-0.00031555151959794525
153000000000.0,4,0.0924178696,-0.1296046864,0.4425741145,0.051213,0.041945,0.099545,-0.18280576265,-5.4582833235,-8.145207356999999,-0.022439,0.59028,-1.4542,8.999999999997899e-05,9.999999999976694e-05,4.999999999988347e-05,-0.0012825684957290528,0.0011873338845365122,-0.0004590650190426371
153000000000.0,4,0.0749424193,-0.12817291549999998,0.37193681455,0.067543,-0.064727,0.077345,-0.1907589558,-5.4631866485,-8.141676962999998,-0.023426,0.59088,-1.4535,7.00000000000145e-05,0.00010000000000021103,3.333333333332966e-05,-0.0012382927948394462,0.0007495009236038186,-0.0005082139414154807
153000000000.0,4,0.10222451959999998,-0.03837342144999999,0.35066619069999994,0.091597,-0.14482,0.047642,-0.2041352264,-5.4700513035,-8.136773638,-0.025082,0.59172,-1.4528,2.999999999997449e-05,0.00010000000000021103,3.333333333332966e-05,-0.0012786646081892616,0.0008636034687341532,-0.00024746439188988445
153000000000.0,4,0.0112776475,-0.06508673605,0.18990577725,0.1022,-0.15981,0.035945,-0.21926688735,-5.478288889499999,-8.130889647999998,-0.026961,0.59273,-1.4525,4.0000000000040004e-05,9.999999999976694e-05,3.333333333332966e-05,-0.001077170950332329,0.0005057657450882047,0.0002663608872410794
153000000000.0,4,-0.08009091055,-0.07506990575,0.08024781695,0.097094,-0.12993,0.039086,-0.23280006434999997,-5.4865264755,-8.1249075915,-0.028645,0.59374,-1.452,6.0000000000004494e-05,0.00010000000000021103,-1.4285714285744433e-05,-0.00036877397139234436,3.715055697961489e-05,0.00014406960598661867
153000000000.0,4,-0.0797672911,-0.0849059757,0.03099882065,0.076149,-0.080744,0.038963,-0.24254787445,-5.493391130499999,-8.119906199999999,-0.029862,0.5946,-1.4517,-2.0000000000020002e-05,4.999999999988347e-05,-1.4285714285744433e-05,0.0004973706151323309,-0.00010112104256676524,9.199792161046494e-05
153000000000.0,4,-0.07918869875,-0.019966339399999998,-0.021309850449999997,0.042494,-0.026104,0.025998,-0.24732371299999997,-5.497804123,-8.1168661385,-0.03046,0.59513,-1.4514,-1.0000000000010001e-05,4.999999999988347e-05,-1.4285714285744433e-05,0.0005681981356260302,-0.0005617567043252336,0.00019736536264725046
153000000000.0,4,-0.0785512665,-0.02980240935,0.01028717585,0.007778,0.027475,0.013035,-0.24660782754999996,-5.499275120499999,-8.1158854735,-0.030377,0.59532,-1.4514,-1.0000000000010001e-05,0.00010000000000021103,-1.4285714285522388e-05,0.0004553145660225466,-0.00040475013209539945,0.0007511687544494161
153000000000.0,4,-0.10007686325,-0.053818895199999994,0.048778277099999996,-0.018577,0.066054,0.011854,-0.24214580179999998,-5.499275120499999,-8.1160816065,-0.029827,0.59531,-1.4513,-4.999999999999449e-05,4.999999999988347e-05,-1.4285714285744433e-05,0.0010724301788580526,-0.0008060908879439221,0.0009450752803190077
153000000000.0,4,-0.13339005329999998,-0.049866815249999995,0.07685471605,-0.032184,0.10026,0.013905,-0.23501636725,-5.49760799,-8.117356470999999,-0.028944,0.59511,-1.4514,-4.999999999999449e-05,4.999999999988347e-05,-1.4285714285744433e-05,0.0010782940976489241,-0.001183650039786599,0.000668002850725935
153000000000.0,4,-0.12263215825,-0.045502855999999994,0.10403874985,-0.032075,0.11624,0.019214,-0.2263178687,-5.495450526999999,-8.1190236015,-0.027868,0.59484,-1.4512,-6.0000000000004494e-05,4.999999999988347e-05,-1.4285714285744433e-05,-8.75939439969331e-05,-0.0001947126679833211,0.00071048085499964
153000000000.0,4,-0.05320107625,-0.07247114349999999,0.13583190914999999,-0.025709,0.1098,0.016035,-0.2179429896,-5.493391130499999,-8.120690732,-0.026832,0.5946,-1.4513,-9.999999999998899e-05,5.000000000032756e-05,-3.333333333332966e-05,0.0004639674568404084,-0.0002868977844174836,-3.1250770946789075e-05
153000000000.0,4,0.02240819525,-0.08430777005,0.12223989225,-0.018475,0.072453,0.003304,-0.21200015969999997,-5.492116265999999,-8.121671397,-0.026097,0.59443,-1.4512,-9.999999999998899e-05,4.999999999988347e-05,-3.333333333332966e-05,0.0010633711004465196,-0.0006765597822473435,-0.0004980073720882716
153000000000.0,4,0.07883565934999999,-0.08544534145,0.13037941174999998,-0.012353,0.025536,-0.015816,-0.2087247386,-5.4912336674999995,-8.1223578625,-0.025692,0.59433,-1.4515,-9.999999999998899e-05,4.999999999988347e-05,-3.333333333332966e-05,-0.0002303534845097266,0.00046753538897892355,-0.00016015848333167382
153000000000.0,4,0.10274427205,-0.10027299625,0.1693216189,-0.007253,-0.011783,-0.030685,-0.20794020659999998,-5.4907433349999994,-8.1227501285,-0.025595,0.59427,-1.4518,-0.000130000000000019,0.00010000000000021103,-9.999999999998899e-05,-0.0005367578806526607,-4.6235294634433544e-05,-0.00045131990558455737
153000000000.0,4,0.12043546865,-0.10407797644999998,0.19725095809999998,-0.00727,-0.024552,-0.047741,-0.2078225268,-5.4904491355,-8.1229462615,-0.02558,0.59423,-1.4525,-0.00015999999999999348,-1.4285714285744433e-05,-0.00010000000000021103,-1.8187279406389756e-05,-0.0005069333173342017,-0.00039410855393334776
153000000000.0,4,0.1205041152,-0.10397990994999999,0.22340529364999998,-0.007125,-0.016017,-0.061632,-0.20653785565,-5.4900568695,-8.123240461,-0.025421,0.59418,-1.4532,-0.00012000000000000899,-1.4285714285744433e-05,-9.999999999998899e-05,0.00044650362301745794,-0.0009174881603046803,-0.0005822630817966523
153000000000.0,4,0.09765462069999999,-0.0923198031,0.24001775874999998,-0.016492,0.010705,-0.065965,-0.20314475475,-5.489272337499999,-8.12382886,-0.025001,0.59409,-1.4542,-0.000130000000000019,-1.4285714285744433e-05,-9.999999999998899e-05,0.0005653133436316349,-0.0012680246236176362,-2.8383119067554308e-05
153000000000.0,4,0.1407254275,-0.08687711235,0.2314173267,-0.032214,0.042806,-0.070318,-0.19698617855,-5.487409073999999,-8.125201791,-0.024239,0.59386,-1.455,-6.999999999995898e-05,-1.4285714285744433e-05,-9.999999999998899e-05,0.0009953346746409686,-0.0010535239279017006,-0.00025270751344269593
153000000000.0,4,0.18907221199999996,-0.0852786284,0.20798923984999998,-0.044826,0.067418,-0.069316,-0.18832690659999998,-5.4845651455,-8.127359254,-0.023167,0.5935,-1.456,-0.00010999999999999899,-1.4285714285744433e-05,-0.00019999999999997797,-0.0011553830534565268,-0.001290519441058846,0.0002373841119004405
153000000000.0,4,0.22126744394999998,-0.12086696124999999,0.21126466095,-0.049075,0.077039,-0.060802,-0.1786183231,-5.481132817999999,-8.129908983,-0.021967,0.59308,-1.4568,-0.0001000000000000445,-1.4285714285744433e-05,-9.999999999998899e-05,9.964550673802197e-05,-0.0007785365895454088,-0.0005486417250130105
153000000000.0,4,0.21251991215,-0.15932864255,0.19592706035,-0.051271,0.07598,-0.05013,-0.16928239229999997,-5.4775043575,-8.1325567785,-0.020812,0.59264,-1.4577,1.0000000000010001e-05,-1.4285714285744433e-05,-0.00019999999999997797,0.0003098168240784904,-0.0012210943618062853,0.0004571359958343013
153000000000.0,4,0.20375276704999998,-0.16087809325,0.19072953585,-0.053466,0.075981,-0.036257,-0.1606525403,-5.473679764,-8.135302640499999,-0.019746,0.59217,-1.4582,1.5000000000042757e-05,-9.999999999976694e-05,-9.999999999998899e-05,0.0003947556555353726,-0.00043720036429362175,0.00026012054226631776
153000000000.0,4,0.2128435316,-0.16612465099999998,0.22292476779999998,-0.051442,0.069559,-0.024501,-0.1531406464,-5.47014937,-8.1378523695,-0.018816,0.59173,-1.4587,1.4999999999987246e-05,-0.00010000000000021103,-9.999999999998899e-05,6.494190136219213e-05,-0.0003649522063007282,-1.5625031023036584e-05
153000000000.0,4,0.21868829499999998,-0.21194131979999997,0.1604564073,-0.054944,0.040803,-0.01058,-0.14820790144999998,-5.4663247765,-8.140500164999999,-0.018204,0.59127,-1.4589,1.999999999996449e-05,-0.00019999999999997797,-9.999999999998899e-05,0.0001858623053114794,0.00018160799087518775,-0.00017754443100859163
153000000000.0,4,0.23654620464999998,-0.21014670284999998,0.11386501314999999,-0.055206,0.012027,-0.004125,-0.146315218,-5.4625001829999995,-8.1431479605,-0.017966,0.59079,-1.4592,-1.999999999996449e-05,-0.00019999999999997797,-0.00019999999999997797,0.00029362554778777916,0.0005570209382934621,-0.0005314585552005369
153000000000.0,4,0.2344181616,-0.19574073399999997,0.11036403909999999,-0.051094,-0.011446,-0.009413,-0.14612889164999998,-5.458773656,-8.145599622999999,-0.017938,0.59034,-1.4593,3.999999999998449e-05,-0.00019999999999997797,-0.00019999999999997797,0.0005701260108299522,-0.00013106578238164523,-0.00024802631933584784
153000000000.0,4,0.19782955044999997,-0.19863369574999998,0.06880345639999999,-0.052159,-0.01782,-0.020078,-0.14620734485,-5.4551451955,-8.1480512855,-0.017942,0.58989,-1.4598,-4.999999999999449e-05,-0.00019999999999997797,-9.999999999998899e-05,0.0001478229524345398,0.0002086582996374542,-0.0007567134883643689
153000000000.0,4,0.17767688469999998,-0.19269086584999998,0.01713221755,-0.057437,-0.017766,-0.030761,-0.14564836579999998,-5.4512225354999995,-8.150699080999999,-0.017868,0.5894,-1.4602,-0.00010999999999999899,-0.00019999999999997797,-9.999999999998899e-05,-1.863604043617073e-05,0.0004533298038982281,-0.0011679738735014822
153000000000.0,4,0.11835645885,-0.16958639844999998,-0.0691564958,-0.072245,-0.006979,-0.039345,-0.14394200869999998,-5.446417276999999,-8.153837208999999,-0.017652,0.58883,-1.4609,6.0000000000004494e-05,-0.00010000000000021103,-9.999999999998899e-05,0.002014093818464402,-0.00033499495611288843,0.00021589128048471462
153000000000.0,4,0.02868445125,-0.13571422935,-0.13032057184999998,-0.090118,0.02088,-0.046897,-0.13987224895,-5.440239087499999,-8.158152135,-0.017143,0.58806,-1.4615,-3.0000000000030003e-05,-0.00019999999999997797,-0.00010000000000021103,0.0009954080957271794,-0.00014241060731912114,0.0003433354404732136
153000000000.0,4,0.004834678449999999,-0.0995178842,-0.18521819855,-0.10583,0.056175,-0.048053,-0.13277223435,-5.432687967,-8.163251593,-0.016263,0.58714,-1.4623,6.0000000000004494e-05,-0.00019999999999997797,-9.999999999998899e-05,0.001230037907364756,-0.0010340997232110016,0.0011951280230105832
153000000000.0,4,-0.0347351543,-0.0870438254,-0.22985806935,-0.11524,0.083958,-0.044917,-0.12327939715,-5.424254248,-8.1690375165,-0.01509,0.5861,-1.463,-2.999999999997449e-05,-0.00019999999999997797,-9.999999999998899e-05,0.0009373388920937975,-0.000815614730936165,0.0006800315661624201
153000000000.0,4,-0.0512103263,-0.0878087441,-0.24733351965,-0.1152,0.089284,-0.043859,-0.1127960883,-5.415428263,-8.175019573,-0.013796,0.58502,-1.4637,-1.0000000000010001e-05,-9.999999999976694e-05,9.999999999998899e-05,0.0014451661116703374,-8.785053711291013e-05,-0.0006199248764113818
153000000000.0,4,-0.045728408949999994,-0.08797545714999999,-0.26085688999999995,-0.10468,0.066828,-0.051273,-0.1034601575,-5.4072887435000005,-8.180511297,-0.012647,0.58403,-1.4644,-8.999999999997899e-05,-0.00010000000000021103,9.999999999998899e-05,0.001647027723195249,-0.0007943616558849786,-0.00041574653503628767
153000000000.0,4,-0.0741775006,-0.08654368624999999,-0.26680952654999995,-0.082527,0.029358,-0.059708,-0.09671318229999999,-5.4008163545,-8.184826223,-0.011815,0.58324,-1.4653,-3.0000000000030003e-05,2.4999999999941735e-05,0.00020000000000020002,0.00014929148153530747,0.0007321316917567877,-0.0005183731496156141
153000000000.0,4,-0.08719092514999999,-0.0671951658,-0.2068614751,-0.048549,0.004581,-0.068145,-0.09207463684999999,-5.396697561499999,-8.1876701515,-0.011245,0.58273,-1.4661,-9.999999999998899e-05,2.4999999999941735e-05,9.999999999998899e-05,-0.0013273088517997689,-0.0018021425089715937,0.0009240097630731636
153000000000.0,4,-0.12069044155,-0.0176127434,-0.1391759768,-0.015527,-0.002085,-0.068076,-0.08820101009999999,-5.3950304309999995,-8.188748882999999,-0.010771,0.58254,-1.4672,-7.00000000000145e-05,2.5000000000385825e-05,9.999999999998899e-05,-0.0008131778468908335,0.0002880294110931825,-0.00031366539485244704
153000000000.0,4,-0.14994367849999998,0.0041384062999999995,-0.11013848614999999,0.015478,0.011499,-0.057372,-0.08438622324999999,-5.396011096,-8.188160483999999,-0.010305,0.58265,-1.4679,-7.00000000000145e-05,2.4999999999941735e-05,0.00019999999999997797,0.00010990241692321323,-0.0010149108375343552,0.00013425119664006724
153000000000.0,4,-0.111403544,4.903325e-05,-0.10918724109999998,0.033713,0.03371,-0.041368,-0.07953193149999999,-5.398560825,-8.18659142,-0.009715,0.58296,-1.4687,-9.99999999995449e-06,9.999999999976694e-05,0.00019999999999997797,-0.0015748029372918415,0.0004962729404791588,-7.241746396552395e-05
153000000000.0,4,-0.077668668,0.0020593965,-0.1223281521,0.048658,0.045288,-0.023217,-0.07465802645,-5.4021892854999995,-8.184237823999998,-0.009122,0.5834,-1.469,9.99999999995449e-06,0.00010000000000021103,0.00029999999999996696,-0.0005272504856936866,0.00042409934349274536,-0.00040972837623531877
153000000000.0,4,-0.0576434887,0.023771319599999997,-0.09129010484999998,0.058207,0.047326,-0.009327,-0.07029406719999999,-5.4067003445,-8.181295829,-0.008592,0.58396,-1.4693,1.0000000000010001e-05,0.00019999999999997797,0.00029999999999996696,-0.0005785839110111768,4.6602853021049384e-07,-0.00026847887534131587
153000000000.0,4,-0.007698220249999999,0.0205155118,-0.027615526399999996,0.073016,0.038665,0.003523,-0.0671167126,-5.412290134999999,-8.177569301999998,-0.008207,0.58464,-1.4693,4.0000000000040004e-05,9.999999999976694e-05,0.00019999999999997797,-0.0013161175904983224,-0.00017548676655754214,0.00045864063056794135
153000000000.0,4,0.0441887649,0.022427808549999997,0.045365562899999996,0.090929,0.017194,0.014266,-0.06618508085,-5.4190567235,-8.173058243,-0.008097,0.58547,-1.4693,8.999999999997899e-05,0.00010000000000021103,0.00039999999999995595,0.001018283711638479,0.0016499975986776771,-0.0008122031988673228
153000000000.0,4,0.0613307891,0.01691647125,0.08929935489999999,0.10235,-0.012747,0.027146,-0.0682150574,-5.4270981764999995,-8.167762651999999,-0.008351,0.58645,-1.469,7.999999999996898e-05,9.999999999976694e-05,0.00020000000000020002,-0.0007027444524120297,0.0008217178919696089,-1.18243005145513e-05
153000000000.0,4,0.08608277369999999,0.012856518150000001,0.14679574385,0.11172,-0.038404,0.032545,-0.07305954249999999,-5.435728028499999,-8.1619767285,-0.008952,0.58751,-1.4688,3.0000000000030003e-05,0.00010000000000021103,0.00019999999999997797,-0.0012309404496457788,-0.00028626718528990125,0.00023760168042552543
153000000000.0,4,0.1117761967,0.0147295883,0.20419406629999998,0.11909,-0.053381,0.029382,-0.07929657189999999,-5.4449462795,-8.155798539,-0.009723,0.58864,-1.4683,1.0000000000010001e-05,4.999999999988347e-05,0.00019999999999997797,-0.0007980202377548817,0.0009333760571514915,-0.00015632890806294153
153000000000.0,4,0.1179543862,0.00045110589999999997,0.24858877084999997,0.11798,-0.060828,0.026191,-0.08593567395,-5.454262597,-8.1494242165,-0.010544,0.58979,-1.4682,2.999999999997449e-05,4.999999999988347e-05,9.999999999998899e-05,-0.00069143699923091,0.00037727351127814224,0.00017320652581748197
153000000000.0,4,0.09356524764999999,-0.043894565399999995,0.24817689154999997,0.10087,-0.060692,0.032565,-0.0928101356,-5.4625982495,-8.143834426,-0.011396,0.59081,-1.4678,8.00000000000245e-05,-2.4999999999941735e-05,9.999999999998899e-05,-0.0005019522457889725,0.0003175991218968832,0.0002829525630390628
153000000000.0,4,0.07683510275,-0.07146105855,0.23950781294999998,0.078499,-0.0488,0.045314,-0.09942962435,-5.4691687049999995,-8.139323367,-0.012215,0.59161,-1.4675,2.4999999999997247e-05,-2.4999999999941735e-05,9.999999999998899e-05,-0.0007463198021019357,0.0004104291484958722,0.0007157149064644375
153000000000.0,4,0.06901920269999999,-0.0977526872,0.23245683159999997,0.049885,-0.017672,0.055884,-0.10433294934999998,-5.4735816975,-8.1362833055,-0.012823,0.59215,-1.4669,2.4999999999997247e-05,-2.4999999999941735e-05,9.999999999998899e-05,-0.00042688633470411297,0.0001875868761607169,0.001215265377514596
153000000000.0,4,0.058447634,-0.1132864208,0.25039319444999997,0.033047,0.018685,0.067532,-0.10693171159999999,-5.476425626,-8.1343219755,-0.013145,0.5925,-1.4663,6.0000000000004494e-05,-2.4999999999941735e-05,9.999999999998899e-05,-0.00029299389897186057,1.7312488025611472e-05,0.0010720905077048482
153000000000.0,4,0.05586848504999999,-0.09504605179999999,0.2256902431,0.021424,0.040078,0.080283,-0.10794179654999998,-5.478190822999999,-8.1331451775,-0.013271,0.59272,-1.4654,2.999999999997449e-05,-3.333333333355171e-05,5.0000000000105516e-05,-0.001092034120371732,0.0009066093592697833,0.00041616101131147776
153000000000.0,4,0.0827092861,-0.09238844965,0.16762506845,0.017033,0.027322,0.084568,-0.10949124724999999,-5.479563754,-8.132262578999999,-0.013463,0.59288,-1.4647,3.0000000000030003e-05,-3.333333333310762e-05,4.999999999988347e-05,-0.0004078213810779774,0.0008720980488712282,0.00015464345016197312
153000000000.0,4,0.1050292215,-0.0764134168,0.11884679135,0.018865,-0.013179,0.079305,-0.11370810674999998,-5.480936685,-8.131183847500001,-0.013983,0.59306,-1.4637,-4.999999999977245e-06,-3.333333333355171e-05,9.999999999998899e-05,-0.0006029397501349232,0.0007295230932786723,-0.00016426372967198732
153000000000.0,4,0.1133060341,-0.07690374929999999,0.09984150365,0.032396,-0.062297,0.068741,-0.12123961395,-5.483486414,-8.1294186505,-0.014912,0.59337,-1.4631,-5.000000000032756e-06,-3.333333333310762e-05,9.999999999998899e-05,-0.0005380269317752928,0.0009066815592122524,-0.0003349149682341235
153000000000.0,4,0.10276388535,-0.08812255689999998,0.0893385815,0.042937,-0.090074,0.051731,-0.13075206444999998,-5.4871148745,-8.1268689215,-0.016087,0.59381,-1.4624,-2.0000000000020002e-05,-3.333333333355171e-05,9.999999999998899e-05,-0.0004968587838599658,0.0004951863065849604,-0.0004716087662444135
153000000000.0,4,0.04245298785,-0.1013026945,0.07528565205,0.048328,-0.094362,0.033602,-0.14016644844999998,-5.4912336674999995,-8.12382886,-0.017252,0.59433,-1.4622,-4.999999999999449e-05,-3.333333333310762e-05,9.999999999998899e-05,-9.256043013827764e-05,0.0004811355105649451,-0.00027048151834158096
153000000000.0,4,0.018044235999999998,-0.09200599029999999,0.07530526535,0.046397,-0.077277,0.017556,-0.14777640885,-5.495450526999999,-8.120886865,-0.018195,0.59484,-1.462,-9.999999999998899e-05,-4.999999999988347e-05,9.999999999998899e-05,5.1856845753817105e-05,-0.00016926287280583097,-0.00024654573727206364
153000000000.0,4,-0.01134629405,-0.07228481715,0.09863528569999999,0.039217,-0.050562,0.002553,-0.15250321415,-5.499373186999999,-8.118141003,-0.018783,0.59532,-1.4622,-0.000130000000000019,-5.000000000032756e-05,3.333333333332966e-05,6.388307364058043e-05,-0.00012267310558122801,-0.000133871323902357
153000000000.0,4,-0.023065240799999998,-0.068254284,0.08695556554999999,0.025637,-0.022735,-0.00926,-0.1542586045,-5.502119049,-8.116179673,-0.019004,0.59567,-1.4623,-0.00013999999999997348,-3.333333333310762e-05,3.333333333332966e-05,0.000514726563443757,-0.0007584299411740325,-2.9099612531113817e-05
153000000000.0,4,-0.0151218543,-0.0487194372,0.06644005374999999,0.009844,-0.002348,-0.01893,-0.1536702055,-5.503688113,-8.115199008,-0.018934,0.59586,-1.4627,-0.00012000000000000899,-3.333333333355171e-05,3.333333333332966e-05,0.0006290088849428832,-0.000984121957312567,-6.562089311840102e-05
153000000000.0,4,-0.013454723799999999,-0.05365218215,0.07252017675,0.003613,0.016887,-0.022177,-0.15114989645,-5.504374578499999,-8.114806741999999,-0.018624,0.59594,-1.463,-0.00012000000000000899,-3.333333333310762e-05,9.999999999998899e-05,0.0003055265592929457,-0.0005570154587184462,-0.00011010097566321875
153000000000.0,4,0.029949509099999997,-0.048572337449999996,0.07638399685,0.004827,0.033929,-0.02434,-0.14696245689999998,-5.5049629775,-8.114414475999999,-0.018109,0.59601,-1.4635,-7.999999999996898e-05,1.4285714285744433e-05,5.0000000000105516e-05,0.00010269482218527859,-0.0006584519221748408,-0.00030492480559662916
153000000000.0,4,0.055897905,-0.0325384647,0.034303661699999995,0.005943,0.039253,-0.02755,-0.1419414521,-5.5055513765,-8.1141202765,-0.017492,0.59609,-1.4639,-9.999999999998899e-05,1.4285714285744433e-05,4.999999999988347e-05,-0.00016388929904798122,-0.0001325436510246636,-5.157403810179817e-05
153000000000.0,4,0.0816697812,-0.031175340349999997,-0.02111371745,0.010102,0.024303,-0.029652,-0.13793053225,-5.5066301079999995,-8.113433810999998,-0.016999,0.59622,-1.4644,-0.00012000000000000899,1.4285714285744433e-05,0.00010000000000021103,1.1527585139337049e-05,8.570755975711997e-05,-0.0004288799031775259
153000000000.0,4,0.09236883635,-0.016180972499999998,-0.04670907395,0.014146,-0.005569,-0.030658,-0.13606726875,-5.508003039,-8.1125512125,-0.01677,0.59639,-1.4647,-9.00000000000345e-05,1.4285714285300344e-05,9.999999999998899e-05,-0.000316628799723051,0.000533269572755346,-0.0004785464118911009
153000000000.0,4,0.08403318385,0.007904159899999999,-0.0746678331,0.016019,-0.037553,-0.029531,-0.13685180075,-5.5094740365,-8.1115705475,-0.016869,0.59657,-1.4653,-9.00000000000345e-05,1.4285714285744433e-05,9.999999999998899e-05,-0.00012072258643047729,0.0005927657771089834,-0.0005133042760982476
153000000000.0,4,0.0500335283,0.01995653275,-0.0718042913,0.022226,-0.057858,-0.02308,-0.1399605088,-5.5113373,-8.110197616499999,-0.017256,0.5968,-1.4656,-7.999999999996898e-05,1.4285714285744433e-05,0.00019999999999997797,-0.0007462469122095916,0.00024943938551591494,-0.0003502615901336825
153000000000.0,4,0.0019024901,0.0153376006,-0.010571568699999999,0.028625,-0.051528,-0.012406,-0.1436085826,-5.513592829499999,-8.108628552499999,-0.017708,0.59708,-1.466,-9.00000000000345e-05,1.4285714285744433e-05,9.999999999998899e-05,-0.00032954936080897834,0.0002604117337081657,2.3811158283038036e-05
153000000000.0,4,-0.0420313019,0.046424681100000004,0.055593898850000004,0.042563,-0.036733,-0.002802,-0.14681535715,-5.517025156999999,-8.106274956499998,-0.018109,0.5975,-1.466,-4.999999999999449e-05,5.000000000032756e-05,9.999999999998899e-05,-0.001167117886259228,-8.266686467139905e-06,7.295201157098141e-05
153000000000.0,4,-0.0772175621,0.05724141605,0.08843636969999999,0.060835,-0.016643,0.002531,-0.1485903608,-5.521732349,-8.103038761999999,-0.018335,0.59808,-1.4662,-7.999999999996898e-05,4.999999999988347e-05,9.999999999998899e-05,-0.0010209277689759988,-0.000428156078155828,0.00017900972295731288
153000000000.0,4,-0.0716081583,0.06694999955,0.13714600024999998,0.077005,0.003471,0.001456,-0.14865900735,-5.527518272499999,-8.0990180355,-0.018353,0.5988,-1.4662,-0.00012000000000000899,9.999999999976694e-05,9.999999999998899e-05,-0.0005892667544731278,-0.000899509144882904,0.0003332113338608833
153000000000.0,4,-0.0448752304,0.05503491979999999,0.18180548435,0.095304,0.018248,-0.007077,-0.14696245689999998,-5.5348732599999995,-8.094016644,-0.018155,0.59971,-1.4664,-0.00014999999999998348,0.00010000000000021103,9.999999999998899e-05,-0.00133471213634484,-0.0006440056404228844,9.80069135094741e-05
153000000000.0,4,-0.01166010685,0.017514676899999998,0.22367987984999999,0.10829,0.034134,-0.016689,-0.14352032274999998,-5.543306979,-8.088328786999998,-0.017742,0.60075,-1.4666,-0.00012000000000000899,9.999999999976694e-05,9.999999999998899e-05,-0.0010824644876425982,-0.0010523507297066637,5.065242435348116e-05
153000000000.0,4,0.028507931549999997,-0.0220257359,0.2675842519,0.11062,0.052241,-0.027391,-0.1379011123,-5.552132963999999,-8.082444796999999,-0.01706,0.60184,-1.4671,-0.00017999999999995797,0.00010000000000021103,4.999999999988347e-05,-0.0007806676235465604,-0.0009964996000892956,-0.00018917500293086364
153000000000.0,4,0.0846117762,-0.07871797954999998,0.23717383025,0.10109,0.052335,-0.042351,-0.1312914302,-5.560370549999999,-8.076855006499999,-0.016254,0.60286,-1.4675,-0.00014999999999998348,-0.00010000000000021103,5.0000000000105516e-05,-0.00040040527778228974,-0.0005123951280345818,-0.0004864518601512269
153000000000.0,4,0.16060350704999998,-0.11685604139999999,0.21177460674999998,0.075406,0.031253,-0.060504,-0.12528976039999998,-5.5669410054999995,-8.0723439475,-0.01552,0.60368,-1.4684,-0.000200000000000089,-4.999999999988347e-05,-9.999999999998899e-05,-0.00033724086657438423,0.0001742235411337223,-0.0007645839574305646
153000000000.0,4,0.1862675101,-0.13799917879999998,0.18493380569999998,0.045381,0.002749,-0.077585,-0.12058256839999999,-5.5712559315,-8.069500019,-0.014942,0.60421,-1.4692,-0.00017999999999995797,-4.999999999988347e-05,-9.999999999998899e-05,0.0001938708431805658,-0.00032582443086259794,-0.000630604281220859
153000000000.0,4,0.19318119835,-0.1446480875,0.17447991679999997,0.010144,-0.010796,-0.093633,-0.11657164854999999,-5.5728249955,-8.0684212875,-0.014447,0.6044,-1.4705,-0.000160000000000049,-0.00010000000000021103,-9.999999999998899e-05,0.0005048291513751746,-0.0008792464028004598,-0.00022492544168245532
153000000000.0,4,0.16067215359999998,-0.14181396564999998,0.17019441074999997,-0.029319,-0.010469,-0.095837,-0.11248227549999999,-5.571353997999999,-8.0695980855,-0.013939,0.60422,-1.4716,-0.00013999999999991797,-9.999999999976694e-05,-9.999999999998899e-05,0.0012904923763578102,-0.0004701624654099845,-0.0005341236033875041
153000000000.0,4,0.1032051846,-0.1309383908,0.14201009865,-0.064407,0.013248,-0.082064,-0.10740243079999999,-5.5669410054999995,-8.072638147,-0.013303,0.60367,-1.4728,-0.00017000000000000348,-0.00019999999999997797,-9.999999999998899e-05,0.0017365309209969038,-0.0004086425155749307,-0.0005152298664632404
153000000000.0,4,0.08594548059999998,-0.10634331259999999,0.14061755434999998,-0.090902,0.046483,-0.06509,-0.10061622899999999,-5.5604686165,-8.0772472725,-0.012456,0.60287,-1.4737,-0.00012000000000000899,-0.00010000000000021103,-9.999999999998899e-05,0.001714905226911756,0.00013409832420818724,-0.00034794322206799233
153000000000.0,4,0.10751030395,-0.0739617543,0.09091745215,-0.11319,0.067967,-0.053425,-0.0923982563,-5.552132963999999,-8.083033195999999,-0.01143,0.60184,-1.4745,-0.000160000000000049,-9.999999999976694e-05,-9.999999999998899e-05,0.001545520681746404,-0.0003181719927278781,-0.00042226448907145553
153000000000.0,4,0.10346996415,-0.04564995575,0.01611232595,-0.12706,0.073397,-0.043851,-0.0835722713,-5.542424380499999,-8.0897997845,-0.01033,0.60064,-1.4751,-0.00012000000000000899,-0.00019999999999997797,-9.999999999998899e-05,0.001156111950518235,-0.0005012956581378347,-0.0005306294534170308
153000000000.0,4,0.13816589185,-0.0348136075,-0.025879749349999998,-0.12715,0.060614,-0.047031,-0.07532487865,-5.532617730499999,-8.096566373,-0.009303,0.59943,-1.4759,-0.00017000000000000348,-5.000000000032756e-05,-5.0000000000105516e-05,0.0008452973562688149,-0.00045401914874276805,-0.0006172842780401422
153000000000.0,4,0.13302720725,-0.03254827135,-0.07412846734999999,-0.11135,0.031718,-0.05229,-0.06883287635,-5.5237917455000005,-8.102646495999998,-0.008494,0.59834,-1.4765,-0.00012000000000000899,-4.999999999988347e-05,-4.999999999988347e-05,0.0007078104452384881,-0.00035158886779718124,-0.0007819660315822041
153000000000.0,4,0.07418730724999999,-0.0034323275,-0.15510197639999998,-0.085958,-0.00045,-0.060728,-0.0646062102,-5.516829023999999,-8.1074517545,-0.007969,0.59748,-1.4775,-0.00010999999999994348,4.999999999988347e-05,9.999999999998899e-05,0.00020555050868331648,-0.0002860111914602115,-0.00031596289386770504
153000000000.0,4,0.03639247815,0.008816178349999999,-0.1677329416,-0.046567,-0.013554,-0.065975,-0.0615269221,-5.5128082975,-8.110197616499999,-0.007587,0.59698,-1.4783,-0.00012999999999996348,5.000000000032756e-05,9.999999999998899e-05,0.00016388550849277816,-0.0004704666767982868,-0.0006345425657201531
153000000000.0,4,-0.007286340949999999,0.00608992965,-0.17665699309999996,-0.000653,-0.009669,-0.066969,-0.05855550714999999,-5.512317965,-8.1105898825,-0.007219,0.59692,-1.4793,-9.999999999998899e-05,0.00010000000000021103,9.999999999998899e-05,-0.000671430889790603,-0.00044050711397924935,-0.0006634401870002082
153000000000.0,4,0.00041187929999999997,0.013003617899999998,-0.2393410999,0.037766,-0.007858,-0.064771,-0.05547621904999999,-5.515161893499999,-8.108628552499999,-0.006842,0.59728,-1.4801,-6.0000000000060005e-05,9.999999999976694e-05,0.00019999999999997797,-0.001567054203630236,-0.000521494264715594,-0.00036942278945678586
153000000000.0,4,0.0391089202,0.0016279038999999999,-0.25425701455,0.066528,-0.013423,-0.064711,-0.05257345065,-5.5204574845000005,-8.105098158499999,-0.006487,0.59792,-1.481,-4.999999999999449e-05,9.999999999976694e-05,0.00019999999999997797,-0.00141734558286577,-0.000495684941184793,-0.0002211314735353631
153000000000.0,4,0.08369975774999999,0.00932612415,-0.2603665575,0.078212,-0.020975,-0.066813,-0.050180628049999995,-5.5267337405,-8.1007832325,-0.006195,0.59871,-1.4819,-7.999999999996898e-05,0.00010000000000021103,0.00019999999999997797,2.109631759894537e-05,-0.0009095706263440029,-4.2501284539253614e-05
153000000000.0,4,0.08877960245,0.00579573015,-0.24458765765,0.078253,-0.012456,-0.061491,-0.04763089905,-5.533304196,-8.096370239999999,-0.005883,0.59951,-1.4828,3.500000000000725e-05,9.999999999976694e-05,0.00019999999999997797,-0.0008258573803952007,-0.0003928370991312935,0.0004066312497600366
153000000000.0,4,0.07589366435,-0.022800461249999997,-0.1859536973,0.071974,0.013154,-0.045536,-0.0441691516,-5.539188186,-8.092251447,-0.005458,0.60024,-1.4834,3.500000000000725e-05,0.00010000000000021103,0.00019999999999997797,-0.00040508227178703837,-0.0011337750781694744,0.0007334048905864865
153000000000.0,4,0.0428354472,-0.05216157135,-0.1369596739,0.058216,0.045206,-0.016796,-0.03968751255,-5.5439934445,-8.089113318999999,-0.004907,0.60083,-1.4839,5.999999999994898e-05,9.999999999976694e-05,0.00029999999999996696,-0.00020903965670104885,-0.0007205643078511681,0.0009646586753170316
153000000000.0,4,0.060536450449999994,-0.069234949,-0.08911302854999999,0.043437,0.080467,0.007666,-0.03390158905,-5.5475238385,-8.086661656499999,-0.004192,0.60127,-1.4839,4.999999999999449e-05,0.00010000000000021103,0.00020000000000020002,0.00034806991720404135,-0.0003238274453665202,0.0008908379709567926
153000000000.0,4,0.11277647499999999,-0.09314356169999999,-0.03288169745,0.028518,0.098679,0.033226,-0.02778223945,-5.5498774345,-8.0850925925,-0.003436,0.60156,-1.4838,2.0000000000020002e-05,9.999999999976694e-05,0.00019999999999997797,0.00048779118828590207,-0.000288383952848692,0.0009247952835266249
153000000000.0,4,0.15686717339999998,-0.12486807444999999,0.0023143694,0.020938,0.098713,0.057764,-0.0226337482,-5.551348432,-8.0841119275,-0.0028,0.60174,-1.4831,9.00000000000345e-05,3.333333333355171e-05,0.00019999999999997797,-0.000715167530592864,7.481560347732952e-05,0.0009654762479163193
153000000000.0,4,0.19614280665,-0.18108959889999998,0.07418730724999999,0.019619,0.080586,0.079141,-0.01972117315,-5.55252523,-8.083229329,-0.00244,0.60189,-1.4824,0.00012999999999996348,3.333333333310762e-05,0.00029999999999996696,-0.0013056966873055131,5.64429370537578e-05,0.0012305311381836659
153000000000.0,4,0.25051087425,-0.18355106805,0.12014126915,0.027834,0.050671,0.093084,-0.0197702064,-5.554290427,-8.082052530999999,-0.002446,0.60211,-1.4813,0.00017999999999995797,3.333333333355171e-05,0.00029999999999996696,-0.0008196586075972512,0.0008223788452601521,0.0004106506504431007
153000000000.0,4,0.2705850868,-0.177696498,0.1288005411,0.036082,0.018628,0.099559,-0.022927947699999996,-5.556742089499999,-8.080385400499999,-0.002838,0.60241,-1.4803,0.00021999999999999797,3.333333333310762e-05,0.00029999999999996696,-0.000962523694913564,0.0010872918638129558,0.00045622317307508764
153000000000.0,4,0.26019984445,-0.15785764505,0.11078572504999999,0.052915,-0.012411,0.097508,-0.02870406455,-5.5602724834999995,-8.077933738,-0.003554,0.60284,-1.4791,0.00019000000000002348,3.333333333355171e-05,0.00019999999999997797,-0.0011391988179071388,-5.0090878422892615e-06,0.0004417073749806155
153000000000.0,4,0.21526577414999998,-0.084533323,0.1160322828,0.075309,-0.021108,0.085821,-0.035107807,-5.565666141,-8.074207211,-0.004348,0.60351,-1.4782,0.00021999999999999797,3.333333333310762e-05,0.00029999999999996696,-0.0011366043195922826,0.000695470313007096,0.0010564985411235517
153000000000.0,4,0.19170039419999998,-0.0324403982,0.1208963812,0.10207,-0.018122,0.075188,-0.04086431055,-5.5733153280000005,-8.06891162,-0.005064,0.60446,-1.4772,0.000160000000000049,4.999999999988347e-05,0.000300000000000189,-0.0005210913833144648,-0.0005525490434252767,0.0009189484028599981
153000000000.0,4,0.14038219475,-0.0068842683,0.09546773775,0.12574,0.003003,0.06772,-0.04461045085,-5.582925845,-8.0621450315,-0.005534,0.60566,-1.4766,0.00020999999999993246,5.000000000032756e-05,0.00029999999999996696,-0.0010005487121504952,-0.0005408175730552411,0.0010769606898732298
153000000000.0,4,0.0865534929,0.00579573015,0.0987137389,0.14517,0.031613,0.068771,-0.04615990155,-5.594497691999999,-8.054201645,-0.005731,0.60709,-1.4758,0.00019000000000002348,5.000000000032756e-05,0.00029999999999996696,-0.002204261190222434,-0.00031721953594177066,0.0013164220040152719
153000000000.0,4,0.08666136605,-0.0017259703999999998,0.12985965929999999,0.15716,0.063482,0.068735,-0.044914457,-5.6071482705,-8.04537566,-0.005582,0.60866,-1.4751,0.0002300000000000635,4.999999999988347e-05,0.00029999999999996696,-0.001423489106664344,-0.0004110238872074845,0.0005257858188183473
153000000000.0,4,0.11357081364999999,-0.01797558945,0.13201712229999998,0.15946,0.082651,0.064435,-0.041442902899999995,-5.620387247999999,-8.036157409,-0.005157,0.61031,-1.4744,0.00019999999999997797,-2.0000000000131024e-05,0.00019999999999997797,-0.0016607812735210947,-0.00025407999916704505,0.0007340352611355794
153000000000.0,4,0.16017201444999998,-0.02697809415,0.13998992875,0.15636,0.086952,0.051613,-0.036873003999999994,-5.633332025999999,-8.027135291,-0.004594,0.61192,-1.4739,0.00012999999999996348,-2.0000000000131024e-05,0.00029999999999996696,-0.0012576081392662308,-0.0006494247608468395,-3.7841303058394615e-05
153000000000.0,4,0.20710664134999998,-0.0505238608,0.16793888125,0.14668,0.068928,0.039887,-0.03262672455,-5.6455903385,-8.018505439,-0.004069,0.61345,-1.4734,0.00019000000000002348,-1.9999999999686935e-05,9.999999999998899e-05,-0.001213255830169624,0.0009379893083731883,6.237041778339725e-05
153000000000.0,4,0.22923044374999998,-0.04437509125,0.19063146935,0.1241,0.042483,0.031355,-0.0299102825,-5.656083454,-8.011150451499999,-0.003734,0.61476,-1.4733,0.00029000000000001247,-2.0000000000131024e-05,0.00019999999999997797,-0.000477006982752326,-0.00040261247672379596,0.0007442005012576747
153000000000.0,4,0.22302283429999997,-0.03435269495,0.17690215934999998,0.0876,0.014009,0.03241,-0.029537629799999996,-5.6638307075,-8.0056587275,-0.00369,0.61573,-1.4729,0.00021999999999999797,-2.0000000000131024e-05,9.999999999998899e-05,2.2384912836681536e-05,0.0009039247458446642,0.0004039570503561185
153000000000.0,4,0.23917438685,-0.044963490249999995,0.13326256684999999,0.043632,-0.008016,0.04198,-0.031773546,-5.6682437,-8.0025205995,-0.003971,0.61627,-1.4726,0.00031999999999998696,-0.00019999999999997797,0.00010000000000021103,-9.213687952591698e-05,0.00030421074019160166,0.0012353772583075795
153000000000.0,4,0.1757940079,-0.02654660155,0.06797969779999999,-0.005506,-0.004429,0.057899,-0.0351274203,-5.668635966,-8.0022264,-0.00439,0.61633,-1.472,0.00031000000000003247,-0.00010000000000021103,9.999999999998899e-05,0.00018750993583904751,0.00025635741501517373,0.0009987702290769063
153000000000.0,4,0.0930651085,0.027448813349999997,0.0282039254,-0.045855,0.027858,0.070581,-0.0372456567,-5.665595904499999,-8.004383863,-0.004654,0.61595,-1.4713,0.00022999999999995246,-4.999999999988347e-05,9.999999999998899e-05,-0.00042152396118178004,-0.00010679886632702917,0.0010031393699933555
153000000000.0,4,0.0499943017,0.0607816167,0.0389127872,-0.065807,0.072763,0.081142,-0.036529771249999995,-5.6606925795,-8.0078161905,-0.004562,0.61533,-1.4704,0.00024000000000001798,-4.999999999988347e-05,9.999999999998899e-05,0.0009027396675003185,-0.00037987498323177604,0.0013308908041592127
153000000000.0,4,0.017524483549999997,0.095909037,0.044443737799999994,-0.064513,0.10259,0.083226,-0.0330876371,-5.6553969885,-8.011640783999999,-0.00413,0.61467,-1.4695,0.00023999999999996247,2.0000000000131024e-05,4.999999999988347e-05,0.0005241262314785722,-0.0003774260236260041,0.0007855659901778722
153000000000.0,4,0.029057103949999996,0.10917743445,0.05820246775,-0.044228,0.094981,0.066196,-0.0287530978,-5.651572395,-8.0142885795,-0.003588,0.6142,-1.4687,0.00021000000000004349,1.9999999999686935e-05,5.0000000000105516e-05,0.0002943187460775487,-0.00019510940093248053,-2.1969366451102257e-05
153000000000.0,4,0.05088670685,0.15030652455,0.06224280755,-0.016506,0.071345,0.032128,-0.024251845449999997,-5.6499052645,-8.0154653775,-0.003026,0.61399,-1.4684,0.00019999999999997797,2.0000000000131024e-05,9.999999999998899e-05,0.00012053137670864356,-0.00031428562058755105,-0.00020621941611354
153000000000.0,4,0.028056825649999995,0.16829192064999998,0.10745146404999999,0.013341,0.047688,0.0002,-0.019819239649999997,-5.65059173,-8.0150731115,-0.002473,0.61407,-1.4684,0.00018000000000001348,1.9999999999686935e-05,9.999999999998899e-05,-8.962526543376814e-05,-0.0007782151060131692,5.775629444648711e-06
153000000000.0,4,0.01122861425,0.11306086784999998,0.19573092735,0.048528,0.035693,-0.014661,-0.01556315355,-5.6540240575,-8.012621449,-0.001943,0.6145,-1.4687,0.00017000000000000348,2.0000000000131024e-05,9.999999999998899e-05,-0.0005831398355442552,-0.0010101818296943677,4.0259226518679636e-05
153000000000.0,4,0.012317152399999998,0.08611219365,0.2397137526,0.070877,0.022729,-0.023139,-0.0120229529,-5.6595157815,-8.008698789,-0.001501,0.61518,-1.469,0.00015999999999999348,5.000000000032756e-05,-2.4999999999941735e-05,-0.0003828698299779276,-0.00046683216822573925,-0.0003850434676373471
153000000000.0,4,0.0160436794,0.0898877539,0.23105448064999998,0.079399,0.018401,-0.027386,-0.008865211599999999,-5.665792037499999,-8.0042857965,-0.001108,0.61598,-1.4695,0.00020999999999998797,4.999999999988347e-05,-2.4999999999941735e-05,-0.0008920925119992873,-0.00024985074687666753,-0.00014072923407099092
153000000000.0,4,0.041844975549999996,0.06037954405,0.24672550734999998,0.081461,0.00986,-0.027368,-0.00638412915,-5.672264426499999,-7.999774737499999,-0.000798,0.61677,-1.4698,0.00019999999999997797,-4.999999999988347e-05,-2.500000000016378e-05,-0.0008978066432897558,0.00013601324922984936,0.0001957547306569163
153000000000.0,4,0.08864230934999999,0.0025301156999999997,0.26060191709999997,0.069612,0.000359,-0.019899,-0.0048444850999999995,-5.6779522835,-7.995655944499999,-0.000606,0.61749,-1.4702,0.00024000000000001798,-5.000000000032756e-05,-2.4999999999941735e-05,-0.0008357938028601408,0.00027550605352333335,0.0004754873436265128
153000000000.0,4,0.11179581,-0.042168594999999996,0.23429067515,0.051261,-0.016554,-0.004958,-0.005246557749999999,-5.682365276,-7.9925178164999995,-0.000657,0.61804,-1.4703,0.00024000000000001798,-4.999999999988347e-05,-9.999999999998899e-05,0.0006962289111950293,0.0003851744527545442,0.00011980216106943775
153000000000.0,4,0.10459772889999999,-0.0637039984,0.18869955929999999,0.024345,-0.032341,0.018506,-0.008227779349999999,-5.6846208055,-7.9909487525,-0.00103,0.61832,-1.4704,0.00029999999999996696,-4.999999999988347e-05,-9.999999999998899e-05,0.0007123060393291469,0.0007392685196445647,0.0002725354976785832
153000000000.0,4,0.0731772223,-0.07800209409999999,0.1771473256,-0.010905,-0.022483,0.04191,-0.012425025549999998,-5.684228539499999,-7.991242952,-0.001555,0.61828,-1.47,0.00023000000000000798,-0.00010000000000021103,-9.999999999998899e-05,0.0009980289643422013,0.0003181966358205557,0.0004901771655995701
153000000000.0,4,0.0035990405499999995,-0.08135596839999999,0.14993387184999998,-0.048134,0.004442,0.062079,-0.01601425945,-5.680992345,-7.9934984815,-0.002004,0.61788,-1.4694,0.000250000000000028,-0.00019999999999997797,-0.00019999999999997797,0.0006410692557804465,-0.0001839349242187538,0.0011577829032266007
153000000000.0,4,-0.045169429899999995,-0.053161849649999995,0.11886640465,-0.079862,0.043055,0.069428,-0.01723028405,-5.675304488,-7.9976172745,-0.002154,0.61715,-1.4686,0.00023000000000000798,-9.999999999976694e-05,-9.999999999998899e-05,0.0014376334245048694,-2.7574234854554902e-05,0.0008140494376490115
153000000000.0,4,-0.050406180999999994,-0.052720550399999996,0.0988118054,-0.10204,0.070945,0.068273,-0.0157298666,-5.667459168,-8.0031089985,-0.001966,0.61618,-1.4679,0.00018999999999996797,-0.00010000000000021103,-0.00010000000000021103,0.0007652407265956729,-0.00015182898295784675,0.0005293713599819894
153000000000.0,4,-0.019113160849999998,-0.06227222749999999,0.09235902969999998,-0.11055,0.066763,0.057592,-0.013356657299999998,-5.658829315999999,-8.0091891215,-0.001667,0.6151,-1.4672,0.00019000000000002348,-9.999999999976694e-05,-0.00019999999999997797,0.0008396800022378859,0.00041725506763889975,9.413664741264594e-05
153000000000.0,4,0.01013026945,-0.06132098245,0.09584039045,-0.10749,0.039049,0.041635,-0.01207198615,-5.6504936635,-8.0150731115,-0.001506,0.61406,-1.4668,0.00017999999999995797,-0.00010000000000021103,-0.00019999999999997797,6.656206976052292e-05,0.00015520083128950368,-0.00012334920439682762
153000000000.0,4,0.0245362383,-0.042923707049999996,0.09900793840000001,-0.085403,-0.008006,0.028947,-0.01346453045,-5.6434328755,-8.020074503,-0.001679,0.61318,-1.4665,0.00019000000000002348,-9.999999999976694e-05,-9.999999999998899e-05,0.0006736279267999246,0.0011357428651244117,-0.00035346920334244913
153000000000.0,4,0.0077472535,-0.00473661195,0.11303144789999998,-0.060056,-0.044438,0.022651,-0.017475450299999997,-5.638431484,-8.023604897,-0.002178,0.61255,-1.4664,0.00017000000000000348,-5.000000000032756e-05,-0.00019999999999997797,-0.00013512001170323806,0.0004871790427012357,9.310718755672909e-05
153000000000.0,4,-0.06986257459999999,0.014239255799999998,0.1035974506,-0.030315,-0.057473,0.026995,-0.023212340550000002,-5.6357836885,-8.0254681605,-0.002893,0.61223,-1.4661,0.00013999999999997348,-4.999999999988347e-05,-9.999999999998899e-05,-0.0002512224640409677,0.0001361079117980779,0.00018018518471352163
153000000000.0,4,-0.0975957808,0.0159063863,0.08154229475,-0.004671,-0.048101,0.034494,-0.029155170449999997,-5.635293356,-8.02576236,-0.003632,0.61216,-1.4658,0.000160000000000049,-2.0000000000131024e-05,-9.999999999998899e-05,-0.0003298008751403403,0.00036789745684928654,0.00044589682719442525
153000000000.0,4,-0.1121684627,0.0226141349,0.08568070104999999,0.018919,-0.028056,0.041971,-0.034176175249999996,-5.6365682205,-8.0248797615,-0.004259,0.61232,-1.4653,0.00013999999999997348,-1.9999999999686935e-05,-9.999999999998899e-05,-8.200210225928206e-05,0.00016799767098518714,0.00048542536290446803
153000000000.0,4,-0.12014126915,-0.0025693423,0.056770696849999996,0.029658,-0.015363,0.048372,-0.0383243882,-5.6389218165,-8.023212631,-0.004777,0.61262,-1.4649,0.00014999999999998348,-2.0000000000131024e-05,-9.999999999998899e-05,-0.0007132876109882114,0.00013935767046890923,0.000731519772917022
153000000000.0,4,-0.10315615135,-0.038226321699999996,0.03095959405,0.030797,-0.006852,0.049427,-0.041844975549999996,-5.641569612,-8.0213493675,-0.005217,0.61295,-1.4643,0.00010999999999999899,-1.9999999999686935e-05,-9.999999999998899e-05,-0.00011720776250523368,0.00010562578099615472,0.00041471273521354046
153000000000.0,4,-0.09252574275,-0.06443949715,0.05186737185,0.02553,-0.000411,0.046204,-0.044541804299999994,-5.643923208,-8.0195841705,-0.005554,0.61324,-1.4638,8.00000000000245e-05,-2.0000000000131024e-05,-9.999999999998899e-05,-0.0004987979683322985,0.0006996596389248211,0.00010552004850289398
153000000000.0,4,-0.08083621595,-0.1070297781,0.07688413599999999,0.019093,-0.005686,0.045135,-0.0472484397,-5.6457864715,-8.018309305999999,-0.005893,0.61347,-1.4633,3.999999999998449e-05,-3.333333333355171e-05,-9.999999999998899e-05,0.00021065253273599982,0.0006578253103293186,4.916952451627932e-05
153000000000.0,4,-0.06363535185,-0.15712214630000002,0.07270650309999999,0.011521,-0.022666,0.038748,-0.05098477334999999,-5.647061336,-8.0174267075,-0.006359,0.61363,-1.463,2.0000000000020002e-05,-3.333333333310762e-05,-0.00019999999999997797,-0.0006859743034500765,0.0010038409241550639,-2.7206311923877458e-05
153000000000.0,4,-0.0376183094,-0.14904146669999999,0.08043414329999998,0.003928,-0.04284,0.03023,-0.056054811399999994,-5.647453601999999,-8.0170344415,-0.006992,0.61368,-1.4625,2.999999999997449e-05,-3.333333333355171e-05,-5.0000000000105516e-05,0.00034970074990225974,0.0004452882718688489,-0.00037541971485777204
153000000000.0,4,-0.03539219984999999,-0.1338999991,0.08695556554999999,-0.001507,-0.061965,0.019581,-0.062174161,-5.647453601999999,-8.0170344415,-0.007755,0.61369,-1.4624,-1.0000000000010001e-05,-4.999999999988347e-05,-4.999999999988347e-05,0.00038269158653914115,0.0004351969325124827,-2.963686909079888e-05
153000000000.0,4,-0.0355392996,-0.15086550359999998,0.08843636969999999,-0.000435,-0.068359,0.009988,-0.06846022365,-5.647453601999999,-8.0170344415,-0.008539,0.61368,-1.4622,-9.99999999995449e-06,-4.999999999988347e-05,-9.999999999998899e-05,0.0003411174437354392,0.0007159565785641586,-0.0002824279099493121
153000000000.0,4,-0.051563365699999995,-0.1676152618,0.0677051116,-0.011031,-0.061874,0.005688,-0.0742755671,-5.646865203,-8.017328641,-0.009264,0.6136,-1.4623,-3.0000000000030003e-05,-0.00010000000000021103,-9.999999999998899e-05,0.0009035207097679576,-5.243004489008385e-05,-4.913120193628107e-06
153000000000.0,4,-0.07369697474999999,-0.14960044574999998,0.00709020795,-0.027884,-0.038282,-0.001855,-0.07803151405,-5.645100006,-8.018505439,-0.009732,0.61339,-1.4623,-4.999999999999449e-05,-9.999999999976694e-05,-0.00010000000000021103,0.0010977701259572425,-0.0004500058503758009,9.740470933466971e-05
153000000000.0,4,-0.0813363551,-0.15111066985,-0.028537351499999995,-0.052082,-0.002906,-0.013701,-0.07848261995,-5.641471545499999,-8.021055168,-0.009784,0.61294,-1.4626,-0.00010999999999999899,-0.00010000000000021103,-9.999999999998899e-05,0.0010834835523573227,-0.00031802746926112846,-0.0002192958718024718
153000000000.0,4,-0.08820101009999999,-0.14478538059999999,-0.08236605335,-0.076369,0.019688,-0.028726,-0.07610941064999999,-5.6361759545,-8.0248797615,-0.009483,0.61227,-1.4628,-0.00019999999999997797,-0.00019999999999997797,-9.999999999998899e-05,0.0015157332048522099,-0.0006323323485746268,-0.0004652200073514967
153000000000.0,4,-0.10121443464999999,-0.14607005174999999,-0.1532190996,-0.10918,0.040226,-0.0491,-0.0708628529,-5.628428701,-8.030273419,-0.008825,0.61131,-1.4635,-0.00021999999999999797,-0.00010000000000021103,-9.999999999998899e-05,0.002175325156956287,-0.0015225354984960138,-0.0002124125395642773
153000000000.0,4,-0.13755787954999998,-0.12675095125,-0.1800697073,-0.13451,0.059638,-0.072661,-0.06281159324999999,-5.618622051,-8.037334206999999,-0.007815,0.61008,-1.4643,-0.00020000000000003348,-9.999999999976694e-05,-9.999999999998899e-05,0.0016233730441855831,-0.0010531734579537488,-0.00045164240047240733
153000000000.0,4,-0.16187837155,-0.16578141824999998,-0.17919691545,-0.15354,0.070469,-0.089791,-0.05255383735,-5.6069521374999995,-8.0454737265,-0.006532,0.60864,-1.4655,-0.00019999999999997797,-5.000000000032756e-05,-9.999999999998899e-05,0.001507761914568917,-0.0011959130768637305,-0.00037121010895746487
153000000000.0,4,-0.14778621549999998,-0.19433838305,-0.14756066255,-0.15762,0.0865,-0.10264,-0.0404622379,-5.594693824999999,-8.0541035785,-0.005024,0.60711,-1.4668,-0.00018000000000001348,-4.999999999988347e-05,9.999999999998899e-05,0.0010354427976906333,-0.0010880946220472865,-0.0004164565979047907
153000000000.0,4,-0.1403527748,-0.18664016279999998,-0.12743741674999998,-0.14362,0.099176,-0.1069,-0.02693886755,-5.5832200445,-8.062046965,-0.003341,0.60569,-1.4682,-0.00024000000000001798,3.333333333355171e-05,6.666666666665932e-05,0.0012177152695119764,-0.001566028986651924,-0.0005110529977893075
153000000000.0,4,-0.116895268,-0.16550683205,-0.15101260335,-0.13071,0.11505,-0.10371,-0.012542705349999999,-5.5728249955,-8.069303886,-0.001554,0.6044,-1.4695,-0.00021999999999999797,3.333333333310762e-05,6.666666666665932e-05,0.0005151686807970401,-0.0016811590276435417,-0.00043454395626085773
153000000000.0,4,-0.085513988,-0.15028691125,-0.15850488394999998,-0.098669,0.1233,-0.096193,0.00246146915,-5.564391276499999,-8.075187876,0.000305,0.60335,-1.4708,-0.00024999999999997247,3.333333333355171e-05,6.666666666665932e-05,-0.00010165927850103174,-0.0013485117365030774,-0.0002020666290931672
153000000000.0,4,-0.0459147353,-0.08069892285,-0.1300754056,-0.056014,0.12721,-0.08652,0.0171812508,-5.5591937520000005,-8.07871827,0.002127,0.60271,-1.4718,-0.000250000000000028,4.999999999988347e-05,0.00019999999999997797,-0.0006310613367410678,-0.0012453772488305592,-0.00013427341308985818
153000000000.0,4,-0.00909076455,-0.05441710085,-0.14795292855,-0.011315,0.11511,-0.083219,0.031234180249999997,-5.5574285549999995,-8.079895067999999,0.003866,0.6025,-1.473,-0.00028999999999995696,4.999999999988347e-05,0.000300000000000189,-0.0002766750278185848,-0.0015595310642171345,-0.0006119644229475307
153000000000.0,4,0.0219276694,-0.01315071765,-0.18080520604999997,0.039592,0.074207,-0.088396,0.042560861,-5.5596840845,-8.078326004,0.005269,0.60277,-1.474,-0.00028000000000000247,0.00020000000000042206,0.00029999999999996696,-0.0016758066431387109,-0.0006983528507682468,-0.0009494920266366336
153000000000.0,4,0.0740205942,0.01817172245,-0.1312522036,0.094827,0.032212,-0.10637,0.0512299396,-5.566254539999999,-8.073716878499999,0.006345,0.60359,-1.4754,-0.00018000000000001348,0.00019999999999997797,0.00039999999999995595,-0.001971234766878216,-0.0006223241901381904,-0.0011883204919773682
153000000000.0,4,0.07314780235,0.010855961549999998,-0.10004744329999998,0.14794,-0.006578,-0.11902,0.0574865823,-5.577336054499999,-8.065969625,0.007127,0.60497,-1.4768,-0.00024000000000001798,0.00019999999999997797,0.00039999999999995595,-0.0017857103691261145,-0.000814874193944215,-0.0013638239454004664
153000000000.0,4,0.04686598035,-0.0307732677,-0.0663125673,0.18508,-0.035649,-0.12424,0.06161518195,-5.59175183,-8.0560649085,0.007649,0.60674,-1.4784,-0.00018999999999996797,0.00019999999999997797,0.0004999999999999449,-0.001809364093343202,-0.0008929711421679087,-0.001192282412920409
153000000000.0,4,0.0811009955,-0.0491117032,-0.03133224675,0.20104,-0.038977,-0.12314,0.0650965427,-5.607638603,-8.0448853275,0.008091,0.60872,-1.4799,-0.00018000000000001348,9.999999999976694e-05,0.000400000000000178,-0.0018978352214713556,-0.00040967392588830975,-0.0006910053982575604
153000000000.0,4,0.08940722805,-0.0838076309,-0.0014513841999999999,0.19565,-0.03788,-0.11034,0.06815621749999999,-5.623525375999999,-8.033803812999999,0.008484,0.6107,-1.4815,-0.00017000000000000348,0.00010000000000021103,0.00039999999999995595,-0.0012486020750346327,-0.00011643769696045858,-0.00042123530430571154
153000000000.0,4,0.08685749905,-0.12473078134999999,0.0006374322499999999,0.16568,-0.03446,-0.085851,0.07026464725,-5.637352752499999,-8.0240952295,0.008756,0.61242,-1.4826,-0.00010999999999999899,9.999999999976694e-05,0.00029999999999996696,-0.0010656903879047164,0.00038517150818706547,-0.00040718810236606284
153000000000.0,4,0.10725533105,-0.11865065835,0.0461500949,0.13143,-0.028881,-0.056033,0.0714120253,-5.648434267,-8.016347976,0.008908,0.6138,-1.4835,-8.00000000000245e-05,-1.6666666666775853e-05,0.00029999999999996696,-0.0013145327029938647,0.0005324011045644284,-4.7552406934991964e-05
153000000000.0,4,0.09846857264999999,-0.12020010905,0.09715448154999999,0.092919,-0.024335,-0.02622,0.07122569895,-5.656279586999999,-8.010758185499999,0.00889,0.61478,-1.4839,-3.999999999998449e-05,-1.6666666666331764e-05,0.00019999999999997797,-0.00046137920209921024,0.00032809884969253744,4.25334957651069e-05
153000000000.0,4,0.1009104285,-0.10442120919999999,0.12371088974999998,0.056512,-0.024063,0.000402,0.06983315464999999,-5.6612809785,-8.007227791499998,0.008721,0.6154,-1.4842,-3.999999999998449e-05,-1.6666666666775853e-05,0.00019999999999997797,-0.0002681933472725717,0.0009623957535886962,0.0006353385971282766
153000000000.0,4,0.10954028049999999,-0.0764722567,0.156121868,0.028629,-0.027054,0.023841,0.06688135299999999,-5.6639287739999995,-8.005364528,0.008354,0.61574,-1.484,-9.999999999998899e-05,-1.6666666666775853e-05,9.999999999998899e-05,0.0004269706182842281,0.0012575553191029876,-0.00032843640958502007
153000000000.0,4,0.0972623547,-0.03325435015,0.16831153395,0.01029,-0.042902,0.038781,0.06194860804999999,-5.664909438999999,-8.0046780625,0.007739,0.61586,-1.4837,-8.00000000000245e-05,-1.6666666666331764e-05,0.00019999999999997797,-0.0001350164651424679,0.0005268532667848103,-0.00019942098317732304
153000000000.0,4,0.11051113884999998,-0.00250069575,0.1626138703,-0.000539,-0.058803,0.045195,0.055289892699999996,-5.6650075055,-8.0046780625,0.006907,0.61587,-1.4832,-7.00000000000145e-05,-1.6666666666775853e-05,0.00010000000000021103,-0.0007157268260701288,0.0009250548856156726,0.00014666273273217234
153000000000.0,4,0.1093637608,0.0342448218,0.1805600398,0.001456,-0.074806,0.047361,0.0473072796,-5.665105571999999,-8.0046780625,0.00591,0.61588,-1.4828,-4.999999999999449e-05,3.333333333310762e-05,0.00019999999999997797,-0.0005350985514078754,0.0014309549583420011,-0.0004887207951291828
153000000000.0,4,0.10447024244999999,0.0714904785,0.1880719337,0.013028,-0.096213,0.046352,0.037834055699999994,-5.6659881704999995,-8.004089663499999,0.004727,0.61599,-1.4822,-7.999999999996898e-05,3.333333333355171e-05,9.999999999998899e-05,-0.0004896559128837463,0.001193264582864506,-0.000527450075507141
153000000000.0,4,0.1097560268,0.0790808256,0.1550431365,0.02456,-0.12507,0.041085,0.026262208699999998,-5.667851434,-8.002814799,0.003282,0.61623,-1.4819,-8.00000000000245e-05,3.333333333310762e-05,0.00019999999999997797,-0.0006969233928477703,0.0013785834030253241,-0.0005633273379723192
153000000000.0,4,0.11620880249999999,0.12690785764999998,0.13079129104999998,0.041516,-0.14545,0.030476,0.013386077249999998,-5.6710876285,-8.0005592695,0.001673,0.61664,-1.4815,-6.0000000000004494e-05,5.000000000032756e-05,0.00019999999999997797,-0.001121680915022072,0.0012464786689965202,-0.0005809198363760926
153000000000.0,4,0.09480088554999999,0.1622216043,0.12340688359999999,0.062871,-0.14881,0.02198,0.0003726527,-5.676089019999999,-7.9970288755,4.6e-05,0.61725,-1.4814,-6.0000000000004494e-05,4.999999999988347e-05,9.999999999998899e-05,-0.0011052872087237153,0.0012837752781513778,-0.00025459142214706576
153000000000.0,4,0.0614092423,0.16794868789999998,0.07858068644999999,0.082134,-0.14258,0.022003,-0.0121798593,-5.6826594755,-7.992321683499999,-0.001524,0.61808,-1.4812,1.0000000000010001e-05,9.999999999976694e-05,0.00019999999999997797,-0.000909391203603338,0.0010098108522460514,3.835053899614582e-06
153000000000.0,4,0.05151433245,0.13643992145,0.0540346415,0.093921,-0.12884,0.033741,-0.02413416565,-5.690210595999999,-7.986928026,-0.003022,0.61903,-1.481,1.0000000000010001e-05,0.00010000000000021103,0.00019999999999997797,-0.0008835319478358583,0.0010898500913816278,6.410802117562397e-05
153000000000.0,4,0.0714120253,0.118072066,0.05149471914999999,0.1014,-0.11826,0.049746,-0.035794272499999995,-5.698350115499999,-7.981142102499999,-0.004485,0.62004,-1.4804,2.999999999997449e-05,4.999999999988347e-05,9.999999999998899e-05,-0.000978168730038198,0.0011383942637719358,6.802166668767873e-05
153000000000.0,4,0.09083899895,0.1052057412,0.0032165811999999997,0.093856,-0.11821,0.064677,-0.0481898781,-5.706097369,-7.9754542455,-0.006042,0.62102,-1.4799,7.00000000000145e-05,4.999999999988347e-05,9.999999999998899e-05,-0.0012055892325654183,0.0015899226855817794,-0.00022089168741401544
153000000000.0,4,0.1266234648,0.06542016214999999,-0.0042953127,0.078855,-0.12236,0.069995,-0.061379822349999995,-5.712765890999999,-7.970648986999999,-0.007701,0.62185,-1.4791,9.999999999998899e-05,0.00010000000000021103,9.999999999998899e-05,-0.0006919499001600826,0.001675274890497569,-0.0002553809310584798
153000000000.0,4,0.1415295728,0.055946938249999995,0.0547603336,0.063881,-0.12437,0.074242,-0.07508951905,-5.718061482,-7.966726326999999,-0.009425,0.62252,-1.4783,7.00000000000145e-05,9.999999999976694e-05,9.999999999998899e-05,-0.0004897199857859524,0.0015241999863051525,-0.00031109868956763487
153000000000.0,4,0.1292320337,0.0421097551,0.09115281174999999,0.049878,-0.13597,0.078506,-0.08958374775,-5.7221802749999995,-7.963588198999999,-0.011248,0.62304,-1.4774,7.00000000000145e-05,4.999999999988347e-05,9.999999999998899e-05,-0.0002764503873780022,0.001586451914346254,-0.0003083675659949492
153000000000.0,4,0.1412353733,0.017514676899999998,0.07462860649999999,0.035897,-0.14652,0.083838,-0.10547052075,-5.72512227,-7.961234602999999,-0.013247,0.6234,-1.4766,4.999999999999449e-05,5.000000000032756e-05,-1.999999999990898e-05,-0.000514929181281043,0.001084524187461522,9.471014331502436e-05
153000000000.0,4,0.1541213114,0.01872089485,0.08473926265,0.022126,-0.13682,0.083799,-0.12104348094999999,-5.7267894004999995,-7.959861671999999,-0.015206,0.62361,-1.4756,7.00000000000145e-05,9.999999999976694e-05,-2.0000000000131024e-05,-0.00035473178907385883,0.001048751109868462,0.00012694298989002206
153000000000.0,4,0.1262115855,0.0062174160999999995,0.1417257058,0.013756,-0.11544,0.084814,-0.1351944769,-5.7277700655,-7.9589790735,-0.016984,0.62373,-1.4747,6.999999999995898e-05,2.4999999999941735e-05,-1.999999999990898e-05,0.00010161197139957334,0.0008897009958173108,0.00038388466643629604
153000000000.0,4,0.09513431164999998,-0.03590214565,0.1345276247,3.8e-05,-0.09189,0.091153,-0.14765872905,-5.727671999,-7.9587829405,-0.018551,0.62372,-1.4736,9.00000000000345e-05,2.5000000000385825e-05,-2.0000000000131024e-05,0.000778050421023968,0.0003815522862011811,0.0005581035423554148
153000000000.0,4,0.0617230551,-0.014317708999999998,0.08993678715,-0.016769,-0.057655,0.093198,-0.1577889985,-5.726397134499999,-7.959567472499999,-0.019822,0.62356,-1.4726,6.0000000000004494e-05,2.4999999999941735e-05,-1.999999999990898e-05,0.0004718300509750639,0.0004061582524004237,0.0006649340732040043
153000000000.0,4,0.060830649949999996,0.0134154972,0.07546217174999999,-0.028207,-0.022393,0.089914,-0.16497727295,-5.7240435385,-7.961038469999999,-0.02072,0.62326,-1.4715,6.0000000000004494e-05,2.4999999999941735e-05,-1.4285714285744433e-05,-0.00022090873499858166,0.0005501374466105879,0.0005374971897459946
153000000000.0,4,0.058830093349999994,-0.00983606995,0.07071575315,-0.035456,-0.001011,0.080257,-0.16955697849999998,-5.7211015435,-7.9630978665,-0.02129,0.6229,-1.4707,4.999999999999449e-05,4.999999999988347e-05,-1.4285714285744433e-05,0.0001640758041768775,0.00023019453654371524,0.0005577804958057375
153000000000.0,4,0.05612345795,-0.01173856005,0.0417959423,-0.036389,0.011798,0.070625,-0.17254800674999998,-5.7181595485,-7.965157263,-0.021659,0.62253,-1.4698,6.999999999995898e-05,4.999999999988347e-05,-1.4285714285744433e-05,-0.00014352975938469736,0.0003601068681320374,0.00042436314561661304
153000000000.0,4,0.06264488019999999,0.010591182,0.0671167126,-0.023568,0.007441,0.059981,-0.17501928254999996,-5.7160020854999996,-7.9666282605,-0.021966,0.62225,-1.4692,9.00000000000345e-05,4.999999999988347e-05,-1.4285714285522388e-05,-0.00047191438996863067,0.0002396620781224268,0.0007473536464996933
153000000000.0,4,0.0603893507,-0.0152395341,0.12849653495,-0.000198,-0.006607,0.060047,-0.1781476039,-5.7154136865,-7.966922459999999,-0.022358,0.62218,-1.4685,7.999999999996898e-05,5.000000000032756e-05,-1.4285714285744433e-05,-0.0003092185469628639,0.00041675075649116877,0.0003989053289724098
153000000000.0,4,0.0616642152,-0.0551918262,0.16491843304999998,0.019864,-0.028092,0.067591,-0.18332551509999997,-5.716590484499999,-7.965941795,-0.023009,0.62234,-1.4679,7.00000000000145e-05,-2.0000000000131024e-05,-1.4285714285744433e-05,-0.00014527014376009006,0.0008860561931982591,0.0002501898193931762
153000000000.0,4,0.0771587222,-0.06710690595,0.1829724757,0.03777,-0.053822,0.074072,-0.19102373534999997,-5.7193363465,-7.9637843319999995,-0.023982,0.62268,-1.467,8.00000000000245e-05,-2.0000000000131024e-05,-1.4285714285744433e-05,-0.0008042706742190653,0.001131062500127733,4.477255962798132e-05
153000000000.0,4,0.08936800144999998,-0.0866123328,0.19029804324999997,0.041927,-0.0709,0.068773,-0.20025179299999998,-5.722572540999999,-7.961234602999999,-0.025148,0.62309,-1.4663,4.999999999999449e-05,-1.9999999999686935e-05,-2.4999999999941735e-05,-0.00018579504016924542,0.0007113367475064525,8.147020503695979e-05
153000000000.0,4,0.09105474525,-0.1019107068,0.18066791294999998,0.04186,-0.082613,0.062388,-0.21016631614999998,-5.725906801999999,-7.958684873999999,-0.026401,0.6235,-1.4655,1.999999999996449e-05,-2.0000000000131024e-05,-2.500000000016378e-05,-0.0007495464140138131,0.001436346959234891,-0.0002383464374722255
153000000000.0,4,0.08471964935000001,-0.12745703005,0.16870379994999998,0.031191,-0.087844,0.05384,-0.21999257945,-5.728652664,-7.956429344499999,-0.027642,0.62384,-1.4649,5.0000000000050004e-05,-2.0000000000131024e-05,-2.4999999999941735e-05,0.0007329873390414798,0.0005084025778570034,0.0002149736283303949
153000000000.0,4,0.0827877393,-0.16123113265,0.1361555286,0.013094,-0.08663,0.050605,-0.22958348315,-5.730025595,-7.95515448,-0.028852,0.62401,-1.4643,3.999999999998449e-05,-4.999999999988347e-05,-2.4999999999941735e-05,0.0002634052994381353,0.0007339684198615082,3.179257004365388e-05
153000000000.0,4,0.06698922615,-0.17087106959999998,0.0943203597,-0.013506,-0.076822,0.051609,-0.23862521444999998,-5.7293391295,-7.955350613,-0.029987,0.62393,-1.4638,3.999999999998449e-05,-4.999999999988347e-05,-9.999999999998899e-05,0.000527710383014357,0.000716728008976597,0.00040356179677497606
153000000000.0,4,0.04615990155,-0.17549000175,0.0452282698,-0.042194,-0.058473,0.055796,-0.2465195677,-5.726495201,-7.957213876499999,-0.030971,0.62358,-1.4632,3.999999999998449e-05,-0.00010000000000021103,-5.0000000000105516e-05,0.0006243994501962113,0.00037510812191232645,0.00044711087918136716
153000000000.0,4,0.03627479835,-0.1399801221,0.0254384501,-0.063346,-0.033792,0.057851,-0.25280563035,-5.7218860755000005,-7.960253937999999,-0.031748,0.623,-1.4626,3.0000000000030003e-05,-9.999999999976694e-05,-4.999999999988347e-05,0.0009944342415818541,0.0004426516434132832,0.0003575461430921356
153000000000.0,4,0.022427808549999997,-0.10189109349999999,0.021378497,-0.075909,-0.002784,0.057774,-0.25661061054999995,-5.7161982185,-7.9642746644999995,-0.032209,0.62228,-1.4619,1.0000000000010001e-05,-5.000000000032756e-05,1.999999999990898e-05,0.0005702759708545724,0.000491066948011154,0.0001560143260145308
153000000000.0,4,0.02368305975,-0.0898877539,0.0039618866,-0.072563,0.012112,0.052416,-0.25861116715,-5.7105103615,-7.968295391,-0.032444,0.62157,-1.4614,2.999999999997449e-05,-4.999999999988347e-05,2.0000000000131024e-05,0.0001713043090273425,0.00040998731931263244,3.3210666343319595e-05
153000000000.0,4,0.062458553849999994,-0.07403040085,-0.022731814700000002,-0.059752,0.007753,0.043907,-0.2601311979,-5.705705103,-7.971629652,-0.032621,0.62097,-1.4609,2.0000000000020002e-05,-4.999999999988347e-05,1.999999999990898e-05,0.00014638663829269483,0.0002807360965799699,0.00024475972593118733
153000000000.0,4,0.0844548698,-0.061173882699999994,-0.046777720499999995,-0.037454,-0.00841,0.039705,-0.26252402049999995,-5.702468908499999,-7.973983247999999,-0.032911,0.62055,-1.4606,2.999999999997449e-05,-4.999999999988347e-05,2.0000000000131024e-05,0.00023841919996914207,0.0005203310324122246,2.782553097696594e-05
153000000000.0,4,0.07995361745,-0.07946328495,-0.022270902149999997,-0.004599,-0.035322,0.040876,-0.2668585598,-5.70158631,-7.974375513999999,-0.033452,0.62045,-1.4601,3.0000000000030003e-05,2.0000000000131024e-05,1.999999999990898e-05,-0.0004000488150089909,0.0007068976644826197,-5.1262724559852924e-05
153000000000.0,4,0.07636438355,-0.07771770125,-0.02574245625,0.033614,-0.061209,0.038854,-0.2732917222,-5.7036457065,-7.9727083835,-0.034265,0.62071,-1.4597,2.999999999997449e-05,1.9999999999686935e-05,0.00019999999999997797,-0.0007186301385968541,0.0005724611300310656,-0.0005417037624184662
153000000000.0,4,0.07454034664999999,-0.0614876955,-0.026330855249999997,0.066653,-0.071063,0.030389,-0.28058786979999994,-5.7085490315,-7.9689818565,-0.035195,0.62132,-1.4593,6.0000000000004494e-05,2.0000000000131024e-05,9.999999999998899e-05,-0.0009547581618081225,0.0009292005394103686,5.229445002064015e-05
153000000000.0,4,0.0497589421,-0.049523582499999996,-0.014817848149999998,0.093398,-0.068076,0.020823,-0.28738387825,-5.715707886,-7.963588198999999,-0.036072,0.62222,-1.4591,3.0000000000030003e-05,1.9999999999686935e-05,0.00019999999999997797,-0.0008027104036922861,0.00033901620574372515,-0.0002167651607100085
153000000000.0,4,0.026115108949999997,-0.03592175895,-0.0299298958,0.10211,-0.052158,0.013339,-0.2926108227,-5.723749338999999,-7.9576061424999995,-0.036755,0.62323,-1.4589,1.999999999996449e-05,2.0000000000131024e-05,9.999999999998899e-05,-0.0009756409772059271,0.00030455197860579375,0.00021030284721434978
153000000000.0,4,0.0215942433,-0.0359707922,-0.0441887649,0.09918,-0.019098,0.011141,-0.29528803815,-5.731790792,-7.9517221524999995,-0.037118,0.62424,-1.4588,1.0000000000010001e-05,-3.333333333310762e-05,0.00020000000000020002,-0.0006902865740909814,-2.019083854487569e-05,0.0003187805316819392
153000000000.0,4,0.03594137225,-0.059036033,-0.06032070415,0.083393,0.009807,0.011062,-0.2954155246,-5.73885158,-7.946622694499999,-0.037157,0.62512,-1.4587,2.4999999999997247e-05,-3.333333333355171e-05,9.999999999998899e-05,0.00010461610970191604,-0.0009543342753313144,0.00043709822558102296
153000000000.0,4,0.0441887649,-0.07875720615,-0.050288501199999995,0.061199,0.035565,0.00991,-0.2933365148,-5.744049104499999,-7.942896167499999,-0.036913,0.62579,-1.4586,2.4999999999997247e-05,-3.333333333310762e-05,9.999999999998899e-05,-0.000646574596657068,7.989921835260816e-09,0.0004434211627308282
153000000000.0,4,0.09772326725,-0.07878662609999999,-0.01927006725,0.036749,0.041098,0.003455,-0.2901591602,-5.747481432,-7.9405425715,-0.036525,0.62621,-1.4586,-1.0000000000010001e-05,-1.4285714285744433e-05,9.999999999998899e-05,-5.781361458678802e-05,-0.0006357966937649007,0.0001438010686343194
153000000000.0,4,0.12847692165,-0.05973230515,0.024761791249999998,0.021836,0.040162,-0.002974,-0.2864914731,-5.7495408285,-7.939267706999999,-0.03607,0.62647,-1.4588,3.0000000000030003e-05,-1.4285714285744433e-05,9.999999999998899e-05,-0.00031650452675857643,-0.0003594620342082244,0.00035296686371860675
153000000000.0,4,0.13139930335,-0.0393442798,0.07070594649999999,0.015406,0.033825,-0.007243,-0.2832748919,-5.7509137594999995,-7.9383851085,-0.03567,0.62664,-1.4588,4.999999999999449e-05,-1.4285714285744433e-05,9.999999999998899e-05,-0.0008801842361039203,-0.00026372122019013844,0.0001515460858720341
153000000000.0,4,0.14313786339999998,-0.0050013915,0.0841018304,0.016436,0.02849,-0.0083,-0.28035251019999996,-5.7521886239999995,-7.93750251,-0.035306,0.6268,-1.4591,3.999999999998449e-05,-1.4285714285744433e-05,9.999999999998899e-05,-0.00014130814255419732,-7.200273958241077e-05,-0.00017608175931094205
153000000000.0,4,0.14008799525,0.025526709949999997,0.08377821095,0.023853,0.022035,-0.008275,-0.2780577541,-5.753953821,-7.9363257119999995,-0.035022,0.62703,-1.4592,7.00000000000145e-05,-1.4285714285744433e-05,9.999999999998899e-05,-0.0004074948954277957,-0.00021673860123860855,2.482628051608815e-05
153000000000.0,4,0.12210259914999999,0.0171224109,0.08999562704999998,0.036656,0.024057,-0.005054,-0.27592971104999997,-5.7566016165,-7.9344624485,-0.034762,0.62736,-1.4594,0.00012000000000000899,-1.4285714285744433e-05,9.999999999998899e-05,-0.0010718902634917482,-0.0008038772996719068,0.00020693961256312843
153000000000.0,4,0.11882717804999998,0.040570111049999996,0.12686863104999999,0.047342,0.030365,-0.001846,-0.27340940199999997,-5.7601320105,-7.932010785999999,-0.034455,0.62781,-1.4594,8.999999999997899e-05,-1.4285714285744433e-05,9.999999999998899e-05,-0.0005280094608705044,-0.0006209912755614777,0.00017750581895198403
153000000000.0,4,0.11124663759999999,0.07503067914999999,0.13284088089999999,0.050607,0.037798,-0.002921,-0.2703105006,-5.7642508035,-7.929068791,-0.034078,0.62832,-1.4595,9.999999999998899e-05,-1.1111111111183902e-05,9.999999999998899e-05,-0.0004928315119461235,-0.0002862734849686799,0.00011017803714619134
153000000000.0,4,0.1196215167,0.06600856114999999,0.1301342455,0.052785,0.037778,-0.007185,-0.26671146004999996,-5.7685657295,-7.926126795999999,-0.033637,0.62887,-1.4597,0.00015999999999999348,-1.1111111111183902e-05,4.999999999988347e-05,-0.00032953403238444867,-0.0002029934417235868,0.0003274986100283983
153000000000.0,4,0.1071278446,0.06390013139999999,0.10591182,0.039979,0.036819,-0.008273,-0.26304377295,-5.771998056999999,-7.9237732,-0.033185,0.6293,-1.4598,0.000130000000000019,-1.1111111110739813e-05,5.0000000000105516e-05,-0.00023115942433138414,-0.0005137849762173463,0.0003129165721417193
153000000000.0,4,0.08622987345,0.0644493038,0.1103248125,0.025099,0.044402,-0.008313,-0.25891517329999997,-5.774351653,-7.9221060695,-0.032671,0.62959,-1.4601,0.000130000000000019,-1.1111111111183902e-05,-2.4999999999941735e-05,-0.00017790420139895957,-0.00043159582893692594,0.00031585449123266995
153000000000.0,4,0.07467763975,0.06192899475,0.1227008048,0.014532,0.057277,-0.008354,-0.25394320175,-5.775822650499999,-7.921223470999999,-0.032047,0.62979,-1.4602,0.00012999999999996348,-1.1111111111183902e-05,-2.500000000016378e-05,0.0001680831767471025,-0.000507992611848751,0.0005035954194352876
153000000000.0,4,0.07335374199999999,0.0668028998,0.11150161049999999,0.013403,0.055147,0.000187,-0.24917716985,-5.7768033155,-7.920635071999999,-0.031449,0.62991,-1.4603,0.000140000000000029,-1.1111111111183902e-05,-2.4999999999941735e-05,-0.00038103577399040134,-0.0001965856183185899,0.0002776998640812711
153000000000.0,4,0.07309876909999999,0.05419154789999999,0.10547052075,0.009094,0.057301,0.011917,-0.2450289569,-5.777685914,-7.9201447394999995,-0.030928,0.63002,-1.4602,0.00013999999999997348,-1.1111111110739813e-05,-2.4999999999941735e-05,-0.00013809344646920074,-0.0003760091822089251,0.0005157005593647845
153000000000.0,4,0.0829838723,0.046571780849999994,0.11253130875,0.01216,0.047673,0.023681,-0.24204773529999998,-5.778568512500001,-7.9195563405,-0.030554,0.63013,-1.4601,0.00017000000000000348,-1.1111111111183902e-05,-4.999999999988347e-05,-0.00032331668003127145,-0.0002347338014563327,0.0005464933712769904
153000000000.0,4,0.08760280444999999,0.04070740415,0.12343630354999999,0.009944,0.043419,0.033291,-0.2400864053,-5.7793530445,-7.919066008,-0.030308,0.63022,-1.4598,0.00023000000000000798,-1.1111111111183902e-05,-5.0000000000105516e-05,-0.0005930362457026161,0.0005061705610391876,0.0004917409684549456
153000000000.0,4,0.08041453,0.03601982545,0.13170330949999998,0.013005,0.03273,0.042922,-0.23948819965,-5.7803337095,-7.918379542499999,-0.030235,0.63035,-1.4594,0.00015999999999999348,-3.333333333355171e-05,-9.999999999998899e-05,-0.0001998467895067968,0.0002040771229976368,0.0002748743744727111
153000000000.0,4,0.1191311842,0.032930730699999994,0.1248974944,0.008515,0.008252,0.048294,-0.24092977719999997,-5.7809221084999995,-7.917889209999999,-0.03042,0.63043,-1.4588,0.00015999999999999348,-3.333333333310762e-05,-9.999999999998899e-05,-1.5111417082214196e-05,0.000949455893536344,0.00016189548741885051
153000000000.0,4,0.10631389264999999,0.010414662299999999,0.09606594339999999,0.006083,-0.02583,0.052619,-0.24517605664999997,-5.7813143745,-7.917496943999999,-0.030957,0.63048,-1.4583,0.00017000000000000348,-3.333333333355171e-05,-9.999999999998899e-05,0.0005746612973696053,0.000473288698411789,0.00017884304291615472
153000000000.0,4,0.06685193304999999,-0.0032263878499999995,0.09284936220000001,-0.012193,-0.043794,0.051552,-0.25120714639999997,-5.7805298425,-7.917889209999999,-0.031716,0.63038,-1.4577,0.000130000000000019,-9.999999999976694e-05,-9.999999999998899e-05,0.0011850394746921733,0.00046649883119620483,0.0003356482044343245
153000000000.0,4,0.00656064885,-0.0008335652500000001,0.09619342985,-0.028042,-0.030875,0.045099,-0.25661061054999995,-5.778666578999999,-7.919066008,-0.032392,0.63014,-1.4573,0.00012000000000000899,2.0000000000131024e-05,-9.999999999998899e-05,0.000404629841933124,0.0003942958026594834,0.0003671764658055854
153000000000.0,4,-0.0439141787,0.006648908699999999,0.0780805473,-0.039513,-0.003066,0.036491,-0.25955260555,-5.775626517499999,-7.921223470999999,-0.032755,0.62976,-1.4568,9.999999999998899e-05,1.9999999999686935e-05,-9.999999999998899e-05,0.0006435151143822093,-0.00046150569439351585,0.0004822421568632662
153000000000.0,4,-0.0748051262,0.02868445125,0.04394359864999999,-0.041358,0.026803,0.023625,-0.25933685925,-5.772390323,-7.923577067,-0.032718,0.62935,-1.4566,8.999999999997899e-05,2.0000000000131024e-05,-9.999999999998899e-05,0.00019727322723539498,-0.0004491463237934479,0.0006115052488052664
153000000000.0,4,-0.1081085096,0.0373241099,0.01442558215,-0.034662,0.055532,0.010777,-0.2561104714,-5.769448327999999,-7.92573453,-0.032302,0.62899,-1.4565,8.00000000000245e-05,1.9999999999686935e-05,-9.999999999998899e-05,0.00010196994210021071,-0.0008710731220209489,0.00012740069928068865
153000000000.0,4,-0.1040877831,0.027733206199999996,-0.00295180165,-0.018553,0.062867,0.002253,-0.25130521289999996,-5.767683130999999,-7.9272055275,-0.031691,0.62876,-1.4566,0.00010999999999999899,2.0000000000131024e-05,-5.0000000000105516e-05,-0.00022928263410149086,-0.0002448191643444897,0.0003757358594697058
153000000000.0,4,-0.05310300974999999,0.018632634999999998,-0.0026085689,-0.000492,0.049936,-0.00303,-0.24647053444999997,-5.7673889315,-7.9275977935,-0.03108,0.62872,-1.4566,8.999999999997899e-05,4.999999999988347e-05,-4.999999999988347e-05,-0.0003726901222063095,4.904519696546927e-05,-0.00017971134471128636
153000000000.0,4,-0.02199631595,-0.0007060788,-0.00381478685,0.017432,0.023151,-0.004019,-0.24360699264999996,-5.7685657295,-7.9268132614999995,-0.030723,0.62887,-1.4568,9.999999999998899e-05,5.000000000032756e-05,-5.0000000000105516e-05,-0.0003813996054741198,4.020815185223903e-05,-0.00026153370850917623
153000000000.0,4,-0.014709975,-0.027693979599999998,-0.00401091985,0.028898,-0.009978,-0.002874,-0.24341085964999998,-5.7709193255,-7.925146130999999,-0.030705,0.62916,-1.4568,0.0001000000000000445,4.999999999988347e-05,-5.0000000000105516e-05,0.0002196214289797993,0.0005675477680882057,-0.0002473594973233517
153000000000.0,4,-0.014866881399999999,-0.053259916149999996,0.0181815291,0.034052,-0.030272,0.001441,-0.24549967609999998,-5.7736651875,-7.9230867345,-0.030976,0.62951,-1.4569,8.999999999997899e-05,4.999999999988347e-05,-3.333333333332966e-05,-0.0006098469653411653,0.0004492617965632384,-0.000220737714718644
153000000000.0,4,-0.022751427999999997,-0.0796496113,0.05495646659999999,0.033982,-0.037733,0.003589,-0.248696644,-5.7764110495,-7.9209292714999995,-0.031386,0.62986,-1.4569,7.00000000000145e-05,9.090909090847532e-06,-3.333333333332966e-05,-9.348918637674952e-05,0.00014285472749442363,-2.487897696384911e-05
153000000000.0,4,-0.04961184235,-0.0845137097,0.060605097,0.023339,-0.034449,0.003565,-0.2519132252,-5.778568512500001,-7.919262141,-0.031799,0.63013,-1.457,4.999999999999449e-05,9.090909090847532e-06,-3.333333333332966e-05,0.0005291387160473171,7.368972004218044e-05,-0.0002602694891912227
153000000000.0,4,-0.07666838969999999,-0.07240249694999999,0.0450321368,0.00426,-0.020435,0.000304,-0.25417856135,-5.7793530445,-7.918673741999999,-0.032088,0.63023,-1.4569,3.999999999998449e-05,9.090909091291621e-06,-9.999999999998899e-05,0.00039461772064708356,-0.00037247987998068055,-2.307448329430528e-05
153000000000.0,4,-0.08761261109999999,-0.08218953365,0.04812123155,-0.015756,0.005319,-0.011518,-0.2540118483,-5.7783723795,-7.9193602075,-0.032063,0.63011,-1.4571,-2.999999999997449e-05,9.090909090847532e-06,-9.999999999998899e-05,0.0008293418038837208,-0.0003413306890469592,-0.0002928543604628908
153000000000.0,4,-0.09315336835,-0.079237732,0.065900688,-0.033648,0.029985,-0.021199,-0.2511679198,-5.776116849999999,-7.921125404499999,-0.031698,0.62982,-1.4574,-4.999999999999449e-05,9.090909090847532e-06,-9.999999999998899e-05,-3.2381933966818544e-05,-0.0009674864926576543,0.00022448235414723738
153000000000.0,4,-0.0945164927,-0.09033885979999999,0.07912985885,-0.043091,0.047111,-0.023379,-0.24636266129999998,-5.7728806555,-7.923577067,-0.031082,0.62942,-1.4578,-4.0000000000040004e-05,9.090909090847532e-06,-9.999999999998899e-05,0.0006680870344867307,-0.00047080299165447315,-4.969314725211671e-05
153000000000.0,4,-0.0580161414,-0.129251647,0.07947309159999999,-0.050576,0.045042,-0.023389,-0.24126320329999998,-5.769154128499999,-7.9264209955,-0.030428,0.62894,-1.4581,-2.999999999997449e-05,9.090909090847532e-06,-0.00019999999999997797,1.7908776839270502e-07,0.00010536874504629701,-0.0004831136656749391
153000000000.0,4,-0.011022674599999999,-0.11259995529999998,0.030841914249999994,-0.054026,0.013103,-0.024406,-0.23827217504999998,-5.765133401999999,-7.929461056999999,-0.03004,0.62844,-1.4585,-8.00000000000245e-05,9.090909090847532e-06,-9.999999999998899e-05,0.0007526887591856601,-0.00020133407672018322,-0.0004039712426104347
