Time,placement_label,user_acc_x(m/s^2),user_acc_y(m/s^2),user_acc_z(m/s^2),rotation_rate_x(rad/s),rotation_rate_y(rad/s),rotation_rate_z(rad/s),gravity_x(m/s^2),gravity_y(m/s^2),gravity_z(m/s^2),attitude_roll(rad),attitude_pitch(rad),attitude_yaw(rad),target_delta_x,target_delta_y,target_delta_z,target_delta_roll,target_delta_pitch,target_delta_yaw
153000000000.0,4,-0.06930359555,-0.02786069265,0.0738636878,0.024621,-0.015532,-0.008129,-0.45952000569999996,-4.98570086,-8.432149936,-0.054442,0.53333,-1.2954,0.0,0.0,0.0,0.0,0.0,0.0
153000000000.0,4,-0.05311281639999999,-0.01173856005,0.08058124305,0.030946,-0.035813,-0.025161,-0.46119694285,-4.988446722,-8.4304828055,-0.054651,0.53365,-1.2957,-0.00029999999999996696,-4.999999999988347e-05,3.333333333332966e-05,-0.0010166277454775052,0.000195012551849727,-0.0015471667305893
153000000000.0,4,-0.06304695284999999,-0.0028831550999999997,0.1234853368,0.035186,-0.048615,-0.04221,-0.4632269194,-4.99158485,-8.428521475499998,-0.054904,0.53402,-1.2961,-0.00036000000000002697,-4.999999999988347e-05,3.333333333332966e-05,-0.0005987649628395042,0.00010914363594927146,-0.0020769794047442725
153000000000.0,4,-0.0733341287,0.0074138274,0.1238383762,0.034131,-0.062434,-0.066738,-0.4652078627,-4.994821044499999,-8.426462079,-0.055152,0.53441,-1.2968,-0.00038000000000004697,-0.00010000000000021103,3.333333333332966e-05,-0.000818219633616335,-0.0006254191895713745,-0.002130633154353412
153000000000.0,4,-0.0756877247,0.00385401345,0.1250151742,0.024557,-0.079375,-0.097679,-0.46719861265,-4.997664972999999,-8.424696882,-0.055399,0.53475,-1.2978,-0.00041999999999997595,-4.999999999988347e-05,9.999999999998899e-05,-0.00023569725604544178,-0.0005440233604598887,-0.0025752742415559027
153000000000.0,4,-0.06651850695,0.0025105023999999997,0.12439735525,0.019265,-0.09528,-0.13182,-0.46888535645,-5.0001166355,-8.423127818,-0.055609,0.53503,-1.2992,-0.00034999999999996145,-4.999999999988347e-05,-9.999999999998899e-05,-0.0013090827833577845,0.0002253957650220073,-0.002126712133659392
153000000000.0,4,-0.06783259805,-0.00318716125,0.15850488394999998,0.024666,-0.10276,-0.15528,-0.46996408795,-5.002764431,-8.4214606875,-0.055747,0.53535,-1.301,-0.00029999999999996696,-0.00010000000000021103,9.999999999998899e-05,-0.00038128382652519166,-0.0006454247627645238,-0.0013470547390211363
153000000000.0,4,-0.10803986305,-0.042207821599999994,0.21786453639999998,0.041623,-0.12101,-0.16162,-0.47180773815,-5.006687091,-8.419009025,-0.055982,0.53582,-1.3028,-0.000280000000000058,-0.00019999999999997797,-9.999999999998899e-05,0.0007498845690949718,-0.00019706939031904902,-0.00026651268590982546
153000000000.0,4,-0.09928252459999999,-0.0759230843,0.22508223079999998,0.04902,-0.13065,-0.16479,-0.47442611369999993,-5.011492349499999,-8.416067029999999,-0.056312,0.53638,-1.3047,-0.00029000000000001247,-0.00010000000000021103,-9.999999999998899e-05,0.001362593382274735,-0.0001820761209407884,0.0003455605738652556
153000000000.0,4,-0.021751149699999996,-0.07422653385,0.1805600398,0.039435,-0.12525,-0.15948,-0.4771425557499999,-5.015807275499999,-8.413321168,-0.056652,0.5369,-1.3066,-0.00029000000000001247,-0.00019999999999997797,-9.999999999998899e-05,0.0014449060772177003,-0.0013677753648702051,0.00047501802710092633
153000000000.0,4,-0.0489547968,-0.050798447,0.1204845019,0.020301,-0.10168,-0.13714,-0.47926079214999995,-5.018749270499999,-8.411457904499999,-0.056916,0.53725,-1.3083,-0.00029000000000001247,-0.00019999999999997797,-9.999999999998899e-05,0.0020227998256320823,-0.001775883719185689,0.0009150376704405994
153000000000.0,4,-0.0985960591,-0.0889463155,0.06893094285,-0.014496,-0.028963,-0.10317,-0.47780940795,-5.018749270499999,-8.411555970999999,-0.056743,0.53725,-1.3096,-0.00023999999999990695,-0.00019999999999997797,-9.999999999998899e-05,0.001201844421022391,-0.0014673946883445588,0.0004866489542899033
153000000000.0,4,-0.14856094085,-0.0719023578,0.05610384465,-0.051289,0.061878,-0.067105,-0.47078784655,-5.015611142499999,-8.4138115005,-0.055896,0.53687,-1.3105,-0.0002300000000000635,-9.999999999976694e-05,-4.999999999988347e-05,0.0012440035008079997,-0.0012422913135239355,-0.00017131704025785677
153000000000.0,4,-0.17021402405,-0.03756927615,0.034411534849999995,-0.080696,0.13881,-0.037404,-0.458558954,-5.0097271525,-8.41802836,-0.05442,0.53617,-1.3111,-0.00024999999999997247,-0.00019999999999997797,-5.0000000000105516e-05,0.0008291506212331212,0.00011323899482063027,-0.000489646911714603
153000000000.0,4,-0.13208576884999998,-0.05943810565,0.0136900834,-0.098596,0.17837,-0.020426,-0.44311348025,-5.0018818325,-8.423520084,-0.052557,0.53525,-1.3114,-0.0002300000000000635,-0.00019999999999997797,6.666666666665932e-05,0.00020542386448735295,0.00046373759198603537,-0.0006148817778374727
153000000000.0,4,-0.03425462845,-0.0564470774,-0.022741621349999998,-0.099691,0.17624,-0.018289,-0.42722670724999995,-4.993840379499999,-8.4291098745,-0.050641,0.53429,-1.3117,-0.00028999999999990145,-0.00019999999999997797,6.666666666665932e-05,-4.912176064142404e-05,0.0004941763368599972,-0.0009447617500855099
153000000000.0,4,0.06249778045,-0.02990047585,-0.0783747468,-0.098883,0.13682,-0.027824,-0.4137033369,-4.9857989265,-8.434503531999999,-0.049009,0.53334,-1.3121,-0.0003500000000000725,-0.00010000000000021103,6.666666666665932e-05,-0.0005798738628196021,6.494664597656019e-05,-0.0014837713513979334
153000000000.0,4,0.14036258145,-0.04009939184999999,-0.14065678094999998,-0.085481,0.069588,-0.041559,-0.404622379,-4.9787381385,-8.439112657499999,-0.04791,0.5325,-1.3126,-0.00029999999999996696,-9.999999999976694e-05,9.999999999998899e-05,-0.00035117474266477267,0.000471719125244352,-0.0008912116866457431
153000000000.0,4,0.1786183231,-0.029723956149999998,-0.16236870404999998,-0.063538,0.00336,-0.057416,-0.40053300594999997,-4.973246414499999,-8.442544985,-0.047406,0.53185,-1.3132,-0.00021000000000004349,-0.00010000000000021103,0.00019999999999997797,-0.0008477274237741472,-0.00013762855883170388,-0.0006906360130793932
153000000000.0,4,0.17111623585,0.006286062649999999,-0.16326110919999998,-0.032021,-0.064023,-0.066849,-0.40170980394999994,-4.970402485999999,-8.4442121155,-0.047536,0.53151,-1.314,-0.00017999999999995797,-4.999999999988347e-05,9.999999999998899e-05,-0.0005434951655787224,-0.000502292137783078,-0.00026443011152654794
153000000000.0,4,0.15462145054999998,0.0164947853,-0.13775401255,-0.001397,-0.10689,-0.074193,-0.4067602287,-4.9701082864999995,-8.444114049,-0.048133,0.53148,-1.3148,-0.00021000000000004349,-4.999999999988347e-05,0.00019999999999997797,-0.0008054837446676011,-0.0013079722591120557,-0.00013420234127292652
153000000000.0,4,0.13196808905,0.0423255014,-0.14605043845,0.017705,-0.11771,-0.070939,-0.4135856571,-4.9716773505,-8.442839184499999,-0.048948,0.53167,-1.3156,-0.00015999999999993797,-4.999999999988347e-05,0.00019999999999997797,-0.0007243033681350042,-0.0008618337444437074,0.00042831074622551313
153000000000.0,4,0.05522124614999999,0.11354139369999999,-0.1442165949,0.031827,-0.081604,-0.061371,-0.41839091559999997,-4.974521279,-8.440975921,-0.049527,0.532,-1.3164,-0.0001300000000000745,-5.000000000032756e-05,9.999999999998899e-05,-0.0005394093785668352,-0.0005620907277490428,0.0006460948030632685
153000000000.0,4,-0.00403053315,0.13410593875,-0.11799361279999998,0.041808,-0.020969,-0.040112,-0.4192931274,-4.9781497395,-8.438720391499999,-0.049646,0.53243,-1.3169,-0.00010999999999994348,-1.6666666666775853e-05,0.00020000000000020002,-0.00019766472327309437,-0.0004506171488256605,0.0006481157220633582
153000000000.0,4,-0.050415987649999994,0.13365483285,-0.09952769084999999,0.043227,0.038676,-0.018868,-0.41585099324999997,-4.9818762665,-8.436660994999999,-0.049251,0.53288,-1.3171,-9.999999999998899e-05,-1.6666666666775853e-05,0.00019999999999997797,-0.000671328806457816,-0.0005314412225227994,0.0003266255256065831
153000000000.0,4,-0.01032640245,0.1421768117,-0.12220066565,0.040213,0.070654,-0.005054,-0.4097120303499999,-4.985308594,-8.434993864499999,-0.048535,0.53328,-1.3173,-6.0000000000060005e-05,-1.6666666666775853e-05,9.999999999998899e-05,-0.0003369177494543796,0.0005657310439906027,0.0002617900775020998
153000000000.0,4,0.05502511314999999,0.11737579385,-0.12231834544999999,0.035966,0.080267,0.006664,-0.4029356352,-4.988348655499999,-8.433522866999999,-0.047741,0.53364,-1.3172,-5.999999999994898e-05,-1.6666666666331764e-05,0.00019999999999997797,-0.0006120143970356762,0.00032103392946636333,-2.0001603817154656e-05
153000000000.0,4,0.11508103775,0.07282418289999999,-0.09501663184999999,0.036925,0.07279,0.016285,-0.39700261195,-4.9912906505,-8.432051869499999,-0.047048,0.53399,-1.3171,-7.999999999996898e-05,-1.6666666666775853e-05,9.999999999998899e-05,-0.00038395543333036297,0.0008325190034550456,-0.0003347519640440888
153000000000.0,4,0.16421235425,0.0608992965,-0.05908506625,0.044214,0.053538,0.023804,-0.39285439899999997,-4.9946249115,-8.4302866725,-0.046567,0.53438,-1.3168,-1.0000000000065512e-05,-1.6666666666775853e-05,0.00019999999999997797,-0.0005984939151940649,0.0013019469029640351,-0.00016873562393016073
153000000000.0,4,0.2218852629,0.0537600553,-0.005678050349999999,0.058817,0.015051,0.029235,-0.391873734,-4.9989398375,-8.4277369435,-0.046465,0.5349,-1.3165,1.0000000000065512e-05,-9.999999999976694e-05,0.00019999999999997797,-0.0006035718277647706,0.0013699915173550625,-0.0001427124854478934
153000000000.0,4,0.27014378754999996,0.0304790682,0.0345782479,0.064789,-0.03722,0.033607,-0.3955414211,-5.0039412290000005,-8.4245988155,-0.046917,0.53549,-1.3161,0.00015999999999993797,-0.00010000000000021103,-9.999999999998899e-05,-0.002025878117792923,9.782165920468877e-05,0.0003291724141262775
153000000000.0,4,0.2795875915,0.02205515585,0.02862561135,0.067595,-0.085197,0.035832,-0.40363190735,-5.0093348865,-8.4210684215,-0.047895,0.53612,-1.3157,-0.00012999999999996348,0.00010000000000021103,0.00029999999999996696,0.002073549294654642,0.0019830461289873647,0.0002620540473605715
153000000000.0,4,0.28966882769999996,0.0141019627,0.0360296321,0.066242,-0.11822,0.039089,-0.415213561,-5.014532411,-8.4173418945,-0.049288,0.53674,-1.3152,7.00000000000145e-05,-0.00010000000000021103,9.999999999998899e-05,-0.0006138608609565499,0.0006488245850120311,0.0008232168589629718
153000000000.0,4,0.25724804279999997,0.031518573099999996,0.04341403955,0.055542,-0.12133,0.040144,-0.4275307134,-5.018945403499999,-8.414105699999999,-0.050768,0.53727,-1.3147,0.00012000000000000899,-6.666666666665932e-05,9.999999999998899e-05,-0.000713569467449271,0.0007675738780597019,0.0004825587681274168
153000000000.0,4,0.1980354901,0.06677347985,0.02752726655,0.048193,-0.10316,0.045436,-0.43894565399999996,-5.022769996999999,-8.4112617715,-0.052139,0.53772,-1.3142,0.00012000000000000899,-6.666666666665932e-05,0.00019999999999997797,-0.0006670116643611168,0.000655156562003878,0.00036100284192108756
153000000000.0,4,0.13637127489999998,0.0767664562,0.0174950636,0.044193,-0.063711,0.054966,-0.44746763285,-5.0260061915,-8.408908175499999,-0.053163,0.53811,-1.3136,0.00027999999999994696,-6.666666666665932e-05,9.999999999998899e-05,-0.0027923384817119534,-0.0003335024804846931,0.0006862194791458776
153000000000.0,4,0.09188831049999999,0.04790548524999999,0.0374221764,0.041187,-0.029597,0.067709,-0.45355756249999996,-5.029242385999999,-8.406652646,-0.0539,0.53848,-1.3129,2.0000000000020002e-05,-2.0000000000131024e-05,9.999999999998899e-05,-0.0009443750320659583,0.0009759308322716542,-0.0001608251171147379
153000000000.0,4,0.08031646349999999,0.046326614599999996,-0.00048052584999999995,0.039138,-0.013605,0.076216,-0.4581470747,-5.0320863145,-8.404691316,-0.054458,0.53883,-1.312,2.0000000000020002e-05,-1.9999999999686935e-05,0.00020000000000020002,-0.0005917554262839242,0.0012348265059287655,-0.0003043942392529364
153000000000.0,4,0.0916921775,0.04757205915,-0.0283019919,0.041236,-0.021082,0.074099,-0.46294252654999996,-5.035126376,-8.402533853,-0.05504,0.53919,-1.3112,0.00010999999999994348,-2.0000000000131024e-05,0.00019999999999997797,-0.0009769855737319921,0.0014802055997347185,-0.0004358846181083398
153000000000.0,4,0.12111212749999999,0.04635603455,-0.048032971699999996,0.051751,-0.045669,0.065621,-0.46915994265,-5.039049036,-8.3998860575,-0.055796,0.53965,-1.3104,0.00012000000000000899,-1.9999999999686935e-05,0.00019999999999997797,-0.0007491378693519346,0.0009536072303695242,0.00015769880608895726
153000000000.0,4,0.13545925645,0.03339164325,-0.0380890286,0.063264,-0.083044,0.050764,-0.47753482175,-5.043854294499999,-8.396551796499999,-0.056811,0.54023,-1.3098,0.00012999999999996348,-2.0000000000131024e-05,0.00019999999999997797,-0.0007375171696942795,0.0005497484618899318,0.0001339743788162373
153000000000.0,4,0.15210114149999998,0.025526709949999997,-0.027233067049999997,0.076927,-0.11831,0.035906,-0.48834175004999997,-5.0499344175,-8.3922368705,-0.058124,0.54095,-1.3093,0.000160000000000049,4.999999999988347e-05,0.00019999999999997797,-0.0007814340721438717,-3.49807598305496e-05,0.0003207607081410768
153000000000.0,4,0.16764468174999997,0.0511710997,-0.05545660575,0.082117,-0.14178,0.024214,-0.50073735565,-5.056504873,-8.3875296785,-0.059629,0.54174,-1.309,7.999999999996898e-05,4.999999999988347e-05,0.00029999999999996696,-0.0012599786804065594,0.0006592623240964102,0.0005516942368503641
153000000000.0,4,0.1434124496,0.09172159745,-0.06752859189999999,0.092835,-0.13441,0.026354,-0.5133192876,-5.0638598605,-8.382332153999998,-0.061162,0.54261,-1.3087,8.000000000008001e-05,3.333333333355171e-05,0.00019999999999997797,-0.0007158943135846529,0.0005895067047216873,0.00047583374933513056
153000000000.0,4,0.07931618519999999,0.0674109121,-0.027674366299999996,0.10056,-0.096121,0.036974,-0.52374375655,-5.0719013135,-8.37684043,-0.062441,0.54356,-1.3082,0.00013999999999991797,3.333333333310762e-05,0.00019999999999997797,-0.0013613514693271433,-0.0004006492682586682,0.0007558848176565935
153000000000.0,4,0.0213392704,0.06630276064999999,-0.023732092999999996,0.10411,-0.042886,0.05183,-0.5307064780499999,-5.080236965999999,-8.371348706,-0.063311,0.54455,-1.3076,0.00012000000000000899,3.333333333355171e-05,0.00019999999999997797,-0.0010430814574640124,0.0004372622435593332,0.0005907796056419112
153000000000.0,4,-0.035137226949999996,0.10421526954999999,-0.030008348999999997,0.10555,0.01037,0.062413,-0.53378576615,-5.088474552,-8.3661511815,-0.063717,0.54554,-1.3068,2.999999999997449e-05,-9.090909090847532e-06,0.00020000000000020002,-0.000978754853482089,0.0005783086729640452,-7.139016774126983e-05
153000000000.0,4,-0.02199631595,0.10884400835,0.00079433865,0.10683,0.036999,0.063436,-0.5340505457,-5.0968102045,-8.3610517235,-0.063787,0.54654,-1.3061,9.00000000000345e-05,-9.090909090847532e-06,0.00019999999999997797,-0.00100734725858731,0.00047672040854940256,-0.0002938964180344006
153000000000.0,4,0.016994924449999997,0.07057846005,0.00965955025,0.1036,0.028509,0.054906,-0.5339917058,-5.105145857,-8.356050331999999,-0.063818,0.54753,-1.3053,-9.99999999995449e-06,-9.090909091291621e-06,0.00019999999999997797,-0.000752435363556514,0.0005197457029466612,-0.0005299264254466918
153000000000.0,4,0.06553784195,0.056270557699999994,0.0053642375499999995,0.10135,0.002971,0.037868,-0.53509985725,-5.1132853765,-8.350950873999999,-0.063989,0.5485,-1.3048,-2.999999999997449e-05,-9.090909090847532e-06,0.00019999999999997797,-0.0006504029183805882,-5.791098105012438e-05,-0.000399559545199657
153000000000.0,4,0.10217548634999998,0.04582647545,0.043129646699999996,0.094764,-0.029994,0.022972,-0.5379143658,-5.1209345635000005,-8.346047549,-0.064362,0.54942,-1.3044,1.999999999990898e-05,-9.090909090847532e-06,9.999999999998899e-05,-0.0007705031919745808,0.00042135490878769666,-0.0002537929670238248
153000000000.0,4,0.08126770854999998,0.05749638895,0.09027021325,0.084983,-0.059738,0.011266,-0.542896144,-5.127995351499999,-8.3414384235,-0.064993,0.55026,-1.3043,2.0000000000020002e-05,-9.090909090847532e-06,9.999999999998899e-05,-0.0007335587217679462,0.00043511255380068725,-0.00023755680550330283
153000000000.0,4,0.060212830999999994,0.06791105124999999,0.07075497975,0.066772,-0.072365,0.003784,-0.54892723375,-5.133781275,-8.337515763499999,-0.065744,0.55095,-1.3042,-7.00000000000145e-05,-9.090909090847532e-06,0.00019999999999997797,-0.0003004378477442504,-0.00015014962270210042,-0.0003441065890193995
153000000000.0,4,0.04159000265,0.0441495383,0.07623689709999999,0.051846,-0.074368,-0.001575,-0.55514464985,-5.138292333999999,-8.334279569,-0.066511,0.55149,-1.3042,1.0000000000065512e-05,-9.090909090847532e-06,4.999999999988347e-05,-0.0006523073410265035,0.00036293718072855086,7.522596542919313e-05
153000000000.0,4,-0.004344345949999999,0.07020580735,0.1140905661,0.045512,-0.070047,-0.007998,-0.5608423134999999,-5.142018861,-8.3316317735,-0.067213,0.55194,-1.3042,-2.0000000000020002e-05,-9.090909091291621e-06,5.0000000000105516e-05,-0.00017291157868615237,-0.0005671175102042181,9.926507415430885e-05
153000000000.0,4,-0.0365591912,0.10272465874999999,0.15418995795,0.045644,-0.056191,-0.012292,-0.56528472595,-5.145647321499999,-8.3290820445,-0.067765,0.55238,-1.3043,2.0000000000020002e-05,-9.090909090847532e-06,9.999999999998899e-05,-0.00023651747723663075,-0.00021418660397110045,0.00021566995851851622
153000000000.0,4,-0.04674830055,0.10407797644999998,0.15332697274999998,0.04579,-0.03808,-0.011256,-0.5681188478,-5.149373848499999,-8.3265323155,-0.068124,0.55283,-1.3044,-2.0000000000020002e-05,-9.090909090847532e-06,-4.999999999988347e-05,0.00035840762817551663,0.00030809631061856635,0.00015920936548169395
153000000000.0,4,-0.08851482289999998,0.13190924915,0.146903617,0.0449,-0.014631,-0.009164,-0.5691387393999999,-5.153198441999999,-8.324178719499999,-0.068266,0.55327,-1.3045,-2.999999999997449e-05,-3.333333333310762e-05,-5.0000000000105516e-05,-0.0002856177260610604,0.00011892901056098637,2.4271744440640397e-05
153000000000.0,4,-0.10817715614999998,0.1300557923,0.16950794525,0.043981,0.006684,-0.004933,-0.5684816938499999,-5.1568269025,-8.32192319,-0.068206,0.55371,-1.3046,-4.0000000000040004e-05,-3.333333333355171e-05,-5.0000000000105516e-05,0.0003036431251889349,0.00033116989058190605,-0.00020275825065596553
153000000000.0,4,-0.0993413645,0.1241914156,0.15303277325,0.030137,0.015314,0.003567,-0.56714798945,-5.159670831000001,-8.3202560595,-0.068059,0.55405,-1.3046,2.999999999997449e-05,-3.333333333310762e-05,-4.999999999988347e-05,0.0002952617154732273,0.000744009779970467,-3.8011510636482004e-05
153000000000.0,4,-0.07354987499999999,0.10668654535,0.10355822399999999,0.010862,0.011205,0.009945,-0.5664517173,-5.160847628999999,-8.319569593999999,-0.067982,0.5542,-1.3045,-5.999999999994898e-05,-0.00010000000000021103,-9.999999999998899e-05,0.00047562835977932316,3.570739279057378e-05,-9.80960771038708e-05
153000000000.0,4,-0.0336956494,0.07508951905,0.08968181424999999,-0.007369,-0.002494,0.006735,-0.5666576569499999,-5.160553429499999,-8.319765727,-0.068005,0.55416,-1.3044,-1.0000000000065512e-05,-4.999999999988347e-05,-9.999999999998899e-05,0.0004265152899464164,0.0010307812089651591,0.00012079179346125013
153000000000.0,4,-0.0063939358,0.04198226865,0.11158006369999998,-0.027808,-0.020443,0.009933,-0.5685209204499999,-5.158494033,-8.3208444585,-0.068218,0.55392,-1.3043,-1.999999999990898e-05,-4.999999999988347e-05,-9.999999999998899e-05,0.0012332535464263383,8.089405521949367e-05,-0.00015336755722256123
153000000000.0,4,-0.005187717849999999,-0.0005687857,0.10394068335000001,-0.046063,-0.033083,0.013126,-0.5718159548499999,-5.1550617055,-8.3228057885,-0.068597,0.5535,-1.3043,-1.0000000000065512e-05,-0.00010000000000021103,-9.999999999998899e-05,0.0003715016196307319,0.0006202249572961893,-0.00016901617154441162
153000000000.0,4,-0.021908056099999997,0.010493115499999999,0.11435534564999998,-0.05779,-0.032993,0.015241,-0.575454222,-5.1503545135,-8.325453584,-0.06901,0.55294,-1.3041,-4.999999999999449e-05,-4.999999999988347e-05,-9.999999999998899e-05,0.0003381831911249966,0.00028340431868900673,2.0677647828259982e-05
153000000000.0,4,-0.020446865249999998,0.03399965555,0.113953273,-0.064244,-0.036142,0.020573,-0.57960243495,-5.1450589225,-8.3284936455,-0.069481,0.5523,-1.304,-7.999999999996898e-05,-4.999999999988347e-05,-5.0000000000105516e-05,-0.0001301695571185313,0.000505089886909893,-0.0005734323172999489
153000000000.0,4,-0.04298254694999999,0.0284981249,0.10030241619999998,-0.063144,-0.030821,0.020565,-0.5835545149,-5.139567198499999,-8.331533707,-0.069927,0.55164,-1.3038,-7.00000000000145e-05,-0.00010000000000021103,-4.999999999988347e-05,-0.00039234671063348436,0.0008690254943160003,-0.00019261768619205366
153000000000.0,4,-0.00911037785,0.0230848541,0.1123057558,-0.04918,-0.022405,0.015237,-0.5865945764,-5.1350561395000005,-8.3341815025,-0.070269,0.5511,-1.3037,-0.00012999999999996348,-9.999999999976694e-05,-1.4285714285744433e-05,-0.0003594234029876686,6.796013884802221e-05,-0.0005907537537639951
153000000000.0,4,-0.0271840338,0.0244185585,0.12479942789999998,-0.027835,-0.023643,0.012074,-0.58933063175,-5.132114144499999,-8.3357505665,-0.070582,0.55076,-1.3036,-0.000140000000000029,-0.00010000000000021103,-1.4285714285744433e-05,6.505889913055452e-05,0.00014718344683672946,-0.0005380142263438636
153000000000.0,4,-0.0615465354,0.0151414676,0.10010628319999999,-0.013946,-0.025881,0.00463,-0.59176268095,-5.130643147,-8.336437032,-0.070867,0.55058,-1.3035,-0.000160000000000049,-9.999999999976694e-05,-1.4285714285744433e-05,-6.042351270152402e-05,-0.0001478269598165216,-0.0006099712147814018
153000000000.0,4,-0.04543420945,-0.0371083636,0.07591327764999999,0.00418,-0.03348,-0.004932,-0.5942633767,-5.1307412135,-8.336240899,-0.071167,0.55059,-1.3036,-0.00015999999999993797,-0.00010000000000021103,-1.4285714285522388e-05,-0.00010419839268105413,0.00045460555514686973,-0.0006837013101601008
153000000000.0,4,-0.03217561865,-0.0691761091,0.07052942679999999,0.013764,-0.043137,-0.01664,-0.59690136555,-5.1319180115,-8.335260234,-0.071489,0.55073,-1.3037,-0.00021000000000004349,-0.00019999999999997797,-1.4285714285744433e-05,-0.00022820748169660732,0.0006698347053721854,-0.0004290836144471011
153000000000.0,4,-0.025526709949999997,-0.071000146,0.041639035899999996,0.016956,-0.047425,-0.019828,-0.59980413395,-5.133585141999999,-8.334083436,-0.071846,0.55092,-1.304,-0.00014999999999998348,-0.00019999999999997797,-1.4285714285744433e-05,0.00031054749131553816,0.0005870505439449225,-6.004821738453403e-05
153000000000.0,4,-0.00487390505,-0.1239952826,0.056349010899999996,0.023273,-0.056005,-0.0166,-0.6034031745,-5.135448405499999,-8.332612438499998,-0.072288,0.55116,-1.3042,-9.999999999998899e-05,-0.00019999999999997797,-1.4285714285744433e-05,9.274128773051338e-06,0.0003177487426504477,0.00023325474390772927
153000000000.0,4,0.01711260425,-0.16322188259999998,0.1145024454,0.025304,-0.063485,-0.010179,-0.6080319133,-5.137703935,-8.330945308,-0.072855,0.55142,-1.3043,-0.0001100000000000545,-0.000300000000000189,9.999999999998899e-05,0.00035481439700157935,-0.001220752892305832,5.362795274654886e-05
153000000000.0,4,0.0510338066,-0.17176347474999998,0.10212645309999999,0.019879,-0.074098,-0.009103,-0.6136707370499999,-5.139567198499999,-8.329376243999999,-0.073543,0.55165,-1.3044,-0.00020999999999993246,-0.0002999999999997449,-9.999999999998899e-05,0.0003106578061291554,-0.0015039850997236037,6.234793130521776e-05
153000000000.0,4,0.08001245735,-0.16497727295,0.0981449532,0.011492,-0.06017,-0.015546,-0.61855444875,-5.140842063,-8.328199446,-0.074136,0.5518,-1.3045,-0.00021999999999999797,-0.00019999999999997797,9.999999999998899e-05,0.00037295072565646237,-0.0019305359263595001,-0.0005558899129267103
153000000000.0,4,0.043894565399999995,-0.1919553671,0.093359308,-0.005163,-0.017393,-0.030594,-0.6197018268,-5.1409401295,-8.3281013795,-0.074275,0.55182,-1.3049,-0.00026999999999999247,-0.00039999999999995595,9.999999999998899e-05,-0.00019760232855436932,-0.0025217171371456626,-0.0016494592958996024
153000000000.0,4,0.010983447999999998,-0.2129415981,0.08812255689999998,-0.019542,0.039222,-0.050999,-0.61537709415,-5.140057531,-8.328983977999998,-0.07375,0.5517,-1.3054,-0.00026999999999999247,-0.000300000000000189,3.333333333332966e-05,-0.0005101897862012095,-0.0007565981505031072,-0.0009277619788881086
153000000000.0,4,-0.0015592573499999998,-0.2462449815,0.1124430489,-0.019037,0.090387,-0.070301,-0.60537431115,-5.138880733,-8.330356908999999,-0.072543,0.55157,-1.3062,-0.00034000000000000696,-0.00039999999999995595,3.333333333332966e-05,0.0012297777074504745,-0.0009247163954808624,-0.0017090727848004805
153000000000.0,4,0.00316754795,-0.26643687385,0.12243602524999998,-0.012376,0.10634,-0.095935,-0.5921451403,-5.138292333999999,-8.33172984,-0.070952,0.5515,-1.3073,-0.0002500000000000835,-0.000300000000000189,3.333333333332966e-05,0.0008963476385833724,-0.0006691896289909849,-0.0010772126386848768
153000000000.0,4,0.045600922499999995,-0.22903431075,0.06700883945,-0.017674,0.093627,-0.12367,-0.5778666578999999,-5.137900068,-8.333004704499999,-0.069236,0.55144,-1.3087,-0.00017000000000000348,-0.0002999999999997449,9.999999999998899e-05,-0.0008689049584883479,3.2720676672370885e-05,-0.00036551675686247176
153000000000.0,4,0.060546257099999994,-0.1429221171,-0.0612131093,-0.032793,0.05648,-0.14712,-0.5651278195499999,-5.1366252034999995,-8.334671835,-0.067701,0.55129,-1.3103,-0.00019999999999997797,-0.000300000000000189,0.00019999999999997797,0.0002697892216259046,-0.00038665117018577,-0.0005396184546350713
153000000000.0,4,0.04535575625,-0.1222693122,-0.14765872905,-0.044808,0.020351,-0.14921,-0.5551740698,-5.134173541,-8.336829298,-0.066495,0.551,-1.3121,-0.00012999999999996348,-0.00039999999999995595,9.999999999998899e-05,0.0004791348463953904,0.000793087214873589,-0.00048311055814381776
153000000000.0,4,0.0419920753,-0.16512437269999997,-0.15899521645,-0.065155,0.017312,-0.13963,-0.5468776439,-5.130447014,-8.339673226499999,-0.065481,0.55055,-1.3138,-0.00022999999999995246,-0.0002999999999997449,0.00029999999999996696,0.0007366044095311608,-0.0005170677359156439,-0.00020072821178124256
153000000000.0,4,0.07095111275,-0.15201288165,-0.20630249604999998,-0.051799,-0.024394,-0.10325,-0.5426117511499999,-5.126720487,-8.3422229555,-0.064953,0.55011,-1.3152,-7.00000000000145e-05,-0.000300000000000189,9.999999999998899e-05,0.0005451994889110745,0.0002364548373947617,0.0005388430100665142
153000000000.0,4,-0.022310128749999998,-0.11710120765,-0.13675373425,-0.039222,-0.026672,-0.061591,-0.5410721071,-5.1237784920000005,-8.344086219,-0.064755,0.54976,-1.3161,-0.0001100000000000545,-0.000300000000000189,0.00039999999999995595,-6.138010372080949e-06,-0.0013350857978087216,-5.7362463525945095e-05
153000000000.0,4,0.04519884985,-0.1450403535,-0.17413668404999996,-0.020218,-0.031125,-0.028461,-0.5419939321999999,-5.122209428,-8.345066884,-0.064857,0.54957,-1.3165,-5.999999999994898e-05,-9.999999999976694e-05,0.00020000000000020002,-0.0003198588531390101,-0.0013056954877661564,0.0005983860002505281
153000000000.0,4,0.06348825209999999,0.0108265416,-0.23331001014999997,-0.003069,-0.011033,-0.013523,-0.5426313644499999,-5.1220132949999995,-8.345066884,-0.064932,0.54954,-1.3167,-0.00012000000000000899,-0.00010000000000021103,0.00019999999999997797,0.00011197294291631632,-0.0012933764315610219,0.0007485377906060742
153000000000.0,4,0.0191425808,0.14238275135,-0.24180256904999997,0.016419,0.025035,-0.012486,-0.5407779076,-5.123386226,-8.3443804185,-0.064717,0.54971,-1.3169,-0.000160000000000049,-0.00019999999999997797,0.00019999999999997797,-9.201812235104523e-05,-0.0012679526023093857,0.0001543767263207929
153000000000.0,4,-0.0235163467,0.1629669097,-0.23411415544999997,0.030705,0.076067,-0.013618,-0.5347762377999999,-5.1258378884999996,-8.343301686999999,-0.064009,0.55,-1.317,-0.00019000000000002348,-9.999999999976694e-05,0.00039999999999995595,-0.0005104929374126765,-0.0012007198633459115,0.00035857443148934465
153000000000.0,4,-0.08554340795,0.20838150584999998,-0.20715567459999998,0.038589,0.12396,-0.020093,-0.5243811888,-5.129074083,-8.341928756,-0.062778,0.55039,-1.3172,-0.00017000000000000348,-0.00010000000000021103,0.00029999999999996696,-0.0008329345466177029,-0.0006717434911962528,-0.0002868777880772333
153000000000.0,4,-0.061703441799999995,0.21407916949999997,-0.17901058909999998,0.048462,0.14734,-0.036128,-0.51066168545,-5.133094809499999,-8.340261625499998,-0.061152,0.55087,-1.3176,-0.00011999999999989797,-9.999999999976694e-05,0.00029999999999996696,-0.0011296229807113978,-0.0010088964830277103,-0.0005840297387031956
153000000000.0,4,-0.0201624724,0.23568321944999998,-0.14328496315,0.054939,0.14411,-0.056392,-0.49563789765,-5.1378020015,-8.3383002955,-0.059371,0.55144,-1.3181,-0.000260000000000038,-0.00010000000000021103,0.00039999999999995595,-0.0008204828822511168,-0.0012506915454160161,-0.0005743984744199238
153000000000.0,4,0.01228773245,0.22566082315,-0.09436939294999999,0.059116,0.12172,-0.074491,-0.48155554825,-5.143097592499999,-8.3359466995,-0.057704,0.55206,-1.3189,-0.00012000000000000899,-9.999999999976694e-05,0.00020000000000020002,-0.00020998237454827873,-0.001226037892435583,-0.0010269100355189686
153000000000.0,4,0.056564757199999996,0.20783233345,-0.02291814105,0.071722,0.091785,-0.082956,-0.46911090939999994,-5.1491777155000005,-8.3328085715,-0.056238,0.5528,-1.3198,-7.999999999996898e-05,-0.00010000000000021103,0.00019999999999997797,-0.0005927035831788663,-0.0013482577523014072,-0.0003348819676354253
153000000000.0,4,0.07416769395,0.21236300575,0.04278641395,0.088627,0.066076,-0.089285,-0.45858837394999996,-5.156336570000001,-8.328983977999998,-0.055004,0.55366,-1.3208,-9.00000000000345e-05,-0.00019999999999997797,0.00019999999999997797,0.0002059877978224378,-0.0005976827215250502,-0.0001376852461017486
153000000000.0,4,0.08570031435,0.20789117334999999,0.118072066,0.089515,0.043691,-0.089244,-0.44990948869999997,-5.163887690499999,-8.3247671185,-0.053993,0.55456,-1.3218,-9.00000000000345e-05,-0.00019999999999997797,9.999999999998899e-05,0.00016037905396004692,-0.00021114022346235828,0.0002420612993626614
153000000000.0,4,0.08752435125000001,0.18676764924999997,0.14402046189999998,0.080823,0.033102,-0.079635,-0.4429173472499999,-5.1709484785,-8.3208444585,-0.053179,0.5554,-1.3227,-4.999999999999449e-05,-0.00019999999999997797,9.999999999998899e-05,0.00017180895107049565,-0.00019339994483424938,-2.0884610725246944e-06
153000000000.0,4,0.10519593455,0.1430986368,0.15058111075,0.057269,0.032215,-0.064731,-0.4369450974,-5.1760479365,-8.318000529999999,-0.052482,0.55602,-1.3235,-2.0000000000020002e-05,-0.00019999999999997797,9.999999999998899e-05,-1.175185398316625e-05,0.00025345229691509097,1.93680264085061e-05
153000000000.0,4,0.11403172619999999,0.0972035148,0.1254270535,0.025138,0.028192,-0.043431,-0.43216925884999996,-5.1785976655,-8.316627599,-0.051917,0.55633,-1.324,-3.999999999992898e-05,-9.999999999976694e-05,5.0000000000105516e-05,0.00020622783300239256,0.000358082506047408,0.00013191118590150097
153000000000.0,4,0.09997879674999999,0.08159132799999999,0.10562742714999998,-0.013488,0.017826,-0.016794,-0.429335137,-5.1779112,-8.3171179315,-0.051575,0.55625,-1.3243,-4.999999999999449e-05,-0.00010000000000021103,4.999999999988347e-05,0.0002751630316090159,0.00010198211733825069,1.062056166212244e-05
153000000000.0,4,0.10267562549999999,0.03915795345,0.03315628365,-0.041426,0.004189,-0.000808,-0.42858983159999997,-5.174773072,-8.319177327999999,-0.051472,0.55586,-1.3243,-0.000140000000000029,-0.00010000000000021103,0.00019999999999997797,-0.00012009160662407314,0.0003046650871529888,1.4876770961846919e-05
153000000000.0,4,0.08674962589999999,0.03904027365,0.019113160849999998,-0.052136,0.001077,0.002381,-0.42852118505,-5.170163946499999,-8.3220212565,-0.051446,0.55531,-1.3244,-7.00000000000145e-05,-9.999999999976694e-05,9.999999999998899e-05,-0.00036285482258291424,-0.00015920242117895,-0.0002497588668006756
153000000000.0,4,0.030910560799999997,0.08693595224999999,0.03923640665,-0.044618,0.005281,-0.000816,-0.42805046584999995,-5.165947087,-8.324669051999999,-0.051375,0.55481,-1.3244,-2.4999999999941735e-05,-0.00010000000000021103,0.00019999999999997797,-0.0015501675569594697,0.0010545820622389623,-0.00011908681235256457
153000000000.0,4,-0.00452086565,0.0984979926,0.0667440599,-0.016844,0.006123,-0.006106,-0.427177674,-5.163887690499999,-8.3259439165,-0.051262,0.55456,-1.3245,-2.5000000000052758e-05,-9.999999999976694e-05,9.999999999998899e-05,-0.0011276814807549274,0.0002472028377786817,-0.00040172288502937636
153000000000.0,4,-0.0255169033,0.09234922305,0.0797280645,0.023616,-0.006998,-0.008147,-0.42699134765,-5.164966422,-8.325355517499998,-0.051243,0.55468,-1.3245,9.99999999995449e-06,-0.00010000000000021103,0.00019999999999997797,-0.0010876011776611572,-3.283580256674412e-05,-6.0814232723138684e-05
153000000000.0,4,-0.02897865075,0.0775706015,0.09956691745,0.061912,-0.021166,-0.008055,-0.4278641395,-5.169281348,-8.322609655499999,-0.051365,0.55521,-1.3246,2.0000000000020002e-05,-9.999999999976694e-05,0.00029999999999996696,-0.0006086369244612255,0.0005277327534831677,0.00032988425941182786
153000000000.0,4,-0.02209438245,0.05563312545,0.12401489589999999,0.093715,-0.041674,-0.003696,-0.43056096824999995,-5.1766363355,-8.3179024635,-0.051717,0.5561,-1.3247,1.0000000000065512e-05,-0.00019999999999997797,0.00020000000000020002,-0.0012365968216973,0.0006578715708087657,9.369830835204151e-05
153000000000.0,4,-0.004020726499999999,0.03288169745,0.09050557285,0.11277,-0.055692,0.003834,-0.43501318735,-5.185658453499999,-8.312018473499998,-0.052288,0.55717,-1.3246,-9.00000000000345e-05,-0.00019999999999997797,0.00019999999999997797,-0.0007147643745242238,2.7572225974603626e-05,1.7166316538141935e-05
153000000000.0,4,0.0121798593,-0.0242028122,0.05569196535,0.11917,-0.053629,0.01345,-0.43999496554999995,-5.195465103499999,-8.305644151,-0.052925,0.55835,-1.3244,-4.0000000000040004e-05,-0.00019999999999997797,9.999999999998899e-05,-0.0005858605418270768,0.0007987150631720841,0.0001552233156177918
153000000000.0,4,-0.02015266575,-0.05814362785,0.07028426054999999,0.11708,-0.040836,0.024097,-0.4446138977,-5.205173687,-8.2992698285,-0.053522,0.55953,-1.3241,-0.00012000000000000899,-0.00019999999999997797,0.00019999999999997797,-0.0006488328616555128,0.00031360211171516106,-0.0007464767999952882
153000000000.0,4,-0.0111207411,-0.10224413289999999,0.0619388014,0.10645,-0.032225,0.028332,-0.44886017715,-5.2140977385,-8.293483905,-0.054069,0.56059,-1.3237,-0.00018999999999991246,-0.00019999999999997797,9.999999999998899e-05,-0.0004021750871333607,0.00039806431009514753,-0.0006551007878454751
153000000000.0,4,0.027713592899999997,-0.10847135564999999,0.052210604599999995,0.08839,-0.02674,0.02082,-0.4523807644999999,-5.221648859,-8.28858058,-0.054525,0.5615,-1.3233,-0.0001300000000000745,-0.00019999999999997797,9.999999999998899e-05,-0.0008342360187336695,0.001352684252292402,-0.0006060464798298693
153000000000.0,4,0.054456327449999994,-0.0987921921,0.058192661099999994,0.063815,-0.035056,0.014387,-0.45594057844999997,-5.227238649499999,-8.284854053,-0.054978,0.56218,-1.3231,-8.999999999992347e-05,-0.000300000000000189,9.999999999998899e-05,-9.927026367195779e-05,0.0012285470511035346,-0.00034590923255639616
153000000000.0,4,0.0693134022,-0.13753826624999999,0.0360296321,0.037057,-0.047619,0.011161,-0.46016724459999997,-5.230670976999999,-8.2824023905,-0.055502,0.5626,-1.323,-0.00017000000000000348,-0.00039999999999995595,0.00019999999999997797,0.0002966840388252123,-0.0002048667409046967,-0.0002506615284810776
153000000000.0,4,0.06891132955,-0.13802859875,0.02234935535,0.017743,-0.0677,0.002624,-0.46560012869999995,-5.232436174,-8.2810294595,-0.056166,0.56281,-1.3229,-4.0000000000040004e-05,-0.000300000000000189,9.999999999998899e-05,0.0010018981770565372,0.0002651375006772483,-0.00010746869120015212
153000000000.0,4,0.0811794487,-0.12336765699999998,0.0576042621,0.01122,-0.08682,-0.003758,-0.47232749059999996,-5.2333187725,-8.280048794499999,-0.056983,0.56292,-1.3229,-9.999999999998899e-05,-0.0002999999999997449,9.999999999998899e-05,0.0003148848249860947,-0.0006164445942302699,-8.147662153318302e-05
153000000000.0,4,0.0537992819,-0.10826541599999999,0.09589923034999999,0.001559,-0.094202,-0.002694,-0.47981977119999997,-5.233612972,-8.2794603955,-0.057889,0.56295,-1.323,-8.500000000000174e-05,-0.000300000000000189,9.999999999998899e-05,-4.581303734485509e-06,0.0003587916919038925,0.0001982728729753025
153000000000.0,4,0.011856239849999999,-0.07797267414999999,0.10192051344999999,-0.003708,-0.085634,-0.002718,-0.48694920574999995,-5.233416839,-8.279166196,-0.058749,0.56292,-1.323,-8.500000000000174e-05,-0.00039999999999995595,9.999999999998899e-05,9.059446377479574e-05,0.00028498591179171306,9.672895396106718e-05
153000000000.0,4,-0.00946341725,-0.042580474300000004,0.10790256995,-0.007826,-0.058966,0.006833,-0.49257822285,-5.2329265065,-8.279166196,-0.059426,0.56286,-1.323,-0.000160000000000049,-0.000300000000000189,9.999999999998899e-05,-0.00029582867895971976,-0.0003209297122492849,-0.00013466800480643748
153000000000.0,4,-0.04297274029999999,-0.04749360595,0.11411998605,-0.009771,-0.02806,0.018517,-0.4963145565,-5.232141974499999,-8.279362329,-0.059875,0.56277,-1.3228,-3.999999999992898e-05,-0.00039999999999995595,9.999999999998899e-05,-0.0010809986684168216,0.0008948594846645008,0.00017749341388401119
153000000000.0,4,-0.016288845649999998,-0.0533285627,0.10445062915,-0.008546,-0.004634,0.024882,-0.49831511309999993,-5.231455509,-8.279754595,-0.060112,0.56268,-1.3225,-0.000140000000000029,-0.00039999999999995595,9.999999999998899e-05,-0.0002252533082458541,2.2189001925632112e-05,0.0001780314790590376
153000000000.0,4,0.01415099595,-0.02976318275,0.13647914805,-0.005218,0.009195,0.021661,-0.49867795914999996,-5.230867109999999,-8.280048794499999,-0.060154,0.56262,-1.3223,-0.000140000000000029,-0.00039999999999995595,9.999999999998899e-05,0.00013809075558168793,0.000185901102015551,-0.0004830040867113694
153000000000.0,4,0.042207821599999994,-0.037294689949999994,0.15524907615,0.007627,0.010163,0.01421,-0.4984524062,-5.231259376,-8.2798526615,-0.060128,0.56267,-1.3221,4.0000000000040004e-05,-0.0004999999999997229,1.999999999990898e-05,-0.0017130428518734586,0.000602940216132275,-0.0010422418792558341
153000000000.0,4,0.06983315464999999,-0.031547993049999994,0.19606435344999998,0.021453,-0.005917,-0.002816,-0.49855047269999997,-5.233024573,-8.27877393,-0.060148,0.56287,-1.3221,-0.000140000000000029,-0.000300000000000189,2.0000000000131024e-05,-0.0012527833956270662,0.00024552223728879774,-0.0009357109800136043
153000000000.0,4,0.1151104577,-0.011003061299999999,0.21926688735,0.032034,-0.028361,-0.021972,-0.49937423129999997,-5.235770435,-8.2769106665,-0.06026,0.5632,-1.3223,-2.999999999997449e-05,-0.000500000000000167,1.999999999990898e-05,-0.0011805482514253285,0.0027031299192989966,-0.0006853581446588097
153000000000.0,4,0.13691064065,-0.016622271749999997,0.2461861416,0.039364,-0.049727,-0.028326,-0.5015807275499999,-5.239104696,-8.274655137,-0.060542,0.56361,-1.3227,-4.0000000000040004e-05,-0.0005999999999999339,2.0000000000131024e-05,0.00026487617755976967,0.002640890772611426,-0.00016768144843204436
153000000000.0,4,0.15020845805,-0.031018433949999997,0.28291204584999996,0.051885,-0.079676,-0.019712,-0.50634675945,-5.243223489,-8.271811208499999,-0.061138,0.56411,-1.3229,-4.999999999999449e-05,-0.0004999999999997229,1.999999999990898e-05,-0.0002445165700374341,0.0011075646552292095,-0.0008219595790676104
153000000000.0,4,0.1735188651,-0.06685193304999999,0.30957632719999995,0.062151,-0.11814,-0.000413,-0.51499622475,-5.248322946999999,-8.2680846815,-0.062207,0.56472,-1.3229,4.0000000000040004e-05,-0.000600000000000378,-9.999999999998899e-05,-0.002425340719391933,0.0028818481572387977,-0.0012416428128863566
153000000000.0,4,0.2072341278,-0.11595382959999999,0.30117202815,0.066987,-0.16722,0.019962,-0.52864708155,-5.253814671,-8.263671688999999,-0.063886,0.56538,-1.3227,-9.99999999995449e-06,-0.0004999999999997229,3.333333333332966e-05,-0.0003619569674802037,0.0022799716168946382,-0.0003463909786141639
153000000000.0,4,0.2298482627,-0.13252706809999998,0.27616507064999996,0.066515,-0.21625,0.036059,-0.5472306832999999,-5.2592083285,-8.259062563499999,-0.066162,0.56604,-1.3223,6.999999999990347e-05,-0.000700000000000145,3.333333333332966e-05,-0.0006792565064135392,0.0022696787185050304,-0.0009848741008609552
153000000000.0,4,0.20588081009999998,-0.13644972809999997,0.26427941085,0.068365,-0.24824,0.042523,-0.5691975793,-5.2647000525,-8.254061172,-0.068851,0.5667,-1.3217,-9.99999999995449e-06,-0.0005999999999999339,3.333333333332966e-05,-0.0021473637580567972,0.0006746120582139525,-0.0017013178429786113
153000000000.0,4,0.18881723909999998,-0.1362928217,0.27332114215,0.075728,-0.26215,0.041493,-0.5926943127,-5.270682109,-8.248569448,-0.071731,0.56742,-1.3212,-7.999999999996898e-05,-0.000500000000000167,0.00010000000000021103,-0.002560628367829554,0.001957601163927958,-0.0007692521509380379
153000000000.0,4,0.12598603255,-0.1109720514,0.27143826535,0.087451,-0.26226,0.045784,-0.61649505225,-5.2774486975,-8.242489325,-0.074656,0.56824,-1.3206,-0.0001100000000000545,-0.0005999999999999339,9.999999999998899e-05,-0.0021680693895790304,0.002150534456989428,-0.0002847705508787213
153000000000.0,4,0.060546257099999994,-0.08185610755,0.2202377457,0.10024,-0.26023,0.051139,-0.6402467585499999,-5.2851959509999995,-8.2357227365,-0.077584,0.56918,-1.32,-4.999999999999449e-05,-0.0006999999999997009,4.999999999988347e-05,-0.0019471805702159228,0.0016045241020070655,-0.0007857867939440877
153000000000.0,4,0.017142024199999998,-0.07448150675,0.15317006635,0.12275,-0.24976,0.047957,-0.6632825794,-5.294512268499999,-8.2278774165,-0.080439,0.57031,-1.3193,-4.999999999999449e-05,-0.000600000000000378,5.0000000000105516e-05,-0.001955216491737577,0.00012879879797211835,-0.0013067863948975078
153000000000.0,4,0.03213639205,-0.03998171205,0.11108973119999999,0.15816,-0.23512,0.030914,-0.68455320325,-5.3066725145,-8.2182668995,-0.083104,0.57179,-1.3188,-4.999999999999449e-05,-0.0006999999999997009,9.999999999998899e-05,-0.0007672171244269554,0.00035021294593118313,0.0004808598373878814
153000000000.0,4,0.08493539565,-0.056260751049999995,0.10984428664999998,0.1873,-0.20869,0.007436,-0.7024895661,-5.3215786225,-8.207185384999999,-0.085386,0.57359,-1.3185,2.999999999997449e-05,-0.000700000000000145,-9.999999999998899e-05,-0.0010941355238160977,0.00023666192759796978,0.000288415216378346
153000000000.0,4,0.056094038,-0.08187572085,0.10338170429999999,0.19949,-0.16189,-0.008636,-0.71599332315,-5.337955728,-8.1953193385,-0.087145,0.57558,-1.3184,-4.999999999999449e-05,-0.0009000000000001229,-5.0000000000105516e-05,-0.0009872560285307808,0.000638936661600642,0.00026589215347333495
153000000000.0,4,-0.0033538743,-0.11109953785,0.1186212384,0.19347,-0.11282,-0.008734,-0.7253880938499999,-5.3544309,-8.183845558,-0.088406,0.57758,-1.3184,-4.999999999999449e-05,-0.0008999999999996788,-4.999999999988347e-05,-0.00128758832637621,0.0010146453065074112,0.0003607998414782987
153000000000.0,4,-0.028959037449999996,-0.207508714,0.18174664445,0.17347,-0.068984,0.007165,-0.7316545431999999,-5.369337008,-8.173450508999998,-0.089278,0.5794,-1.3182,-2.999999999997449e-05,-0.0009000000000001229,-4.999999999988347e-05,0.000415798231828024,0.0006194898254974213,0.0006019980987941875
153000000000.0,4,0.0056094038,-0.31193972984999996,0.1744014636,0.12554,-0.047298,0.026257,-0.73674419455,-5.380712721999999,-8.1655071225,-0.089983,0.58079,-1.3178,-2.0000000000020002e-05,-0.0009999999999998899,-5.0000000000105516e-05,0.0019701298158832925,0.00042314725209058324,0.000531095725087305
153000000000.0,4,0.08351343139999999,-0.36258127045,0.11208020284999999,0.066925,-0.027653,0.044267,-0.7413239000999999,-5.3872831775,-8.1607999305,-0.090591,0.58158,-1.3173,-2.0000000000020002e-05,-0.001000000000000334,-0.00010000000000021103,-6.7844879771961075e-06,-0.000322047967661776,0.00023562785520658824
153000000000.0,4,0.08489616905,-0.34467432754999994,0.10058680905,0.012449,-0.025094,0.062314,-0.7464429713999999,-5.388950308,-8.159132799999998,-0.091232,0.58179,-1.3166,-9.999999999998899e-05,-0.0009999999999998899,-9.999999999998899e-05,0.000564094417243588,0.0005689145138192409,0.0008947406091612264
153000000000.0,4,0.0889855421,-0.32451185515000003,0.107284751,-0.031292,-0.017286,0.073966,-0.75172875575,-5.386694778499999,-8.1602115315,-0.091863,0.58152,-1.3158,-3.999999999992898e-05,-0.001100000000000101,9.999999999998899e-05,-0.00024354796146508484,0.0002582027699518097,0.00016907116967124214
153000000000.0,4,0.059036033,-0.27647888345,0.09556580425,-0.059008,-0.009602,0.079241,-0.7567987938,-5.3817914535,-8.1629573935,-0.092447,0.58091,-1.3149,-0.0001300000000000745,-0.0010999999999996568,-9.999999999998899e-05,-0.0004175839052055208,0.0001012362931493982,-8.754175783121099e-05
153000000000.0,4,0.03090075415,-0.2316134597,0.08958374775,-0.057876,-0.00747,0.069632,-0.76128043285,-5.376397795999999,-8.166095521499999,-0.092955,0.58025,-1.3142,-9.999999999998899e-05,-0.001100000000000101,0.00010000000000021103,0.0015545218460829568,0.0005119974494234292,0.00032468817582465004
153000000000.0,4,0.02942975665,-0.22639632189999997,0.1106582386,-0.045009,-0.006497,0.057911,-0.76504618645,-5.371984803499999,-8.1686452505,-0.093385,0.57972,-1.3135,-0.00036999999999998145,-0.0009000000000001229,9.999999999998899e-05,-0.0020983202597510964,-0.002224517552063654,-0.0008416274262298407
153000000000.0,4,-0.0327149844,-0.22552353004999998,0.09980227705,-0.027777,0.002969,0.040846,-0.7673899758,-5.3692389415,-8.170214314499999,-0.093651,0.57939,-1.313,-0.00027999999999994696,-0.0011999999999998678,2.4999999999941735e-05,0.00043675670363951813,0.00016972811707205437,-0.001075088471855501
153000000000.0,4,-0.07606037739999999,-0.19108257524999997,0.07688413599999999,-0.006248,0.010276,0.015253,-0.7678999216,-5.368552476,-8.1706065805,-0.093707,0.5793,-1.3128,-8.000000000008001e-05,-0.001100000000000101,2.500000000016378e-05,-0.001155318181950915,0.000599685395360039,-0.0004225667219003859
153000000000.0,4,-0.0817286211,-0.19073934249999996,0.08060085635,0.010983,0.012295,-0.01354,-0.7664191174499999,-5.369533141,-8.170214314499999,-0.093533,0.57942,-1.3129,-0.00022999999999995246,-0.0011999999999998678,2.4999999999941735e-05,0.001418388779673374,0.0003073909049180479,-0.0005499336287018153
153000000000.0,4,-0.0882402367,-0.19563286085,0.0966739557,0.02069,0.006916,-0.042334,-0.7634967357499999,-5.371592537499999,-8.1690375165,-0.093191,0.57968,-1.3133,-0.000300000000000078,-0.001200000000000312,2.4999999999941735e-05,-0.001187754433084387,-0.000377920721557512,-0.0006797006582742737
153000000000.0,4,-0.0657437816,-0.2153932606,0.12561337984999998,0.023866,-0.010136,-0.064714,-0.76055474075,-5.374436466,-8.1674684525,-0.092852,0.58002,-1.314,-0.00039999999999995595,-0.0011999999999998678,-1.2499999999970868e-05,0.00029625373360997465,-0.0003254530748877382,-0.0005903447753586866
153000000000.0,4,-0.05680992345,-0.23784068244999998,0.1317817627,0.01847,-0.02287,-0.07324,-0.7582697912999999,-5.376986195,-8.165997455,-0.092591,0.58033,-1.3149,-0.00017000000000000348,-0.0013000000000000789,-1.2499999999970868e-05,-0.0011100601659653764,0.0002917055711788574,-0.00035897844301652215
153000000000.0,4,-0.06853867685,-0.23453584139999997,0.1485511342,0.010956,-0.0292,-0.074309,-0.7565634341999999,-5.3788494585,-8.1649187235,-0.092396,0.58055,-1.3158,-0.00027999999999994696,-0.0013000000000000789,-1.2499999999970868e-05,0.001506210253927165,-7.68479828943125e-05,-0.00047907745675063174
153000000000.0,4,-0.07802170739999999,-0.22228733555,0.1847965126,0.007701,-0.028119,-0.062575,-0.7554552827500001,-5.380320456,-8.164036124999999,-0.092271,0.58073,-1.3166,-0.00038000000000004697,-0.0012999999999996348,-1.2499999999970868e-05,-0.001706336271907527,-0.0006985990456596092,-0.0001323114766818012
153000000000.0,4,-0.06959779505,-0.20541989754999998,0.22950502995,0.008755,-0.021747,-0.049776,-0.75461191085,-5.3815953205,-8.163251593,-0.092177,0.58089,-1.3172,-0.00019999999999997797,-0.00140000000000029,-1.2500000000192912e-05,0.0005103681255875792,-0.0003206858755200326,-0.001001787027948009
153000000000.0,4,-0.03390158905,-0.17216554739999998,0.2464215012,0.013102,-0.010067,-0.045519,-0.75333704635,-5.3831643845,-8.1623689945,-0.092033,0.58108,-1.3178,-0.00048000000000003595,-0.0013000000000000789,-1.2499999999970868e-05,-0.001351683326337616,-0.0006057298472357253,-0.0014206824973836962
153000000000.0,4,-0.00965955025,-0.1586127571,0.2698005548,0.021699,-0.001615,-0.044452,-0.7513953296499999,-5.3851257145,-8.161290263,-0.09181,0.58133,-1.3183,-0.00036000000000002697,-0.0014999999999996128,-1.2499999999970868e-05,0.0012992596876749696,0.0002516688152907065,-0.0005415045838815802
153000000000.0,4,0.0303810017,-0.16650711035,0.31892206465,0.032402,-0.002755,-0.055106,-0.7487867607500001,-5.388165776,-8.1594269995,-0.091513,0.5817,-1.3189,-0.00023999999999990695,-0.0015000000000000568,-1.2499999999970868e-05,-0.0011488155357327612,0.0005476881501305098,-0.0014975572663554204
153000000000.0,4,0.07822764704999999,-0.16020143439999998,0.39235425985,0.038753,-0.017711,-0.068945,-0.7465116179499999,-5.3919903695,-8.15717147,-0.091262,0.58216,-1.3196,-0.0003500000000000725,-0.0017000000000000348,-0.00020000000000020002,-0.0009650586632754532,0.00026747642763380597,-0.00147949232607969
153000000000.0,4,0.10734359089999998,-0.1704199637,0.41906757445,0.04285,-0.048639,-0.080623,-0.7456976659999999,-5.396207229,-8.154425608,-0.091193,0.58268,-1.3205,-0.00041000000000002146,-0.0016000000000002679,-0.00019999999999997797,0.0010511529342817072,-0.0001907788262838217,-0.002106255250375444
153000000000.0,4,0.14860016745,-0.22109092425,0.4643841041,0.040505,-0.083771,-0.094442,-0.7468548507,-5.4006202215,-8.1513855465,-0.091368,0.58322,-1.3216,-0.00028999999999990145,-0.0016999999999995907,-0.00019999999999997797,-0.000781515201194849,0.0013925300374639793,-0.0014259761683868555
153000000000.0,4,0.16118209939999997,-0.24378351234999998,0.5167123885,0.033938,-0.11034,-0.10615,-0.7498556856,-5.404640948,-8.148541618,-0.091765,0.5837,-1.3228,-0.000500000000000056,-0.0018000000000002458,-0.00019999999999997797,-0.0002976038235684708,-0.0016895861483900987,-0.002234478243374083
153000000000.0,4,0.14747240269999998,-0.2223559821,0.5711981358999999,0.025378,-0.11879,-0.11469,-0.75335665965,-5.407877142499999,-8.145991889,-0.092219,0.58411,-1.3241,-0.00043000000000004146,-0.0019000000000000128,-0.00039999999999995595,-0.000702977613494471,0.0016199611297964545,-0.0015925396826756422
153000000000.0,4,0.12849653495,-0.23432009509999996,0.64599345545,0.018994,-0.1166,-0.1147,-0.7568282137499999,-5.4106230045000006,-8.1439324925,-0.092666,0.58444,-1.3255,-0.00037999999999993594,-0.0019999999999997797,-0.00039999999999995595,6.046414695215496e-05,-0.0017062661050557537,-0.0013738787539228081
153000000000.0,4,0.13934268984999998,-0.29256178944999994,0.6829645259499999,0.013778,-0.10909,-0.12647,-0.7591425831499999,-5.4129766004999995,-8.142069228999999,-0.092968,0.58472,-1.3269,-0.00026999999999999247,-0.002000000000000224,-0.00039999999999995595,0.0003795398521712068,0.00024447907777669364,-0.0010782269436294123
153000000000.0,4,0.2043313594,-0.30772287034999996,0.71295326165,0.006468,-0.095166,-0.13611,-0.7599369218,-5.4150359969999995,-8.140696298,-0.093081,0.58497,-1.3285,-0.00031999999999998696,-0.0021999999999997577,-0.000400000000000178,0.0005090954142599191,0.0008099746275780362,-0.0002654109998391774
153000000000.0,4,0.21222571264999998,-0.3567855403,0.7212791075,-0.004089,-0.084417,-0.14148,-0.7592994895499999,-5.416114728499999,-8.140009832499999,-0.093011,0.5851,-1.3302,-0.000200000000000089,-0.002300000000000413,-0.0005999999999999339,-0.0006093791738839283,0.0006351247751710254,-0.000539661586480833
153000000000.0,4,0.2334963365,-0.41400734305,0.7443835749,-0.013645,-0.079009,-0.14258,-0.75812269155,-5.416605061,-8.1398136995,-0.09287,0.58517,-1.332,-0.00024999999999997247,-0.0022999999999999687,-0.0005999999999999339,-0.0007913201706638562,-7.803796611138836e-05,-0.0015675299693605482
153000000000.0,4,0.24825534475,-0.46311904625,0.77830477725,-0.006468,-0.098278,-0.11478,-0.7582207580499999,-5.4168992605,-8.1396175665,-0.092884,0.5852,-1.3335,-0.00012000000000000899,-0.0024999999999999467,-0.000600000000000156,-0.0006222342112718326,0.0011455093889476409,-0.00040906660818318397
153000000000.0,4,0.10966776695,-0.38388131425,0.87521409255,-0.005356,-0.055726,-0.055077,-0.7598486619499999,-5.417389593,-8.139029167499999,-0.093088,0.58527,-1.3344,-0.00034000000000000696,-0.0024999999999999467,-0.0005999999999999339,0.0008259079929874291,0.0017160041251471636,-0.0016349481126714527
153000000000.0,4,0.2474413928,-0.49471607254999994,0.8722426775999998,0.002977,-0.061156,-0.023031,-0.7630946630999998,-5.4180760585,-8.138342702,-0.093492,0.58535,-1.3347,-0.00013999999999991797,-0.0025999999999997137,-0.0008999999999999009,9.272785283453988e-05,0.0015793315845060718,-0.000982561507620272
153000000000.0,4,0.4229608145,-0.58117149895,0.8006345193000001,-0.002426,-0.0675,-0.023031,-0.76683099675,-5.418566391,-8.1376562365,-0.093955,0.58541,-1.335,-0.000180000000000069,-0.0028000000000001357,-0.000700000000000145,0.0002658814707218182,-0.00022967223939640569,-0.0010141282847034305
153000000000.0,4,0.4263539154,-0.38979472419999994,0.81531507435,-0.010282,-0.11326,-0.018694,-0.7741173376999999,-5.4183702579999995,-8.1370678375,-0.094849,0.58539,-1.3353,-0.00024000000000001798,-0.0028000000000001357,-0.0006999999999999229,0.00037279712227167305,0.0018480003177079318,-0.000871532344931758
153000000000.0,4,0.4224312554,-0.44667329419999996,0.7450896537,-0.026529,-0.14829,-0.022929,-0.78411031405,-5.416997327,-8.1370678375,-0.096066,0.58522,-1.3356,-0.00017000000000000348,-0.0028999999999999027,-0.0009999999999998899,0.0017475233690772418,0.0013330551669497037,-0.0013987363977033818
153000000000.0,4,0.42246067535,-0.43877894095,0.7943582633,-0.040542,-0.16948,-0.028253,-0.79579984085,-5.414643730999999,-8.13755817,-0.097484,0.58492,-1.336,-0.00015999999999993797,-0.0028999999999999027,-0.001000000000000112,0.0006286156901730289,0.001244032051836097,-0.0010662163772210964
153000000000.0,4,0.36772976169999994,-0.41768483679999996,0.8181295828999999,-0.053435,-0.18003,-0.028257,-0.8085680991499999,-5.411113337,-8.138538834999999,-0.099025,0.5845,-1.3364,-0.00034000000000000696,-0.0031000000000003247,-0.0009999999999998899,0.001210300848850987,0.001529145752152461,-0.001010789841727977
153000000000.0,4,0.31725493414999995,-0.40455373245,0.8279754595,-0.063073,-0.18315,-0.026133,-0.82198359635,-5.4068964775,-8.140009832499999,-0.10064,0.58398,-1.3368,-0.00021999999999999797,-0.0032999999999998586,-0.001100000000000101,0.0019521125880892498,0.0006086484281286886,-0.001266959997159367
153000000000.0,4,0.29302270199999997,-0.41840072224999997,0.8411948236999999,-0.071372,-0.15751,-0.030462,-0.8336633164999999,-5.401895086,-8.142167295499998,-0.10203,0.58337,-1.3372,-0.00031999999999998696,-0.0032999999999998586,-0.001100000000000101,0.001162163346543732,-0.0014697430485322016,-0.000945386058802733
153000000000.0,4,0.3138912532,-0.45768616214999996,0.8301329224999999,-0.084981,-0.12755,-0.034808,-0.8425579480499998,-5.396011096,-8.145207356999999,-0.10308,0.58265,-1.3378,-0.000140000000000029,-0.0034000000000000696,-0.0011999999999998678,0.001918058666063649,0.001079956344314681,-0.0008692988447476235
153000000000.0,4,0.23923322675,-0.45099802685,0.8091074649,-0.11353,-0.096405,-0.040251,-0.8485596178499999,-5.388165776,-8.149718415999999,-0.10375,0.58169,-1.3384,-0.00022999999999995246,-0.0036000000000000476,-0.0013000000000000789,0.0026969866911893403,-0.00024331372012320607,-0.0014338787523286989
153000000000.0,4,0.22212062249999998,-0.4772700422,0.78662081645,-0.14529,-0.071624,-0.049956,-0.8520998184999999,-5.3778687935,-8.1560927385,-0.1041,0.58044,-1.3391,-0.00034000000000000696,-0.0034999999999998366,-0.0011999999999998678,0.0022861624970067496,-0.0008601810027288881,-0.0012257738065838963
153000000000.0,4,0.2332609769,-0.5285980482999999,0.73025219225,-0.19092,-0.053116,-0.06928,-0.8530510635499999,-5.36423755,-8.16501679,-0.1041,0.57878,-1.3401,-0.00043000000000004146,-0.0037000000000002586,-0.0014000000000000679,0.0037646108924338506,0.0002870947846467242,-0.0021956068220825298
153000000000.0,4,0.25719900954999997,-0.547407203,0.6651850695,-0.23557,-0.04846,-0.093916,-0.8521586583999999,-5.3472720455,-8.176196371,-0.10385,0.57671,-1.3415,-0.00032999999999994145,-0.0036999999999998145,-0.0012000000000000899,0.0027669077829878264,-0.002025718703599466,-0.0011017571114709246
153000000000.0,4,0.21251010549999996,-0.51497661145,0.5832995419999999,-0.27918,-0.042757,-0.11108,-0.8498246757,-5.326580013999999,-8.1900237475,-0.10339,0.5742,-1.3431,-0.00048000000000003595,-0.0036000000000000476,-0.0011999999999998678,0.0028666118533544616,-0.0008646123806936856,-0.0013514082621323698
153000000000.0,4,0.11617938254999999,-0.48155554825,0.5666478503,-0.28856,-0.028804,-0.13247,-0.8455097496999999,-5.3045150515,-8.2047337225,-0.10269,0.57151,-1.3451,-0.0006200000000000649,-0.0038000000000000256,-0.0015000000000000568,0.0035496416262366104,-2.408448401358676e-05,-0.002586172031789402
153000000000.0,4,0.0708236263,-0.46243258075,0.6590657199,-0.27865,-0.00435,-0.15598,-0.83832147525,-5.283234621,-8.2192475645,-0.10164,0.56894,-1.3472,-0.00044999999999995044,-0.0036000000000000476,-0.0013000000000000789,0.0035902100403039094,-0.003173369098522061,-0.0002762068496307002
153000000000.0,4,-0.03333280335,-0.4221566692,0.6445911044999999,-0.26765,0.026479,-0.17309,-0.82768126,-5.262836789,-8.233271074,-0.10019,0.56648,-1.3496,-0.0005500000000000504,-0.0038000000000000256,-0.0012999999999998568,0.001452064742601178,-0.0005225830257968855,-4.5675703300940285e-05
153000000000.0,4,-0.15604341479999997,-0.3149994046499999,0.5564979675499999,-0.25237,0.063656,-0.18167,-0.81360871725,-5.2439099545,-8.246804251,-0.098339,0.56419,-1.352,-0.0005899999999999794,-0.0038999999999997925,-0.0012000000000000899,0.000507525767964534,-0.0009303957113524497,-0.0014758051137979677
153000000000.0,4,-0.30497700835,-0.2485593509,0.4948043324,-0.23606,0.10295,-0.17958,-0.7963588198999999,-5.2260618515,-8.2598470955,-0.096116,0.56204,-1.3544,-0.0007999999999999119,-0.0036000000000000476,-0.0013000000000000789,0.0029403270468775222,-0.0021072247833904267,-0.0018955445308942998
153000000000.0,4,-0.43636650505,-0.1890329854,0.41834188235,-0.21667,0.139,-0.16146,-0.7767455199,-5.209586679499999,-8.272105408,-0.093625,0.56005,-1.3567,-0.0008000000000000229,-0.0040000000000000036,-0.0010999999999998789,0.0012621095872080712,0.0028135279920384892,-0.0029092772551269075
153000000000.0,4,-0.5418174124999999,-0.215942433,0.3438407623,-0.18792,0.14514,-0.14114,-0.75688705365,-5.195072837500001,-8.2829907895,-0.091125,0.55831,-1.3586,-0.0012400000000000189,-0.0037000000000002586,-0.001000000000000112,-0.00037981948088050554,0.00013669324175302755,-0.003051555487641855
153000000000.0,4,-0.5928904456999999,-0.291845904,0.2768417295,-0.15531,0.08732,-0.13778,-0.7409708607,-5.183206791,-8.291914840999999,-0.089125,0.55688,-1.3604,-0.0012800000000000589,-0.0038000000000000256,-0.0011999999999998678,-0.001368164704572794,0.0005567378421436064,-0.005953042744896997
153000000000.0,4,-0.66641090075,-0.33359281305,0.15593554164999998,-0.1294,-0.026881,-0.16742,-0.7323998486,-5.173694340499999,-8.298583362999999,-0.088028,0.55573,-1.3625,-0.0015600000000000058,-0.0038999999999997925,-0.001100000000000101,0.0008442283105505322,-0.000418680210333644,-0.004844630064310629
153000000000.0,4,-0.7399313558,-0.34514504674999996,0.09456552594999999,-0.092805,-0.16245,-0.23223,-0.7320468092,-5.167516150999999,-8.302506023,-0.087945,0.555,-1.3651,-0.0018299999999999983,-0.0038999999999997925,-0.0009999999999998899,0.001727325874812169,-0.002277574997293419,-0.004093274601044916
153000000000.0,4,-0.8574052161499999,-0.33104308405,0.1933675247,-0.05795,-0.25323,-0.30673,-0.7368324543999999,-5.1648683554999995,-8.303682821,-0.088503,0.55468,-1.3686,-0.0021099999999999453,-0.0039000000000002366,-0.0013000000000000789,0.003337224010600548,-0.003483011683475201,-0.004157602691374329
153000000000.0,4,-1.0890284824999998,-0.31336169410000003,0.31177301679999997,-0.050227,-0.26494,-0.37928,-0.74074530775,-5.163985757,-8.303878954,-0.088969,0.55457,-1.3728,-0.0023999999999999577,-0.0041999999999999815,-0.0011999999999998678,0.0039758095329489596,-0.005484216286761878,-0.004181141431438662
153000000000.0,4,-1.335077331,-0.350881937,0.3659449514,-0.071728,-0.19436,-0.44775,-0.7368324543999999,-5.1623186265,-8.305251884999999,-0.088487,0.55438,-1.378,-0.00277000000000005,-0.0040999999999997705,-0.0014000000000000679,0.0075654888618555405,-0.007414554125663386,-0.0032834576122752757
153000000000.0,4,-1.6181953164999998,-0.50136498125,0.40700539494999993,-0.13327,-0.052071,-0.50362,-0.7197100434999999,-5.156728835999999,-8.3102532765,-0.08639,0.5537,-1.3838,-0.003049999999999997,-0.004400000000000404,-0.0013000000000000789,0.005861491115405626,-0.00690246747064327,-0.002277801082059383
153000000000.0,4,-2.0296823505,-0.7217106001,0.4469674937,-0.23492,0.14277,-0.56178,-0.6845728165499999,-5.143587924999999,-8.321334791,-0.082082,0.55213,-1.3904,-0.0031999999999999806,-0.0043999999999999595,-0.0013999999999998458,0.006527940498607332,-0.009301643468280218,-0.0038432273597567845
153000000000.0,4,-2.27906546,-0.8788523597,0.47981977119999997,-0.36742,0.34744,-0.62,-0.62955751005,-5.1204442310000005,-8.339967426,-0.075344,0.54936,-1.3978,-0.003530000000000033,-0.0045999999999999375,-0.0014000000000000679,0.009643157138651548,-0.007435174318107807,-0.0029657356570726434
153000000000.0,4,-2.4350892615,-1.0317576465,0.48275195955,-0.52055,0.51499,-0.66646,-0.55706675325,-5.084355759,-8.3671318465,-0.06648,0.54505,-1.4059,-0.003730000000000011,-0.004699999999999704,-0.0013000000000000789,0.010018548437655317,-0.0059114173491197075,-0.0028206993739364195
153000000000.0,4,-2.3760532285,-1.1841529874999999,0.4500467818,-0.64674,0.59598,-0.69564,-0.47441630705,-5.036401240499999,-8.401160921999999,-0.05641,0.53934,-1.4143,-0.0038599999999999746,-0.0048000000000001375,-0.0011999999999998678,0.004104945969447826,-0.0077851940294959565,-0.0025927380707986836
153000000000.0,4,-2.235131668,-1.316248563,0.5584102643,-0.7073,0.62738,-0.69687,-0.38843159985,-4.9810917345,-8.4385242585,-0.045998,0.53278,-1.4228,-0.0040400000000000436,-0.0052000000000000934,-0.0016000000000000458,0.008536391989085346,-0.009162823922626462,-0.000980524442110886
153000000000.0,4,-2.283968785,-1.5238553435,0.88023509735,-0.69106,0.67729,-0.65957,-0.3002992363,-4.924703496999999,-8.475103062999999,-0.035418,0.52612,-1.4308,-0.004089999999999927,-0.005300000000000082,-0.0013000000000000789,0.005442775413768808,-0.0030640240490997783,-0.0013107516897196136
153000000000.0,4,-2.3990988559999997,-1.6740932215,1.2086696124999998,-0.6315,0.68102,-0.61678,-0.2112940809,-4.871355321,-8.5085437395,-0.024828,0.51984,-1.4383,-0.004369999999999985,-0.005599999999999827,-0.0013000000000000789,0.004730224710967512,-0.007619216318058619,-0.0007437821303918346
153000000000.0,4,-2.2393485275,-1.6796830119999997,1.2463271485,-0.56819,0.62716,-0.56321,-0.12836904849999997,-4.822518204,-8.5379636895,-0.015033,0.51411,-1.4451,-0.0045400000000000995,-0.005800000000000027,-0.0012999999999998568,0.007998910944586712,-0.0018111842705312853,8.474634874611198e-05
153000000000.0,4,-2.076460071,-2.0591023004999998,1.2575067295,-0.50192,0.56259,-0.47758,-0.05473091365,-4.778584412,-8.563460979499999,-0.006391,0.50897,-1.451,-0.004529999999999923,-0.006099999999999994,-0.0014000000000000679,0.007168997161266344,-0.000992491901778525,0.00018451022264848183
153000000000.0,4,-2.06135783,-2.4558793595,1.3255648805,-0.46764,0.50147,-0.38455,0.00907115125,-4.7380829475,-8.586114341,0.001056,0.50425,-1.4557,-0.0047800000000000065,-0.006199999999999983,-0.0013000000000000789,0.005938564089041032,-0.000932926802771572,0.00011054436642532472
153000000000.0,4,-1.937401774,-2.5145231265000003,1.2490730105,-0.49316,0.43871,-0.28735,0.0628802398,-4.6965027515,-8.608669635999998,0.007304,0.49942,-1.4592,-0.0049000000000000155,-0.006500000000000172,-0.0012999999999998568,0.006293238733829587,-0.0009158580057015975,0.0010415163002156502
153000000000.0,4,-1.8233504345,-2.4902026344999997,0.9899813175,-0.55618,0.35389,-0.19765,0.10397990994999999,-4.650705695999999,-8.633088194499999,0.012043,0.4941,-1.4616,-0.0049400000000000555,-0.006699999999999928,-0.001000000000000112,0.006513815756571617,0.001508418848797266,0.0017012601953331208
153000000000.0,4,-1.5985820164999998,-2.5309982984999997,0.8038216805499999,-0.63099,0.26596,-0.10049,0.1331350804,-4.598338184999999,-8.660644881,0.015371,0.48805,-1.4629,-0.005109999999999948,-0.006699999999999928,-0.0007999999999999119,0.0042182650980331915,-0.00036327695412374794,0.0008948336257803002
153000000000.0,4,-1.457464323,-2.636812052,0.6638807850499999,-0.68029,0.16717,-0.003271,0.14964947899999997,-4.541067349,-8.6905551635,0.017218,0.48145,-1.463,-0.005380000000000051,-0.006900000000000128,-0.0006999999999999229,0.0039587576264704105,-0.0016657265491972773,0.0016560785494815211
153000000000.0,4,-1.4404988184999998,-2.6200426805,0.4257655164,-0.68441,0.10424,0.08009,0.15588650839999998,-4.482031316,-8.721053845,0.017873,0.47467,-1.4622,-0.005569999999999964,-0.006899999999999906,-9.999999999998899e-05,-0.0012148576748524098,-0.005526229603571409,0.0015119571147822475
153000000000.0,4,-1.4962005905,-2.4569580909999997,0.2797641112,-0.60581,0.085439,0.12082,0.15845585069999998,-4.427310209,-8.748904731,0.018109,0.4684,-1.4608,-0.005769999999999942,-0.007100000000000106,-0.000300000000000189,0.002351807122126015,-0.00688572835938972,0.0022125483841962668
153000000000.0,4,-1.354690631,-2.3313349045,0.23367285619999997,-0.44006,0.13309,0.12209,0.16323168924999998,-4.3848474145,-8.7701851615,0.01861,0.46356,-1.4594,-0.005900000000000016,-0.007099999999999884,0.000300000000000189,-0.0029368915534197515,-0.006122205071198206,0.0007022913490412619
153000000000.0,4,-1.3305662719999998,-2.405571245,0.2910809853,-0.23518,0.25503,0.099816,0.17817702385,-4.3597423905,-8.782443473999999,0.020285,0.4607,-1.4581,-0.005900000000000016,-0.007400000000000073,0.00019999999999997797,-0.0019808302537214773,-0.007071013118574276,0.0023868995099946555
153000000000.0,4,-1.156988567,-2.380858487,0.29736704794999996,-0.11551,0.47261,-0.014572,0.21378497,-4.3479744105,-8.787542932,0.024324,0.45935,-1.4579,-0.005900000000000016,-0.007600000000000051,0.00039999999999995595,-0.0016147649653071583,-0.004239091980932974,0.0020374514140023003
153000000000.0,4,-0.67121615925,-2.1802144279999998,0.01509243435,0.022268,0.56961,-0.1031,0.26569156844999997,-4.3469937455,-8.786562266999999,0.03023,0.45924,-1.4589,-0.006000000000000005,-0.007799999999999807,0.0005999999999999339,-0.008912063437463091,-0.00747233656848878,0.0022522458590754635
153000000000.0,4,-0.85289415715,-1.9116102844999998,0.26161200204999996,0.16228,0.60149,-0.09971,0.32288395125,-4.3577810605,-8.779305346,0.036761,0.46047,-1.4602,-0.005900000000000016,-0.008000000000000007,0.0005999999999999339,-0.009251165453930288,-0.0037599589421779545,0.0014109886489439005
153000000000.0,4,-0.6817386946999999,-2.2777905955,0.50807272985,0.32961,0.59475,-0.072723,0.37857591659999995,-4.3826899515,-8.764595370999999,0.043167,0.46331,-1.4612,-0.006000000000000005,-0.008299999999999974,0.000400000000000178,-0.004768744255246149,-0.002084553864140304,0.0020553797936055385
153000000000.0,4,-0.1762647271,-2.4827495804999997,0.85207039855,0.49455,0.54968,-0.057414,0.43079632785,-4.4223088175,-8.7423342755,0.049237,0.46783,-1.4622,-0.005900000000000016,-0.008800000000000141,0.00019999999999997797,-0.005303481904404661,-0.0009070032894749058,0.00039241040213489065
153000000000.0,4,0.09480088554999999,-2.3150558654999998,1.0493115499999999,0.64861,0.47914,-0.044214,0.4757598181,-4.4754608605,-8.7129143255,0.05455,0.47391,-1.463,-0.005900000000000016,-0.008999999999999897,-5.0000000000105516e-05,-0.003377877242209504,0.00034813145907364174,0.0008111310134050198
153000000000.0,4,0.15709272635,-2.015854974,1.6476152665,0.7332,0.39318,-0.026838,0.5146333786999999,-4.538125354,-8.6781987845,0.059232,0.48111,-1.4639,-0.006099999999999994,-0.009300000000000086,-4.999999999988347e-05,-0.0020772756427452355,0.003638569984301565,-0.000131119933535484
153000000000.0,4,0.34849892104999997,-1.9006268365,1.5709272635,0.69146,0.25923,1.2e-05,0.54065042115,-4.599907248999999,-8.643973575999999,0.062465,0.48823,-1.4645,-0.005800000000000027,-0.009500000000000064,-0.00029999999999996696,-0.002537991249721705,0.0027558896651411757,-0.0007820500703206723
153000000000.0,4,0.4599514983,-2.0891106495,1.378226591,0.56817,0.086492,0.05454,0.55010403175,-4.652078627,-8.6154362245,0.063764,0.49426,-1.4645,-0.006000000000000005,-0.009799999999999809,-0.00020000000000020002,-0.0014461717002552943,0.005230378574279548,-0.000899898486885653
153000000000.0,4,0.36225765099999996,-2.07508714,1.4302999025,0.40221,-0.092276,0.10047,0.54155263295,-4.6908148945,-8.594940326,0.062925,0.49875,-1.4638,-0.005899999999999794,-0.010000000000000009,-0.00029999999999996696,-0.0025988828816504994,0.004059564296813978,-0.0005452377514386098
153000000000.0,4,0.39324666499999994,-1.8772870094999998,1.370185138,0.24933,-0.26045,0.1069,0.517594987,-4.715919918499999,-8.5826820135,0.060234,0.50167,-1.4628,-0.006000000000000005,-0.009800000000000031,5.0000000000105516e-05,-0.0045514328091617595,0.0035015452948861103,-0.0003929331021525484
153000000000.0,4,0.57307120605,-1.721851607,1.2765316305,0.15238,-0.37793,0.10267,0.4821733672,-4.731904758,-8.575915425,0.056165,0.50353,-1.4617,-0.006099999999999994,-0.010000000000000009,4.999999999988347e-05,-0.008029276719576706,0.0011177313359229668,6.71142009389114e-05
153000000000.0,4,0.6739326013,-1.6464384685,1.185035586,0.12926,-0.45023,0.13051,0.43892604069999996,-4.7445553364999995,-8.5713062995,0.051164,0.50501,-1.4604,-0.006000000000000005,-0.010299999999999976,9.999999999998899e-05,-0.002191306697941653,-0.000495732117790304,-0.00033578260381128544
153000000000.0,4,0.5658240916999999,-1.5518042959999998,0.9720547613,0.16413,-0.47293,0.1637,0.39125591505,-4.7592653115,-8.5654223095,0.045647,0.50672,-1.4587,-0.006300000000000194,-0.010000000000000009,0.000600000000000156,-0.009660570768307397,0.000839813877842932,-0.00098920965323257
153000000000.0,4,0.27098715945,-1.3775401255,0.72478008155,0.26705,-0.4141,0.15844,0.3462728115,-4.7814283405,-8.5550272605,0.040454,0.50931,-1.457,-0.005900000000000016,-0.010299999999999976,0.00029999999999996696,-0.007659181693092709,0.0005325566467400122,-0.0027729896493280948
153000000000.0,4,-0.09568348404999999,-1.0445062914999999,0.63948183985,0.43711,-0.27263,0.084833,0.31490133815,-4.816634214,-8.536492692,0.036873,0.51342,-1.456,-0.006099999999999994,-0.010300000000000198,0.0006999999999999229,-0.010501741625189798,0.0031437922341597258,-0.002641027646352434
153000000000.0,4,0.1766962197,-1.0121443465,0.6893976883499999,0.63398,-0.13881,-0.025004,0.30125048135,-4.8682171929999996,-8.507661141,0.035394,0.51947,-1.4563,-0.006199999999999983,-0.010299999999999976,0.0008000000000001339,-0.010456183090878701,0.0015712911806433638,-0.005304952650652228
153000000000.0,4,0.68400403085,-1.1704236774999999,0.6185642553999999,0.77846,-0.13565,-0.10908,0.295376298,-4.9334314155,-8.470199738,0.034858,0.52715,-1.4577,-0.006299999999999972,-0.010399999999999965,0.0010999999999998789,-0.013547634434506295,0.0002950805538528556,-0.004920039504697216
153000000000.0,4,0.8777147882999999,-1.170325611,0.24800037184999998,0.84147,-0.27999,-0.13754,0.2831768254,-5.0047257609999996,-8.4287176085,0.033584,0.53558,-1.4596,-0.006199999999999983,-0.010199999999999987,0.0013000000000000789,-0.014600622727847679,-0.0030840881016427346,-0.003808272066178564
153000000000.0,4,0.6477292324999999,-1.0643157245,-0.1338999991,0.89088,-0.50205,-0.13279,0.2542864345,-5.078962101499999,-8.385078016,0.030317,0.5444,-1.4616,-0.005800000000000027,-0.010599999999999943,0.0013999999999998458,-0.01641463052308545,-0.0035401909964503098,-0.0021243728769149706
153000000000.0,4,0.5371298338,-0.9833127955,-0.1935244311,0.98573,-0.55179,-0.19125,0.21749188369999997,-5.160357296499999,-8.336240899,0.026084,0.55414,-1.464,-0.005599999999999827,-0.010599999999999943,0.0015000000000000568,-0.01889106915198524,-0.005780264855312023,-0.0010382866339056496
153000000000.0,4,0.8667705669,-0.9266793917499999,0.03841264805,1.132,-0.47617,-0.29467,0.1907197292,-5.251755274499999,-8.279754595,0.023031,0.56513,-1.4676,-0.005400000000000071,-0.010800000000000143,0.0016000000000000458,-0.019201890596835747,-0.00296947104558698,-0.0006858411055731262
153000000000.0,4,0.9952769085,-0.7677920484499999,0.10727494435,1.3228,-0.29009,-0.38966,0.18266846955,-5.3568825625,-8.212284843,0.022239,0.57788,-1.4723,-0.005300000000000082,-0.011199999999999877,0.0017000000000000348,-0.01893583778280239,0.0018007747304453758,-0.0016452377854753175
153000000000.0,4,1.2894764085,-0.85758173585,0.4666984735,1.5454,-0.091562,-0.41951,0.19406379685,-5.4778966235,-8.131772246499999,0.023861,0.59269,-1.4778,-0.004899999999999904,-0.011500000000000066,0.0018000000000000238,-0.01711118036699666,0.007829164794454169,-0.004816235512616673
153000000000.0,4,1.5516081629999998,-1.225438984,0.9178337934499999,1.7511,0.040965,-0.37669,0.21710942434999997,-5.614895524,-8.037138074,0.027006,0.60963,-1.483,-0.0044999999999999485,-0.011900000000000022,0.0018000000000000238,-0.015289685169949219,0.012277346005136414,-0.007766437833704232
153000000000.0,4,1.7561748819999998,-1.7174386145,1.1331584074999999,1.8755,-0.073128,-0.2642,0.23177036609999999,-5.7621914069999995,-7.931814652999999,0.029212,0.62806,-1.4873,-0.0043000000000001926,-0.0121,0.0020000000000000018,-0.013252085795934399,0.016327523494667817,-0.011430497774199633
153000000000.0,4,1.9392650375,-2.2755350659999998,0.7082166497,1.8374,-0.45555,-0.087471,0.21232377914999997,-5.9086046915,-7.8239415029999995,0.027131,0.64664,-1.4897,-0.0042999999999999705,-0.012199999999999989,0.0023999999999999577,-0.011398739787896184,0.01799001725380256,-0.013315362546230947
153000000000.0,4,2.1708981105,-2.8216674045,-0.50144343445,1.6626,-1.0041,0.064764,0.14369684244999997,-6.0417789985,-7.723129140999999,0.018604,0.66378,-1.4898,-0.0040000000000000036,-0.012299999999999978,0.0023999999999999577,-0.011450197450187494,0.014662116150858884,-0.014323738640088124
153000000000.0,4,2.8324547194999994,-2.9711207505,-1.8058945975,1.4294,-1.5851,0.12623,0.0254384501,-6.1563206705,-7.6333982935,0.003332,0.67869,-1.4886,-0.0038000000000000256,-0.012299999999999978,0.0027999999999999137,-0.009767549191028402,0.012385047888407108,-0.010448962317629484
153000000000.0,4,3.3400469234999997,-2.7373302144999996,-2.7675346965,1.2058,-2.0639,0.10747,-0.1304872849,-6.251935507999999,-7.5542586279999995,-0.017272,0.69127,-1.4869,-0.0037999999999998035,-0.011900000000000022,0.0033000000000000806,-0.012707916517164075,0.006269848114039744,-0.008158436919703027
153000000000.0,4,3.3538743,-2.2247366189999997,-3.571189664,1.0199,-2.2881,0.016814,-0.30219191975,-6.331663572499999,-7.482572016499999,-0.040364,0.70188,-1.486,-0.0036000000000000476,-0.01200000000000001,0.0035000000000000586,-0.012251155998589391,0.0056114885013953675,-0.0037842962487595333
153000000000.0,4,2.7906783904999997,-1.731265991,-3.8643104325,0.90114,-2.2391,-0.050724,-0.46961104854999997,-6.401192720999999,-7.4144157989999995,-0.063252,0.7112,-1.4859,-0.0034000000000000696,-0.012199999999999989,0.0037000000000000366,-0.009624823516850456,0.006363801667711444,-0.0010879039055881057
153000000000.0,4,1.6281980995,-1.4423620819999998,-3.7593792775,0.81964,-1.7919,-0.10823,-0.6057077372499999,-6.462288150499999,-7.3513590395,-0.082208,0.71944,-1.4863,-0.0033000000000000806,-0.012199999999999989,0.0040000000000000036,-0.012643639645980365,0.005942608677282024,0.0025107726893538462
153000000000.0,4,1.0517632124999998,-0.7560142617999999,-2.6033713754999996,0.93436,-1.3368,-0.13125,-0.7026660857999999,-6.5301501685,-7.28241829,-0.09619,0.72869,-1.487,-0.0030999999999998806,-0.012399999999999967,0.0036999999999998145,-0.010886768763590182,0.00676009611006867,0.0029596265104941955
153000000000.0,4,0.27114406585,-1.11207411,-1.5763209209999998,1.017,-0.90286,0.030377,-0.7728816997999999,-6.602915511499999,-7.2093587475,-0.1068,0.73868,-1.486,-0.0030000000000001137,-0.012499999999999956,0.0040000000000000036,-0.01026329704761264,0.008991757545891987,0.0048884829115625195
153000000000.0,4,-0.41133993425,-2.066065022,-1.3271339444999999,1.0519,-0.6498,0.28617,-0.8388902609499999,-6.6761711870000005,-7.134043675499999,-0.11705,0.74883,-1.4813,-0.0029999999999998916,-0.012500000000000178,0.0036000000000000476,-0.010932118301774207,0.007887929069217092,0.005840950098853992
153000000000.0,4,-0.34162445939999997,-1.7945188835,-0.7932991450999999,1.0332,-0.46657,0.48648,-0.9042515831999999,-6.7458964685,-7.060101534499999,-0.12738,0.75858,-1.4737,-0.0027999999999999137,-0.012799999999999923,0.0033000000000000806,-0.005464714957980066,0.009168472499554214,0.007050893316284057
153000000000.0,4,0.005756503549999999,-1.3103645729999998,-0.29125750499999997,1.0021,-0.37912,0.66453,-0.9742122243,-6.811110691,-6.987826523999999,-0.13852,0.76778,-1.4633,-0.0030000000000001137,-0.012899999999999912,0.0029999999999998916,-0.0018168440687958975,0.007741722593880729,0.008716888881597051
153000000000.0,4,0.0173969971,-0.8323099988,0.07322625555,0.94717,-0.32345,0.849,-1.052253545,-6.8698525245,-6.918689641499999,-0.15094,0.77614,-1.4503,-0.0031000000000001027,-0.013100000000000112,0.0026000000000001577,0.0020730607086592023,0.005655054838415552,0.008588355559616456
153000000000.0,4,-0.0037559469499999997,-0.29154189784999995,0.23537921329999997,0.85279,-0.28022,1.0163,-1.1415921265,-6.920847104499999,-6.853377352499999,-0.16505,0.78345,-1.4347,-0.0033999999999998476,-0.01330000000000009,0.0020999999999999908,0.008807462225892237,0.00178703822968318,0.009796689100877387
153000000000.0,4,0.025271737049999996,0.28669741275,0.22813209894999997,0.60061,-0.13758,1.1085,-1.2292635774999998,-6.953405182499999,-6.8051286345,-0.17871,0.78814,-1.4179,-0.0038000000000000256,-0.013399999999999856,0.0017000000000000348,0.00974587063646426,0.000825063030335027,0.007976516145376533
153000000000.0,4,0.20228176955,0.6382265886499999,-0.0032165811999999997,0.25656,0.050697,1.0809,-1.3057554474999997,-6.963113765999999,-6.780906208999999,-0.19023,0.78955,-1.4017,-0.0042999999999999705,-0.013400000000000079,0.0013999999999998458,0.01034732971818697,-0.002394591243774391,0.008733876694776932
153000000000.0,4,0.48938125495,1.1890563125,0.45708795649999995,-0.12729,0.2735,0.95923,-1.3600842885,-6.9477173255,-6.786005667,-0.19781,0.78732,-1.388,-0.0045999999999999375,-0.013199999999999878,0.0013000000000000789,0.02035224653276546,-0.0038477983492752887,0.004877448919178795
153000000000.0,4,0.38120409879999995,1.5684756009999998,0.9314454236499999,-0.50675,0.48991,0.80235,-1.3885235734999999,-6.90780426,-6.820917341,-0.20083,0.78158,-1.3775,-0.0050000000000001155,-0.013700000000000045,0.0004999999999999449,0.012602771905846799,-0.007855902564709583,0.004286574581842395
153000000000.0,4,-0.06563590845,1.7284220624999997,1.4383413555,-0.8095,0.678,0.62324,-1.3915636349999998,-6.847787562,-6.880541773,-0.19955,0.773,-1.3704,-0.00550000000000006,-0.013600000000000056,0.00014999999999987246,0.015536989061776474,-0.010281409880640746,0.0005798353418173252
153000000000.0,4,-0.3498816587,1.6658556354999998,1.9500523525,-1.0427,0.84854,0.38237,-1.3658702119999997,-6.7731589555,-6.9591911060000005,-0.19381,0.76241,-1.3669,-0.005800000000000027,-0.013199999999999878,0.0001500000000000945,0.017806660554654186,-0.013648046843644845,0.0003518297604044873
153000000000.0,4,-0.38183172439999996,1.5172848879999998,2.1722710415,-1.2218,0.95049,0.078734,-1.3111491050000001,-6.688331432999999,-7.0510794165,-0.18385,0.75052,-1.3679,-0.006199999999999983,-0.012600000000000167,9.999999999998899e-05,0.02129807303386788,-0.01030154474035716,-0.004148544058059311
153000000000.0,4,-0.57197286125,1.704003504,2.1367709685,-1.3962,0.95758,-0.23433,-1.2324997719999997,-6.594187593,-7.153166643,-0.17063,0.73747,-1.3733,-0.005599999999999827,-0.013800000000000034,-0.0017000000000000348,0.0187157006197044,-0.022732861051961484,0.005713106121443989
153000000000.0,4,-1.1404153285,1.761666606,1.576713187,-1.5756,1.002,-0.56348,-1.129922213,-6.489256437999999,-7.265158586,-0.15429,0.72311,-1.383,-0.006099999999999994,-0.012299999999999978,-0.0005999999999999339,0.017958047716510883,-0.019040467282333884,0.002224613042597745
153000000000.0,4,-1.2984985265,2.143145291,1.2522111384999999,-1.6843,1.1066,-0.83817,-1.000866699,-6.375499298,-7.383917117499999,-0.13472,0.70774,-1.3964,-0.006200000000000205,-0.011399999999999855,-9.999999999998899e-05,0.01796736847025604,-0.015207988944454964,0.0014177678799837112
153000000000.0,4,-1.560041882,2.9179687074999996,1.2823175539999998,-1.7016,1.2752,-0.96766,-0.8497168025499999,-6.2574272319999995,-7.502871782,-0.11277,0.692,-1.4114,-0.005899999999999794,-0.011500000000000066,-0.0004999999999999449,0.010218147925855736,-0.01995916584294144,0.006479235517848403
153000000000.0,4,-1.7552922835,3.2853258164999994,1.1843491204999999,-1.6537,1.5093,-0.98933,-0.6785907600499999,-6.1386687005,-7.617511520499999,-0.088849,0.67637,-1.4263,-0.005800000000000027,-0.011099999999999888,-0.00039999999999995595,0.006997510178918032,-0.018406684874498147,0.00705229811490693
153000000000.0,4,-1.7288143285,3.1729416075,0.91544097085,-1.5229,1.7607,-0.93511,-0.49014617364999996,-6.024225094999999,-7.7226388085,-0.063384,0.6615,-1.4399,-0.005900000000000016,-0.010600000000000165,-0.00019999999999997797,0.0011505545396535144,-0.016711400966513468,0.00656849621417982
153000000000.0,4,-1.9174942744999999,3.2980744614999997,0.64589538895,-1.2614,1.9662,-0.82508,-0.28967863434999996,-5.923804999,-7.8099179935,-0.037074,0.64858,-1.4516,-0.006000000000000005,-0.010599999999999943,-0.00020000000000020002,-0.0011273104662536948,-0.014421936869723373,0.004255210711457735
153000000000.0,4,-2.099211499,3.3105289069999997,0.8462746683999999,-0.88485,2.0525,-0.67728,-0.08742628474999999,-5.8479015279999995,-7.871797954999999,-0.011106,0.63891,-1.4608,-0.006399999999999961,-0.009800000000000031,0.000500000000000167,-0.0065129346330922155,-0.007728301669954085,-0.0015299473446353518
153000000000.0,4,-2.0979366345,2.784892467,0.97779165155,-0.46128,2.0105,-0.53024,0.10525477444999999,-5.803281270499999,-7.904552165999999,0.013315,0.63325,-1.4679,-0.006300000000000194,-0.010299999999999976,-0.00029999999999996696,-0.0022991985181480823,-0.00847827772007248,-0.002672479653407389
153000000000.0,4,-1.9639777955,2.2715143395,1.0186167355,-0.057919,1.8099,-0.43418,0.27980333779999994,-5.7901403595,-7.909847756999999,0.035359,0.63159,-1.4735,-0.006399999999999961,-0.010299999999999976,-0.000300000000000189,-0.0010896760770041647,-0.005368710857469816,-0.007163769557632094
153000000000.0,4,-1.6780158815,1.877385076,0.950852784,0.24457,1.4792,-0.43308,0.42872712469999996,-5.8026928715,-7.894059050499999,0.054258,0.63317,-1.4789,-0.00649999999999995,-0.010299999999999976,-0.00019999999999997797,-0.0008236616591703605,0.0001918751788854145,-0.011034439703348553
153000000000.0,4,-1.2273022475,1.4086272059999998,0.4971187018,0.39515,1.038,-0.52597,0.54869187415,-5.82907276,-7.867090763,0.069633,0.63652,-1.4854,-0.006599999999999939,-0.010399999999999965,-0.00039999999999995595,0.0026207440286249994,0.0028801988365163567,-0.01449853030730519
153000000000.0,4,-0.7291832674000001,1.0602949979999998,-0.2595624122,0.42285,0.5509,-0.65635,0.6383540751,-5.8585907765,-7.838357278499999,0.08126,0.64026,-1.4935,-0.00649999999999995,-0.010299999999999976,-0.00039999999999995595,0.0034858029181262795,0.008026608865382867,-0.016606460007521195
153000000000.0,4,-0.19575054064999997,0.43457188809999997,-0.86933010255,0.35815,-0.007888,-0.77289,0.692545623,-5.8833035344999995,-7.8152135844999995,0.088385,0.64342,-1.5032,-0.00670000000000015,-0.010500000000000176,-0.0004999999999999449,0.006987457339581171,0.010403875743214552,-0.01837625142867816
153000000000.0,4,0.13942114305,-0.1083634825,-1.5763209209999998,0.1825,-0.54022,-0.85018,0.7096190006499999,-5.895659913499999,-7.804328202999999,0.090677,0.64499,-1.5139,-0.006399999999999961,-0.010999999999999899,-0.001000000000000112,0.011298572547792984,0.009846693905659176,-0.016697091372045447
153000000000.0,4,0.28746233145,-0.30939000085,-2.1665831845,-0.060273,-1.0443,-0.89988,0.69012338045,-5.889677857,-7.8106044589999994,0.088127,0.64422,-1.525,-0.006699999999999928,-0.010000000000000009,-0.00019999999999997797,0.007995767879523386,0.017540343181223772,-0.02103489670379244
153000000000.0,4,0.1711652691,-0.19328907149999996,-2.3884096075,-0.34435,-1.4799,-0.90387,0.63538266015,-5.862219237,-7.835905615999999,0.080909,0.64073,-1.536,-0.006399999999999961,-0.010499999999999954,-0.00019999999999997797,0.010052124402031182,0.014498138730402177,-0.01643644111225251
153000000000.0,4,0.0188483813,-0.029410143349999997,-2.4621556155,-0.64054,-1.7983,-0.85579,0.5503688112999999,-5.812401455,-7.879251008999999,0.069737,0.63441,-1.5463,-0.006300000000000194,-0.010399999999999965,-0.00029999999999996696,0.008947522271088082,0.014686977353693065,-0.013549861082087389
153000000000.0,4,-0.06431201069999999,-0.20273287545,-2.412632033,-0.90715,-2.0008,-0.77691,0.44154441625,-5.741597442,-7.9377967095,0.055569,0.62548,-1.5555,-0.006000000000000005,-0.010600000000000165,-0.00019999999999997797,0.008636640375232263,0.015052130211451242,-0.008833263683353465
153000000000.0,4,-0.1340765188,-0.47734849539999996,-2.1383400325,-1.0951,-2.0793,-0.65114,0.3158918098,-5.654906656,-8.005756794,0.039437,0.61462,-1.5634,-0.005799999999999805,-0.010699999999999932,-9.999999999998899e-05,0.006294240381882754,0.014857825347912135,-0.005020277094053838
153000000000.0,4,-0.23455545469999997,-0.5581258714499999,-1.6260406365,-1.183,-2.0265,-0.48594,0.18068752624999998,-5.5594879514999995,-8.0764627405,0.022368,0.60275,-1.5694,-0.005400000000000071,-0.010699999999999932,0.00029999999999996696,0.0006944680958933525,0.011699287506701461,0.00025409387447727916
153000000000.0,4,-0.25027551465,-0.66903908295,-0.8040472334999998,-1.1529,-1.8725,-0.27802,0.04347287945,-5.46426538,-8.143049893999999,0.005338,0.59101,-1.5732,-0.0051000000000001044,-0.01110000000000011,9.999999999998899e-05,0.006733803145298922,0.012964421309342056,0.00588258423623278
153000000000.0,4,-0.234575068,-0.75827959795,-0.0036480737999999998,-1.0522,-1.6509,-0.016721,-0.09148623785,-5.37600553,-8.201301395,-0.011154,0.5802,-1.5743,-0.004999999999999893,-0.011299999999999866,0.00029999999999996696,0.0018384308672427796,0.009356804196675395,0.009683360340718483
153000000000.0,4,-0.25770895535,-1.0402894319999998,0.50972024705,-0.93119,-1.3975,0.30433,-0.2238269796,-5.2964735984999995,-8.250334645,-0.027123,0.57054,-1.5718,-0.0045999999999999375,-0.011600000000000055,0.00029999999999996696,0.002954904285317639,0.009771982248593325,0.016057343433227067
153000000000.0,4,-0.2099799898,-1.4633483129999998,0.7711851493499999,-0.79524,-1.1251,0.65206,-0.35236274114999994,-5.2260618515,-8.2906399765,-0.042476,0.56204,-1.5655,-0.0046000000000001595,-0.011800000000000033,0.00029999999999996696,0.0014451926969443196,0.0039008924854047056,0.01749360932505928
153000000000.0,4,-0.25903285309999996,-1.558276685,1.1843491204999999,-0.63615,-0.75173,1.0125,-0.47135663224999996,-5.1658490205,-8.3224135225,-0.056576,0.55479,-1.555,-0.0045999999999999375,-0.0121,0.00019999999999997797,0.0022262692008974128,0.0008679539260121327,0.01737863236155357
153000000000.0,4,-0.13053631815,-1.8482593255,1.886211061,-0.39949,-0.30115,1.3483,-0.57097258295,-5.1205422975,-8.344086219,-0.068321,0.54937,-1.5405,-0.0046999999999999265,-0.012399999999999967,9.999999999998899e-05,0.002462158325269359,-0.001704646551912381,0.016557189715247833
153000000000.0,4,0.14904146669999999,-2.00840192,2.5746378909999996,-0.17752,0.13258,1.6052,-0.64793517215,-5.0921030125,-8.355854199,-0.077387,0.54597,-1.5226,-0.0051000000000001044,-0.012699999999999934,-9.999999999998899e-05,0.0037623553861699244,-0.0033240955519653337,0.011763902898574374
153000000000.0,4,0.6184858021999999,-1.8861129945,2.6691739969999997,-0.065978,0.52478,1.6922,-0.6974979812499998,-5.073568444,-8.363209186499999,-0.083208,0.54376,-1.503,-0.005399999999999849,-0.01330000000000009,-9.999999999998899e-05,0.004766489989797007,-0.0055602969005794645,0.007864165992106265
153000000000.0,4,1.524737942,-1.9485813549999997,2.3752686965,-0.057494,0.82749,1.5454,-0.7149145916499999,-5.057877803999999,-8.371152573,-0.085195,0.5419,-1.4845,-0.005600000000000049,-0.013700000000000045,-0.00029999999999996696,0.005116711104413418,-0.00787134482124019,0.003282463139108127
153000000000.0,4,2.2708278739999996,-2.1427530249999998,2.1824699575,-0.12929,0.9872,1.2184,-0.7011068284499999,-5.039539368499999,-8.3834108855,-0.083436,0.53971,-1.4694,-0.005700000000000038,-0.014399999999999968,-0.0006999999999999229,0.005003968859565389,-0.010116386477836858,0.0014063355214949946
153000000000.0,4,2.8271591285,-2.4452881774999997,2.3078970109999997,-0.23784,1.028,0.79866,-0.6606740105,-5.015611142499999,-8.4010628555,-0.078481,0.53688,-1.459,-0.005700000000000038,-0.014899999999999913,-0.001000000000000112,0.006515964756880377,-0.0099582604554731,0.0006425392463663138
153000000000.0,4,3.1020395279999997,-2.6957500185,2.859030741,-0.32554,1.0078,0.38012,-0.5995001278,-4.9867795914999995,-8.422735551999999,-0.071056,0.53346,-1.4537,-0.00550000000000006,-0.015300000000000091,-0.0014999999999998348,0.006159486337156406,-0.011879016452024604,-0.0006245302422188126
153000000000.0,4,3.2019692915,-3.127929084,3.6840642055,-0.37619,0.98409,0.015028,-0.5209586679499999,-4.955496377999999,-8.446467644999998,-0.0616,0.52975,-1.4528,-0.005199999999999871,-0.015859999999999985,-0.0018000000000000238,0.006407642891835319,-0.01026384135536551,0.0022617701259460277
153000000000.0,4,3.1590161645,-3.2508064085,4.469674937,-0.40997,0.98679,-0.26576,-0.42771703974999997,-4.9224479675,-8.470984269999999,-0.05045,0.52585,-1.4554,-0.0047000000000001485,-0.016430000000000056,-0.0020999999999999908,0.006467240208038683,-0.00969162198197826,0.003815314623180077
153000000000.0,4,3.109884848,-2.9579798395,4.9412767355,-0.44832,1.0171,-0.442,-0.32214845249999996,-4.886653695,-8.496285427,-0.037898,0.52163,-1.4602,-0.0044999999999999485,-0.01696999999999993,-0.0023999999999999577,0.006156284347380081,-0.009715731009251716,0.00524374331868821
153000000000.0,4,3.0693833834999995,-2.5697345659999997,5.152904242499999,-0.4745,1.0547,-0.48054,-0.2097838568,-4.847819361,-8.52197885,-0.024611,0.51708,-1.466,-0.0039000000000000146,-0.017260000000000053,-0.0029000000000001247,0.0056292134599919,-0.008037769814107643,0.007196620948298982
153000000000.0,4,3.0562424724999997,-2.2360142665,5.304220852,-0.47468,1.1078,-0.36002,-0.09666414905,-4.8077101625,-8.5467896745,-0.01131,0.51237,-1.4706,-0.0037000000000000366,-0.017629999999999924,-0.0028999999999999027,0.004474260510038575,-0.00848014380124451,0.007240443914227235
153000000000.0,4,2.9954412424999997,-2.1420665595,5.295492933499999,-0.45739,1.1352,-0.14442,0.009483030549999999,-4.768189362999999,-8.5693449695,0.001107,0.50776,-1.473,-0.0033999999999998476,-0.017900000000000027,-0.0028000000000001357,0.0024510310809296443,-0.006634910755013657,0.007846249706845831
153000000000.0,4,2.949448054,-2.18492162,5.0193376695,-0.45203,1.1381,0.070131,0.1064217658,-4.729453095499999,-8.5901350675,0.012388,0.50325,-1.4727,-0.0031000000000001027,-0.01807000000000003,-0.0026999999999999247,-0.0019265479763508342,-0.005967357041856802,0.008660225640615304
153000000000.0,4,3.0076014885,-1.9885924869999998,4.372392969,-0.44244,1.0974,0.22179,0.19302429194999998,-4.6914032935,-8.609552234499999,0.022416,0.49882,-1.4704,-0.0026999999999999247,-0.018100000000000005,-0.0025999999999999357,-0.004917229768156894,-0.0027782491690842015,0.008640943770392151
153000000000.0,4,2.9135557149999998,-1.632807225,3.6238513745,-0.34851,1.0294,0.31814,0.26957500185,-4.659335548,-8.6248506085,0.031245,0.4951,-1.4669,-0.0022999999999999687,-0.018100000000000005,-0.0024000000000001798,-0.009035319334478042,-0.0019425762551741332,0.010181265809797002
153000000000.0,4,2.7275235644999998,-1.515127425,3.2294279114999997,-0.13415,0.94438,0.4158,0.33510303715,-4.643644908,-8.631028798,0.038806,0.49328,-1.4624,-0.0018000000000000238,-0.01797000000000004,-0.0022999999999999687,-0.011676616400260964,-0.0003112298548040293,0.011302301321005959
153000000000.0,4,2.596604787,-1.3543964315,2.874132982,0.15651,0.79589,0.51583,0.38460700634999995,-4.6523728265,-8.6242622095,0.044566,0.4943,-1.4569,-0.0015000000000000568,-0.017959999999999976,-0.0020000000000000018,-0.014263878843276678,-0.0016660717382750434,0.012833407433653077
153000000000.0,4,2.5537497264999995,-0.9577272456499999,2.226501816,0.46813,0.60993,0.63091,0.41292861154999994,-4.688559365,-8.603374044999999,0.04796,0.49849,-1.4502,-0.0010999999999998789,-0.017899999999999916,-0.0016000000000000458,-0.01644506210468588,-0.0009643348787968797,0.0172563632711229
153000000000.0,4,2.4362660595,-0.3353285901,1.5488623009999998,0.76842,0.4752,0.74695,0.4221370559,-4.751321924999999,-8.5683643045,0.049227,0.50579,-1.4424,-0.000400000000000178,-0.017770000000000064,-0.0018999999999997907,-0.018524775027619844,-0.0032177777291209075,0.020563630746559647
153000000000.0,4,2.4541141625,0.2630928062,1.045585023,1.0589,0.46307,0.8937,0.42041108549999995,-4.8392875755,-8.519036855,0.049309,0.51608,-1.4332,-0.00019999999999997797,-0.01795000000000002,-0.0016000000000000458,-0.01867019524895741,-0.004873684598776906,0.02221277029597324
153000000000.0,4,2.3580089925,0.5851137722499999,0.74957129275,1.3308,0.56932,1.0797,0.41525278759999995,-4.9510833855000005,-8.454901364,0.049075,0.52923,-1.422,0.00019999999999997797,-0.01808999999999994,-0.0015000000000000568,-0.017084344935860862,-0.004591651454971979,0.022078409560309653
153000000000.0,4,2.3105448065,0.5611168996999999,0.6060215500499999,1.5824,0.80892,1.2932,0.4155273738,-5.0838654265,-8.375663631999998,0.04957,0.545,-1.4084,0.00019999999999997797,-0.018480000000000052,-0.0013000000000000789,-0.012747660152242046,-0.0027125135123675648,0.019984881302407498
153000000000.0,4,2.35163467,0.14374587569999997,0.61651466555,1.7714,1.08,1.4799,0.42578512969999993,-5.234299437499999,-8.2820101245,0.051366,0.56302,-1.3926,0.000400000000000178,-0.01878000000000002,-0.0013999999999998458,-0.008245604731952128,-0.002458923915144906,0.01592869422722576
153000000000.0,4,2.7665540315,-0.67253025035,0.22517049064999997,1.8034,1.2788,1.5938,0.44419221175,-5.390029039499999,-8.180511297,0.054246,0.58192,-1.375,0.0008999999999999009,-0.018809999999999993,-0.0020000000000000018,-0.0051012042931741775,-0.009137688406190225,0.011541157176852168
153000000000.0,4,3.231683441,-1.5230708115,-0.7266531516999999,1.6521,1.3078,1.5913,0.46362899204999997,-5.535853925,-8.081464132,0.057307,0.59982,-1.3569,0.00029999999999996696,-0.01930999999999994,-0.000700000000000145,0.00017049783542855135,-0.007059389947614569,0.01270315909541228
153000000000.0,4,3.751043625,-2.363794916,-2.0397831999999996,1.3316,1.1635,1.4501,0.47695622939999993,-5.6573583185,-7.9960482105,0.059578,0.61492,-1.3398,0.000600000000000156,-0.019380000000000064,-0.0006999999999999229,0.00394558186161742,-0.01199408853857431,0.013736492710141462
153000000000.0,4,4.101729429,-3.2592401274999996,-3.277774696,0.89759,1.0501,1.2254,0.48883208255,-5.744147171,-7.933285650499999,0.061541,0.62579,-1.3247,0.0004999999999999449,-0.019440000000000013,-9.999999999998899e-05,0.004918144757917631,-0.014108628915297405,0.015375181325006898
153000000000.0,4,3.9148146799999997,-3.7931141535,-3.990718151,0.4512,1.0808,0.92572,0.5147902850999999,-5.793572686999999,-7.8956281145,0.065107,0.63202,-1.3127,0.0005999999999999339,-0.019439999999999902,0.00019999999999997797,0.006413770511153216,-0.01575108895949473,0.01582729129001939
153000000000.0,4,3.3175896949999997,-3.2774804965,-4.2926649045,0.073668,1.3282,0.6471,0.5726495201,-5.810047858999999,-7.879447141999999,0.072548,0.63411,-1.304,0.0007999999999999119,-0.01935000000000009,0.0004999999999999449,0.004806530160568534,-0.016515885809864406,0.014126144582418426
153000000000.0,4,2.648383899,-2.501872548,-4.275307134,-0.19672,1.6961,0.47093,0.6694901888499999,-5.8023006055,-7.877485812,0.084784,0.63313,-1.2976,0.0009000000000001229,-0.019199999999999995,0.000600000000000156,0.00692251709392544,-0.012996795233722658,0.009619808152304676
153000000000.0,4,2.0845015239999998,-2.4103765034999998,-3.9853244934999994,-0.34399,2.0501,0.40281,0.8004972262,-5.780627909,-7.881212339,0.10122,0.63039,-1.2921,0.0005999999999999339,-0.01920999999999995,0.0012999999999998568,0.009003179754472734,-0.007523154388706654,0.003322742357045938
153000000000.0,4,1.7139082205,-2.229443811,-3.5843305749999996,-0.41573,2.2394,0.3287,0.9544027913,-5.751992490999999,-7.8850369325,0.12045,0.62678,-1.2872,0.001000000000000112,-0.018830000000000013,0.001100000000000101,0.008375239962733483,-0.003837742736551908,-0.001420214660382224
153000000000.0,4,1.8035410014999997,-1.6279039,-3.5732490605000002,-0.48011,2.1143,0.20072,1.1121721764999999,-5.7179634155,-7.889155725499999,0.14005,0.6225,-1.2836,0.0006999999999999229,-0.018669999999999964,0.0021999999999999797,0.007133921386122122,-0.001192439789039268,-0.00271944314812414
153000000000.0,4,2.1530500074999996,-1.143651523,-4.1147722735,-0.58995,1.622,0.04342,1.2467194144999998,-5.6748141555,-7.9001391734999995,0.15652,0.61709,-1.2816,0.0009000000000001229,-0.018360000000000043,0.0023999999999999577,0.0053897114610291785,-0.0027603054936171656,-0.0025723330369352426
153000000000.0,4,2.3495752734999997,-0.6217318033499999,-4.939805738,-0.71563,1.0105,-0.12437,1.3433149169999998,-5.619406582999999,-7.923969332999999,0.16793,0.61018,-1.2812,0.0008999999999999009,-0.018089999999999995,0.0028999999999999027,0.00496775920728576,-0.002938883007541193,-0.0013362828947814098
153000000000.0,4,2.3946858635,-0.20533163769999996,-5.1079897855,-0.74373,0.47805,-0.26438,1.403920014,-5.556742089499999,-7.957508076,0.17463,0.60241,-1.2825,0.001100000000000101,-0.017759999999999998,0.0029000000000001247,0.002827356822764915,-0.005233647133427999,-0.0001962879948063101
153000000000.0,4,2.1697213125,-0.05642746409999999,-4.557052188499999,-0.622,0.18407,-0.32662,1.4408910845,-5.499471253499999,-7.990654553,0.1784,0.59534,-1.2848,0.0012999999999998568,-0.017579999999999985,0.0030999999999998806,0.004083766128010535,-0.0043571711971721605,0.0018747419914781072
153000000000.0,4,1.8043255334999997,0.22828900535,-3.6606263119999998,-0.4896,0.18939,-0.33708,1.4739394949999998,-5.4525954665,-8.0166421755,0.18183,0.58958,-1.2877,0.0018000000000000238,-0.017350000000000032,0.0026000000000001577,0.006138559856254444,-0.0034837392064486217,0.003751948430636143
153000000000.0,4,1.4765872905,0.5752678956499999,-3.1602910289999997,-0.37681,0.295,-0.32106,1.5128718954999998,-5.4157224625,-8.034392212,0.18612,0.58506,-1.2907,0.0019000000000000128,-0.017239999999999978,0.0028999999999999027,0.0037710106953269262,-0.002801566412269585,0.004466235983599465
153000000000.0,4,1.3285068755,1.04735022,-2.7720457554999998,-0.36633,0.45147,-0.24339,1.5605322144999998,-5.382379852499999,-8.047631189499999,0.19154,0.58099,-1.2931,0.0019000000000000128,-0.01707000000000003,0.0028000000000001357,0.003622808311818604,0.0003529348157986778,0.004584350929290104
153000000000.0,4,0.8809411761499999,1.2918300045,-2.4041002474999997,-0.41101,0.55719,-0.099557,1.6109383954999998,-5.3480565774999995,-8.060674034,0.19726,0.5768,-1.2938,0.0021999999999999797,-0.016979999999999995,0.0023999999999999577,0.0027905668272620865,0.003395250461891708,0.0039889242729537755
153000000000.0,4,0.6173090042,1.436478092,-1.7142024200000001,-0.47663,0.59698,0.06784,1.6576180495000001,-5.3113797065,-8.075384008999999,0.20246,0.57235,-1.2924,0.0021999999999999797,-0.01682,0.0021999999999999797,-0.00021407252989513736,0.005665877421153542,0.004126071598925696
153000000000.0,4,0.43541525999999997,1.5609244805,-0.96998555815,-0.5198,0.50233,0.22911,1.6906664599999999,-5.2731337714999995,-8.0935263115,0.20593,0.56772,-1.2889,0.0020000000000000018,-0.016759999999999997,0.0020999999999999908,0.0014005736424096416,0.009933517263057023,0.003606830850245657
153000000000.0,4,0.2548944468,1.7666679975,-0.13938191645,-0.51134,0.30818,0.36183,1.7028267059999997,-5.2367511,-8.114610609,0.20684,0.56332,-1.2838,0.0020999999999999908,-0.016639999999999988,0.0015000000000000568,-0.0015571804330676287,0.009343090516159336,0.0037835708195075313
153000000000.0,4,0.0627429467,1.8446308649999998,0.89361136795,-0.42351,0.029209,0.48842,1.6871360659999999,-5.2080176155,-8.136381371999999,0.20446,0.55986,-1.2775,0.0020000000000000018,-0.01656000000000002,0.0008999999999999009,-0.0001885836708002686,0.0086604702417854,0.004587059091804319
153000000000.0,4,-0.42495156445,1.9639777955,1.9180826735,-0.30287,-0.28094,0.61727,1.6401622125,-5.1905617785,-8.1570734035,0.19842,0.55776,-1.2699,0.0015000000000000568,-0.01650999999999997,0.0006999999999999229,0.0026281675845837293,0.00849462223537678,0.00493948402525235
153000000000.0,4,-0.97641872055,2.274554401,2.6545620884999996,-0.23975,-0.4691,0.71057,1.5692601329999998,-5.181049327999999,-8.177078969499998,0.18961,0.55662,-1.2614,0.0011999999999998678,-0.016469999999999985,-0.0001500000000000945,0.002680892944100066,0.004542615758169166,0.005082813566691213
153000000000.0,4,-1.4202971194999998,2.572676561,2.8931578829999998,-0.20149,-0.56222,0.80367,1.483942278,-5.17594987,-8.196201937,0.17912,0.55601,-1.2518,0.000700000000000145,-0.01634000000000002,-0.00014999999999987246,0.0033637000148986074,0.000999523671503466,0.0036584622987196613
153000000000.0,4,-2.251410707,2.8850183635,3.092429011,-0.22377,-0.52372,0.84092,1.396270827,-5.170360079499999,-8.2151287715,0.16835,0.55533,-1.2417,0.00029999999999996696,-0.016250000000000014,-0.0007999999999999119,0.005514088439335985,-0.0021373376186795134,0.004762528896831597
153000000000.0,4,-2.705066336,3.108904183,2.945329261,-0.29824,-0.39518,0.79039,1.3187002255,-5.158494033,-8.2353304705,0.15877,0.55392,-1.2317,9.999999999998899e-05,-0.016129999999999978,-0.0015000000000000568,0.006187587148584195,-0.004476922964400609,0.0041423672923972255
153000000000.0,4,-2.926892759,3.1578393665,2.57522629,-0.40015,-0.1523,0.64783,1.2652539829999998,-5.136527137,-8.257493499499999,0.15205,0.55128,-1.223,-0.001100000000000101,-0.015920000000000017,-0.00029999999999996696,0.0021575434853714492,-0.005522534348285424,0.0035555513866220023
153000000000.0,4,-3.0146622765,3.128517483,2.339278291,-0.4865,0.13846,0.45503,1.2447580844999997,-5.104165192,-8.280637193499999,0.14921,0.54741,-1.2164,-0.0008999999999999009,-0.01576999999999998,-0.0012000000000000899,0.006372440050497474,-0.004481534498621542,0.004110397095761054
153000000000.0,4,-3.0840933584999997,3.0619303295,2.2958348315,-0.53049,0.41284,0.30183,1.2567221974999998,-5.064840525499999,-8.302898289,0.15022,0.54273,-1.2115,-0.0004999999999999449,-0.015790000000000026,-0.0024999999999999467,0.00038824760955136206,0.0010485770278163553,0.0028646565782726174
153000000000.0,4,-3.3190606924999995,2.9767105409999997,2.3887038069999997,-0.51705,0.57372,0.21938,1.2900648074999999,-5.024339061,-8.3224135225,0.15379,0.5379,-1.2079,-0.0009000000000001229,-0.015529999999999988,-0.0020999999999999908,-0.0001116683142524666,0.0008773014512566402,0.003181851377251327
153000000000.0,4,-3.2927788705,2.8466743619999995,2.2945599669999996,-0.47513,0.59152,0.18527,1.330370139,-4.986387325499999,-8.3388886945,0.1582,0.53341,-1.2048,-0.0011999999999998678,-0.015350000000000003,-0.0018000000000000238,-0.0020631626128611025,0.0028518498710901063,0.0036023309664144354
153000000000.0,4,-3.046141623,2.65367949,1.9307332519999998,-0.40701,0.45559,0.21765,1.3615552859999998,-4.953535048,-8.353402536499999,0.16157,0.52953,-1.2017,-0.0014000000000000679,-0.015169999999999989,-0.0017000000000000348,-0.002179979083169914,0.004179829229909782,0.0038027092059043643
153000000000.0,4,-2.99298958,2.435187328,1.4445195449999997,-0.30247,0.24046,0.30467,1.3722445344999998,-4.929802955,-8.365660849,0.16259,0.52672,-1.1978,-0.0016000000000000458,-0.014980000000000007,-0.0017999999999998018,-0.005359918459614699,0.0035149314668874165,0.004250688541971692
153000000000.0,4,-2.82627653,2.009382585,1.061471796,-0.14971,0.053695,0.39279,1.3622417515,-4.918819507,-8.3738003685,0.16126,0.52542,-1.1932,-0.0018000000000000238,-0.014878000000000002,-0.0015000000000000568,-0.0061601423837780445,0.00025839431834051574,0.004298951094379916
153000000000.0,4,-2.308877676,1.4818828814999998,0.8007031658499999,0.037527,-0.10988,0.45424,1.334488932,-4.924017031499999,-8.375173299499998,0.15801,0.52603,-1.1881,-0.0020999999999999908,-0.014826999999999993,-0.0014000000000000679,-0.006206368866946699,0.0005140435577462021,0.0017371851655660075
153000000000.0,4,-2.110194947,1.3774420589999998,0.39751255775,0.22013,-0.18924,0.51341,1.295066199,-4.9451993954999995,-8.368897043499999,0.15353,0.52854,-1.1827,-0.0012999999999998568,-0.015156000000000003,-0.0028999999999999027,0.0004807213540057864,0.0014440007270681843,-0.0027142630685096925
153000000000.0,4,-2.0011449989999996,1.5259147399999997,0.0187110882,0.39665,-0.12357,0.5232,1.256427998,-4.9814840005,-8.3532064035,0.1493,0.53283,-1.1772,-0.0022999999999999687,-0.014983000000000003,-0.0015000000000000568,0.00032707668006559665,0.004181491200915266,-0.008559948738712075
153000000000.0,4,-1.2920261375,1.2259293165,-0.12865344135,0.54342,0.017067,0.41006,1.2327939714999998,-5.029732718499999,-8.327807179999999,0.14696,0.53855,-1.173,-0.0036000000000000476,-0.014591,0.0005999999999999339,0.002666360847326188,0.00896045828737524,-0.01438768867096163
153000000000.0,4,-0.10521554785000001,0.53740442,-0.6980471536499999,0.5412,-0.010371,0.16994,1.2220066564999998,-5.078864035,-8.299564027999999,0.14618,0.5444,-1.1712,-0.0015000000000000568,-0.015195,-0.0025999999999999357,0.00813491984397996,0.012169921643171433,-0.016971132286072083
153000000000.0,4,0.9525493344499999,0.13923481669999999,-2.3107409395,0.32363,-0.329,-0.14369,1.205825684,-5.110343381499999,-8.282598523499999,0.14457,0.54815,-1.1726,-0.0038000000000000256,-0.014181,0.0015000000000000568,0.008941979596783889,0.013181046095900317,-0.018895465967902175
153000000000.0,4,1.7331292544999999,-0.11355120035,-4.0276892215,0.016084,-0.83548,-0.47316,1.167579749,-5.113481509499999,-8.2861289175,0.13999,0.54852,-1.1772,-0.0022999999999999687,-0.0145786,-0.0009000000000001229,0.0011709193935464102,0.013608979172763602,-0.02083239100231815
153000000000.0,4,2.1538345394999996,-0.4301392823,-4.8931260839999995,-0.25447,-1.3466,-0.74171,1.1007964625,-5.08965135,-8.309861010499999,0.1317,0.54568,-1.1848,-0.0025999999999999357,-0.014086399999999999,0.00029999999999996696,0.004436598035891137,0.010428409498544955,-0.017898855940756242
153000000000.0,4,1.9912402825,-0.6384717549,-5.178499598999999,-0.44683,-1.754,-0.90357,1.0062603565,-5.046894355999999,-8.347910812499999,0.11997,0.54058,-1.1943,-0.0020000000000000018,-0.014044999999999998,-9.999999999998899e-05,0.0058915923536635995,0.008629400632468975,-0.013391332850522103
153000000000.0,4,1.560630281,-0.58572178455,-5.335405999,-0.56008,-1.9746,-1.0112,0.89384672755,-4.9924674485,-8.3932175355,0.1061,0.53413,-1.205,-0.0025000000000001688,-0.013561000000000004,0.0014000000000000679,0.002966487286156949,0.005479535896264487,-0.009083404570689763
153000000000.0,4,1.1656184189999999,-0.2761160374,-5.276860298499999,-0.56734,-1.9841,-1.0688,0.7783636171499999,-4.935294679,-8.438426192,0.09198,0.52737,-1.2165,-0.0031999999999998696,-0.013078,0.0027999999999999137,-0.004753110970180607,0.0019595469678557187,-0.006662458536978111
153000000000.0,4,0.4946866526,-0.04349249274999999,-4.771131358,-0.47396,-1.7505,-1.0221,0.6751780458499999,-4.885084631,-8.476475994,0.079486,0.52146,-1.228,-0.0016000000000000458,-0.013583999999999992,0.0008000000000001339,0.004313534286288445,0.004361793664339864,-0.0038567008777418976
153000000000.0,4,-0.35953140229999997,0.07350084174999999,-3.857739977,-0.30279,-1.3333,-0.87417,0.5970092387,-4.849584558,-8.5026597495,0.070099,0.51729,-1.2382,-0.0022999999999999687,-0.013184000000000001,0.0021999999999999797,-0.002854582436952635,0.0048205417735585065,-0.005087052925842606
153000000000.0,4,-0.8778913079999999,0.1115408371,-2.9169880425,-0.11685,-0.89813,-0.66007,0.5462990515499999,-4.831736455,-8.516290992999998,0.06406,0.51519,-1.2462,-0.0020999999999999908,-0.013232000000000008,0.0021999999999999797,-0.004257033243882324,0.007440417165789137,-0.005313129740060207
153000000000.0,4,-0.9834108619999998,-0.058192661099999994,-2.2375833305,0.015847,-0.58615,-0.45332,0.51517274445,-4.8279118615,-8.520311719499999,0.06039,0.51474,-1.2519,-0.0020999999999999908,-0.013109999999999997,0.0025999999999999357,-0.010827315996160602,0.01102684879177196,-0.007996668900918547
153000000000.0,4,-0.7061572532,-0.11819955244999998,-1.7600975419999998,0.10762,-0.4986,-0.31668,0.48873401604999994,-4.8335997184999995,-8.518644588999999,0.057309,0.51541,-1.256,-0.0017000000000000348,-0.013090000000000004,0.0024999999999999467,-0.014962089653879351,0.014440656827862774,-0.010221666432763926
153000000000.0,4,0.0410310236,-0.15079685704999998,-1.259369993,0.22246,-0.63921,-0.25006,0.45113531995,-4.848603893,-8.5122702665,0.052948,0.51717,-1.2591,-0.0015000000000000568,-0.012979999999999992,0.0029000000000001247,-0.023551376779824773,0.01612143295495483,-0.011361525131016459
153000000000.0,4,0.7302816122,-0.22536662365000001,-0.45472455385,0.43297,-0.97239,-0.20854,0.38676446935,-4.879396774,-8.4977564245,0.045482,0.52078,-1.2618,-0.0010999999999998789,-0.012940000000000007,0.0032000000000000917,-0.028565307572544385,0.019776989745162954,-0.012296585686190326
153000000000.0,4,1.2404431584999998,-0.1705572568,0.6451010502999999,0.79532,-1.4155,-0.19326,0.285961914,-4.9377463415,-8.468042275,0.033757,0.52766,-1.2643,-0.00039999999999995595,-0.013160000000000005,0.0027999999999999137,-0.032222768453756157,0.019312385832127132,-0.011256660587017492
153000000000.0,4,1.832078353,-0.00893385815,1.8480631925,1.2993,-1.8906,-0.17981,0.14540319955,-5.035910907999999,-8.4136153675,0.01728,0.53929,-1.2668,0.00019999999999997797,-0.013529999999999986,0.0022999999999999687,-0.033508416484823944,0.01649358738497142,-0.008983181856470346
153000000000.0,4,2.3738957655,0.13440013825,2.8200983405,1.877,-2.3302,-0.12359,-0.03399965555,-5.180951261499999,-8.326336182499999,-0.004083,0.55661,-1.2685,0.0005999999999999339,-0.014100000000000001,0.0020000000000000018,-0.02695002293501403,0.01623317146841785,-0.007304922933698499
153000000000.0,4,2.919047439,-0.10245007255,3.5805059814999995,2.4122,-2.5777,-0.016555,-0.24139068975,-5.3701215399999995,-8.202085926999999,-0.029421,0.57949,-1.2686,0.0009999999999998899,-0.014929999999999999,0.001000000000000112,-0.018726269892066494,0.01320706516578718,-0.005479646240204444
153000000000.0,4,3.5905087645,-0.6375891564,4.176063836,2.7533,-2.5487,0.11101,-0.4544009344,-5.588123369499999,-8.045964059,-0.056416,0.60629,-1.2662,0.0009000000000001229,-0.015509999999999996,0.0005999999999999339,-0.00520362702827204,0.009937789689156817,-0.002873469922832439
153000000000.0,4,4.103298493,-1.0056719575,4.371020038,2.7342,-2.3195,0.23759,-0.65593739855,-5.8068116645000005,-7.875426415499999,-0.083098,0.63369,-1.2612,0.0014000000000000679,-0.01658000000000001,-0.000700000000000145,-5.600932157157068e-05,0.0064052004345585,-0.0017854933426738606
153000000000.0,4,4.4628102819999995,-1.143847656,3.926386527,2.2968,-1.9942,0.32272,-0.8362228521499999,-5.994020612999999,-7.7163625525,-0.10795,0.6576,-1.2545,0.0022999999999999687,-0.017760000000000026,-0.0022999999999999687,0.0020758947533328076,0.0025568548144176972,1.9132028270141266e-05
153000000000.0,4,4.924703496999999,-1.3167388955,3.4086934735,1.5733,-1.5908,0.3389,-0.9869412559999998,-6.126214255,-7.5937794274999995,-0.12924,0.67475,-1.2475,0.0020999999999999908,-0.01801999999999998,-0.0020000000000000018,0.010391075671170924,-0.00041016602158094884,0.0035217633795025516
153000000000.0,4,5.253030139,-1.2780026279999999,3.4520388664999997,0.77463,-1.1516,0.31326,-1.1023655264999999,-6.1965279355,-7.520523752,-0.14554,0.68396,-1.2416,0.0022999999999999687,-0.01850999999999997,-0.0025999999999999357,0.012250347990845567,-0.004106519390522756,0.004310676415823805
153000000000.0,4,5.2610715919999995,-1.256035732,3.8084125274999994,0.071239,-0.68112,0.26638,-1.1799361279999998,-6.211041777499999,-7.496693592499999,-0.15612,0.68588,-1.2376,0.0024999999999999467,-0.01881000000000005,-0.0028999999999999027,0.013593481349073344,-0.007438360063851679,0.005117630011295782
153000000000.0,4,5.100536731499999,-1.43765489,4.4227010835,-0.44323,-0.18882,0.24007,-1.2184762624999999,-6.183485091,-7.513266831,-0.16078,0.68225,-1.2351,0.0028000000000001357,-0.01898999999999995,-0.0030000000000001137,0.014041843959579303,-0.009627516682714665,0.005692641248468078
153000000000.0,4,4.736023551,-1.6132919915,4.8020223054999995,-0.78487,0.28504,0.18954,-1.2184762624999999,-6.1274891195,-7.5590638865,-0.15981,0.67491,-1.2339,0.0031999999999998696,-0.01918000000000003,-0.0034000000000000696,0.012492907513544815,-0.012943421589671544,0.00696213474796234
153000000000.0,4,4.5535217945,-1.2609390569999999,4.8273234625,-0.99459,0.67264,0.074281,-1.1806225934999999,-6.0539392445,-7.624081975999999,-0.15363,0.66535,-1.2344,0.0038000000000000256,-0.019309999999999994,-0.0037999999999998035,0.01038656029518592,-0.015108627216176451,0.009211290180080961
153000000000.0,4,4.500467818,-0.63006745585,4.512922263499999,-1.0745,0.99526,-0.068392,-1.1083475829999998,-5.9728382490000005,-7.698514449499999,-0.14299,0.65488,-1.2368,0.0041999999999999815,-0.019179999999999975,-0.0038000000000000256,0.009310195855978365,-0.01645379494578636,0.012385031582632045
153000000000.0,4,4.387201010499999,-0.25909169299999996,4.3562119965,-1.0385,1.2966,-0.17347,-1.004593226,-5.8928159849999995,-7.7740256545,-0.12851,0.64463,-1.2404,0.0045999999999999375,-0.018850000000000033,-0.0035000000000000586,0.01287110140806913,-0.020380513547504142,0.019097362218383124
153000000000.0,4,4.183909156,-0.0030302548499999997,4.317475729,-0.91555,1.5791,-0.20364,-0.8746845334499999,-5.820442908,-7.8439470689999995,-0.11105,0.63542,-1.2443,0.005800000000000027,-0.019169999999999965,-0.0044999999999999485,0.0026224744215360696,-0.01555822920892913,0.019843162819543014
153000000000.0,4,3.9331531154999997,0.54959408595,4.1473303515,-0.7355,1.8567,-0.1323,-0.7246525951,-5.7599358775,-7.9036695675,-0.09143,0.62779,-1.2472,0.006299999999999972,-0.018890000000000018,-0.0042999999999999705,0.004174143150813214,-0.01641020710684482,0.025337365083101304
153000000000.0,4,3.7007355104999995,1.1147219055,4.074270809,-0.51873,2.1297,0.05439,-0.5608619267999999,-5.714433021499999,-7.949858889,-0.070433,0.62206,-1.2477,0.007300000000000084,-0.018969999999999987,-0.0048000000000001375,-0.003827055899825127,-0.011858136684219645,0.027329609561270035
153000000000.0,4,3.4995030524999997,1.3951920955,3.9919930155,-0.29122,2.3534,0.36073,-0.39298188544999996,-5.6856014705,-7.980651769999999,-0.049203,0.61844,-1.2445,0.007500000000000062,-0.01829000000000003,-0.0040000000000000036,0.0016750420352442674,-0.004042539827884939,0.026898979458014782
153000000000.0,4,3.3323977365,1.5650432735,3.668275499,-0.11062,2.4922,0.7408,-0.23265296459999998,-5.6713818279999995,-7.996930808999999,-0.029084,0.61667,-1.2367,0.008499999999999952,-0.01860999999999996,-0.0043999999999999595,-0.023383428953460683,-0.01157812592521723,0.029760004631786047
153000000000.0,4,3.2889542769999998,1.730285326,3.0348639755,0.053248,2.5554,1.1444,-0.088063717,-5.6704992295,-8.000461202999999,-0.011007,0.61656,-1.2238,0.009700000000000042,-0.019260000000000055,-0.004899999999999904,-0.0003248354743279336,0.003332631737672065,0.02451596580762294
153000000000.0,4,3.2940537349999994,1.693608455,2.5500231994999996,0.2743,2.5447,1.5152,0.0355196863,-5.687366667499999,-7.988889356,0.004446,0.61867,-1.2063,0.010099999999999998,-0.018819999999999948,-0.0040999999999999925,-0.008660209612119663,0.007161847063345661,0.021125970028128938
153000000000.0,4,3.6520945265,0.9893929184999999,2.2725930709999997,0.55244,2.4142,1.7999,0.13221325529999997,-5.727671999,-7.95907714,0.01661,0.62372,-1.185,0.01089999999999991,-0.01905000000000001,-0.0038000000000000256,-0.00027657545143355833,0.013393823579236575,0.019890235000434298
153000000000.0,4,4.468105873,-0.20108535824999998,1.7800050415,0.76364,2.1203,1.9844,0.19577015395,-5.7879828965,-7.91396655,0.024732,0.63132,-1.1612,0.011400000000000077,-0.019120000000000026,-0.0039000000000000146,-0.01492803602274062,0.008834259220682705,0.020658631767985824
153000000000.0,4,5.4235677825,-1.241718023,0.46253064725,0.81089,1.555,2.0879,0.2099799898,-5.8563352470000005,-7.863168103,0.026698,0.63999,-1.1357,0.011900000000000022,-0.018569999999999975,-0.0028000000000001357,-0.00013983578394927143,0.014020079605119307,0.020689588417858673
153000000000.0,4,6.426690011,-2.3211359885,-1.607113802,0.66855,0.87948,2.1636,0.16653653029999999,-5.916351944999999,-7.819136244499999,0.021296,0.64764,-1.1091,0.011700000000000044,-0.017530000000000046,-0.0006999999999999229,-0.029938455311302015,0.006748184947071856,0.02469777387388683
153000000000.0,4,6.987238125,-3.5463788395,-3.7548682185,0.42271,0.23456,2.2892,0.0623114541,-5.957147609,-7.789716294499999,0.008,0.65286,-1.0809,0.011499999999999844,-0.017610000000000015,-0.0007999999999999119,0.02978970949574755,0.030045469217097498,0.009979873909055414
153000000000.0,4,6.602621311999999,-4.085842656,-5.569784934,0.1791,-0.12162,2.4292,-0.08489616905,-5.9752899115,-7.775496652,-0.010918,0.65519,-1.0507,0.011600000000000055,-0.017589999999999995,-0.000300000000000189,-0.006102536127981173,0.008920037885421062,0.01910168125475825
153000000000.0,4,5.6369604865000005,-3.7400601769999997,-6.6153699569999995,-0.011726,-0.17663,2.524,-0.2487554839,-5.973818914,-7.773143055999999,-0.031991,0.655,-1.019,0.012199999999999989,-0.01851999999999998,-0.0018999999999997907,-0.008112373932354533,-0.02263164599549139,0.03338547828530933
153000000000.0,4,4.1776329,-3.1903974445,-7.4066685455,-0.19285,-0.021663,2.5031,-0.4046812189,-5.954009481,-7.781870974499999,-0.051957,0.65245,-0.98737,0.009700000000000042,-0.015919999999999934,0.0022999999999999687,0.020267724160077827,0.005545194930579145,0.010930976847461693
153000000000.0,4,2.5814044795,-2.4225367495,-7.98653576,-0.34917,0.31444,2.2941,-0.52766641655,-5.918509407999999,-7.801484274499999,-0.067534,0.64791,-0.95803,0.010399999999999965,-0.016979999999999995,0.0008999999999999009,0.007945928797835289,-0.011484911471710824,0.017335867414322748
153000000000.0,4,1.191704108,-1.4344186955,-7.889057658999999,-0.42443,0.82583,1.9494,-0.5942535700499999,-5.874673682499999,-7.829727426499999,-0.075751,0.64231,-0.93286,0.010099999999999998,-0.01699000000000006,0.001000000000000112,0.011234348193960297,-0.005351903425222737,0.00897864065310508
