Time,placement_label,user_acc_x(m/s^2),user_acc_y(m/s^2),user_acc_z(m/s^2),rotation_rate_x(rad/s),rotation_rate_y(rad/s),rotation_rate_z(rad/s),gravity_x(m/s^2),gravity_y(m/s^2),gravity_z(m/s^2),attitude_roll(rad),attitude_pitch(rad),attitude_yaw(rad),target_delta_x,target_delta_y,target_delta_z,target_delta_roll,target_delta_pitch,target_delta_yaw
152840000000.0,4,3.3010164565,1.341941986,-3.9963079414999996,-0.59806,0.99137,0.55824,-0.8821670073999999,-3.9282497905,-8.942095735999999,-0.098336,0.41214,0.22458,0.0,0.0,0.0,0.0,0.0,0.0
152840000000.0,4,2.9370916749999996,1.628296166,-3.9058906284999995,-0.93501,1.1061,0.48487,-0.80576339725,-3.8473449279999996,-8.9843623975,-0.089446,0.40316,0.22899,0.013660000000000005,0.007600000000000051,0.0014000000000000679,0.014121147806977818,-0.010219383516653968,0.009604201915523802
152840000000.0,4,2.450877968,1.8537510495,-3.5246080765,-1.1987,1.3364,0.45519,-0.7085108492000001,-3.7411389084999995,-9.037220241,-0.078239,0.39141,0.23293,0.013130000000000086,0.007800000000000029,0.0011999999999998678,0.016483644862815727,-0.013595593764225145,0.010649688330729212
152840000000.0,4,1.9729999135,2.0704780145,-2.9436621305,-1.334,1.6316,0.46938,-0.58421156045,-3.6193403154999997,-9.0955698085,-0.064142,0.37801,0.23676,0.012880000000000003,0.008100000000000218,0.0016000000000000458,0.01706104049329571,-0.01502651259361465,0.01337809603674689
152840000000.0,4,1.5817145784999997,2.2693568765,-2.2075749815,-1.3269,1.9042,0.5511,-0.43475821444999996,-3.4945016609999997,-9.152644511499998,-0.047466,0.36434,0.24159,0.012459999999999916,0.00849999999999973,0.0017000000000000348,0.011725425807973089,-0.015317061241993946,0.014307173680350838
152840000000.0,4,1.2333823704999998,2.282203588,-1.475312426,-1.2005,2.0692,0.71648,-0.27075179985,-3.3783909249999997,-9.202364226999999,-0.029414,0.35171,0.24808,0.012149999999999994,0.008799999999999919,0.0019000000000000128,0.009798085405748114,-0.01248180860308823,0.018298352569323884
152840000000.0,4,0.9452041535999999,2.210811176,-0.8791465592,-0.99574,2.0811,0.96018,-0.10798102315,-3.2798340925000002,-9.241296627499999,-0.011684,0.34102,0.25737,0.011520000000000086,0.009000000000000341,0.0020000000000000018,0.007582794415552208,-0.011921594212221054,0.01884988080254102
152840000000.0,4,0.57020766425,2.1006824965,-0.31923587745,-0.73678,1.9572,1.2533,0.03866762095,-3.205009353,-9.268068782,0.004172,0.33294,0.26969,0.011339999999999906,0.009199999999999875,0.0023999999999999577,0.002752800255164556,-0.008325881657255119,0.020079661308645358
152840000000.0,4,0.30617341964999994,2.0443923254999996,0.1493552795,-0.44359,1.6977,1.5233,0.15650432735,-3.1584277655,-9.282778756999999,0.016859,0.32792,0.28519,0.01097999999999999,0.009300000000000086,0.0024999999999999467,-0.00226120142902575,-0.002770942868751458,0.021455437149219048
152840000000.0,4,0.11122702429999999,2.1884520139999997,0.4719940645,-0.13144,1.355,1.708,0.23802700879999997,-3.1422467929999995,-9.286505284,0.025626,0.32617,0.30271,0.010600000000000165,0.008999999999999897,0.0026000000000001577,-0.007528765720273833,-0.00124634877741725,0.019662008694694366
152840000000.0,4,-0.1238776028,2.465784076,0.8083817728,0.21501,0.96422,1.7861,0.28069574295,-3.1585258319999996,-9.279836762,0.030238,0.32793,0.32135,0.010399999999999965,0.008899999999999908,0.0024999999999999467,-0.00911906355975678,0.0015790730812887954,0.01779572362036097
152840000000.0,4,-0.3546476906,2.7802833414999997,1.1341390725,0.58203,0.55522,1.7715,0.2850597022,-3.2090300795,-9.262380924999999,0.030767,0.33337,0.33987,0.009800000000000031,0.008600000000000163,0.0025999999999999357,-0.013612118388661054,0.003231796170561463,0.014678193155406749
152840000000.0,4,-0.63275447795,3.060459332,1.3665566775,0.94724,0.158,1.713,0.2525212375,-3.2930730699999997,-9.233745507,0.027341,0.34245,0.35793,0.00969999999999982,0.008299999999999974,0.0025999999999999357,-0.017285219606399838,0.008245108686799174,0.014530073606176641
152840000000.0,4,-0.8706932269,3.2419804235,1.4909049994999999,1.281,-0.18033,1.6331,0.18789541399999998,-3.4073205424999995,-9.193734375,0.020434,0.35485,0.37508,0.009400000000000075,0.008000000000000007,0.0025000000000001688,-0.018638996662624807,0.007918662229774664,0.012593499838144284
152840000000.0,4,-0.9874315885,3.337987527,1.635160821,1.5783,-0.42032,1.5551,0.09960614404999998,-3.547849837,-9.1418571965,0.010895,0.37017,0.39167,0.009100000000000108,0.007800000000000029,0.0024999999999999467,-0.02352216081688563,0.009411629902349894,0.012849909821489147
152840000000.0,4,-1.0736320419999998,3.3992790895,1.84757286,1.8294,-0.55019,1.4853,-0.0027458619999999995,-3.7100518279999997,-9.0777217055,-0.000302,0.38798,0.4076,0.008799999999999919,0.00749999999999984,0.0021999999999999797,-0.02218174768535186,0.008533841971166467,0.011331110985899562
152840000000.0,4,-1.0982467335,3.4979339885,2.0071270555,2.0087,-0.58569,1.412,-0.10990312655,-3.8874541264999998,-9.0025047,-0.012208,0.40761,0.42326,0.00869999999999993,0.007300000000000084,0.0018000000000000238,-0.023209097765341302,0.006125628639328751,0.010976839362614843
152840000000.0,4,-1.0352880405,3.6423859429999994,2.0455691235,2.0885,-0.53192,1.3309,-0.21303966459999998,-4.0714268805,-8.918952041999999,-0.023882,0.42813,0.4383,0.008399999999999963,0.006899999999999906,0.0012000000000000899,-0.02002562087708082,0.006105229483344132,0.010467036099008897
152840000000.0,4,-0.9577468589499999,3.7044620374999995,1.9516214164999999,2.0621,-0.41866,1.2431,-0.30564386055,-4.2524576395,-8.831378657499998,-0.034595,0.44851,0.45294,0.008299999999999974,0.006900000000000128,0.0009999999999998899,-0.018912529809496093,0.0024831980533643883,0.009471521138915584
152840000000.0,4,-0.87425304085,3.6372864849999997,1.7499966925,1.9356,-0.28112,1.1519,-0.38449913319999995,-4.4219165515,-8.7446878715,-0.043941,0.46778,0.46673,0.008200000000000207,0.00649999999999995,0.00039999999999995595,-0.015625410951641272,0.0026065907898602525,0.010118970431326035
152840000000.0,4,-0.7910043889999999,3.540592916,1.4739394949999998,1.7282,-0.11841,1.0595,-0.44725188655,-4.572840895,-8.6636849425,-0.051577,0.4851,0.47987,0.008199999999999985,0.006299999999999972,-9.999999999998899e-05,-0.01270111486227199,0.00046894048838486135,0.009399519775524112
152840000000.0,4,-0.74001961565,3.434877229,1.163657089,1.4623,0.055435,0.96694,-0.49224479674999994,-4.700327345,-8.5926847965,-0.057224,0.49986,0.49188,0.008099999999999996,0.006099999999999994,-0.0004999999999999449,-0.008261759170979266,0.00040134442282036,0.009859238386344282
152840000000.0,4,-0.6776493216499999,3.211677875,0.7922400269,1.1621,0.21998,0.87433,-0.51944844385,-4.801826172499999,-8.5348255615,-0.060788,0.51169,0.50298,0.008099999999999996,0.006000000000000005,-0.0009000000000001229,-0.004622831931602733,-0.0015556755460539584,0.00852390795614788
152840000000.0,4,-0.537600553,2.8867835605,0.33654461469999997,0.8532,0.35901,0.78069,-0.5306574448,-4.8767489785,-8.4914801685,-0.062412,0.52048,0.51269,0.008199999999999985,0.005800000000000027,-0.0011999999999998678,-0.0031083975174230893,-0.002562842905365237,0.008870959382616395
152840000000.0,4,-0.4063287361,2.5647331744999997,-0.051886985149999995,0.57826,0.47965,0.69461,-0.5275585434,-4.927547425499999,-8.462354418,-0.062261,0.52645,0.52141,0.008000000000000007,0.005600000000000049,-0.0013000000000000789,-0.00036895569530315253,-0.002723822326211822,0.008343389984961647
152840000000.0,4,-0.32636531199999996,2.3672272435,-0.22221868899999997,0.36313,0.60513,0.60222,-0.5099654133,-4.959124838499999,-8.4449966475,-0.060314,0.53018,0.52877,0.007800000000000029,0.00550000000000006,-0.0013999999999998458,-0.0005036783187204463,-0.005548983053453416,0.0066773249385425615
152840000000.0,4,-0.16072118685,2.1788414969999996,-0.4076428272,0.20468,0.73442,0.49071,-0.47643647694999997,-4.9769729415,-8.4363667955,-0.056414,0.5323,0.53495,0.007899999999999796,0.005399999999999849,-0.0015000000000000568,0.002362915278205091,-0.007436787219563312,0.00734029926528601
152840000000.0,4,-0.03725546335,1.829528624,-0.68400403085,0.078064,0.84214,0.37822,-0.42752090675,-4.984229862499999,-8.4347977315,-0.050642,0.53315,0.53956,0.00770000000000004,0.0052000000000000934,-0.0015000000000000568,0.002075865861224546,-0.004902072895521803,0.006422735203626573
152840000000.0,4,0.050484634199999996,1.4355954935,-1.0176360705,-0.018455,0.86114,0.29369,-0.3704167838,-4.983347263999999,-8.4379358595,-0.04387,0.53305,0.54317,0.007600000000000051,0.00529999999999986,-0.0015000000000000568,0.0023442548169937405,-0.003964934062764325,0.005767426414043042
152840000000.0,4,0.05074941374999999,1.0382300355,-1.3624378844999998,-0.10643,0.78303,0.26913,-0.31560741695,-4.975305811,-8.444898581,-0.037355,0.53209,0.54609,0.007600000000000051,0.005300000000000082,-0.0013999999999998458,0.003662565911079274,-0.0009948482660941949,0.005468244775556963
152840000000.0,4,-0.11506142444999999,0.6393739667,-1.677721682,-0.19864,0.61858,0.30982,-0.27414490075,-4.9595171045,-8.4555878295,-0.03241,0.53023,0.54947,0.007400000000000073,0.0052000000000000934,-0.0014000000000000679,0.0032994904818097748,0.00030458409658185026,0.004047673390351392
152840000000.0,4,-0.33745663314999996,0.45237095785000003,-1.8903298539999998,-0.28287,0.40288,0.3805,-0.25316847639999995,-4.9363734105,-8.469807472,-0.029882,0.5275,0.55339,0.007399999999999851,0.005099999999999882,-0.0013000000000000789,0.003550867421606152,0.0029344771064547803,0.0042391972128563715
152840000000.0,4,-0.45817649464999993,0.31311652785,-1.9653507264999999,-0.35118,0.17321,0.44483,-0.25469831379999996,-4.906855394,-8.4869691095,-0.030002,0.52401,0.55824,0.007300000000000084,0.0052000000000000934,-0.0010999999999998789,0.003839341577836941,0.003378345507138114,0.003301695696807272
152840000000.0,4,-0.5466815109,0.04013861845,-1.9350481779999997,-0.40204,-0.013977,0.50272,-0.27617487729999995,-4.8723359859999995,-8.506092077,-0.032457,0.51996,0.56357,0.007299999999999862,0.005099999999999882,-0.001000000000000112,0.003802451497492809,0.0053936601377506666,0.004547494800678731
152840000000.0,4,-0.6885052832,-0.2858834608,-1.814622516,-0.4385,-0.14053,0.55198,-0.31196914979999996,-4.8340900509999996,-8.526686042,-0.036571,0.51547,0.56962,0.007400000000000073,0.0051000000000001044,-0.0008999999999999009,0.004779270718542894,0.006594122487169951,0.0034296058373461946
152840000000.0,4,-0.7981044035999999,-0.54523993335,-1.7072396984999998,-0.47558,-0.21274,0.59901,-0.3570993531,-4.792313721999999,-8.548456804999999,-0.041749,0.51058,0.57598,0.007400000000000073,0.004999999999999893,-0.000700000000000145,0.005720055415112335,0.007257514339961357,0.005183393848873674
152840000000.0,4,-0.9216780002499999,-0.747658996,-1.5727905269999998,-0.52411,-0.24649,0.64808,-0.4079958666,-4.746124400499999,-8.5718946985,-0.047561,0.50519,0.58299,0.007399999999999851,0.0050000000000001155,-0.0007999999999999119,0.004800096318584246,0.005542746653516728,0.004007560088329809
152840000000.0,4,-1.0001802334999998,-0.92958216015,-1.3812666525,-0.5821,-0.25779,0.70351,-0.462677747,-4.6943452885,-8.5975881215,-0.053763,0.49917,0.59037,0.007500000000000062,0.004999999999999893,-0.0004999999999999449,0.006964862517104375,0.007184176778875173,0.00562080573778001
152840000000.0,4,-0.96812229465,-1.0507825474999999,-1.133256474,-0.64417,-0.25094,0.75355,-0.5191248244,-4.6366821865,-8.625635140499998,-0.060112,0.49247,0.59838,0.00770000000000004,0.0050000000000001155,-0.000700000000000145,0.007509419944842,0.007699697974836939,0.006081392283730169
152840000000.0,4,-0.81013716315,-1.1047191225,-0.8076953072999999,-0.70713,-0.22595,0.79396,-0.57550325525,-4.5725466955,-8.656329955,-0.066386,0.48507,0.6066,0.00770000000000004,0.004999999999999893,-0.0005999999999999339,0.007642393171297446,0.0033516809704792205,0.005624769782161643
152840000000.0,4,-0.60657072245,-1.1209000949999999,-0.34970513899999994,-0.75906,-0.17226,0.81086,-0.6285376184499999,-4.5029194805,-8.6889860995,-0.072211,0.47706,0.61511,0.007900000000000018,0.0050000000000001155,-0.0005999999999999339,0.007496817160115188,0.007275731578507916,0.006494487494979939
152840000000.0,4,-0.2761944906,-1.0767701699999999,0.1869735889,-0.8032,-0.095164,0.7989,-0.67445235375,-4.4286831399999995,-8.7237016405,-0.077159,0.46856,0.6233,0.007900000000000018,0.005099999999999882,-0.0009000000000001229,0.009234709603328062,0.002145738818210896,0.005321197192076799
152840000000.0,4,0.22584714949999998,-0.97863502345,0.6626745671,-0.85585,-0.030757,0.76347,-0.7124629291499999,-4.349641541,-8.760280445,-0.08115,0.45955,0.63118,0.008000000000000007,0.005300000000000082,-0.0009999999999998899,0.009170615565398554,0.005391082873045683,0.006526003310995954
152840000000.0,4,0.7352633904,-0.9352209839,1.08461549,-0.92574,0.017806,0.73124,-0.7437951758999999,-4.264519819,-8.799507044999999,-0.084326,0.44988,0.63838,0.008099999999999996,0.005400000000000071,-0.001100000000000101,0.009944786622881119,0.0032517668387994636,0.005505651670893119
152840000000.0,4,1.194646103,-1.027344654,1.5110086319999998,-1.0012,0.056788,0.73211,-0.7704398439499999,-4.1722392425,-8.841283374,-0.086921,0.43946,0.6455,0.008199999999999985,0.006000000000000005,-0.0014999999999998348,0.012096653707553862,0.004833541283461473,0.007331976430974052
152840000000.0,4,1.634180156,-1.1637551554999999,1.9174942744999999,-1.0589,0.070011,0.76828,-0.7956233211499999,-4.073584343499999,-8.885021033,-0.089309,0.42837,0.65264,0.008199999999999985,0.006199999999999983,-0.0014000000000000679,0.008897694645801035,0.003965785964140878,0.008014658235611538
152840000000.0,4,2.074106475,-1.3569461605,2.2550391674999997,-1.0881,0.070168,0.84828,-0.8225818019999999,-3.9706145185,-8.9290528915,-0.091865,0.41686,0.66057,0.008199999999999985,0.006699999999999928,-0.0020999999999999908,0.012645525595750273,0.006370180756091859,0.009744764248755367
152840000000.0,4,2.405178979,-1.6140765234999999,2.5759127555,-1.0705,0.070958,0.97427,-0.8532471965499999,-3.8661736959999997,-8.971907952,-0.094817,0.40524,0.66952,0.008199999999999985,0.007200000000000095,-0.0017000000000000348,0.009198679456405512,0.003634624278094689,0.010512407791926526
152840000000.0,4,2.6678991325,-1.8251156315,2.8875680924999996,-1.0146,0.076749,1.111,-0.8876685380499999,-3.763988403,-9.011919083999999,-0.098182,0.39393,0.6801,0.008099999999999996,0.007599999999999829,-0.0021999999999999797,0.008542315864521366,0.0051995504693824746,0.011774448575413432
152840000000.0,4,2.978279605,-1.9071972919999998,2.9970103064999996,-0.9396,0.063223,1.2296,-0.9264342254999999,-3.666510302,-9.048203689,-0.10203,0.38318,0.69185,0.008299999999999974,0.008099999999999996,-0.0022999999999999687,0.008620759444273984,0.0063777200508425835,0.012319576734826754
152840000000.0,4,3.3298480075,-1.9366172419999998,2.989459186,-0.85166,0.033648,1.3067,-0.96951483895,-3.5748181245,-9.0802714345,-0.10637,0.37312,0.70468,0.008199999999999985,0.008500000000000174,-0.0023999999999999577,0.007131788783100168,0.007253685498897822,0.012738091949390018
152840000000.0,4,3.5398083839999996,-2.0742045415,3.0105434835,-0.74862,0.008239,1.356,-1.0156747405,-3.4908732005,-9.107828120999999,-0.11106,0.36396,0.71796,0.008199999999999985,0.008999999999999897,-0.0025000000000001688,0.00421107954102784,0.004552205080135208,0.011722072967483177
152840000000.0,4,3.6456221375,-2.2199313605,2.9703362185,-0.6326,-0.012986,1.3776,-1.0639234585,-3.4161465274999996,-9.130579549,-0.116,0.35581,0.73176,0.008199999999999985,0.009400000000000075,-0.0026999999999999247,0.004924810054845352,0.004841609710544592,0.012451962140850092
152840000000.0,4,3.780071309,-2.2526855715,2.86942579,-0.50567,-0.025741,1.3661,-1.112662509,-3.352109103,-9.1485257185,-0.12102,0.34885,0.74544,0.008299999999999974,0.00969999999999982,-0.0024999999999999467,0.00331141212785957,0.006830823823081866,0.013281995725517914
152840000000.0,4,3.9515896174999994,-2.232778072,2.7673385634999996,-0.36136,-0.009848,1.3354,-1.1586556975,-3.300329991,-9.161666629499999,-0.1258,0.34324,0.7591,0.008199999999999985,0.010300000000000198,-0.0028000000000001357,0.0009250450883236949,0.0003763099724578556,0.011336306263630025
152840000000.0,4,4.0665235555,-2.248272579,2.541099148,-0.21586,0.025202,1.3163,-1.2006281595,-3.26169179,-9.1701003485,-0.13019,0.33905,0.7725,0.008300000000000196,0.01079999999999992,-0.0021999999999999797,0.0033235346099275143,0.002527503309762924,0.013667312202021886
152840000000.0,4,4.1092805495,-2.3021110874999997,2.231601274,-0.061693,0.092129,1.3175,-1.236814698,-3.2363906329999996,-9.174219141499998,-0.13401,0.33633,0.7862,0.007899999999999796,0.011199999999999877,-0.0026999999999999247,0.0008478167446932527,0.0008535541917453759,0.013866609184025602
152840000000.0,4,4.1300706475,-2.3154481314999997,1.9559363424999998,0.099302,0.22079,1.3325,-1.262704254,-3.2252110519999997,-9.174611407499999,-0.13677,0.33511,0.80007,0.007900000000000018,0.011600000000000055,-0.0024999999999999467,-0.0028114723787274754,-0.003173185066604356,0.014152126162923828
152840000000.0,4,4.121734995,-2.1810970265,1.65536252,0.25308,0.38999,1.3613,-1.2747664335,-3.2276627144999996,-9.172061678499999,-0.13809,0.33538,0.81459,0.007600000000000051,0.012199999999999989,-0.0027000000000001467,-0.002633471352995742,-0.0011576053928024077,0.016782310796685795
152840000000.0,4,4.037593938,-2.0223273629999996,1.338607725,0.39204,0.58593,1.4082,-1.2706476404999998,-3.2428630219999994,-9.167354486499999,-0.13773,0.33702,0.8296,0.007600000000000051,0.012499999999999956,-0.0021999999999999797,-0.003329924895642322,-0.004668249567142402,0.018157140928080295
152840000000.0,4,3.9422733,-1.874246948,0.9527846940499999,0.49887,0.7736,1.4689,-1.2513285399999998,-3.2680661124999997,-9.160980164,-0.13576,0.33975,0.84557,0.006999999999999895,0.013000000000000123,-0.0025999999999999357,-0.002204846168456953,-0.00602637613937218,0.01883371566491565
152840000000.0,4,3.8473449279999996,-1.715575351,0.45321432975,0.56178,0.94777,1.5402,-1.218182063,-3.2995454589999995,-9.1542135755,-0.1323,0.34315,0.86221,0.007100000000000106,0.01330000000000009,-0.0021999999999999797,-0.0034705535646731844,-0.00588451895791442,0.019558694554762557
152840000000.0,4,3.816944313,-1.5385653185,-0.13951920955,0.57849,1.0744,1.6019,-1.175032803,-3.3333784014999996,-9.14764312,-0.12776,0.34682,0.87976,0.006799999999999917,0.013499999999999845,-0.0019000000000000128,-0.0011214543044827385,-0.004737658320236315,0.02083482090049671
152840000000.0,4,3.8643104325,-1.3600842885,-0.8466375144499999,0.55971,1.148,1.6359,-1.1260976194999999,-3.3663287455,-9.141661063499999,-0.12256,0.3504,0.89756,0.006399999999999961,0.014000000000000012,-0.0020000000000000018,-0.004096815215637872,-0.006020925074683214,0.01986164925649092
152840000000.0,4,3.827731628,-1.1310990109999999,-1.5266012055,0.5588,1.1778,1.6529,-1.07480884,-3.3990829564999996,-9.135679006999998,-0.11711,0.35395,0.91569,0.006000000000000005,0.014100000000000001,-0.0016000000000000458,-0.0045436206128950385,-0.0062953394328226775,0.01964152001381647
152840000000.0,4,3.7364317165,-0.88129421555,-2.0612597635,0.61086,1.1582,1.6637,-1.0250891245,-3.436054027,-9.127637554,-0.11184,0.35798,0.93387,0.005700000000000038,0.014399999999999968,-0.0010999999999998789,-0.006317090646882906,-0.005084681796006851,0.02026513049298373
152840000000.0,4,3.6738652895,-0.6948796057,-2.5303118330000003,0.71495,1.1083,1.6789,-0.980665,-3.4819491489999996,-9.115085041999999,-0.10718,0.36298,0.95248,0.0052000000000000934,0.014399999999999968,-0.0009000000000001229,-0.007167978158265087,-0.004644381730139591,0.02079525220823575
152840000000.0,4,3.499601119,-0.42543209029999995,-2.9436621305,0.85512,1.0464,1.7135,-0.9438312225999999,-3.5402987164999997,-9.096452407,-0.10339,0.36935,0.97139,0.004999999999999893,0.01450000000000018,-0.00019999999999997797,-0.007821701452925267,-0.0021354569846201432,0.020593921468075038
152840000000.0,4,3.2756172329999997,-0.0657830082,-3.3262195469999996,0.99528,0.9866,1.7544,-0.9150781248000001,-3.6113969289999996,-9.0714454495,-0.10053,0.37714,0.99109,0.0043999999999999595,0.014499999999999957,9.999999999998899e-05,-0.010653502320984831,-0.003588883593538039,0.0210818331973468
152840000000.0,4,3.1752952035,0.20026159965,-3.5969811535,1.1165,0.95361,1.7771,-0.8928562559,-3.693968922,-9.040358369,-0.098445,0.38621,1.0111,0.0040000000000000036,0.014599999999999946,0.0005999999999999339,-0.011249768421150774,-0.0034927353242590886,0.02064040201145323
152840000000.0,4,3.139893197,0.34351714284999996,-3.5781523855,1.2158,0.95918,1.7772,-0.8732037292999999,-3.785955299,-9.0041718305,-0.096676,0.39635,1.0315,0.0037000000000000366,0.014599999999999946,0.000600000000000156,-0.01127532321149416,-0.0043086448088840434,0.020905660351970834
152840000000.0,4,3.1233199584999998,0.27304655595,-3.3802541885,1.2789,0.97786,1.7666,-0.8536296559,-3.8845121314999997,-8.9639645655,-0.094944,0.40728,1.0518,0.0035000000000000586,0.014800000000000146,0.0011999999999998678,-0.010571240378090985,-0.002407727650134195,0.02096265115341378
152840000000.0,4,3.1666653514999994,-0.0994982709,-3.2414900909999997,1.2555,0.97913,1.7559,-0.8349970208999999,-3.9832650969999994,-8.922286303,-0.093314,0.41826,1.0723,0.0030000000000001137,0.014999999999999902,0.0009000000000001229,-0.007358836495587662,-0.0007168153600156657,0.019134809001479347
152840000000.0,4,3.3484806424999998,-0.64940616965,-3.3719185359999995,1.1165,0.91211,1.7259,-0.8216599768999999,-4.0722114125,-8.883255836,-0.092233,0.42822,1.0923,0.0029999999999998916,0.015200000000000102,0.0010999999999998789,-0.0046231915919102695,-0.0005426057382134086,0.01701365335084626
152840000000.0,4,3.566678605,-1.1411998605,-3.7303515935,0.85312,0.76409,1.6627,-0.8191592811499999,-4.140759896,-8.8517764895,-0.092279,0.43591,1.1117,0.0030000000000001137,0.015399999999999858,0.0012000000000000899,0.0004887248262653854,0.0025054072800463345,0.015557733287257847
152840000000.0,4,3.650231263,-1.4958083245,-4.2791317275,0.46262,0.56601,1.5599,-0.8307409347999999,-4.1777309664999995,-8.8333399875,-0.093771,0.44007,1.1296,0.0028999999999999027,0.01540000000000008,0.0014000000000000679,0.004027079941258838,0.003789131896736464,0.01194392786046361
152840000000.0,4,3.537258655,-1.5510197639999999,-4.8332074525,-0.009567,0.39743,1.4089,-0.8530510635499999,-4.175279304,-8.832359322499999,-0.096284,0.4398,1.1456,0.0026999999999999247,0.015700000000000047,0.0011999999999998678,0.008755901395256727,0.0017384313248482997,0.011317091951103642
152840000000.0,4,3.270910041,-1.2053353515,-5.0891610174999995,-0.48272,0.35038,1.2203,-0.8745962735999999,-4.131737778,-8.8505996915,-0.098497,0.4349,1.159,0.0029000000000001247,0.015499999999999847,0.0015000000000000568,0.013868926320387498,0.00013970632373938585,0.010069220279315338
152840000000.0,4,2.7991121095000002,-0.6894761415499999,-4.947258792,-0.88281,0.49454,1.0208,-0.8788523597,-4.0522058465,-8.8868842965,-0.098572,0.42598,1.1699,0.0021999999999999797,0.01550000000000007,0.0013000000000000789,0.009435245907868595,-0.008544292328357184,0.008877110353160855
152840000000.0,4,2.3095641414999997,-0.12088657454999999,-4.4550630285,-1.1546,0.80387,0.82766,-0.8495795094499999,-3.9468824254999997,-8.937094344499998,-0.094778,0.41421,1.1781,0.0022999999999999687,0.01540000000000008,0.0016999999999998128,0.017171100154927954,-0.009631796908735168,0.010487741792514438
152840000000.0,4,1.8635576994999998,0.57618972075,-3.8319484874999996,-1.2947,1.2016,0.66981,-0.7783734238,-3.827339362,-8.9953458455,-0.086316,0.40094,1.1845,0.0021999999999999797,0.014899999999999913,0.0023000000000001908,0.014103638226234505,-0.01458755079753482,0.012129052153368569
152840000000.0,4,1.4132363314999998,1.2095522109999999,-3.108904183,-1.3187,1.6185,0.57937,-0.6638709784,-3.703775572,-9.056049008999999,-0.073177,0.38729,1.1897,0.0018000000000000238,0.014899999999999913,0.0023999999999999577,0.017106645714022095,-0.015227984422439889,0.013628929947739454
152840000000.0,4,1.0243045925,1.5795571154999999,-2.2383678625,-1.2528,1.9846,0.57457,-0.5125151423,-3.5850170405,-9.113515978,-0.056178,0.37424,1.1949,0.0015000000000000568,0.014800000000000146,0.0025999999999999357,0.011360459697651093,-0.017942482984368402,0.013905376320146434
152840000000.0,4,0.7396371562999999,1.6902741940000001,-1.351944769,-1.1414,2.2223,0.64693,-0.33576988934999996,-3.4749864274999998,-9.164118292,-0.036623,0.36222,1.2009,0.0009999999999998899,0.014699999999999935,0.0023999999999999577,0.013251458559728535,-0.014934308880699465,0.01611634557147479
152840000000.0,4,0.63589260595,1.6024066099999998,-0.5214391937999999,-1.0081,2.286,0.76873,-0.15121854299999998,-3.3774102599999996,-9.2054042885,-0.016426,0.3516,1.2084,0.0008000000000001339,0.014699999999999935,0.0023999999999999577,0.00836983912991629,-0.014963697631920514,0.015464408575035726
152840000000.0,4,0.6269783611,1.3287030085,0.26659378024999997,-0.86463,2.1739,0.92075,0.023643833149999998,-3.2937595355,-9.236883635,0.00256,0.34253,1.2176,0.0008999999999999009,0.01450000000000018,0.0029000000000001247,0.009176610368852423,-0.008880320126669616,0.016739128086576294
152840000000.0,4,0.5045325292,1.0355822399999999,0.87329198915,-0.73819,1.9382,1.0762,0.17527425545,-3.2235439214999997,-9.260027329,0.018926,0.33494,1.2287,0.00019999999999997797,0.014799999999999924,0.0019000000000000128,0.006620868906191513,-0.007723080951594907,0.015323991945355608
152840000000.0,4,0.29550378445,0.8927581894,1.3425303849999999,-0.62163,1.6431,1.1932,0.29750434104999995,-3.1658808195,-9.276796700499998,0.032059,0.32872,1.2411,0.0006999999999999229,0.014399999999999968,0.0026999999999999247,0.0019384162954916295,-0.006265885645427405,0.01606303399938591
152840000000.0,4,0.13884255069999998,0.9557070757499999,1.772453921,-0.49955,1.333,1.2484,0.38952994464999996,-3.1209663624999995,-9.288564680499999,0.041912,0.32388,1.2543,0.0009000000000001229,0.01419999999999999,0.0027000000000001467,0.004017015919021594,-0.0025917667744495,0.014328904577975532
152840000000.0,4,0.07118647234999999,1.0088100855,2.118040267,-0.37604,1.0368,1.2524,0.45358698245,-3.0884082845,-9.2966061335,0.048752,0.32039,1.2676,-0.00029999999999996696,0.015000000000000124,0.0006999999999999229,0.0008473952298320153,-0.0029904657432795467,0.013749634079309292
152840000000.0,4,0.00234378935,1.0017492975,2.3606567879999996,-0.25227,0.75127,1.2232,0.49205847039999995,-3.0679123859999997,-9.301411391999999,0.052852,0.31818,1.2807,0.00029999999999996696,0.014599999999999946,0.0011999999999998678,0.001089618690383043,0.0008621785873306198,0.011802916219936233
152840000000.0,4,-0.09729177464999998,1.1062881864999998,2.5229568455,-0.14192,0.50747,1.1672,0.5083473160499999,-3.058105736,-9.303764988,0.054585,0.31713,1.2931,0.0006999999999999229,0.014100000000000001,0.0016000000000000458,-0.0016133260473625288,0.0020837168376883763,0.01094271800823332
152840000000.0,4,-0.21868829499999998,1.342334252,2.6733908565,-0.026696,0.32651,1.092,0.5085336424,-3.058694135,-9.303568855,0.054606,0.3172,1.3048,0.000700000000000145,0.014000000000000012,0.001100000000000101,-0.0029797598800858083,0.0007925791575367214,0.009486516525520905
152840000000.0,4,-0.34349752955,1.584558507,2.802936703,0.080581,0.21277,1.0038,0.49911925839999993,-3.0689911175,-9.3007249265,0.053614,0.3183,1.3154,0.0007999999999999119,0.013900000000000023,0.0009999999999998899,-0.0017169851734419872,0.0005221847417749004,0.008803350818541666
152840000000.0,4,-0.42120542415,1.7160656834999999,2.8049960995,0.17866,0.15556,0.92825,0.48569395455,-3.088114085,-9.2950370695,0.052206,0.32035,1.3253,0.0008999999999999009,0.013699999999999823,0.0009000000000001229,-0.0031783543172814177,0.0026613882704313863,0.009397865766416214
152840000000.0,4,-0.44991929535,1.7413668405,2.7185014465,0.25973,0.11978,0.87828,0.46996408795,-3.1146901065,-9.2869956165,0.050562,0.32321,1.3344,0.0008000000000001339,0.013700000000000045,0.0004999999999999449,-0.004649196662225963,0.002003706603919575,0.008483592704316312
152840000000.0,4,-0.43775904934999993,1.7327369885000001,2.5368822884999997,0.3235,0.081968,0.86565,0.45122357979999994,-3.1473462509999997,-9.276894767,0.048601,0.32672,1.3434,0.00029999999999996696,0.013900000000000023,-0.00019999999999997797,-0.0050174866246393,-6.78582062705324e-05,0.009037896414838542
152840000000.0,4,-0.42187227634999996,1.768531261,2.2968154965,0.3765,0.050609,0.88501,0.42875654465,-3.185003787,-9.265126787,0.046244,0.33078,1.3523,0.0008999999999999009,0.013100000000000112,0.0004999999999999449,-0.0068745256271811606,0.001616390932941858,0.009369618839215832
152840000000.0,4,-0.4520277251,1.8612041034999998,1.9655468594999999,0.42418,0.035253,0.92782,0.4027983421,-3.2270743154999995,-9.251691676499998,0.04351,0.33532,1.3618,0.001000000000000112,0.012899999999999912,0.00039999999999995595,-0.00625472155599982,0.0038254437933025187,0.009260253013632536
152840000000.0,4,-0.49538292474999995,1.9841794945,1.5328774615,0.4605,0.062625,0.96199,0.37656555335,-3.2725771715,-9.2367855685,0.040746,0.34024,1.3716,0.0006999999999999229,0.012899999999999912,9.999999999998899e-05,-0.005715684596135695,-0.0008233679424245466,0.009621321395042681
152840000000.0,4,-0.56612809785,2.0912681125,1.1588518305,0.5135,0.15596,0.96619,0.35663844054999994,-3.3220026875,-9.219918130499998,0.038662,0.34559,1.3816,0.0009000000000001229,0.012500000000000178,0.000300000000000189,-0.00520326615239175,0.00037090376385129353,0.010604898694740239
152840000000.0,4,-0.6170932578999999,2.1650141205,0.9083507628999999,0.59147,0.28534,0.94368,0.3480380085,-3.3779986589999997,-9.1999125645,0.037813,0.35166,1.3914,0.0007999999999999119,0.012499999999999956,9.999999999998899e-05,-0.008742049595363621,-0.003489699124209489,0.010411114648189113
152840000000.0,4,-0.5561449281499999,2.1458911529999996,0.6556137791,0.6875,0.39648,0.90843,0.35098981015,-3.44213415,-9.1759843385,0.038233,0.35864,1.4009,0.0008000000000001339,0.0121,9.999999999998899e-05,-0.007539442178746691,-0.0014925595348611598,0.009669493697558096
152840000000.0,4,-0.44609470185,1.9518175495,0.38448932654999995,0.77888,0.46715,0.88071,0.36155157219999995,-3.51470336,-9.148035386,0.039502,0.36656,1.4099,0.0009999999999998899,0.0121,0.00029999999999996696,-0.0075359507200245535,-0.0008695387790673692,0.010292215228758117
152840000000.0,4,-0.235555733,1.600641413,0.04839581775,0.83586,0.49656,0.84126,0.37621251395,-3.5931565599999997,-9.116850239,0.041242,0.37514,1.4187,0.0008999999999999009,0.011869999999999936,5.0000000000105516e-05,-0.008023490653462195,-0.0025732051722175964,0.007748640019014541
152840000000.0,4,0.1011261748,1.2553492665000001,-0.4165276521,0.83082,0.48389,0.76442,0.39222677339999995,-3.6724923584999996,-9.0845863605,0.043149,0.38385,1.4266,0.0009000000000001229,0.011950000000000016,4.999999999988347e-05,-0.007544907778665122,-0.0028413540059526454,0.006808283733718223
152840000000.0,4,0.43162989309999994,0.91351886745,-1.009496551,0.74667,0.43461,0.65762,0.40754476069999995,-3.7454538344999997,-9.054087678999998,0.044982,0.39188,1.4336,0.0008999999999999009,0.011870000000000047,9.999999999998899e-05,-0.004335615943189097,-0.0013198929496642808,0.005641077951706208
152840000000.0,4,0.61061106225,0.4584020476,-1.577497719,0.60266,0.37091,0.54861,0.4208425781,-3.8057647319999997,-9.028198123,0.04658,0.39855,1.4394,0.001000000000000112,0.011869999999999936,9.999999999998899e-05,-0.0030716165727255884,-0.0019169108662762113,0.005914048851085596
152840000000.0,4,0.56516704615,0.0885540495,-1.905824361,0.43728,0.32333,0.47262,0.43216925884999996,-3.8510714549999996,-9.0084867565,0.047937,0.40356,1.4444,0.0009999999999998899,0.011870000000000047,0.00019999999999997797,-0.0016813423356507595,-0.0011835836345870376,0.004680758360364301
152840000000.0,4,0.36392478149999996,-0.057967108149999995,-2.0024198635,0.28259,0.29376,0.42117,0.44246624134999996,-3.881864336,-8.9947574465,0.049152,0.40698,1.4488,0.001100000000000101,0.011689999999999978,0.00039999999999995595,0.0015421934443147212,0.0007060989411664664,0.003797161597897336
152840000000.0,4,0.18285479589999998,-0.03766734265,-2.0822459944999996,0.13227,0.27693,0.37184,0.45281225709999995,-3.8988298404999995,-8.986912126499998,0.050343,0.40887,1.4529,0.00039999999999995595,0.012519999999999976,-0.0008999999999999009,-0.007548084842492031,-0.016770677568856085,0.0069383472849402494
152840000000.0,4,0.1676544884,-0.00057859235,-2.2277766805,-0.025507,0.25485,0.30969,0.46337401915,-3.901673769,-8.985146929499999,0.051525,0.40918,1.4563,0.0012000000000000899,0.011750000000000038,0.0005999999999999339,0.003536238944879866,-0.0004200390649420349,0.0024438198738980788
152840000000.0,4,0.2752334389,-0.08902476869999999,-2.4039041144999995,-0.19273,0.24565,0.23791,0.47549503854999997,-3.8894154565,-8.9898541215,0.052844,0.40782,1.4592,0.0011999999999998678,0.011680000000000024,0.00039999999999995595,0.006744186800506924,-2.155997768849005e-05,0.0017375715596203989
152840000000.0,4,0.4447315775,-0.19869253565,-2.5102082004999997,-0.37354,0.27172,0.16603,0.49184272409999996,-3.860878105,-9.001229835499998,0.054588,0.40465,1.4612,0.001000000000000112,0.011719999999999953,0.000500000000000167,0.0072535667727637865,-0.0027127236033239743,0.0027573539426235527
152840000000.0,4,0.5130839279999999,-0.15123815629999998,-2.4709816005,-0.56024,0.37241,0.11109,0.5180657061999999,-3.8150810495,-9.0192740715,0.057377,0.39958,1.4628,0.0010999999999998789,0.011600000000000055,0.0005999999999999339,0.008768264517215574,-0.00401251420686366,0.002631819037720362
152840000000.0,4,0.4625796804999999,0.0335191297,-2.2277766805,-0.73189,0.52089,0.10519,0.5577924453499999,-3.753201088,-9.0428100315,0.061606,0.39274,1.4643,0.0008000000000001339,0.01158999999999999,0.0004999999999999449,0.010566257912616006,-0.0033792939605785666,0.0038092695289622114
152840000000.0,4,0.38203766404999995,0.1642810008,-1.880130938,-0.87616,0.65948,0.16127,0.6094636842,-3.6775918164999997,-9.0704647845,0.067091,0.38441,1.4664,0.0005999999999999339,0.011660000000000004,0.0006999999999999229,0.012711291914914602,-0.0033214185614256486,0.005907159506932658
152840000000.0,4,0.28063690305,0.09895890514999998,-1.4981619204999999,-0.97545,0.73369,0.2944,0.6658225017499999,-3.5923720279999998,-9.100669266499999,0.073032,0.37505,1.4697,0.00039999999999995595,0.011599999999999944,0.000700000000000145,0.009121580280916586,-0.0019716453663616296,0.007677709011292944
152840000000.0,4,0.2690160228,-0.10084178195,-1.0237161934999999,-1.017,0.72211,0.48648,0.7170916679499999,-3.503327646,-9.1314621475,0.07837,0.36531,1.4752,-9.999999999998899e-05,0.01165000000000005,0.0007999999999999119,0.008399429278530768,0.00092407290826646,0.009908091123494778
152840000000.0,4,0.24802979179999998,-0.26445593055,-0.5296081332499999,-0.98492,0.61717,0.72261,0.7533468529999999,-3.417225259,-9.1610782305,0.082049,0.35593,1.4829,-9.999999999998899e-05,0.011629999999999918,0.0008000000000001339,0.006524521649468484,0.001271643358684793,0.011035125306861016
152840000000.0,4,0.31282232834999996,-0.2909633055,0.03678474415,-0.87627,0.47218,0.95361,0.7699495114499999,-3.340733389,-9.187850384999999,0.083606,0.34762,1.4932,-0.00039999999999995595,0.011580000000000035,0.0009999999999998899,0.0038416316708478337,0.004567802788296937,0.012007724256898555
152840000000.0,4,0.48602738065,-0.19662333249999997,0.56569660525,-0.70261,0.28727,1.1378,0.7644872074,-3.2802263584999998,-9.210111480499998,0.082816,0.34106,1.5053,-0.0004999999999999449,0.011560000000000015,0.001100000000000101,0.0022032038504651297,0.00606016171402568,0.01168895268102288
152840000000.0,4,0.7307032981499999,-0.04935686945,0.9531475401,-0.50092,0.087307,1.2367,0.7375385332,-3.2384500295,-9.227076984999998,0.079762,0.33655,1.5187,-0.000700000000000145,0.011539999999999995,0.0010999999999998789,0.00010083335770261215,0.006894264611531309,0.01039770778685023
152840000000.0,4,1.1350216709999998,0.05447594075,1.2274003139999998,-0.28919,-0.10946,1.2545,0.69135901835,-3.2158947345,-9.2385507655,0.074695,0.33411,1.5321,-0.0007999999999999119,0.011660000000000004,0.0012000000000000899,-0.003241774839367828,0.008098656638218404,0.011198306247413914
152840000000.0,4,1.5215017475000001,0.02711538725,1.5727905269999998,-0.079117,-0.26781,1.237,0.63010668245,-3.2119720744999998,-9.2442386225,0.068057,0.33369,1.5453,-0.0009000000000001229,0.011680000000000024,0.0009999999999998899,-0.0018280371979790822,0.008223139487390618,0.009519333949495223
152840000000.0,4,1.814622516,-0.21283372495,1.958780271,0.10682,-0.37163,1.2258,0.55816509805,-3.2251129854999996,-9.244336689,0.060306,0.3351,1.5581,-0.0012999999999998568,0.011850000000000027,0.0009000000000001229,-0.008407282424783391,0.006827933987674895,0.010597980160056863
152840000000.0,4,2.123531991,-0.5830641824,2.303582085,0.25688,-0.41869,1.2272,0.48045720345,-3.2519832065,-9.239237230999999,0.051955,0.33801,1.5709,-0.0016000000000000458,0.012029999999999985,0.0007999999999999119,-0.0035405433483159943,0.008874617752901992,0.01108374770015308
152840000000.0,4,2.4402867859999997,-0.9351523373499999,2.5861116715,0.36027,-0.41743,1.2498,0.40086643204999994,-3.2886600774999994,-9.2301170465,0.043403,0.34198,1.5838,-0.0018000000000000238,0.012409999999999921,0.0006999999999999229,-0.005517353332278319,0.008011673572123845,0.011740034674609934
152840000000.0,4,2.6822168414999994,-1.2470136139999999,2.8483414925,0.41382,-0.36464,1.2936,0.3232860239,-3.3305344729999997,-9.218054867,0.035056,0.34651,1.5972,-0.0021999999999999797,0.01261000000000001,0.000300000000000189,-0.00479294274063502,0.0056110070755108765,0.012105454558645423
152840000000.0,4,2.8552061475,-1.4800196179999998,3.0650684575,0.42056,-0.28271,1.3553,0.25025590135,-3.373291467,-9.204815889499999,0.027181,0.35115,1.6112,-0.0025999999999999357,0.012900000000000023,-0.0001500000000000945,-0.005316809247946752,0.005913238950884692,0.0134425496761863
152840000000.0,4,3.0230959955,-1.6170185185,3.1919665084999997,0.38464,-0.1951,1.4245,0.18249194985,-3.4129103329999997,-9.191773045,0.019851,0.35545,1.6261,-0.0030000000000001137,0.013129999999999975,-0.0001500000000000945,-0.003616063475779141,0.005764262880539883,0.014113355048481768
152840000000.0,4,3.1486211155,-1.6464384685,3.2510025415,0.32194,-0.12326,1.4926,0.11898408444999999,-3.4462529429999997,-9.180397331,0.01296,0.35909,1.6416,-0.0032999999999998586,0.013440000000000007,-0.0006999999999999229,-0.003692781881077467,0.005835078608733335,0.013959331062198377
152840000000.0,4,3.2391364949999994,-1.593580625,3.270910041,0.25057,-0.071592,1.5532,0.057986721449999994,-3.4722405655,-9.17117908,0.006322,0.36192,1.658,-0.0038000000000000256,0.01371,-0.0007999999999999119,-0.0029131714605474812,0.005684297925701687,0.01629406718388715
152840000000.0,4,3.307586912,-1.4534435965,3.2518851399999997,0.20378,-0.020107,1.6021,-0.00075511205,-3.4922461314999995,-9.163726025999999,-8.2e-05,0.36411,1.6749,-0.0040000000000000036,0.013800000000000034,-0.001100000000000101,-0.0013915980675314188,0.004860787259851618,0.015702182049479596
152840000000.0,4,3.345048315,-1.217005265,3.2418823569999997,0.20749,0.066139,1.6372,-0.054024834849999995,-3.5104865005,-9.156665237999999,-0.0059,0.36609,1.6924,-0.0044999999999999485,0.013819999999999943,-0.0012999999999998568,-0.004074970498320951,0.002886007714879568,0.017149162581161725
152840000000.0,4,3.3861381784999995,-0.9746241036,3.1860825185,0.26809,0.19348,1.6712,-0.09804688669999999,-3.5320611305,-9.1479373195,-0.010717,0.36845,1.7101,-0.0048000000000001375,0.014070000000000027,-0.0013000000000000789,-0.0046531277026058415,0.0015580757686417535,0.017776227152335178
152840000000.0,4,3.509015503,-0.7903081168499999,3.142639059,0.38437,0.34061,1.6968,-0.130232312,-3.562363679,-9.1357770735,-0.014255,0.37176,1.7283,-0.005400000000000071,0.013979999999999992,-0.0015000000000000568,-0.006075591233035027,0.000671948902032149,0.019422132935314806
152840000000.0,4,3.6234591084999996,-0.64738599975,2.98906692,0.52281,0.46517,1.7353,-0.15213056145,-3.6044342074999998,-9.119007702,-0.016681,0.37637,1.7467,-0.005599999999999827,0.014050000000000007,-0.0016000000000000458,-0.007078152924039793,0.000562440413779397,0.01895746114111274
152840000000.0,4,3.6203209805,-0.4433782598,2.5523767955,0.63521,0.54624,1.7908,-0.1684390204,-3.6570959179999996,-9.097629204999999,-0.018513,0.38216,1.7659,-0.006099999999999994,0.013909999999999978,-0.0017000000000000348,-0.007393524532891771,-0.0005699226340174501,0.02000076956543495
152840000000.0,4,3.6316966944999995,-0.13554751629999998,1.8838574649999997,0.70358,0.59357,1.8496,-0.1831097688,-3.7167203499999997,-9.0732106465,-0.020179,0.38872,1.7857,-0.006600000000000161,0.013870000000000049,-0.0015999999999998238,-0.006697991257172076,0.0007248021081238676,0.020667887388001738
152840000000.0,4,3.8237109014999997,0.17003750434999998,1.034405442,0.73113,0.59862,1.8966,-0.19935938784999999,-3.7789925775,-9.0471249575,-0.022032,0.39559,1.8063,-0.006999999999999895,0.013599999999999945,-0.0017000000000000348,-0.006286485334007441,0.0018642798735835076,0.020885483676653216
152840000000.0,4,3.972085516,0.43886720079999997,0.054446520799999995,0.72857,0.57408,1.9414,-0.22056136515,-3.8410686719999996,-9.0204508695,-0.024446,0.40245,1.8273,-0.007400000000000073,0.013330000000000064,-0.0015000000000000568,-0.007219632712704982,0.0011834023716312814,-6.261857141336032
152840000000.0,4,4.137425635,0.633117324,-0.8937584676999999,0.72393,0.5549,1.9852,-0.24671570069999998,-3.901673769,-8.993678715,-0.027425,0.40918,1.849,-0.007900000000000018,0.01305999999999996,-0.0013000000000000789,-0.006879659922258474,0.0016499290821072599,0.021905887218718778
152840000000.0,4,4.260597159,0.7763434472499999,-1.6191759815,0.76126,0.59289,2.0482,-0.2746842665,-3.963651797,-8.965729762499999,-0.030627,0.41608,1.8713,-0.008299999999999974,0.012620000000000076,-0.0009999999999998899,-0.00909844798895354,0.0007543112390848705,0.024161881574856547
152840000000.0,4,4.197050067,0.8365268583,-1.997222339,0.85033,0.71141,2.1357,-0.2984359728,-4.0314157485,-8.9347407485,-0.033389,0.42365,1.8947,-0.00869999999999993,0.012309999999999932,-0.0007999999999999119,-0.008808703766687298,-0.0005185492075963083,0.02600440744502297
152840000000.0,4,4.035436474999999,0.81302031825,-2.2311109415,0.96206,0.8649,2.2295,-0.3146561719,-4.1082018179999995,-8.899142609,-0.035343,0.43225,1.9192,-0.009000000000000119,0.011929999999999996,-0.000400000000000178,-0.009694226063385658,-0.0018413603538394163,0.02535383416582304
152840000000.0,4,3.9837554294999995,0.79403464385,-2.63798885,1.0131,1.0072,2.2774,-0.32253091185,-4.190381545,-8.8604063415,-0.036385,0.4415,1.9447,-0.009299999999999864,0.01162000000000002,-0.00039999999999995595,-0.008915192655347237,-0.0027930974589143176,0.025368754144847294
152840000000.0,4,4.1079076185,0.7552297297999999,-3.1373434679999996,0.96835,1.1249,2.2355,-0.32085397469999993,-4.270207676,-8.822258473,-0.036352,0.45053,1.9699,-0.009400000000000075,0.011419999999999986,-5.0000000000105516e-05,-0.006002690251361242,-0.0038600102340269338,0.02438238317036978
152840000000.0,4,4.2206840935,0.6442969049999999,-3.3642693489999997,0.85254,1.2463,2.1187,-0.3064185859,-4.341403955,-8.787935198,-0.034854,0.45861,1.9942,-0.009700000000000042,0.011220000000000008,-4.999999999988347e-05,-0.0057870730895404066,-0.005523243181223547,0.023557780685961482
152840000000.0,4,4.192539008,0.33798619225,-3.2827760875,0.70384,1.3692,1.9699,-0.27671424305,-4.400636121,-8.759495913,-0.03158,0.46536,2.0168,-0.00990000000000002,0.011149999999999993,0.00019999999999997797,-0.0026325755191114464,-0.004817121230592747,0.022485375722095302
152840000000.0,4,4.1975403995,-0.069431082,-3.0893889494999995,0.53037,1.4528,1.8018,-0.23264315794999998,-4.44633511,-8.7376270835,-0.026619,0.47058,2.0377,-0.010199999999999987,0.011039999999999994,9.999999999998899e-05,-0.0006656122423704947,-0.0071576999540095,0.01952058176153093
152840000000.0,4,4.290703574499999,-0.49716773504999995,-2.996127708,0.32431,1.4569,1.6211,-0.17938324179999998,-4.4758531265,-8.723799707,-0.020559,0.47396,2.0564,-0.010399999999999965,0.011070000000000024,0.00039999999999995595,0.0022742865086067265,-0.004730377171254352,0.017525577149797744
152840000000.0,4,4.364841848499999,-0.8393904001,-3.0105434835,0.074876,1.3739,1.4425,-0.12390702275,-4.485757843,-8.719680914,-0.01421,0.47509,2.0731,-0.010599999999999943,0.01097999999999999,0.000300000000000189,0.004038158283066862,-0.004385657693229517,0.015091347643606312
152840000000.0,4,4.3014908895,-1.0051816249999999,-3.0928212769999996,-0.21237,1.2389,1.2736,-0.0717258381,-4.4723227324999995,-8.727133968,-0.008218,0.47355,2.0878,-0.010699999999999932,0.011060000000000014,0.0005999999999999339,0.009098262484406039,-0.0037910375174901034,0.013758502914110071
152840000000.0,4,4.080154799,-0.94338992335,-3.1747068045,-0.53143,1.1341,1.1142,-0.02209438245,-4.432311600499999,-8.7478259995,-0.002526,0.46898,2.1007,-0.01100000000000012,0.01090000000000002,0.00039999999999995595,0.011144602841901552,-0.00596465754594222,0.012227353155655596
152840000000.0,4,3.757123748,-0.7092071213499999,-3.1360686035,-0.85491,1.1423,0.9514,0.033450483149999995,-4.364743782,-8.781658942,0.003809,0.46126,2.1117,-0.01089999999999991,0.010649999999999993,0.0004999999999999449,0.01740945678458794,-0.006867055132109279,0.010084484131699156
152840000000.0,4,3.3210220225,-0.35391219185,-3.0646761915,-1.1752,1.2815,0.79583,0.10656886554999999,-4.2687366785,-8.828240529499999,0.01207,0.45036,2.1211,-0.011500000000000066,0.010720000000000007,0.000300000000000189,0.015884088857576417,-0.013847445173394535,0.012830926058629899
152840000000.0,4,2.882958967,0.09186869719999999,-2.9689632875,-1.4722,1.543,0.65502,0.20805788639999998,-4.1455651545,-8.8849229665,0.023413,0.43645,2.1289,-0.011299999999999866,0.01043999999999995,0.0006999999999999229,0.021780288423403293,-0.014212437887147544,0.012112869240035629
152840000000.0,4,2.5014802819999997,0.44546707625,-2.7107541929999996,-1.707,1.8743,0.5537,0.34419380169999997,-3.9996422024999996,-8.9472932605,0.03845,0.4201,2.1358,-0.011500000000000066,0.010000000000000009,0.00039999999999995595,0.019499896842026354,-0.01801534754256595,0.012976557501128916
152840000000.0,4,2.0473343205,0.7428341242,-2.2724950044999996,-1.8451,2.1973,0.52193,0.5140351730499999,-3.8385189429999995,-9.009565488,0.056993,0.40218,2.1423,-0.011600000000000055,0.009810000000000041,0.0009000000000001229,0.01983768864278246,-0.017275229465861797,0.014690793183868678
152840000000.0,4,1.5960322875,0.993413645,-1.6250599714999998,-1.8615,2.4393,0.56204,0.70942286765,-3.6730807574999997,-9.065071127,0.0781,0.38392,2.1496,-0.011600000000000055,0.009440000000000004,0.0008999999999999009,0.01912464870329278,-0.019632590643126502,0.014341729149648597
152840000000.0,4,1.3237016169999998,1.0057700239999998,-0.89023788035,-1.779,2.5365,0.64954,0.916529509,-3.5140168944999997,-9.109397184999999,0.10028,0.36648,2.158,-0.011900000000000022,0.009099999999999997,0.001100000000000101,0.015525998250885742,-0.01667827137582445,0.015632504714313544
152840000000.0,4,1.101482928,0.9506370376999999,-0.27094793285,-1.6363,2.4468,0.77056,1.1176639005,-3.368584275,-9.1418571965,0.12165,0.35065,2.1678,-0.012199999999999989,0.00874999999999998,0.0007999999999999119,0.008744971508100052,-0.01622440183070739,0.014586194750942028
152840000000.0,4,0.8431953803,0.9852741254999999,0.20483149855,-1.4641,2.1905,0.91221,1.296046864,-3.2410978249999998,-9.164412491499998,0.14049,0.33683,2.1791,-0.01200000000000001,0.008579999999999977,0.0010999999999998789,0.00893928303648206,-0.007941123402199324,0.01566348510439841
152840000000.0,4,0.61176824695,1.0293059839999998,0.57222783415,-1.2821,1.8117,1.0477,1.4391258875,-3.1330285419999995,-9.180593464,0.1555,0.32518,2.1917,-0.011900000000000022,0.008370000000000044,0.0014000000000000679,0.008518372125051688,-0.006259909194172186,0.015221901493278622
152840000000.0,4,0.35387296524999995,1.0395048999999998,0.8805489101499999,-1.0823,1.3975,1.1747,1.5417034465,-3.0460435565,-9.1932440425,0.16616,0.31583,2.2055,-0.0118999999999998,0.00827,0.0012000000000000899,0.003611606460301786,-0.0004583185543289847,0.015022036675850892
152840000000.0,4,0.0242028122,1.1275686169999999,1.2583893279999998,-0.85217,1.0183,1.275,1.606133137,-2.9818099989999998,-9.203246825499999,0.17277,0.30895,2.2201,-0.011900000000000022,0.008089999999999986,0.0012999999999998568,0.002268406550612667,-0.001756281635668211,0.015156204066241408
152840000000.0,4,-0.32578671965,1.342922651,1.6870379994999998,-0.59359,0.71239,1.3518,1.638691215,-2.942779532,-9.210111480499998,0.17608,0.30477,2.235,-0.011700000000000044,0.007909999999999973,0.001100000000000101,-0.0018935413929068723,0.0011110588105265329,0.015142070786882122
152840000000.0,4,-0.6760116111,1.5410169809999998,2.0549835075,-0.33121,0.47147,1.4114,1.6464384685,-2.9291482885,-9.213053475499999,0.17684,0.30332,2.2502,-0.011500000000000066,0.007860000000000034,0.0010999999999998789,-0.003931567422050142,0.004554164206371114,0.014771628648501345
152840000000.0,4,-0.9248161282499999,1.6157436539999999,2.2193429614999998,-0.099382,0.26068,1.4389,1.6331014245,-2.9385626725000003,-9.21236701,0.17544,0.30432,2.2652,-0.011299999999999866,0.007869999999999988,0.001000000000000112,-0.004432689266600676,0.00410000635214014,0.01373745020353967
152840000000.0,4,-1.0528419439999999,1.6710531599999998,2.1966896,0.084741,0.071616,1.4417,1.601229812,-2.965727093,-9.2093269485,0.17215,0.30723,2.2801,-0.011200000000000099,0.007789999999999991,0.0007999999999999119,-0.006763428560762286,0.005340804107751174,0.013511391829565511
152840000000.0,4,-1.1924886399999999,1.696746583,2.1860003514999997,0.22656,-0.076598,1.4358,1.5542559584999998,-3.0062285574999996,-9.2042274905,0.16729,0.31157,2.2945,-0.01089999999999991,0.007780000000000009,0.000600000000000156,-0.005789579477004869,0.005641210195184376,0.013376352531653701
152840000000.0,4,-1.3145814325,1.672033825,2.157266867,0.33252,-0.17443,1.4254,1.4967889894999997,-3.056536672,-9.197166702499999,0.16133,0.31696,2.3088,-0.010900000000000132,0.007739999999999997,0.00029999999999996696,-0.007357325147476557,0.005306857422516353,0.012976924639989562
152840000000.0,4,-1.3580248919999998,1.7110642919999999,2.0587100345,0.41,-0.2294,1.4171,1.4332418974999999,-3.1133171754999998,-9.188242651,0.15474,0.32306,2.3228,-0.010399999999999965,0.007690000000000002,0.00019999999999997797,-0.007180678104990346,0.007961383692802082,0.013274194428416486
152840000000.0,4,-1.3691064065,1.8113863215000001,1.792263354,0.45344,-0.27131,1.4109,1.3649876135,-3.1739222724999996,-9.177847602,0.14764,0.32958,2.3369,-0.010299999999999976,0.007610000000000006,-0.0001500000000000945,-0.006782230452009097,0.00732665085231976,0.012517951483115297
152840000000.0,4,-1.3232112845,1.9006268365,1.3334102005,0.46915,-0.32044,1.3939,1.2919280709999998,-3.235213835,-9.167060287,0.14001,0.3362,2.3508,-0.010399999999999965,0.007509999999999989,-0.00014999999999987246,-0.006377784691080857,0.008216942428564522,0.012235354268564702
152840000000.0,4,-1.2374030969999998,1.9619183989999998,0.83390848275,0.47944,-0.37593,1.3812,1.213474871,-3.2962111979999995,-9.1559787725,0.13177,0.3428,2.3647,-0.010000000000000009,0.00741,-0.00029999999999996696,-0.008428606825393814,0.007243463009609652,0.0125382795083544
152840000000.0,4,-1.315071765,2.0326243455,0.36899481954999996,0.51336,-0.3954,1.3941,1.1311970775,-3.358581492,-9.143916593,0.12308,0.34955,2.3786,-0.009500000000000064,0.007360000000000005,-9.999999999998899e-05,-0.010205929993296614,0.006054007314909127,0.014056589375168294
152840000000.0,4,-1.4404988184999998,2.053708643,0.09454591265,0.61621,-0.3302,1.4155,1.0509786804999999,-3.4275222414999997,-9.127833687,0.11463,0.35705,2.3928,-0.009300000000000086,0.007300000000000001,0.00019999999999997797,-0.011980689620146423,0.0027823896024001815,0.013978796181523645
152840000000.0,4,-1.5564134214999998,2.03782187,0.1268588244,0.79464,-0.16118,1.4198,0.982430197,-3.5100942345,-9.104101594,0.10749,0.36606,2.407,-0.008999999999999897,0.007319999999999993,0.00014999999999987246,-0.012519836571393883,0.00285946847969365,0.013141973344219515
152840000000.0,4,-1.512969962,1.9569170075,0.18207026389999997,0.98469,0.086664,1.3621,0.9352504038499999,-3.6088471999999996,-9.070366717999999,0.10275,0.37685,2.4207,-0.008499999999999952,0.007340000000000013,0.0001500000000000945,-0.012323966957836108,-0.003815749419643355,0.011834045162050444
152840000000.0,4,-1.1561059685,1.8062868634999998,0.011964112999999998,1.1058,0.32132,1.2092,0.9134502209,-3.718485547,-9.028198123,0.10083,0.38891,2.4329,-0.008299999999999974,0.007539999999999991,-0.0001500000000000945,-0.008612551081791597,-0.0009439142359497499,0.010903171871973427
152840000000.0,4,-0.6440811586999999,1.4783524874999998,-0.3896182045,1.094,0.45591,0.99335,0.9126754955499999,-3.8278296944999997,-8.982499134,0.10126,0.40099,2.443,-0.008399999999999963,0.007599999999999996,-0.00014999999999987246,-0.011072325298205232,-0.003154495482761366,0.007286155768764679
152840000000.0,4,-0.07672722959999999,0.95806067175,-0.9467241843499999,0.94356,0.42864,0.74337,0.921432834,-3.9240329309999997,-8.939938273,0.10271,0.41167,2.4506,-0.008099999999999996,0.007840000000000014,-9.999999999998899e-05,-0.004818939495640384,-1.7947330714918053e-05,0.0031491231893934213
152840000000.0,4,0.35655998735,0.4255497701,-1.5215017475000001,0.67874,0.24566,0.49346,0.9259831195999999,-3.9962098749999995,-8.9074782615,0.10358,0.41971,2.4558,-0.008200000000000207,0.008069999999999994,-0.000500000000000167,-0.000743008230418063,0.002485941276920478,0.0008257165447229653
152840000000.0,4,0.59684252565,0.14942392605,-1.9069030925,0.34724,0.009939,0.26487,0.91928517765,-4.037593938,-8.889532092,0.10305,0.42434,2.4588,-0.008099999999999996,0.008029999999999982,-0.0005999999999999339,0.000753211378193841,0.0015292553732961789,-0.0013259634781510599
152840000000.0,4,0.57014882435,0.14703110344999998,-2.0030082625,0.009333,-0.19489,0.087461,0.9010938418999999,-4.046910255499999,-8.887178496,0.10105,0.42538,2.4601,-0.007799999999999807,0.008180000000000007,-0.0004999999999999449,0.005618455873288353,0.005017770181541481,-0.0031477974901852335
152840000000.0,4,0.38517579204999997,0.0846117762,-1.962114532,-0.30494,-0.34349,-0.031304,0.8738803881499999,-4.026414357,-8.899142609,0.097884,0.42308,2.4603,-0.008300000000000196,0.008270000000000013,-0.0009000000000001229,0.00580092695883061,0.005454531517167016,-0.004359217187348996
152840000000.0,4,0.313224401,-0.19979088044999999,-2.0620442955,-0.58076,-0.46261,-0.11269,0.8388412277,-3.979734703,-8.923463101,0.093728,0.41788,2.4598,-0.008079999999999865,0.008279999999999996,-0.0006999999999999229,0.01254311558787724,0.006006824757291751,-0.003724622144210432
152840000000.0,4,0.25241336435,-0.32910136734999995,-2.2522933055,-0.82427,-0.54258,-0.1909,0.7984868629499999,-3.9098132884999997,-8.957982509,0.088902,0.41009,2.4587,-0.007759999999999989,0.008260000000000003,-0.0006999999999999229,0.006534708282198709,0.004574621798699718,-0.006267431516133737
152840000000.0,4,0.09404577349999999,-0.0375986961,-2.346927478,-1.0246,-0.55576,-0.267,0.7579952051,-3.8198863079999996,-9.0002491705,0.084021,0.40011,2.4569,-0.007600000000000051,0.008302999999999991,-0.000400000000000178,0.012900940228248725,0.003562795361646831,-0.005748500405144519
152840000000.0,4,-0.22170874319999997,0.37018142419999994,-2.1903152775,-1.1455,-0.48121,-0.2983,0.7235934769,-3.7167203499999997,-9.0461442925,0.079819,0.38871,2.4547,-0.00768000000000002,0.008099000000000009,-0.00039999999999995595,0.010747792031474468,0.002670517622899382,-0.0022402676128274734
152840000000.0,4,-0.5906349162,0.45358698245,-1.7694138595,-1.1576,-0.36501,-0.24943,0.6974783679500001,-3.6093375324999997,-9.091549082,0.076567,0.37691,2.4528,-0.007410000000000028,0.007970999999999992,-9.999999999998899e-05,0.012980854411359655,0.004397141528116544,-0.0013111491761117477
152840000000.0,4,-0.8884334567499999,0.2502068681,-1.2302442425,-1.0635,-0.26043,-0.11389,0.67700208275,-3.5085251704999996,-9.132442812499999,0.073996,0.36588,2.452,-0.007529999999999926,0.007899000000000003,9.999999999998899e-05,0.007048168334633509,0.004304415977482101,0.0005170935530776077
152840000000.0,4,-1.0501941485,-0.01034601575,-0.69335957495,-0.90082,-0.21082,0.07417,0.6560060450999999,-3.4222266505,-9.166668021,0.071442,0.35647,2.453,-0.007730000000000015,0.007747999999999998,0.00019999999999997797,0.005401933219599364,0.00617823161834985,0.0028749423373994887
152840000000.0,4,-1.044015959,-0.19610358005,-0.1257800929,-0.70247,-0.23503,0.26669,0.628017866,-3.3544626989999995,-9.1936363085,0.068204,0.34911,2.4558,-0.007349999999999968,0.007796000000000004,0.000500000000000167,0.0028566199253350355,0.006560460029144455,0.0032013228325169507
152840000000.0,4,-0.83534025365,-0.3111650045,0.38627413685,-0.51408,-0.32945,0.42196,0.5873889150499999,-3.305233316,-9.214132206999999,0.063663,0.34377,2.4603,-0.007489999999999997,0.007667,0.00039999999999995595,-0.0018463261480088367,0.008559152506752765,0.0029340889908757717
152840000000.0,4,-0.5154767506,-0.48202626745,0.8380665023499999,-0.35469,-0.47686,0.53137,0.53029459875,-3.272086839,-9.229430580999999,0.057394,0.34018,2.4659,-0.00784000000000007,0.007860999999999996,0.00039999999999995595,0.003708426738584736,0.010400462552043077,0.00446981242844835
152840000000.0,4,-0.1715967617,-0.7371560738499999,1.171698542,-0.23795,-0.65052,0.59378,0.45531295284999995,-3.2505122089999996,-9.241002428,0.049231,0.33785,2.4722,-0.007730000000000015,0.007890000000000001,0.00039999999999995595,-0.0026019280335347617,0.009455700747888152,0.0012223438387959362
152840000000.0,4,0.09554619095,-0.9753988289499999,1.421375851,-0.16464,-0.80354,0.62514,0.36414052779999995,-3.2362925665,-9.2501226125,0.039346,0.33632,2.4788,-0.008019999999999916,0.008041,0.00019999999999997797,-0.0007510922613207516,0.01295608254219327,0.003993987848487812
152840000000.0,4,0.30494758839999997,-1.2298519764999998,1.7123391564999997,-0.11409,-0.88494,0.62857,0.26322029264999997,-3.2266820494999995,-9.256889201,0.028428,0.33527,2.4855,-0.008200000000000096,0.008066299999999998,9.999999999998899e-05,-0.001120983509400375,0.0078110218279559,0.0026190714122913406
152840000000.0,4,0.47123895244999997,-1.5466067714999998,2.0940139744999997,-0.056294,-0.87048,0.6137,0.1615743654,-3.221484525,-9.261007994,0.017445,0.33471,2.4921,-0.008799999999999919,0.0082659,-0.00029999999999996696,-0.0004901728910369219,0.00959758013067491,0.004170559101296156
152840000000.0,4,0.66121337625,-1.8573795100000001,2.4721583984999995,-0.009399,-0.7547,0.59543,0.06901920269999999,-3.2202096604999997,-9.262577058,0.007452,0.33458,2.4984,-0.008570000000000078,0.0084428,-0.00029999999999996696,-0.005024859643459445,0.004982873245510833,0.0026655554606382914
152840000000.0,4,0.8545710942999999,-2.1325541089999995,2.757826113,0.019942,-0.56844,0.57487,-0.007021561399999999,-3.2217787244999996,-9.2622828585,-0.000758,0.33475,2.5046,-0.009399999999999964,0.008497,-0.0005999999999999339,0.003494614195732604,0.0038577830486519193,0.006239048445164652
152840000000.0,4,1.0651002564999998,-2.342220286,2.9656290265,0.007992,-0.34241,0.55204,-0.06208590115,-3.222857456,-9.2616944595,-0.006704,0.33486,2.5105,-0.009440000000000004,0.008691999999999998,-0.0009000000000001229,-0.0008972193555385477,5.156705225561886e-05,0.0034740647509958755
152840000000.0,4,1.2969294625,-2.475786859,3.0342755765,-0.048715,-0.11175,0.52378,-0.09478127224999999,-3.219327062,-9.2626751245,-0.010232,0.33449,2.5161,-0.009750000000000036,0.008890000000000002,-0.0008999999999999009,0.0037867462543290653,0.0004636758388321116,0.004830507630577241
152840000000.0,4,1.5293470675,-2.547571537,3.0478087535,-0.13447,0.089319,0.49873,-0.10715726454999999,-3.2084416805,-9.266303585,-0.011563,0.33331,2.5214,-0.010279999999999956,0.008851999999999999,-0.0014000000000000679,0.0023845953531709263,-0.000884396821471789,0.0064714269621166665
152840000000.0,4,1.76127434,-2.5849348735,3.0431015614999994,-0.21433,0.23704,0.48659,-0.10386223014999998,-3.1897109789999996,-9.272775973999998,-0.0112,0.33129,2.5265,-0.010569999999999968,0.00911,-0.0014000000000000679,0.0046667902671793104,-0.0018946893569364853,0.005718620443043498
152840000000.0,4,2.0159530405,-2.5596337165,3.0068169565,-0.26606,0.30993,0.49171,-0.09191773044999998,-3.1654885535,-9.281209693,-0.009904,0.32868,2.5316,-0.01088,0.008867999999999994,-0.0015999999999998238,0.0017895859455445695,-0.0001632557867317086,0.006305206816102693
152840000000.0,4,2.2744563345,-2.4752965265,2.9364052094999997,-0.26715,0.31737,0.50984,-0.0782374537,-3.1399912634999994,-9.290035678,-0.008421,0.32593,2.5369,-0.01146999999999998,0.008949000000000013,-0.0019000000000000128,0.001996542179184324,0.0008108874621619577,0.005432674062388898
152840000000.0,4,2.438129323,-2.3321194364999998,2.8371619115,-0.20045,0.27416,0.54525,-0.0682935106,-3.1191030989999997,-9.297194532499999,-0.007346,0.32368,2.5425,-0.011720000000000064,0.008743,-0.0017000000000000348,-0.001237397457217515,-9.677059912260866e-05,0.008058757591735688
152840000000.0,4,2.5270756384999995,-2.1273565845,2.6948674199999996,-0.079575,0.20919,0.59147,-0.06536132224999999,-3.1082177175,-9.300822993,-0.007027,0.32251,2.5486,-0.011889999999999956,0.008742999999999987,-0.0016000000000000458,-0.003139234906313737,0.0011077188958688033,0.005667375949450992
152840000000.0,4,2.596604787,-1.891310519,2.4542122289999995,0.085047,0.14491,0.63991,-0.06995083444999999,-3.1115519785,-9.299646195,-0.007522,0.32287,2.5552,-0.012290000000000023,0.008506,-0.0018000000000000238,-0.004946720213090838,-0.0008081974264311231,0.00692437935926371
152840000000.0,4,2.6363217195,-1.6571277169999998,2.157070734,0.27239,0.11775,0.68404,-0.07958096475,-3.1320478769999998,-9.2926834735,-0.008564,0.32507,2.5623,-0.012560000000000016,0.008400000000000005,-0.0012999999999998568,-0.005363962650308807,0.002772762542309737,0.009473972588327051
152840000000.0,4,2.6373023845,-1.4304960354999998,1.8158973804999998,0.47183,0.13205,0.72172,-0.09027021325,-3.1706860779999997,-9.2795425625,-0.009727,0.32924,2.5699,-0.012739999999999974,0.008239999999999997,-0.0014000000000000679,-0.0068138105162529605,-0.0014066976702049594,0.00789122064552128
152840000000.0,4,2.5832677429999995,-1.1698352785,1.4550126605,0.6663,0.18689,0.75292,-0.09827243965,-3.2273685149999998,-9.259831195999999,-0.010613,0.33536,2.5779,-0.013110000000000066,0.008110000000000006,-0.0012000000000000899,-0.009163276736554149,-5.241480385276276e-05,0.007886357730552795
152840000000.0,4,2.491281366,-0.91628434275,1.075789505,0.83202,0.25156,0.78831,-0.10182244694999999,-3.3000357914999996,-9.234137772999999,-0.011026,0.34321,2.5862,-0.013189999999999924,0.007639999999999994,-0.0011999999999998678,-0.010037886946378638,-0.003993115328135843,0.009784543403464241
152840000000.0,4,2.387134743,-0.6779239078499999,0.41730237745,0.93672,0.29753,0.83218,-0.1029502117,-3.3835884495,-9.203835224499999,-0.011185,0.35227,2.5951,-0.013149999999999995,0.007610000000000006,-0.001100000000000101,-0.006115175445210896,-0.0012949231835563957,0.010432029988330704
152840000000.0,4,2.3927245335,-0.40798605995,-0.35161743575,0.99356,0.35457,0.86527,-0.1010477216,-3.4728289644999997,-9.170590680999998,-0.011019,0.36199,2.6044,-0.013319999999999999,0.007300000000000001,-0.0006999999999999229,-0.011023554453454265,-0.0015909681346477633,0.011238555992316712
152840000000.0,4,2.45754649,-0.18351184145,-0.9692990926499999,1.0461,0.39781,0.88556,-0.09652685594999999,-3.566678605,-9.134502208999999,-0.010567,0.37224,2.6139,-0.013840000000000074,0.006989999999999996,-0.0008000000000001339,-0.007964015918422662,-0.0009554301828922362,0.011422021429516427
152840000000.0,4,2.431264668,-0.0959286503,-1.486099741,1.1048,0.42074,0.91231,-0.0911233918,-3.6652354375000002,-9.095471741999999,-0.010018,0.38305,2.6238,-0.013490000000000002,0.006610000000000005,-0.00029999999999996696,-0.013465483561558855,-0.004014132492853095,0.010366903637632596
152840000000.0,4,2.470295135,-0.08452351635,-1.8763063445,1.1943,0.41039,0.9349,-0.08803429705,-3.7707549915,-9.052322482,-0.009725,0.39467,2.634,-0.013439999999999896,0.00631000000000001,-9.999999999998899e-05,-0.013286424182151757,-0.001002506843120754,0.010532464178709233
152840000000.0,4,2.5014802819999997,-0.0659595279,-2.150009946,1.2708,0.38098,0.94362,-0.088848249,-3.8832372669999997,-9.0045640965,-0.009867,0.40714,2.6443,-0.013520000000000088,0.006209999999999993,9.999999999998899e-05,-0.01195941424102398,-0.0017464177874326747,0.008441531711096406
152840000000.0,4,2.5013822155,-0.062007447949999996,-2.6439709065,1.276,0.33623,0.90315,-0.0939084804,-3.9974847394999995,-8.954354048499999,-0.010487,0.41986,2.6545,-0.013560000000000016,0.006169999999999981,0.00039999999999995595,-0.011818748029315262,0.00048167547798594335,0.00905150575279512
152840000000.0,4,2.56149698,0.048258524649999995,-3.1350879384999994,1.1856,0.30724,0.7995,-0.0997728571,-4.10506369,-8.9055169315,-0.011203,0.4319,2.6638,-0.013639999999999985,0.005840000000000012,0.000400000000000178,-0.0107532367305474,-0.0022765780414306658,0.007279460404013172
152840000000.0,4,2.5153076585,0.07359890825,-3.357600827,1.0276,0.34705,0.66253,-0.09914523149999999,-4.1995017295,-8.8613870065,-0.011188,0.44254,2.6716,-0.013499999999999956,0.00581000000000001,0.0006999999999999229,-0.005634521070108756,-0.00492233884262383,0.0066886410492887904
152840000000.0,4,2.371444103,-0.09570309735,-3.2774804965,0.83383,0.45108,0.52859,-0.08562186114999999,-4.277268464,-8.824219802999998,-0.009703,0.45133,2.678,-0.013820000000000054,0.005819999999999992,0.0005999999999999339,-0.0036059437257800475,-0.004966575281510233,0.007305511755262728
152840000000.0,4,2.2648458175,-0.3278363095,-3.0662452554999997,0.61882,0.57658,0.41485,-0.0565255306,-4.3362064305,-8.7956824515,-0.006427,0.45802,2.683,-0.013619999999999965,0.005659999999999998,0.0008000000000001339,-0.0010709376714423957,-0.004768300284287763,0.0057218692236400415
152840000000.0,4,2.244938318,-0.6299399694,-2.89492308,0.37568,0.66393,0.31607,-0.014543261949999999,-4.3746484985,-8.776755617,-0.001657,0.4624,2.6868,-0.014039999999999941,0.005610000000000004,0.0007999999999999119,0.0012774630002632126,-0.004229296730940302,0.0028917597523197003
152840000000.0,4,2.243957653,-0.9302686256499999,-2.8740349155,0.078707,0.69205,0.22158,0.03517645355,-4.388475875,-8.769890962,0.004011,0.46397,2.6896,-0.014130000000000087,0.005679999999999991,0.0007999999999999119,0.005377090496871739,-0.004301022199131088,0.003198306925541683
152840000000.0,4,2.1652102534999997,-0.9825282635,-2.961412167,-0.26667,0.6641,0.11429,0.08800487709999999,-4.372981368,-8.7772459495,0.010026,0.4622,2.6912,-0.013959999999999972,0.005610000000000004,0.000600000000000156,0.009269079755979348,-0.005059428836873714,0.0005824182269291711
152840000000.0,4,1.999183669,-0.8105784623999999,-2.984163595,-0.62925,0.61393,-0.003667,0.142000292,-4.325615248499999,-8.799997377499999,0.016135,0.45681,2.6916,-0.014290000000000025,0.005519999999999997,0.0005999999999999339,0.01200914003853959,-0.005629225724828046,0.001246593767948223
152840000000.0,4,1.685370869,-0.50462078905,-2.8412807045,-0.96801,0.61044,-0.11526,0.1992907413,-4.2471620485,-8.836968448,0.022548,0.44791,2.6908,-0.014100000000000001,0.005480000000000013,0.0005999999999999339,0.014291172760846349,-0.005369127752745673,-0.0003339529580408396
152840000000.0,4,1.3531215669999999,-0.1165618419,-2.4558793595,-1.2219,0.69681,-0.20444,0.26643687385,-4.143309625,-8.8843345675,0.02998,0.4362,2.6891,-0.014399999999999968,0.005289999999999989,0.0008000000000001339,0.01645518754007491,-0.007588101564553806,0.0017506819622479242
152840000000.0,4,1.102463593,0.2075675539,-1.9717250489999998,-1.373,0.85048,-0.2466,0.34844988779999997,-4.022883962999999,-8.9367020785,0.038971,0.42269,2.687,-0.013969999999999982,0.005159999999999998,0.0006999999999999229,0.014442116153866813,-0.009143656547159873,0.0013152572565591214
152840000000.0,4,0.8564539710999999,0.40192555025,-1.4187280555,-1.41,1.0372,-0.22245,0.44658503435,-3.8956917124999997,-8.988579257,0.049643,0.40852,2.6851,-0.014149999999999996,0.004840000000000011,0.001000000000000112,0.012394053295206708,-0.008430210718696207,0.004394269069912582
152840000000.0,4,0.6319209127,0.5443181082499999,-0.85542427285,-1.3505,1.1997,-0.13724,0.5577041854999999,-3.771245324,-9.0353569775,0.061646,0.39473,2.6842,-0.013800000000000034,0.004479999999999984,0.0010999999999998789,0.01436178706150848,-0.01089714340056025,0.00359616417512143
152840000000.0,4,0.44015187194999994,0.67829656055,-0.38379305439999994,-1.2291,1.2625,0.003757,0.6726969634,-3.6567036519999996,-9.074485511,0.073995,0.38211,2.6848,-0.014039999999999997,0.004369999999999985,0.0012000000000000899,0.010093298439074472,-0.008486670493803805,0.006773316895931636
152840000000.0,4,0.36183596505,0.6553686128499999,-0.08338594495,-1.0801,1.1833,0.16853,0.7785499435,-3.5559893564999996,-9.106062924,0.085291,0.37106,2.6871,-0.014050000000000007,0.0040200000000000236,0.0013999999999998458,0.0073344479534436235,-0.0036164226977526415,0.005957174120015729
152840000000.0,4,0.37664400654999997,0.5748069831,0.11613034929999999,-0.92673,0.96876,0.31435,0.8626517738999999,-3.470181169,-9.1314621475,0.094191,0.36169,2.691,-0.013999999999999957,0.004049999999999998,0.0012000000000000899,0.007624493801549503,-0.0014229513615786615,0.006279608850772611
152840000000.0,4,0.2938856872,0.5948713889999999,0.2874329115,-0.77823,0.66692,0.43362,0.9168237085,-3.3992790895,-9.1528406445,0.099835,0.35397,2.6962,-0.013830000000000009,0.0038699999999999846,0.0013000000000000789,0.004862631894533287,0.0008958294674521472,0.005078075017677541
152840000000.0,4,0.07851203989999998,0.6250366444,0.4655609021,-0.6306,0.36725,0.51659,0.9402223754,-3.3425966524999997,-9.171375213,0.10216,0.34782,2.7022,-0.013819999999999999,0.0037699999999999956,0.0014999999999998348,0.001398689867536218,0.002039821556532928,0.00593088351894977
152840000000.0,4,-0.1477273756,0.7220342195499999,0.6982040600499999,-0.47059,0.11761,0.5504,0.93811394565,-3.300722257,-9.186673587,0.10176,0.34328,2.7086,-0.013580000000000036,0.003930000000000045,0.0013000000000000789,0.0015506560079667775,0.004454652980397933,0.004793075887289611
152840000000.0,4,-0.36409149455,0.8975438345999999,0.9629051568499999,-0.29595,-0.054327,0.55314,0.9183535458999998,-3.2745385014999995,-9.198049301,0.099512,0.34045,2.7148,-0.013519999999999976,0.0039599999999999635,0.0014000000000000679,-0.0018840827347126332,0.004139187232467867,0.003528343434397563
152840000000.0,4,-0.53182443615,1.0190090015,1.2162207329999999,-0.12055,-0.14633,0.53653,0.8888551426999999,-3.2643395854999997,-9.2046197565,0.096268,0.33934,2.7207,-0.013409999999999977,0.00385000000000002,0.0012999999999998568,-0.001096935444759417,0.0009749146379085527,0.005538526354875728
152840000000.0,4,-0.6876815246,1.1249208215,1.4557971925,0.039414,-0.16574,0.51869,0.8566206841499999,-3.268948711,-9.205992687499998,0.092783,0.33984,2.7262,-0.013050000000000006,0.0040000000000000036,0.001100000000000101,-0.002920683252016998,0.00265446207126252,0.0030277695815676964
152840000000.0,4,-0.8158054068499999,1.3035979844999999,1.6884109305,0.16681,-0.12202,0.50176,0.8274753203499999,-3.2859142154999996,-9.2026584265,0.089676,0.34168,2.7315,-0.013030000000000042,0.004039999999999988,0.0009999999999998899,-0.004488600407416721,0.0005717574376151724,0.004546513381470163
152840000000.0,4,-0.8448134775499999,1.4291231045,1.812465053,0.24445,-0.032067,0.48466,0.80605759675,-3.3109211729999997,-9.195597638499999,0.087433,0.34439,2.7365,-0.013019999999999976,0.0038799999999999946,0.000700000000000145,-0.003661989421937184,0.0009226159009829704,0.0048102575962110095
152840000000.0,4,-0.8173842774999999,1.4648193105,1.9365191755,0.27963,0.084881,0.46423,0.7953879615499999,-3.3399488569999995,-9.1859871215,0.086372,0.34753,2.7412,-0.012790000000000024,0.0040100000000000136,0.0005999999999999339,-0.003984057068667779,-0.0019316393485084848,0.005888459079626429
152840000000.0,4,-0.7786872365999999,1.4349090279999999,2.070576081,0.26985,0.1894,0.45122,0.79544680145,-3.3688784744999998,-9.1753959395,0.086477,0.35067,2.7458,-0.012879999999999947,0.004039999999999988,9.999999999998899e-05,-0.0019738734427765525,-0.0008314006548857389,0.005235790488487879
152840000000.0,4,-0.7465802645,1.2692747094999999,2.0249751584999998,0.20735,0.25171,0.46061,0.8019486104,-3.3933950994999997,-9.165785422499999,0.087271,0.35334,2.7504,-0.012970000000000037,0.0041100000000000025,-9.999999999998899e-05,0.0006880988266411148,0.00017996436292788687,0.005071115233385548
152840000000.0,4,-0.6884464432999999,1.0696113155,1.792263354,0.068707,0.27414,0.48488,0.8104019427,-3.4071244095,-9.159999499,0.088242,0.35483,2.7555,-0.012880000000000003,0.004039999999999988,-0.0004999999999999449,0.002493806701768575,-0.0019623377654780505,0.0060579860913110295
152840000000.0,4,-0.6806403498999999,1.005573891,1.3865622434999998,-0.12433,0.30234,0.51331,0.82010071955,-3.4043785475,-9.1600975655,0.089291,0.35453,2.7609,-0.012689999999999979,0.0040000000000000036,-0.0008000000000001339,0.0034233896343400794,-0.0023725401018999115,0.006567588103949973
152840000000.0,4,-0.8417439960999998,1.128941548,1.072651377,-0.32563,0.36045,0.53848,0.83351621675,-3.383490383,-9.166668021,0.090679,0.35226,2.7669,-0.012459999999999999,0.0043400000000000105,-0.0009999999999998899,0.007296449330730592,-0.0018188403328622815,0.0065660312611690586
152840000000.0,4,-1.079319899,1.364105015,0.6721379843499999,-0.4841,0.42462,0.54023,0.8529137704499999,-3.3469115784999994,-9.1783379345,0.092661,0.34829,2.7731,-0.012400000000000022,0.0042300000000000115,-0.001000000000000112,0.004892288601026085,-0.0029530634806222977,0.006185327205040281
152840000000.0,4,-1.2395605600000001,1.568279468,0.22589618274999998,-0.54747,0.48166,0.50159,0.87874448655,-3.3018009884999997,-9.192165310999998,0.095307,0.3434,2.7791,-0.01207999999999998,0.0042200000000000015,-0.0008999999999999009,0.004704280840120756,-0.002878906450611618,0.00430430866615783
152840000000.0,4,-1.224458319,1.7192038115,-0.0082964259,-0.46976,0.54504,0.42476,0.9127245288,-3.2598285264999998,-9.203835224499999,0.098845,0.33886,2.7843,-0.011910000000000004,0.004359999999999975,-0.0006999999999999229,3.4029622320463915e-05,-0.005203562731763034,0.005101943673414766
152840000000.0,4,-1.224066053,1.766962197,0.0444241245,-0.23082,0.62094,0.34498,0.9563641212999999,-3.2357041675000002,-9.207954017499999,0.10349,0.33625,2.7885,-0.01124,0.004520000000000024,-0.000400000000000178,-0.0037163469824550432,-0.0070100617531241305,0.003939132790624633
152840000000.0,4,-1.236618565,1.7184192795,0.1863655766,0.093351,0.68229,0.26538,1.0088100855,-3.239528761,-9.200991296,0.10921,0.33666,2.7915,-0.011220000000000008,0.004610000000000003,-9.999999999998899e-05,-0.003759625401123179,-0.0062110756936515354,0.003052734083148323
152840000000.0,4,-1.0158708735,1.678506214,-0.0082964259,0.39472,0.6746,0.14957,1.0656886555,-3.2712042404999995,-9.183339326,0.11553,0.34009,2.7931,-0.011029999999999984,0.004589999999999983,-9.999999999998899e-05,-0.006154312943935203,-0.005054712321011845,0.00219518081303427
152840000000.0,4,-0.5651572395,1.6113306615,-0.40906479144999996,0.60376,0.56755,-0.006785,1.11991943,-3.3228852859999995,-9.1583323685,0.12168,0.34568,2.7928,-0.010360000000000008,0.005039999999999989,9.999999999998899e-05,-0.00806692122312902,-0.005243942788685452,-0.0028372821136040116
152840000000.0,4,-0.19163174765,1.2322055725,-0.84738281985,0.69667,0.35168,-0.15248,1.1615976925,-3.383882649,-9.130775682,0.12654,0.3523,2.7907,-0.010860000000000009,0.0047000000000000375,0.00010000000000021103,-0.005192768051612839,0.00032294432519908156,-0.0018538529405907056
152840000000.0,4,0.0150826277,0.6282826455499999,-1.2777084284999998,0.70447,0.067202,-0.24696,1.1819955245,-3.445468411,-9.105082259,0.1291,0.35901,2.7873,-0.010520000000000002,0.00491999999999998,9.999999999998899e-05,-0.00686790248410829,0.0010107713178011402,-0.0036937442700057943
152840000000.0,4,0.0473268929,0.1585146906,-1.402939349,0.68125,-0.18832,-0.27964,1.1800341945,-3.5046025105,-9.082723096999999,0.12919,0.36545,2.7835,-0.010459999999999997,0.0048799999999999955,0.00019999999999997797,-0.00888617013679438,0.001025924198925443,-0.0044738250545846014
152840000000.0,4,-0.1127960883,-0.0839841506,-1.2407373579999998,0.66675,-0.39068,-0.2633,1.1582634315,-3.562363679,-9.0630117305,0.12712,0.37177,2.7797,-0.010749999999999996,0.00496000000000002,0.00039999999999995595,-0.0023065764001297673,0.004817194829561888,-0.004106962239537992
152840000000.0,4,-0.19646642609999998,-0.16962562504999998,-1.209159945,0.63234,-0.55131,-0.25347,1.1208020285,-3.6176731849999997,-9.045752026499999,0.12327,0.37783,2.7762,-0.010500999999999996,0.0048699999999999855,0.00029999999999996696,-0.0050357201379098715,0.006643307506051244,-0.004416680356693625
152840000000.0,4,-0.1662031042,-0.1836589412,-1.3461588455,0.55368,-0.66359,-0.27796,1.0725533104999998,-3.666706435,-9.03192465,0.1182,0.38321,2.7726,-0.010440000000000005,0.0049699999999999744,0.00029999999999996696,-0.004324430713144478,0.0023773521306087453,-0.007865076340969779
152840000000.0,4,-0.20277210204999999,-0.15588650839999998,-1.5207172155,0.40865,-0.69111,-0.3358,1.0218529299999999,-3.703579439,-9.022706398999999,0.11278,0.38727,2.7687,-0.010363999999999998,0.005269999999999997,0.00039999999999995595,-0.0016336058653749763,0.0031630563441522597,-0.005890074117264277
152840000000.0,4,-0.2575814689,-0.09148623785,-1.7116526909999998,0.18652,-0.62846,-0.40888,0.9776347451499999,-3.721623675,-9.0202547365,0.10796,0.38925,2.7642,-0.010405999999999999,0.005100000000000049,9.999999999998899e-05,0.004081734737914289,0.0006926761720602581,-0.007442298121615565
152840000000.0,4,-0.32406074924999995,-0.032489431449999995,-1.859536973,-0.097898,-0.47793,-0.47475,0.9479009823499999,-3.7148570864999995,-9.0261387265,0.10463,0.38851,2.7593,-0.010503000000000005,0.00541999999999998,9.999999999998899e-05,0.005389644880731126,0.0026384194757396173,-0.002998614072518002
152840000000.0,4,-0.39387429059999995,-0.0433257797,-1.887191726,-0.40452,-0.28037,-0.50338,0.9364664284499999,-3.6805338114999997,-9.0414371005,0.10321,0.38473,2.7543,-0.010682999999999998,0.005189999999999972,5.0000000000105516e-05,0.010837768000122372,-0.0004220157598959773,-0.004754206408975392
152840000000.0,4,-0.47041519384999997,-0.1893664115,-1.812465053,-0.68487,-0.09269,-0.46577,0.9416247263499998,-3.6199287145,-9.065267259999999,0.1035,0.37808,2.7499,-0.010377999999999998,0.005150000000000043,4.999999999988347e-05,0.009055510947787004,-0.0007423035548410617,-0.0022209040604010966
152840000000.0,4,-0.57715077245,-0.40126850470000003,-1.645359737,-0.89443,0.052781,-0.35858,0.95753111265,-3.5391219185,-9.095471741999999,0.10489,0.36922,2.7467,-0.010533,0.0049799999999999844,0.00010000000000021103,0.007726521821526777,-0.0015005796910720903,-0.0019143894834829922
152840000000.0,4,-0.6861320739,-0.65774182215,-1.3703812709999998,-0.99492,0.13229,-0.19345,0.9764285272,-3.4477239404999995,-9.128520152499998,0.10656,0.35925,2.7454,-0.010664,0.005039999999999989,0.00019999999999997797,0.01170794396166297,0.0002529552369916477,0.0004891071765245059
152840000000.0,4,-0.7824137635999999,-0.8796368916999999,-0.9654646924999999,-0.96583,0.14572,-0.014098,0.9917465145,-3.357404694,-9.1604898315,0.10784,0.34942,2.7459,-0.0106837,0.005049999999999999,0.0004999999999999449,0.00711394733827575,0.0024453726997557546,0.002677447801352706
152840000000.0,4,-0.76585033175,-0.91397978,-0.49459839275,-0.82379,0.11031,0.11643,0.9999841005,-3.2788534274999996,-9.188046517999998,0.10841,0.34092,2.7478,-0.010647299999999998,0.005080000000000029,0.0008999999999999009,0.005530163540772959,0.001332679445886109,0.0013567670820053834
152840000000.0,4,-0.6123958725499999,-0.7754804620499999,-0.0542307745,-0.61013,0.034987,0.15536,1.0002783,-3.219130929,-9.209130815499998,0.10819,0.33446,2.7502,-0.010328,0.005139999999999978,0.0009000000000001229,0.0003146836072687176,0.0005097925907606715,-0.00187293316790349
152840000000.0,4,-0.39327608495,-0.60156933095,0.2860011406,-0.37599,-0.068121,0.10578,0.9925310464999999,-3.1801985285,-9.223448524499998,0.1072,0.33026,2.752,-0.010585999999999998,0.005240000000000022,0.0009999999999998899,0.0015178526729318076,0.004630888604839178,3.9321776278633536e-05
152840000000.0,4,-0.17961860139999997,-0.49240170315,0.5944202831,-0.15567,-0.19664,0.00819,0.9762912341,-3.1612716939999994,-9.2316861105,0.10536,0.32822,2.7526,-0.010378000000000005,0.00544,0.0012000000000000899,-0.0036819299144716933,0.00304353648956468,-0.003001878837753047
152840000000.0,4,0.069823348,-0.56736373575,0.9176278538,0.029453,-0.32912,-0.099063,0.9511469835,-3.159310364,-9.234922305,0.10263,0.32802,2.7519,-0.010687999999999996,0.005479999999999985,0.0010999999999998789,-0.0019180322585437004,0.002496693440594999,-0.004052474692062269
152840000000.0,4,0.34467432754999994,-0.80142885795,1.2641752515,0.17099,-0.42611,-0.18084,0.9190203981,-3.1706860779999997,-9.234333906,0.099195,0.32924,2.7501,-0.010689999999999998,0.005519999999999969,0.001000000000000112,-0.0030019971812724755,0.0028314185251276935,-0.0032366860737971237
152840000000.0,4,0.51668296855,-1.0860864875,1.6690918299999997,0.27101,-0.47592,-0.20619,0.8825788866999998,-3.1918684419999996,-9.2305093125,0.095325,0.33152,2.7477,-0.011039000000000007,0.005520000000000025,0.0009999999999998899,-0.005624836654944065,0.0023391508600931754,-0.0036620293213731614
152840000000.0,4,0.6405017314499999,-1.3742058645,2.038802535,0.32848,-0.48068,-0.18474,0.8443525649999999,-3.219523195,-9.224527256,0.091279,0.3345,2.7454,-0.01118899999999999,0.005500000000000005,0.000700000000000145,-0.0038254174111032047,0.003688679013659213,-0.0025478953699105134
152840000000.0,4,0.8150895213999999,-1.5684756009999998,2.2891663094999997,0.33701,-0.45096,-0.13674,0.80668522235,-3.2494334775,-9.217466468,0.087295,0.33773,2.7435,-0.011709000000000011,0.005479999999999985,0.0006999999999999229,-0.0038356427498891232,0.0031843508467848114,-0.0001182003596076342
152840000000.0,4,0.94746948975,-1.6358472865,2.457742623,0.30942,-0.39113,-0.069649,0.7720187145999999,-3.277970829,-9.2103076135,0.083626,0.34082,2.7423,-0.011819999999999997,0.005140000000000033,9.999999999998899e-05,-0.001577670417151955,0.0023473484908131947,-0.002241803483264526
152840000000.0,4,1.02381426,-1.6736028889999999,2.6186697494999995,0.27016,-0.31842,0.002738,0.7415886796499999,-3.303664252,-9.2036390915,0.080402,0.3436,2.742,-0.01215999999999999,0.005299999999999971,0.00019999999999997797,-0.004874595031439277,0.0012322130391859698,0.0013185578918291085
152840000000.0,4,1.116977435,-1.709299095,2.7295829609999998,0.23417,-0.24466,0.063388,0.7158266101,-3.3262195469999996,-9.197460902,0.077671,0.34604,2.7423,-0.012720000000000009,0.005379999999999996,-0.00019999999999997797,0.0012713060602700388,0.00233891686454335,0.0003829172591718333
152840000000.0,4,1.1853297855,-1.644967471,2.8488318249999995,0.21963,-0.17319,0.098461,0.6951836118499999,-3.3472057779999997,-9.1914788455,0.07549,0.34832,2.7432,-0.012699999999999989,0.005280000000000007,-0.00019999999999997797,-0.0034544069238355846,-0.0001513739018610405,0.0013350675259715672
152840000000.0,4,1.2359320995,-1.4879630044999999,2.9591566375,0.23526,-0.088063,0.096203,0.68178772795,-3.368976541,-9.184516123999998,0.074096,0.35068,2.744,-0.012780000000000014,0.005230000000000012,-0.00039999999999995595,-0.00468681138017546,-0.0019362575281238747,-0.0009267233261684993
152840000000.0,4,1.2655481825,-1.2793755589999998,3.0179965375,0.26923,0.001207,0.058745,0.6773453155,-3.3932970329999996,-9.175886272,0.073685,0.35333,2.7446,-0.013229999999999992,0.005269999999999941,-0.0005999999999999339,-0.0015141036316752565,-0.0014333326642261834,0.0015025187739992063
152840000000.0,4,1.3177195604999998,-1.1109953785,3.0093666854999994,0.31951,0.11274,-0.003274,0.68453358995,-3.4215401849999996,-9.164902823999999,0.074553,0.3564,2.7445,-0.013440000000000007,0.005370000000000097,-0.000600000000000156,-0.005452293115713047,-0.00395611219707237,0.0004827990262246118
152840000000.0,4,1.443342747,-1.0317576465,3.0146622765,0.38588,0.23268,-0.067414,0.7048921953499999,-3.4548827949999996,-9.150781248,0.076878,0.36003,2.7437,-0.013399999999999995,0.005170000000000008,-0.0009999999999998899,-0.004191181691272083,-0.005180989878178499,0.000553546831963736
152840000000.0,4,1.548470035,-1.0027299625,2.9248333625,0.43596,0.3346,-0.10487,0.7369109076,-3.49312873,-9.133717677,0.080506,0.3642,2.7423,-0.013990000000000002,0.005069999999999908,-0.001100000000000101,-0.0009463554323423384,-0.006390488268838812,-0.0011078138251994218
152840000000.0,4,1.6805656104999998,-0.9499407655499998,2.550905798,0.44292,0.40062,-0.11351,0.7761865408499999,-3.5327475959999997,-9.1151831085,0.084948,0.36853,2.7408,-0.014050000000000007,0.00501000000000007,-0.0010999999999998789,-0.004592542102390684,-0.0038201795994761145,0.002872309852456567
152840000000.0,4,1.7825547704999998,-0.9073406779499998,2.1460872859999998,0.42378,0.43271,-0.075173,0.8183355225499999,-3.571189664,-9.096550473499999,0.089719,0.37273,2.7394,-0.014359999999999984,0.004830000000000001,-0.0013000000000000789,-0.0037322940501542945,-0.0043851978532076785,0.0026352472942239302
152840000000.0,4,1.7655892659999999,-0.8702028943999999,1.7434262369999998,0.38932,0.44568,0.012271,0.8590625399999999,-3.6072781359999997,-9.0785062375,0.094345,0.37668,2.739,-0.014469999999999983,0.004469999999999974,-0.0014000000000000679,-0.002565529530357047,-0.0029878326918129083,0.005164225832842817
152840000000.0,4,1.7305795254999998,-0.7719206481,1.303499918,0.36947,0.44359,0.13819,0.8955334713499999,-3.6418956104999998,-9.061148466999999,0.098513,0.38049,2.7397,-0.014690000000000036,0.004149999999999987,-0.0012999999999998568,-0.005852472362840366,-0.005638263774647045,0.0029806282491282587
152840000000.0,4,1.7237148705,-0.5459656254499999,0.92360010365,0.38488,0.45079,0.26736,0.92754237695,-3.678278282,-9.0432022975,0.10221,0.38449,2.7419,-0.01483000000000001,0.004009999999999958,-0.001100000000000101,-0.004074692512882949,-0.0026415967552992914,0.006913602420627107
152840000000.0,4,1.7477411629999997,-0.2378504891,0.5282057822999999,0.45896,0.44686,0.38278,0.95505983685,-3.7211333425,-9.0228044655,0.10546,0.3892,2.7453,-0.014919999999999989,0.003730000000000011,-0.0008999999999999009,-0.006487052261396009,-0.0027362341115197975,0.006444138788353371
152840000000.0,4,1.8304112225,-0.04096237705,0.07038232705,0.57554,0.41382,0.48551,0.9761931675999999,-3.7744815185,-8.998385907,0.10806,0.39509,2.7496,-0.01479999999999998,0.0034800000000000386,-0.0009000000000001229,-0.007268499396026806,0.0006655059338638303,0.008385948766071571
152840000000.0,4,1.8690494235,-0.03303860385,-0.48720417865,0.71183,0.30072,0.57347,0.9852741254999999,-3.8410686719999996,-8.96916209,0.10941,0.40246,2.7548,-0.014950000000000019,0.003170000000000006,-0.0004999999999999449,-0.009427691245310621,0.0024769807561055845,0.005814434101703014
152840000000.0,4,1.8098172574999998,-0.05139665265,-1.3220344865,0.81123,0.089924,0.62845,0.9745946836499999,-3.9180508744999996,-8.936996278,0.10862,0.411,2.7606,-0.014729999999999965,0.003090000000000037,-0.00019999999999997797,-0.009570194964933387,0.0022214863998661905,0.003165991323236028
152840000000.0,4,1.7734345859999998,0.01011065615,-2.2824977875,0.84331,-0.17566,0.61617,0.940065469,-3.9989557369999997,-8.9047323995,0.10518,0.42003,2.7664,-0.014610000000000012,0.0031399999999999206,-9.999999999998899e-05,-0.007769925779214315,0.006766655482098649,0.004006115807380084
152840000000.0,4,1.7751017165,0.11015809944999999,-3.047710687,0.82376,-0.40877,0.52688,0.8860210208499999,-4.0780954025,-8.874331784499999,0.09951,0.42888,2.7716,-0.014160000000000006,0.003090000000000037,0.00029999999999996696,-0.010937352575070447,0.005723321420299854,0.0013828439749223875
152840000000.0,4,1.6206469789999998,0.26164142199999996,-3.4791052204999997,0.77317,-0.54036,0.40321,0.8223268290999999,-4.1516452775,-8.846382832,0.09269,0.43714,2.7756,-0.014359999999999984,0.002929999999999988,0.00029999999999996696,-0.007142813888332933,0.003571307677570301,-0.00017008060948420223
152840000000.0,4,1.2991849919999998,0.37238792044999997,-3.5848209074999997,0.7108,-0.53973,0.29102,0.7605645473999999,-4.218428564,-8.820297143,0.086016,0.44466,2.7784,-0.014170000000000016,0.0029400000000000537,0.0006999999999999229,-0.005943515259822174,0.0028464177300495663,-0.0003663727692275742
152840000000.0,4,1.0042990265,0.29409162684999995,-3.468023706,0.63397,-0.45271,0.21922,0.70863833565,-4.2777587965,-8.795976650999998,0.080391,0.45138,2.7804,-0.014300000000000035,0.002909999999999968,0.0009000000000001229,-0.004697959531145601,0.004082635363406473,0.002149039695741095
152840000000.0,4,0.8761064976999999,0.05771213524999999,-3.4936190625,0.51002,-0.3696,0.17616,0.66650896725,-4.3269881795,-8.7750884865,0.075808,0.45697,2.7821,-0.01426999999999995,0.0026800000000000157,0.0010999999999998789,-0.0013193388124461691,0.002417377345761862,-0.0016014699982616065
152840000000.0,4,0.8643483243499999,-0.14510900005,-3.7021084415,0.3045,-0.34442,0.13734,0.6296359632499999,-4.3597423905,-8.761653376,0.071739,0.46069,2.7834,-0.014039999999999997,0.0026599999999999957,0.001100000000000101,0.0005821689193716839,0.00512224251593274,-0.0009514535945953639
152840000000.0,4,0.7961528802499999,-0.13631243499999998,-3.9764004419999996,0.015469,-0.36543,0.082435,0.5939789838499999,-4.3683722425,-8.759888179,0.067703,0.46168,2.7845,-0.014280000000000015,0.0027599999999999847,0.0012000000000000899,0.005422896884217598,0.002195314710637941,-0.0027062909930206658
152840000000.0,4,0.60664917565,0.02017227905,-4.1286977165,-0.31173,-0.36798,0.008222,0.5602244945499999,-4.34826861,-8.772048425,0.063778,0.45939,2.785,-0.013639999999999985,0.002909999999999968,0.0011999999999998678,0.006306396943465575,0.002744274232285626,-0.0018188786163104709
152840000000.0,4,0.60664917565,0.02017227905,-4.1286977165,-0.31173,-0.36798,0.008222,0.5602244945499999,-4.34826861,-8.772048425,0.063778,0.45939,2.785,-0.013770000000000004,0.0029799999999999827,0.0013000000000000789,0.009383116695970584,-0.001342909966388639,-0.002691753556509191
152840000000.0,4,0.27678288959999997,0.1632807225,-3.853425051,-0.59441,-0.28031,-0.082084,0.5355999964,-4.3014908895,-8.7966631165,0.060812,0.45408,2.7848,-0.013880000000000059,0.0027800000000000047,0.0019000000000000128,0.011940550397209426,-0.0037209593373788152,-0.0035991283762832893
152840000000.0,4,-0.10171457379999999,0.315185731,-3.2984667274999997,-0.79165,-0.061196,-0.18742,0.53147139675,-4.2346095365,-8.829221194499999,0.060122,0.4465,2.7836,-0.013189999999999924,0.0030800000000000827,0.0015000000000000568,0.00863897732598784,-0.007619337333061527,-0.00039733937757802096
152840000000.0,4,-0.47391616789999996,0.52162552015,-2.5630660439999997,-0.8855,0.27536,-0.29918,0.5595086091,-4.1561563365,-8.8647212675,0.063032,0.43765,2.7811,-0.013170000000000015,0.003089999999999926,0.0017999999999998018,0.010777993552913534,-0.010478152997892787,-0.0013677974752814848
152840000000.0,4,-0.7811683190500001,0.7333609003,-1.725578134,-0.8895,0.64845,-0.39805,0.6244972786499999,-4.074466942,-8.8982600105,0.070067,0.42847,2.7778,-0.012859999999999983,0.0030600000000000627,0.0017000000000000348,0.007425593860262314,-0.011386806207088318,-0.0004984585626433002
152840000000.0,4,-0.90090751555,0.8316627599,-0.9535398061,-0.83988,0.94328,-0.46146,0.7210437478999999,-3.9951311434999996,-8.9268954285,0.080598,0.4196,2.7735,-0.01316000000000006,0.002969999999999917,0.0018000000000000238,0.009038540533053308,-0.008334873483798022,0.00046347357891196594
152840000000.0,4,-0.8864230934999999,0.75461191085,-0.34971494564999994,-0.76833,1.0834,-0.46479,0.8343399753499999,-3.9210909359999997,-8.9498429895,0.092956,0.41134,2.7693,-0.012959999999999972,0.002970000000000028,0.0017000000000000348,0.007391891035298581,-0.005040896470436262,7.270184893037879e-05
152840000000.0,4,-0.82537669725,0.52994155935,0.1266234648,-0.69538,1.039,-0.4016,0.9458317792000001,-3.853425051,-8.9680833585,0.10508,0.40382,2.7655,-0.012970000000000037,0.002929999999999988,0.0016000000000000458,0.005947308455396483,-0.002652085437163665,-0.0005033340896369864
152840000000.0,4,-0.7669290632499999,0.1975255443,0.45474416715,-0.63776,0.83808,-0.29655,1.038524235,-3.791839289,-8.984068198,0.11509,0.397,2.7628,-0.013610000000000011,0.0027800000000000047,0.0018000000000000238,0.004855724423036278,0.0012948042483860167,0.0005913326990718559
152840000000.0,4,-0.7561809748499999,-0.05899680639999999,0.6717849449499999,-0.59921,0.52542,-0.17958,1.101090662,-3.7348626525,-9.0004453035,0.12173,0.39072,2.7614,-0.012799999999999923,0.003190000000000026,0.0011999999999998678,0.00650939788236693,0.002273925458009085,-0.002939023399813223
152840000000.0,4,-0.8018113173,-0.13800898544999998,0.8062341164499999,-0.5715,0.18091,-0.083926,1.128941548,-3.6816125429999995,-9.018979872,0.12452,0.38485,2.7611,-0.01265000000000005,0.003190000000000026,0.0013000000000000789,0.0029827202596002245,0.002772683843083046,-0.0019594705434080595
152840000000.0,4,-0.981057266,-0.048493884249999994,1.014792142,-0.53032,-0.10401,-0.024645,1.126784085,-3.6321870269999996,-9.039279637499998,0.12402,0.37941,2.7614,-0.013549999999999951,0.003149999999999986,0.0017000000000000348,0.0005539557711531362,0.006246453901219029,0.002152002821567578
152840000000.0,4,-1.257016397,0.12771200295,1.2956545979999998,-0.45068,-0.27305,-0.004995,1.1055036544999999,-3.5893319664999996,-9.058991004,0.12143,0.37471,2.762,-0.012350000000000083,0.0035999999999999366,0.0009999999999998899,0.0014411948144497089,0.0013025847660170786,-0.0027396249905242698
152840000000.0,4,-1.5335639269999999,0.35412793814999993,1.5711233964999998,-0.34014,-0.33256,-0.017508,1.0766721035,-3.5554990239999995,-9.0757603755,0.11808,0.37101,2.7624,-0.012779999999999903,0.0035600000000000076,0.0012000000000000899,7.98303821047952e-05,0.0003809155465024361,-0.0023594626293670373
152840000000.0,4,-1.7803973074999997,0.60886547855,1.7388171115,-0.22028,-0.30368,-0.045103,1.0493115499999999,-3.53235533,-9.088018688,0.11495,0.36848,2.7623,-0.012350000000000083,0.003750000000000031,0.0009999999999998899,-0.0004307394267339948,8.013026186404204e-05,-0.0012876333937850148
152840000000.0,4,-1.956426675,0.87256629705,1.8580659755,-0.095601,-0.2077,-0.074944,1.0303847154999999,-3.5202931504999997,-9.094883343,0.11281,0.36716,2.7618,-0.011769999999999947,0.0040600000000000636,0.000500000000000167,0.0009938207814814692,-0.0013554877996961867,-0.0021030102019752306
152840000000.0,4,-2.0215428309999997,1.0580394684999999,1.9527982144999998,0.02064,-0.092492,-0.093091,1.0223432625,-3.5187240865,-9.0963543405,0.11192,0.36699,2.7609,-0.012349999999999972,0.0038199999999999346,0.0008999999999999009,-0.0035177671081487727,0.0010939711818303,0.0007476131415717902
152840000000.0,4,-1.9524059484999998,1.1802303275,1.9361269094999998,0.12695,-0.005987,-0.094127,1.023618127,-3.5269616725,-9.093020079499999,0.1121,0.3679,2.7598,-0.012190000000000034,0.00380999999999998,0.0006999999999999229,-0.004812723202514357,0.00022018341557883403,0.0021394708379247618
152840000000.0,4,-1.748329562,1.2327939714999998,1.8113863215000001,0.21554,0.013505,-0.069458,1.027540787,-3.5438291105,-9.086057358,0.11261,0.36974,2.7588,-0.011750000000000038,0.003970000000000029,0.000400000000000178,-0.005585922700283241,0.0033580098498535715,0.0011293648496479847
152840000000.0,4,-1.6034853414999999,1.174052138,1.593384492,0.29885,-0.059723,0.008736,1.0246968585,-3.5690322009999997,-9.076446841,0.11242,0.3725,2.7583,-0.01149,0.00385000000000002,0.00039999999999995595,-0.0057174643055295515,0.004369398752465337,0.001555698040654363
152840000000.0,4,-1.6450655375,1.205041152,1.3408632544999999,0.37506,-0.199,0.12226,1.0068487554999999,-3.602374811,-9.065267259999999,0.11061,0.37614,2.7589,-0.01149,0.0040200000000000236,0.00039999999999995595,-0.007773992438706134,0.006811982737990219,0.0014781362826576938
152840000000.0,4,-1.799520275,1.368027675,1.071278446,0.46263,-0.37781,0.24868,0.9687205002999999,-3.6443472729999997,-9.052714748,0.1066,0.38075,2.7608,-0.011259999999999937,0.0040199999999999125,0.00029999999999996696,-0.008158694620358453,0.007275766111631832,0.0008223089483170298
152840000000.0,4,-1.972117315,1.463936712,0.8535708160000001,0.56218,-0.54283,0.34734,0.911233918,-3.6959302519999997,-9.0377105735,0.10049,0.38643,2.7637,-0.010660000000000003,0.004269999999999996,0.00029999999999996696,-0.010185300971034206,0.006172761478885791,0.0005660340721957979
152840000000.0,4,-2.1040167574999997,1.5986800829999999,0.6404526982000001,0.68473,-0.67175,0.38301,0.8389589074999999,-3.758300546,-9.018979872,0.092754,0.3933,2.7671,-0.010680000000000023,0.0042600000000000415,0.000500000000000167,-0.01301624234206078,0.007741320945771735,0.0007814776584229577
152840000000.0,4,-2.1899230115,1.8804251374999998,0.40233742954999996,0.82076,-0.75489,0.35777,0.7585051508999999,-3.8321446205,-8.994953579499999,0.084127,0.40147,2.7704,-0.009739999999999971,0.0048000000000000265,0.00019999999999997797,-0.011733732716614043,0.005171241466448873,-0.0019216454396158156
152840000000.0,4,-2.3211359885,2.141183961,0.13361560625,0.95744,-0.78578,0.28655,0.6763058106,-3.9173644089999997,-8.9647490975,0.075298,0.41092,2.773,-0.009750000000000036,0.004809999999999981,0.0004999999999999449,-0.012922390596802558,0.0024000985319068135,-0.003303127791467908
152840000000.0,4,-2.398510457,2.310250607,-0.0481898781,1.096,-0.7495,0.16397,0.6003434997,-4.0132734459999995,-8.927679960499999,0.067144,0.42162,2.7744,-0.008319999999999994,0.005560000000000009,-0.0005999999999999339,-0.015772841344874333,-0.0012876721490082677,-0.001783549748792801
152840000000.0,4,-2.3389840915,2.3653639799999997,-0.061889768149999996,1.2288,-0.64814,0.010318,0.53796339905,-4.120165931,-8.88286357,0.060488,0.4336,2.7741,-0.009340000000000015,0.005059999999999953,0.0006999999999999229,-0.012059936265891968,-0.0012448578393431387,-0.0058267203536521706
152840000000.0,4,-2.1751149699999996,2.2809287234999998,-0.01417060925,1.3204,-0.50486,-0.15522,0.49470626589999994,-4.2350018025,-8.8311825245,0.055959,0.44654,2.7721,-0.009099999999999997,0.005350000000000077,0.00029999999999996696,-0.00991761695489446,-0.0001760031449211663,-0.006021861212544444
152840000000.0,4,-1.8415908035,1.978393571,-0.060928716449999996,1.3308,-0.37265,-0.31341,0.4710526261,-4.3513086715,-8.775774951999999,0.053625,0.45974,2.7682,-0.00810999999999995,0.005959999999999965,-0.0005999999999999339,-0.010672244374567041,-0.0016360057657667237,-0.005330920517771176
152840000000.0,4,-1.4366742249999997,1.5513139635,-0.25323712294999995,1.2296,-0.31092,-0.45993,0.46166766205,-4.4599663535,-8.721544177499998,0.052884,0.47213,2.7628,-0.009040000000000048,0.005630000000000024,-0.00014999999999987246,-0.0034476845619286767,5.674754064854959e-05,-0.011292769679576153
152840000000.0,4,-1.055391673,1.0803005639999999,-0.6364025517499999,1.0165,-0.3506,-0.58512,0.45758809564999997,-4.5509720655,-8.674668390499999,0.052701,0.48258,2.7559,-0.00878000000000001,0.006059999999999954,-0.0001500000000000945,-0.0024004427122701344,0.0017045383917868584,-0.0098144507643676
152840000000.0,4,-0.8944841598,0.58631018355,-1.130510612,0.74184,-0.47183,-0.69319,0.45036059459999994,-4.6182456845,-8.6393644505,0.052082,0.49035,2.7479,-0.008429999999999938,0.006280000000000063,-0.000500000000000167,-0.002776828866968728,0.0011960928758050215,-0.012235347358969584
152840000000.0,4,-0.8761064976999999,0.2360068389,-1.3925442999999997,0.47452,-0.60699,-0.79161,0.43646457154999996,-4.6611988115,-8.6170052885,0.050609,0.49532,2.7389,-0.008650000000000047,0.006220000000000003,-9.999999999998899e-05,0.0011709469150882335,0.0031439400936921214,-0.01367982132298895
152840000000.0,4,-0.995374975,0.12147497355,-1.342334252,0.281,-0.71932,-0.88995,0.4171552777,-4.685421237,-8.6048450425,0.048441,0.49813,2.729,-0.008099999999999996,0.006639999999999979,-0.00029999999999996696,-0.00013393437909781092,0.001326951075926397,-0.013492622138082666
152840000000.0,4,-1.2437774195,0.15269934715,-1.2201433929999999,0.1636,-0.78112,-0.98398,0.39612001345,-4.697777616,-8.599059119,0.046033,0.49956,2.7179,-0.007770000000000055,0.006879999999999997,-0.00039999999999995595,0.0007736980418882045,-2.725377171386434e-05,-0.01456592010568114
152840000000.0,4,-1.5501371654999998,0.24766694574999998,-1.246229082,0.08083,-0.78673,-1.0834,0.3779090644,-4.7023867415,-8.597391988499998,0.043928,0.50009,2.7059,-0.007859999999999978,0.006950000000000012,-0.00029999999999996696,0.00381253708228102,-0.001837137193910987,-0.01482196291624005
152840000000.0,4,-1.7530367539999998,0.4720430977499999,-1.3500815054999997,-0.001328,-0.72307,-1.1936,0.3688477198,-4.699738946,-8.599255251999999,0.042867,0.49979,2.6926,-0.007419999999999982,0.00717000000000001,-0.00039999999999995595,0.0038851904710939245,-0.002466918109786942,-0.015237392616747947
152840000000.0,4,-1.8914085855,0.5957343742,-1.5191481514999998,-0.11519,-0.61972,-1.3028,0.37313322584999997,-4.687774833,-8.6056295745,0.043332,0.49839,2.6782,-0.007349999999999968,0.007349999999999968,-0.00029999999999996696,0.007033060779641387,-0.00043829250888771654,-0.01326906200818101
152840000000.0,4,-2.0073231885,0.5017670539,-1.7439165694999998,-0.274,-0.51284,-1.3769,0.39045176975,-4.6625717425,-8.618476286,0.045273,0.49548,2.6628,-0.007040000000000046,0.007489999999999997,-0.000600000000000156,0.008751504908798946,-0.001823389129475883,-0.01372100222144601
152840000000.0,4,-2.1053896885,0.27359572835,-1.9567208745,-0.47702,-0.43016,-1.3977,0.41655707205,-4.620305081,-8.640050916,0.048176,0.49058,2.6472,-0.007489999999999997,0.007299999999999973,9.999999999998899e-05,0.010273997619054898,-0.0033134013898641346,-0.014143028631074639
152840000000.0,4,-2.2250308185,-0.015406247149999998,-2.1254933209999995,-0.69656,-0.37511,-1.3619,0.44618296169999994,-4.558719319,-8.6711379965,0.051411,0.48348,2.632,-0.007120000000000015,0.007550000000000057,-9.999999999998899e-05,0.01127645846440406,-0.0003153323237121697,-0.010962742979532258
152840000000.0,4,-2.369678906,-0.26527968915,-2.122747459,-0.87587,-0.33003,-1.2769,0.47545581195,-4.480069986,-8.7105607295,0.054529,0.47443,2.618,-0.006619999999999959,0.007699999999999929,-9.999999999998899e-05,0.010324264048304554,-0.0020530287268989422,-0.010974678523200332
152840000000.0,4,-2.5080507374999996,-0.42361786004999996,-1.900921036,-0.96666,-0.27718,-1.1694,0.5033753445,-4.391025603999999,-8.754200321999999,0.057437,0.46425,2.6052,-0.006469999999999976,0.007800000000000029,0.00019999999999997797,0.006288484569827668,-0.0017537222507215677,-0.010011307671555336
152840000000.0,4,-2.6006255135,-0.47726023554999997,-1.47884282,-0.94534,-0.21991,-1.0744,0.5304220851999999,-4.301392823,-8.796957315999999,0.060223,0.45406,2.5937,-0.006510000000000016,0.007889999999999953,0.000500000000000167,0.007853530170967682,-0.0036806569823657487,-0.009972643770837841
152840000000.0,4,-2.54580634,-0.37152493525,-0.9231489977499999,-0.82135,-0.15812,-1.0231,0.5592144095999999,-4.219997628,-8.834516785499998,0.063214,0.44484,2.5828,-0.006040000000000045,0.008020000000000027,0.0004999999999999449,0.0029078528089503397,-0.004731422041552635,-0.010745452485948714
152840000000.0,4,-2.3364343625,-0.20211505649999997,-0.33568162949999997,-0.62887,-0.10323,-1.0218,0.5915567413,-4.1538027405,-8.8637406025,0.06664,0.43739,2.5721,-0.005739999999999967,0.008260000000000045,0.00039999999999995595,0.0019877700509449703,-0.0035231529723263044,-0.01025857890784776
152840000000.0,4,-2.057042904,-0.07060788,0.27277196974999995,-0.41484,-0.050603,-1.0621,0.62932215045,-4.1057501555,-8.883550035499999,0.070724,0.43198,2.5609,-0.005870000000000042,0.008299999999999974,0.0004999999999999449,0.001169330990491213,-0.004866298841912586,-0.01193104484267149
152840000000.0,4,-1.7249897349999999,0.013827376499999999,0.9079781102,-0.21474,-0.015957,-1.1237,0.6727263833499999,-4.075153407499999,-8.894435417,0.075491,0.42855,2.549,-0.005959999999999965,0.008410000000000029,0.00039999999999995595,-0.0011253533903101687,-0.002578485532706676,-0.010652329386305226
152840000000.0,4,-1.324486149,-0.00954187045,1.457660456,-0.058848,-0.037426,-1.1821,0.71783697335,-4.058482102499999,-8.898554209999999,0.080495,0.42668,2.5363,-0.00602999999999998,0.008449999999999958,9.999999999998899e-05,0.0005943075160221856,-0.0017525318800135636,-0.013022626422878325
152840000000.0,4,-0.8807744631,-0.16804675439999997,1.8837593985,0.051548,-0.13207,-1.2201,0.75776965215,-4.051911647,-8.8982600105,0.084955,0.42594,2.523,-0.006210000000000049,0.008469999999999978,0.00010000000000021103,-0.001968576345018125,9.56544207137977e-05,-0.012844141787172525
152840000000.0,4,-0.46824792419999994,-0.4660904612,2.237681397,0.12705,-0.29147,-1.2133,0.7850321391499999,-4.0522058465,-8.8957102815,0.08802,0.42598,2.5096,-0.006349999999999967,0.008660000000000001,-0.000400000000000178,0.000677116778953879,0.003147262636280068,-0.012288894265353623
152840000000.0,4,-0.16910587259999998,-0.78471832635,2.5401184829999996,0.17646,-0.47948,-1.1542,0.7939954172499999,-4.0576975705,-8.892376020499999,0.089053,0.42659,2.4966,-0.006730000000000014,0.008530000000000038,-0.0004999999999999449,-0.0018955911105968948,0.002958662068919704,-0.011575137679171288
152840000000.0,4,0.0712551189,-1.0003763665,2.774105152,0.20777,-0.64713,-1.0674,0.78422799385,-4.0669158215,-8.8890417595,0.087996,0.42763,2.4845,-0.006820000000000048,0.008600000000000052,-0.0004999999999999449,-0.004862411473576245,0.0031013002541731005,-0.009485725539899015
152840000000.0,4,0.2214145437,-1.1212923609999998,2.9339535469999998,0.21799,-0.76455,-0.95296,0.7585639908,-4.078487668499999,-8.886001698,0.08516,0.42892,2.4736,-0.007299999999999862,0.008579999999999921,-0.000700000000000145,-0.0032110120687454113,0.004911040207883799,-0.009656762488875259
152840000000.0,4,0.24653918099999997,-1.182878123,2.9938721784999998,0.21579,-0.83073,-0.82903,0.7210241346,-4.0915305129999995,-8.8831577695,0.08099,0.43038,2.464,-0.007300000000000084,0.008790000000000076,-0.0010999999999998789,-0.0018341047126932963,0.005691250040782192,-0.007401687303425497
152840000000.0,4,0.28198041409999997,-1.2043546864999999,2.90080707,0.19684,-0.86372,-0.72013,0.6754035988,-4.1043772245,-8.8808041735,0.075906,0.43182,2.4556,-0.007500000000000062,0.008799999999999919,-0.0012000000000000899,-0.0009593287168829789,0.004161927420129219,-0.0097480269191621
152840000000.0,4,0.3068893051,-1.1174677675,2.7183053134999997,0.16872,-0.86144,-0.64012,0.6256446566999999,-4.1156548719999995,-8.8792351095,0.070346,0.43309,2.4483,-0.007599999999999829,0.008950000000000014,-0.0015999999999998238,0.00022658619960136406,0.003469095111075182,-0.008538811136109103
152840000000.0,4,0.29885765875,-0.9655529523499999,2.5578685195,0.15498,-0.82088,-0.60072,0.5766702466,-4.126049921,-8.877764112,0.064866,0.43426,2.4415,-0.00770000000000004,0.009010000000000074,-0.0013000000000000789,-0.004680132409832893,0.0010225647484467526,-0.007588735393141199
152840000000.0,4,0.26658397359999997,-0.8606610239499999,2.4337163305,0.1653,-0.73145,-0.60193,0.5344231984,-4.1369353024999995,-8.875312449499999,0.060142,0.43548,2.4348,-0.007500000000000062,0.009379999999999944,-0.0020000000000000018,0.005365877582758305,0.0003328338140702325,-0.011421250998462362
152840000000.0,4,0.28677586595,-0.7512286166,2.3166249294999997,0.19326,-0.60162,-0.65335,0.50450310925,-4.149978147,-8.870899457,0.056811,0.43695,2.4277,-0.007900000000000018,0.009040000000000048,-0.0012000000000000899,-0.011253522543214656,-0.003307738813210781,-0.005785114262318647
152840000000.0,4,0.27816562725,-0.6045211326,2.160012729,0.23867,-0.45271,-0.74853,0.49096993224999996,-4.1665513855,-8.8639367355,0.055333,0.43882,2.4196,-0.007800000000000029,0.009319999999999995,-0.0015999999999998238,-0.002501004710020016,-0.003996259167333482,-0.009201700552267322
152840000000.0,4,0.33245524165,-0.4762599572499999,1.9947706765,0.28636,-0.3006,-0.86826,0.49607919689999996,-4.186753084499999,-8.8541300855,0.05597,0.44109,2.4103,-0.007600000000000051,0.009449999999999958,-0.0019000000000000128,0.00057053616002678,-0.00437082372084574,-0.011477493756149482
152840000000.0,4,0.42292158789999995,-0.36903404614999996,1.6676208325,0.321,-0.17929,-0.98583,0.5178499598999999,-4.2097006455,-8.841969839499999,0.0585,0.44369,2.3995,-0.007699999999999818,0.00927,-0.0018000000000000238,-0.002524316562714013,-0.005333887377950708,-0.009387934496037253
152840000000.0,4,0.4924507363999999,-0.23357478969999998,1.1837607215,0.32845,-0.1036,-1.0745,0.551722129,-4.233138539,-8.828730861999999,0.062411,0.44633,2.3876,-0.007900000000000018,0.009220000000000006,-0.0017000000000000348,-0.002470168130325856,-0.005118505948915608,-0.008318359042082779
152840000000.0,4,0.56253886395,-0.1349591173,0.6762960039499999,0.32375,-0.042786,-1.1056,0.59341019815,-4.2555957675,-8.815197685,0.067215,0.44887,2.3752,-0.007900000000000018,0.009020000000000028,-0.0016000000000000458,-0.004024936963984205,-0.0054322674353279865,-0.006520023793105345
152840000000.0,4,0.5725318403,-0.0811794487,0.2618179417,0.33678,0.012473,-1.063,0.6393837733499999,-4.278249129,-8.801076109,0.072521,0.45143,2.363,-0.008000000000000007,0.008909999999999973,-0.0015000000000000568,-0.0023594352099625127,-0.004462697429767681,-0.007344354846609669
152840000000.0,4,0.54463192105,-0.061713248449999994,-0.055309505999999994,0.39954,0.055536,-0.95729,0.6858378744,-4.30511935,-8.784404804,0.077917,0.45449,2.3517,-0.008199999999999985,0.008549999999999947,-0.0009999999999998899,-0.008934520140442048,-0.002161302374471763,-0.004038344967991048
152840000000.0,4,0.54374932255,-0.07442266685,-0.28804092379999996,0.52366,0.056494,-0.81191,0.7278691762999999,-4.3420904205,-8.7627321075,0.082874,0.45869,2.3419,-0.008099999999999996,0.008380000000000054,-0.0009000000000001229,-0.009683753844122789,0.0005738385676896662,-0.004705889689323062
152840000000.0,4,0.6051879848,-0.20904835804999997,-0.5918999740499999,0.69921,-0.039956,-0.65239,0.75725970635,-4.3942617985,-8.7342928225,0.086484,0.46463,2.3336,-0.008199999999999985,0.008299999999999974,-0.0006999999999999229,-0.008995000914024942,0.0033718657307235667,-0.00809462771887759
152840000000.0,4,0.6821898006,-0.28192157419999997,-1.034601575,0.87503,-0.25147,-0.51722,0.7648010202,-4.462614149,-8.698890816,0.087694,0.47244,2.3267,-0.007800000000000029,0.008199999999999985,-0.0004999999999999449,-0.010805811757258255,0.006195579312050725,-0.008194748171741928
152840000000.0,4,0.74643316475,-0.1856398845,-1.6087809325,1.0055,-0.56697,-0.44386,0.7433636832999999,-4.5441074105,-8.658487418,0.085644,0.48179,2.3206,-0.008099999999999996,0.008000000000000007,4.999999999988347e-05,-0.012356529534885752,0.0077266063933649765,-0.009381995175801627
152840000000.0,4,0.6278217329999999,-0.024408751849999997,-2.2638651524999998,1.0421,-0.93065,-0.43888,0.69063332625,-4.6307981965,-8.616809155499999,0.079979,0.4918,2.3147,-0.007900000000000018,0.008000000000000007,5.0000000000105516e-05,-0.011336238194560977,0.00945943580320674,-0.011913052203115448
152840000000.0,4,0.44260353444999995,0.19146503459999997,-2.8491260245,0.99302,-1.2434,-0.51954,0.61294504495,-4.714448921,-8.577190289499999,0.07134,0.50149,2.3083,-0.007300000000000084,0.008299999999999974,-0.00019999999999997797,-0.004443473768009465,0.005119166745734871,-0.01479597731337634
152840000000.0,4,0.27175207814999996,0.46197166819999996,-3.1302826799999997,0.89096,-1.4183,-0.65817,0.523871243,-4.7894697934999995,-8.5414940835,0.061257,0.51025,2.3005,-0.007299999999999862,0.008000000000000007,0.00019999999999997797,-0.006551402616589153,0.006838746914709315,-0.014428973285777857
152840000000.0,4,0.08856385615000001,0.5359334225,-3.140481596,0.75928,-1.4288,-0.80355,0.43846512815,-4.8534091515,-8.510112803499998,0.051477,0.51773,2.2912,-0.007200000000000095,0.008099999999999996,9.999999999998899e-05,-0.0028092786030624595,0.002271888203474015,-0.012326641039868136
152840000000.0,4,-0.2070183815,0.2618963949,-3.079680366,0.60067,-1.3112,-0.90116,0.36698445629999993,-4.9045998645,-8.484125181,0.043228,0.52374,2.2807,-0.007099999999999884,0.008099999999999996,0.00039999999999995595,-0.00027598631160818954,0.003803841310586309,-0.013578482077744258
152840000000.0,4,-0.41614519275,-0.10001802334999998,-3.0966458704999997,0.39106,-1.1347,-0.94774,0.31319498105,-4.9393154054999995,-8.466080945,0.036977,0.52784,2.2696,-0.007100000000000106,0.008199999999999985,0.00019999999999997797,0.005707162204921179,0.0020764317994845793,-0.012774969745747544
152840000000.0,4,-0.5426607844,-0.29515074505,-3.2893465429999997,0.10442,-0.965,-0.96241,0.27555705835,-4.951769851,-8.460196954999999,0.03256,0.52931,2.2584,-0.007100000000000106,0.008099999999999996,0.00039999999999995595,0.006585180326577067,0.0003277510750354651,-0.011268597234769473
152840000000.0,4,-0.6336272698,-0.41167336035,-3.5307862660000002,-0.23684,-0.80875,-0.96114,0.25145231265,-4.9365695435,-8.469807472,0.029679,0.52751,2.2473,-0.00649999999999995,0.008500000000000174,9.999999999998899e-05,0.016046638678450797,-0.001050372020964252,-0.013183804241086339
152840000000.0,4,-0.7348515110999999,-0.49180349749999996,-3.565894073,-0.59067,-0.62468,-0.95994,0.24149856289999996,-4.891360886999999,-8.496285427,0.028416,0.5222,2.2364,-0.006699999999999928,0.008199999999999985,0.000500000000000167,0.012612830676796083,-0.00319379660314012,-0.009004890309165958
152840000000.0,4,-0.8895808347999999,-0.45673491709999997,-3.3283770099999996,-0.89605,-0.39518,-0.97155,0.24973614889999998,-4.818987809999999,-8.537277224,0.029244,0.5137,2.2256,-0.00649999999999995,0.008099999999999996,0.0005999999999999339,0.01428564804596344,-0.0051695105979072675,-0.00942196769853565
152840000000.0,4,-1.0815754284999999,-0.27787142774999996,-2.928657956,-1.1094,-0.13446,-0.9948,0.27970527129999995,-4.725432369,-8.588467936999999,0.032556,0.50277,2.2147,-0.006399999999999961,0.008099999999999996,0.0008999999999999009,0.012456644909302206,-0.006576780150222561,-0.008686359607949612
152840000000.0,4,-1.2510343404999997,-0.10817715614999998,-2.4001775875,-1.2085,0.1232,-1.0328,0.3326611813,-4.619618615499999,-8.643973575999999,0.038466,0.4905,2.2035,-0.006000000000000005,0.008099999999999996,0.0008000000000001339,0.012986680175910204,-0.007567098144355855,-0.008284330384544791
152840000000.0,4,-1.3106587724999998,0.024820631149999998,-1.7976570115,-1.2024,0.32779,-1.0705,0.40554420409999997,-4.510862867,-8.6982043505,0.04659,0.47797,2.1921,-0.006099999999999994,0.008000000000000007,0.0011999999999998678,0.010946739613442169,-0.0062231755892907525,-0.008402897864447034
152840000000.0,4,-1.3610649535,0.10477424860000001,-1.24348322,-1.1225,0.44435,-1.0791,0.49059727955,-4.405931712,-8.7474337335,0.056027,0.46596,2.1807,-0.005600000000000049,0.008000000000000007,0.001100000000000101,0.010252529607706284,-0.00519736856949593,-0.00870906697891849
152840000000.0,4,-1.4269656414999998,0.079826131,-0.7650167665,-0.99679,0.43476,-1.049,0.5758661013,-4.309924608499999,-8.7899945945,0.065421,0.45503,2.1696,-0.005800000000000027,0.007799999999999807,0.0013000000000000789,0.005429347898548098,-0.0026114599552564677,-0.009101981175528628
152840000000.0,4,-1.43961622,0.0443064447,-0.37271153989999994,-0.85188,0.30884,-0.99833,0.6496317225999999,-4.225293219,-8.825788867,0.073473,0.44545,2.1591,-0.005700000000000038,0.008000000000000007,0.0012999999999998568,0.0063272029153136344,-0.00010698823359711618,-0.009153458902917855
152840000000.0,4,-1.3880332409999998,0.07544255845,-0.030410421649999998,-0.6938,0.097559,-0.94325,0.70332313135,-4.1539988735,-8.8555030165,0.079255,0.4374,2.1491,-0.005300000000000082,0.007900000000000018,0.0014000000000000679,0.002558361889576588,0.0004985841395397372,-0.009848265804865974
152840000000.0,4,-1.364693414,0.135920169,0.32825799545,-0.52737,-0.14468,-0.9009,0.7333412869999999,-4.097022237,-8.8796273755,0.082401,0.431,2.1396,-0.00529999999999986,0.008000000000000007,0.0013000000000000789,0.004827071888636958,0.002216286560691838,-0.011661301601790797
152840000000.0,4,-1.4006838195,0.31380299335,0.63277409125,-0.37558,-0.36546,-0.88424,0.7416769395,-4.053676844,-8.898750343,0.083154,0.42614,2.1303,-0.0049000000000001265,0.007900000000000018,0.0011999999999998678,-0.0010615546004513199,0.003116437391000204,-0.01086170534456965
152840000000.0,4,-1.4909049994999999,0.58995825735,0.8288580579999999,-0.23929,-0.54346,-0.8997,0.7330078609,-4.0227858965,-8.913460317999998,0.082051,0.42268,2.1207,-0.0047999999999999154,0.007900000000000018,0.0012000000000000899,0.004388529432849619,0.0034484791407654036,-0.011486373870144284
152840000000.0,4,-1.660069712,0.84400933225,1.0159689399999998,-0.12059,-0.65524,-0.91958,0.7133063010499999,-4.002878397,-8.9240515,0.079761,0.42046,2.1109,-0.0043999999999999595,0.007900000000000018,0.0011999999999998678,-0.002656187681602473,0.001580995240180627,-0.011007105670005402
152840000000.0,4,-1.8893491889999998,0.9875296549999999,1.1988629624999998,-0.018357,-0.69016,-0.93642,0.6892898152,-3.9923852815,-8.9306219555,0.07703,0.41929,2.1007,-0.0041999999999999815,0.007900000000000018,0.000700000000000145,0.0007565601167691671,0.0017852242845388666,-0.013154809160911718
152840000000.0,4,-2.060573298,1.1353158705,1.3607707539999998,0.066179,-0.66846,-0.95126,0.6666756803,-3.990129752,-8.9333678175,0.07449,0.41904,2.0903,-0.0038000000000000256,0.007900000000000018,0.0005999999999999339,-0.0005888276116503555,0.001037898980047025,-0.012201445489204765
152840000000.0,4,-2.2224810895,1.3383135255,1.4556010595,0.12318,-0.62416,-0.96938,0.6484353113,-3.993660146,-8.933073618,0.072461,0.41943,2.0797,-0.0036000000000000476,0.007900000000000018,0.0004999999999999449,-0.0016967111356769315,0.0005950374057470675,-0.010738926279539207
152840000000.0,4,-2.3603625884999997,1.5634742094999998,1.4197087205,0.14909,-0.59878,-0.98966,0.63379398285,-4.000230601499999,-8.9312103545,0.070845,0.42016,2.0688,-0.0033000000000000806,0.007900000000000018,0.00039999999999995595,-0.0012302924524760783,0.001765793141801364,-0.012630162424993152
152840000000.0,4,-2.4397964535,1.7259703999999998,1.276237431,0.1503,-0.60301,-1.027,0.6209766913,-4.007193322999999,-8.9290528915,0.069434,0.42094,2.0576,-0.0027999999999999137,0.007900000000000018,9.999999999998899e-05,-0.0021961196192155086,0.0017271494792414632,-0.013877896343754692
152840000000.0,4,-2.4801998515,1.8215852375,1.1225672254999999,0.15029,-0.64024,-1.0857,0.60774752045,-4.013861845,-8.9268954285,0.067975,0.42169,2.0458,-0.0023999999999999577,0.007800000000000029,-6.666666666665932e-05,-0.0006548039561100616,0.002258330137606679,-0.01607200918142837
152840000000.0,4,-2.5555149234999996,1.9237705305,1.009104285,0.17045,-0.70639,-1.1677,0.59231185335,-4.0216090985,-8.924443766,0.066272,0.42255,2.0332,-0.0018000000000000238,0.007599999999999829,-6.666666666665932e-05,-0.0024487867833931087,0.0013388007476906605,-0.016510251629001438
152840000000.0,4,-2.648187766,2.0698896155,0.92595369965,0.22158,-0.7813,-1.271,0.57448336365,-4.032690613,-8.920619172499999,0.064311,0.42379,2.0194,-0.0016000000000000458,0.00770000000000004,-6.666666666665932e-05,-0.007393019061115336,0.0019217675076406149,-0.017150580755661782
