Time,placement_label,user_acc_x(m/s^2),user_acc_y(m/s^2),user_acc_z(m/s^2),rotation_rate_x(rad/s),rotation_rate_y(rad/s),rotation_rate_z(rad/s),gravity_x(m/s^2),gravity_y(m/s^2),gravity_z(m/s^2),attitude_roll(rad),attitude_pitch(rad),attitude_yaw(rad),target_delta_x,target_delta_y,target_delta_z,target_delta_roll,target_delta_pitch,target_delta_yaw
153000000000.0,5,0.14653096429999998,-0.025693422999999996,-0.044973296899999994,0.17805,-0.16116,-0.056698,-0.0537600553,-3.8327330195,-9.0265309925,-0.005956,0.40153,-1.026,0.0,0.0,0.0,0.0,0.0,0.0
153000000000.0,5,0.14653096429999998,-0.025693422999999996,-0.044973296899999994,0.17805,-0.16116,-0.056698,-0.0537600553,-3.8327330195,-9.0265309925,-0.005956,0.40153,-1.026,-9.999999999998899e-05,9.999999999976694e-05,0.00039999999999995595,-0.0008700473902835126,-0.0008956292396518073,0.0008213608396500094
153000000000.0,5,0.0761976705,-0.05682953674999999,-0.04457122425,0.18004,-0.18355,-0.061992,-0.0712551189,-3.8497965904999996,-9.019176004999998,-0.007901,0.40342,-1.0266,4.999999999988347e-05,-9.090909090847532e-06,9.999999999998899e-05,-0.0018205383743236103,-0.0015595437383386646,0.0010075878812599859
153000000000.0,5,-0.05074941374999999,-0.08415086364999999,0.0005099458,0.155,-0.091735,-0.029108,-0.0955952242,-3.879118474,-9.0063292935,-0.010614,0.40668,-1.0279,5.0000000000105516e-05,-9.090909090847532e-06,9.999999999998899e-05,-0.0007088070384141387,-0.0012119699364787628,0.0010109220654210271
153000000000.0,5,-0.08243469989999999,-0.04839581775,0.0410310236,0.14058,-0.00427,0.004869,-0.097281968,-3.8909845205,-9.001229835499998,-0.010807,0.40799,-1.0284,-3.333333333332966e-05,-9.090909090847532e-06,9.999999999998899e-05,-0.0007113084748888721,-0.0007061590614649838,0.0008708499173877837
153000000000.0,5,-0.09270226244999999,-0.039530606149999994,0.0815717147,0.11021,0.086524,0.035611,-0.09120184499999999,-3.900104705,-8.9973071755,-0.010136,0.40901,-1.0281,-3.333333333332966e-05,-9.090909090847532e-06,9.999999999998899e-05,0.00042905623315003805,-0.00027651687989660445,0.00018082276648304085
153000000000.0,5,-0.0589575798,-0.01756371015,0.039834612299999995,0.074321,0.1454,0.055726,-0.07930637855,-3.9061848279999998,-8.9947574465,-0.008817,0.40969,-1.028,-3.333333333332966e-05,-9.090909090847532e-06,0.00010000000000021103,0.0003269245950053845,-4.019701514312857e-05,-0.0003543176484308852
153000000000.0,5,-0.0108461549,-0.016769371499999998,0.06581242814999999,0.041354,0.16484,0.065241,-0.0654691954,-3.9097152219999995,-8.9933845155,-0.007279,0.41008,-1.0274,-9.999999999998899e-05,-9.090909091291621e-06,3.333333333332966e-05,-7.89744817177862e-05,9.018772600888347e-05,-0.00036259708100086496
153000000000.0,5,0.05008256155,-0.0235555733,0.09868431895,0.010278,0.1438,0.057753,-0.05277939029999999,-3.910695887,-8.9929922495,-0.005869,0.41019,-1.0271,-1.999999999990898e-05,-9.090909090847532e-06,3.333333333332966e-05,-7.690605146387641e-05,-0.000169171024877679,-0.00024393707371514473
153000000000.0,5,0.10581375349999998,-0.0080806796,0.09946885094999999,-0.008248,0.08004,0.033283,-0.0452086565,-3.9100094215,-8.993286449,-0.005027,0.41011,-1.0267,-2.0000000000131024e-05,-9.090909090847532e-06,3.333333333332966e-05,-0.0004884954937244834,0.00021380210500732133,-8.253934364288451e-05
153000000000.0,5,0.1302126987,0.0018142302499999999,0.09485972544999999,-0.007454,0.021464,-0.005039,-0.04266873415,-3.9093229559999996,-8.993678715,-0.004744,0.41003,-1.0269,-1.999999999990898e-05,-9.090909090847532e-06,9.999999999998899e-05,0.0009268250207725148,0.00018813612571921823,0.0006492229336318989
153000000000.0,5,0.1076966303,0.0149649479,0.13806782534999998,0.005216,-0.010583,-0.029511,-0.042904093750000004,-3.9097152219999995,-8.993482582,-0.00477,0.41008,-1.0271,-2.0000000000131024e-05,-9.090909090847532e-06,-2.4999999999941735e-05,7.201268496870306e-05,0.0003776615386477111,0.00042012071365388204
153000000000.0,5,0.043374812949999994,0.02644853505,0.18651267635,0.014819,-0.011722,-0.032695,-0.04381611219999999,-3.9111862195,-8.9927961165,-0.004873,0.41024,-1.0279,-1.999999999990898e-05,-9.090909090847532e-06,-2.4999999999941735e-05,0.00025705519684621203,0.0002809111671799869,0.00047960912540320755
153000000000.0,5,0.0007256920999999999,0.00304986815,0.1747741163,0.020087,-0.007525,-0.012412,-0.04486542375,-3.9133436825,-8.991913517999999,-0.00499,0.41048,-1.0281,-4.999999999988347e-05,-3.333333333355171e-05,-2.500000000016378e-05,0.0010125554004414283,3.739582550310594e-05,0.0005633755067140367
153000000000.0,5,-0.0065900687999999995,-0.017259704,0.17907923564999997,0.022071,-0.003316,0.023875,-0.04653255425,-3.9155011455,-8.990932852999999,-0.005176,0.41072,-1.0282,-5.0000000000105516e-05,-3.333333333310762e-05,-2.4999999999941735e-05,0.0005378363570962552,-0.0006488863391709287,9.866451884499305e-06
153000000000.0,5,-0.0098851032,-0.022731814700000002,0.2074302608,0.015496,-0.009681,0.048425,-0.049219576349999995,-3.9173644089999997,-8.990148321,-0.005475,0.41093,-1.0277,-9.999999999998899e-05,-3.333333333355171e-05,-9.999999999998899e-05,0.002220756188779094,-0.0003504535076388482,3.7301968629194215e-05
153000000000.0,5,0.015935806249999997,0.00250069575,0.20414503304999998,0.002761,-0.002116,0.047323,-0.051249552899999995,-3.918345074,-8.9896579885,-0.005701,0.41104,-1.0274,-9.999999999998899e-05,-9.999999999976694e-05,-0.00010000000000021103,0.0007543974728376202,-2.338221594544443e-05,-6.644322305374151e-05
153000000000.0,5,-0.00832584585,0.036431704749999995,0.2106664553,-0.007697,0.015035,0.032331,-0.050935740099999995,-3.9181489409999997,-8.989756054999999,-0.005665,0.41102,-1.0271,-9.999999999998899e-05,-0.00010000000000021103,-0.00029999999999996696,0.0005228388629691105,-0.0008157220876214843,-0.000462946592703406
153000000000.0,5,-0.0432865531,0.0534462425,0.26165122864999996,-0.019197,0.027945,0.005603,-0.0479937451,-3.9169721429999997,-8.990344453999999,-0.005338,0.41088,-1.0273,-9.999999999998899e-05,-0.00019999999999997797,-0.00019999999999997797,0.0014691579593753001,-0.0002078131971576802,-0.00022113453771344105
153000000000.0,5,-0.0108069283,0.03394081565,0.2556397522,-0.046844,0.022873,-0.021121,-0.044404511199999996,-3.9136378819999997,-8.991815451499999,-0.004938,0.41051,-1.0275,-9.999999999998899e-05,-9.999999999976694e-05,-0.00039999999999995595,0.0010951409927620892,-0.0009756048771036863,-0.0005117581214656441
153000000000.0,5,0.02711538725,-0.021711923099999995,0.2446563042,-0.074546,0.016729,-0.040372,-0.0410310236,-3.907950025,-8.994267114,-0.004561,0.40988,-1.0281,-4.999999999988347e-05,-0.00019999999999997797,-0.00029999999999996696,0.001561530206706463,-0.0009986008918319023,-0.0001556513578646057
153000000000.0,5,0.035362779899999995,-0.035490266349999994,0.25498270665,-0.10228,0.013766,-0.045752,-0.03805960865,-3.899712439,-8.9978955745,-0.004229,0.40896,-1.0286,-5.0000000000105516e-05,-0.00019999999999997797,-0.00029999999999996696,0.0022201135039333075,-0.00041971058659839855,0.00016525107787282445
153000000000.0,5,0.030488874849999997,-0.05247538415,0.26682913985,-0.12785,0.021429,-0.040472,-0.034823414149999996,-3.88931739,-9.0024066335,-0.003869,0.40781,-1.0294,-3.333333333332966e-05,-0.00010000000000021103,-0.00029999999999996696,0.0003087583901645874,-0.0006703761403168418,0.00017655585715706246
153000000000.0,5,-0.0067371685499999995,-0.038873560599999996,0.2664074539,-0.14258,0.04819,-0.039478,-0.029772989399999998,-3.8774513434999998,-9.0075060915,-0.003305,0.40649,-1.0298,-3.333333333332966e-05,-9.999999999976694e-05,-0.000300000000000189,0.0006410559817933148,0.0002598328450866827,0.0004608843501785198
153000000000.0,5,-0.0212215906,-0.0027066354,0.2716245917,-0.14974,0.087675,-0.037425,-0.0212804305,-3.8647026985,-9.0129978155,-0.002361,0.40508,-1.0304,-3.333333333332966e-05,-0.00010000000000021103,-0.00019999999999997797,4.103529292509567e-05,0.00020471967647162082,-5.219515532411956e-05
153000000000.0,5,-0.0199074995,0.00932612415,0.24013543854999997,-0.15179,0.10367,-0.029985,-0.01107170785,-3.8515617874999997,-9.018587605999999,-0.001227,0.40362,-1.0307,-9.999999999998899e-05,-9.999999999976694e-05,-0.00019999999999997797,0.0009319309676137921,0.000380873834487927,-0.0002094058501320717
153000000000.0,5,0.006462582349999999,0.02240819525,0.11158987035,-0.14879,0.088705,-0.011807,-0.0022751428,-3.8386170094999996,-9.024177396499999,-0.000252,0.40219,-1.0313,-9.999999999998899e-05,-5.000000000032756e-05,-0.00019999999999997797,0.00019767697722211652,-0.00016531793281204799,-0.000775109815054853
153000000000.0,5,0.0257718762,0.01958388005,0.024232232149999998,-0.1278,0.056545,0.006432,0.00326561445,-3.8272412955,-9.028982654999998,0.000361,0.40093,-1.0312,-9.999999999998899e-05,-4.999999999988347e-05,-9.999999999998899e-05,-0.00025306402271274564,-0.0006763148278927655,-0.0005363060477192039
153000000000.0,5,0.0232613738,0.03931485985,-0.0018142302499999999,-0.092924,0.020022,0.01296,0.0053250109499999995,-3.8191998424999998,-9.0324149825,0.000589,0.40003,-1.0315,-0.00019999999999997797,2.0000000000131024e-05,-9.999999999998899e-05,-1.9393197358608116e-05,0.0003346859205473063,-0.0007102711006322926
153000000000.0,5,0.02656621485,0.06659696015,-0.05015120809999999,-0.05465,-0.006917,-0.002937,0.0051582979,-3.8145907169999997,-9.0343763125,0.000571,0.39952,-1.0315,-9.999999999998899e-05,2.0000000000131024e-05,-4.999999999988347e-05,-0.0002774622176694441,0.0003105798308200569,-0.0005434135116378636
153000000000.0,5,0.023330020349999998,0.10798102315,-0.09299646195,-0.015177,-0.022139,-0.025257,0.0041972462,-3.813610052,-9.0347685785,0.000465,0.39942,-1.0322,-9.999999999998899e-05,1.9999999999686935e-05,-5.0000000000105516e-05,-0.0004609265537548479,-7.495604435048264e-05,-0.0003426841233587774
153000000000.0,5,-0.00448163905,0.11868988494999999,-0.08788719729999998,0.011528,-0.028734,-0.042277,0.0029812216,-3.815375249,-9.033984046499999,0.00033,0.39961,-1.0326,-9.999999999998899e-05,2.0000000000131024e-05,-5.0000000000105516e-05,-0.00015547033935903176,-0.0006194256992164693,-2.3542548267529995e-06
153000000000.0,5,-0.00573689025,0.09293762204999999,-0.13970553589999998,0.013718,-0.028747,-0.050811,0.0020005566,-3.8175327119999998,-9.033101448,0.000221,0.39985,-1.0335,-0.00010000000000021103,2.0000000000131024e-05,-4.999999999988347e-05,-0.00044949484877532253,-0.0004661781217130123,0.0003614401237177489
153000000000.0,5,-0.009669356899999999,0.06859751675,-0.19298506534999998,0.014844,-0.021297,-0.050823,0.0015886773,-3.819690175,-9.0322188495,0.000176,0.40009,-1.0341,-4.999999999988347e-05,3.333333333310762e-05,-3.333333333332966e-05,0.0002041366638863007,-0.00025602323537876615,0.00023582419865497695
153000000000.0,5,0.022104189099999998,0.0512103263,-0.1714006287,0.010593,-0.012741,-0.043374,0.00199074995,-3.8210631059999995,-9.0316304505,0.00022,0.40024,-1.035,-5.0000000000105516e-05,3.333333333355171e-05,-3.333333333332966e-05,0.00020388570829787955,-0.00034781450541787606,0.00033399785269422333
153000000000.0,5,0.0506415406,0.013425303849999999,-0.1808934659,0.004242,0.002215,-0.029536,0.0032263878499999995,-3.8215534384999996,-9.0314343175,0.000358,0.4003,-1.0353,-5.0000000000105516e-05,3.333333333310762e-05,-3.333333333332966e-05,1.898665071387029e-05,-0.00046222858455902127,0.00011879979786530437
153000000000.0,5,0.02846870495,-0.0048837117,-0.1621431511,0.00535,0.022429,-0.006087,0.00534462425,-3.8217495715,-9.0312381845,0.000592,0.40032,-1.0358,-4.999999999988347e-05,3.333333333355171e-05,9.999999999998899e-05,-0.0002793913286554539,-0.0001214963903595212,1.617724697106082e-05
153000000000.0,5,0.04727785965,-0.0310478539,-0.1032247979,0.002183,0.037356,0.01096,0.008384685749999999,-3.8215534384999996,-9.0314343175,0.000929,0.40029,-1.0358,-4.999999999988347e-05,3.333333333310762e-05,9.999999999998899e-05,-0.00014173809085743505,0.0002160941030431296,-0.000172084764188285
153000000000.0,5,0.0726868898,-0.034950900599999994,-0.08668097934999999,-0.00101,0.041634,0.018419,0.0115522337,-3.8205727735,-9.0318265835,0.00128,0.40019,-1.036,-5.0000000000105516e-05,3.333333333355171e-05,9.999999999998899e-05,-0.00036337963552479646,9.994966388116033e-05,-0.0001966792392319172
153000000000.0,5,0.074922806,-0.011032481249999998,-0.09078015904999999,-0.000978,0.04164,0.012015,0.014709975,-3.819690175,-9.032120782999998,0.001628,0.40009,-1.0359,-9.999999999998899e-05,9.999999999976694e-05,9.999999999998899e-05,-0.0003673661456934374,0.00018272852422707153,-0.0002529709625531673
153000000000.0,5,0.07355968165,0.00507003805,-0.09258458265,0.008643,0.034116,-0.002898,0.0178677163,-3.8192979089999994,-9.032316916,0.001979,0.40005,-1.0361,-9.999999999998899e-05,4.999999999988347e-05,0.00019999999999997797,-0.0008744850860781805,0.0002502853790229409,-0.00026913904615369355
153000000000.0,5,0.06620469414999999,0.01636729885,-0.07163757825,0.02885,0.017979,-0.015644,0.02013305245,-3.8207689064999997,-9.031728517,0.002229,0.40021,-1.0363,2.4999999999941735e-05,5.000000000032756e-05,9.999999999998899e-05,-0.0010404246802634964,0.0003294768404236148,-2.353717856976023e-05
153000000000.0,5,0.06510634935,0.012729031699999999,-0.07789422095,0.044756,0.002941,-0.023063,0.0215354034,-3.823808968,-9.030355585999999,0.002385,0.40055,-1.0368,2.500000000016378e-05,9.999999999976694e-05,9.999999999998899e-05,-0.0003682969688549864,0.00011370108632346998,0.00010966967349337886
153000000000.0,5,0.06591049465,0.0150434011,-0.08978968739999998,0.056341,-0.017399,-0.025141,0.021623663249999998,-3.8282219604999996,-9.0284923225,0.002395,0.40104,-1.0371,2.4999999999941735e-05,5.000000000032756e-05,9.999999999998899e-05,-0.000634960036597354,3.1525970680679194e-05,0.00043551901731658793
153000000000.0,5,0.0738048479,-0.0172793173,-0.0758446311,0.06363,-0.033457,-0.013358,0.019564266749999996,-3.8335175514999995,-9.026334859499999,0.002168,0.40162,-1.0375,2.4999999999941735e-05,4.999999999988347e-05,0.00019999999999997797,-0.0005756052390011868,-0.00033365129100948465,0.0005125238029431434
153000000000.0,5,0.0547603336,-0.04774857885,-0.04670907395,0.065653,-0.036688,0.003729,0.016465365349999997,-3.8392054085,-9.023883197,0.001825,0.40225,-1.0375,4.999999999988347e-05,9.999999999976694e-05,9.999999999998899e-05,-0.00010575963936210186,3.9022096600227485e-05,0.0006965854034184371
153000000000.0,5,0.07807074064999998,-0.0492489963,0.0035500073,0.064618,-0.021773,0.018644,0.013954862949999999,-3.8448932654999997,-9.0214315345,0.001547,0.40288,-1.0376,5.0000000000105516e-05,0.00010000000000021103,0.00010000000000021103,0.00019656857191902022,-0.00023863246510869018,0.00046080712187160366
153000000000.0,5,0.10389165009999998,-0.044443737799999994,0.027605719749999997,0.065785,-0.002613,0.029286,0.01267999845,-3.8505811225,-9.018979872,0.001406,0.40352,-1.0373,9.999999999998899e-05,9.999999999976694e-05,9.999999999998899e-05,-0.0004141610056840328,0.0002448367422369646,0.0004318531245139645
153000000000.0,5,0.12778064949999998,-0.03723585005,0.026556408199999996,0.061589,0.009141,0.03246,0.012572125299999999,-3.8558767135,-9.016822409,0.001395,0.4041,-1.0371,4.999999999988347e-05,5.000000000032756e-05,0.00029999999999996696,6.531690103783738e-06,-0.00022674026030000682,0.00018166597412372365
153000000000.0,5,0.17623530715,-0.038157675149999994,0.01175817335,0.062623,0.006998,0.035668,0.012464252149999999,-3.861074238,-9.0145668795,0.001382,0.40468,-1.0368,5.0000000000105516e-05,4.999999999988347e-05,9.999999999998899e-05,-0.0018967881363404215,-0.00013856261840161643,-0.00016473047310514022
153000000000.0,5,0.18717952854999997,-0.020123245799999998,0.00526617105,0.060485,0.004889,0.032465,0.012140632699999999,-3.8660756295,-9.012409416499999,0.001347,0.40524,-1.0366,9.999999999998899e-05,-9.090909090847532e-06,4.999999999988347e-05,-0.001488135148360381,0.0006793594792833257,-0.0005220642331777159
153000000000.0,5,0.19592706035,-0.013082071099999999,-0.0024124359,0.056244,0.004929,0.027121,0.011767979999999999,-3.8707828214999997,-9.0104480865,0.001306,0.40575,-1.0363,3.333333333332966e-05,-9.090909090847532e-06,5.0000000000105516e-05,-0.0013447426259676765,0.0010828339557118483,-0.0008207966044723736
153000000000.0,5,0.1566906537,0.0118072066,0.029792602699999997,0.060628,0.015548,0.023909,0.012395605599999998,-3.8758822795,-9.008192557,0.001376,0.40632,-1.0364,3.333333333355171e-05,-9.090909091291621e-06,9.999999999998899e-05,-0.0007320657206938419,0.00023847806232835111,-0.00034191458648533124
153000000000.0,5,0.08924051499999999,0.02576206955,0.0646062102,0.074503,0.010116,0.014336,0.013562596949999998,-3.8819624024999997,-9.005642828,0.001506,0.40699,-1.0362,3.333333333332966e-05,-9.090909090847532e-06,4.999999999988347e-05,-0.000761362799761911,-0.0007050091159728211,-0.00010768168744118567
153000000000.0,5,0.045689182349999996,-0.06772472489999999,0.48261466644999995,0.0902,-0.042199,-0.010096,0.0119248864,-3.8907883875,-9.0018182345,0.001325,0.40797,-1.0366,-3.333333333332966e-05,-9.090909090847532e-06,5.0000000000105516e-05,-0.0001536896978325819,-0.0013571989767904302,0.00029766797160368785
153000000000.0,5,0.07069613984999999,-0.0701371608,0.46525689594999997,0.067443,-0.097404,-0.028184,0.00561921045,-3.8973588429999997,-8.998974306,0.000624,0.4087,-1.0369,-3.333333333355171e-05,-9.090909090847532e-06,-0.00019999999999997797,-0.00018672384359569305,-0.0021061422194037505,0.0005262206162989502
153000000000.0,5,0.07677626284999998,0.14481480055,0.249481176,0.086784,-0.08264,-0.032446,-0.0004609125499999999,-3.904615764,-8.995836178,-5.2e-05,0.40951,-1.0375,-3.333333333332966e-05,-9.090909090847532e-06,0.00029999999999996696,0.003398467084588852,-0.0011850669414221748,0.0009248743665841996
153000000000.0,5,0.12699611749999998,0.02336924695,0.36742575554999996,0.084093,-0.012299,-0.021901,-0.00130428445,-3.9124610839999994,-8.992403850499999,-0.000145,0.41038,-1.0378,-2.4999999999941735e-05,-9.090909090847532e-06,-2.4999999999941735e-05,-0.0003550663139757493,-0.0015579486109023044,0.0004042592681019752
153000000000.0,5,-0.1041073964,0.030792880999999998,0.08072834279999999,0.052867,0.078542,-0.031721,0.005952636549999999,-3.9179528079999995,-8.9900502545,0.000662,0.41099,-1.0385,-2.4999999999941735e-05,-9.090909091291621e-06,-2.4999999999941735e-05,2.4253959812758907e-05,-0.0007723746225472006,0.00010199024481058472
153000000000.0,5,-0.14636425125,0.0065704555,-0.03235213835,0.020362,0.14914,-0.03297,0.0205155118,-3.9202083374999996,-8.988971523,0.002282,0.41124,-1.0389,-2.500000000016378e-05,-9.090909090847532e-06,-2.500000000016378e-05,-0.0005821740048009838,-0.0005902711130116867,-0.00013206051927808216
153000000000.0,5,-0.1481392549,-0.07314780235,-0.022418001899999998,-0.008352,0.16748,-0.022378,0.03725546335,-3.9199141379999998,-8.9890695895,0.004145,0.41121,-1.0395,-2.4999999999941735e-05,-9.090909090847532e-06,-2.4999999999941735e-05,-0.0002598450128414864,0.00017795070139769997,-0.0004998241052779906
153000000000.0,5,-0.12677056455,-0.07710968894999999,-0.08095389574999999,-0.024604,0.14309,-0.011689,0.05165162555,-3.917756675,-8.989952187999998,0.005746,0.41097,-1.0397,-9.999999999998899e-05,-3.333333333310762e-05,9.999999999998899e-05,-0.001857694449815761,0.0003524678291149108,-0.0010246977644718658
153000000000.0,5,-0.10865768199999999,-0.0706667199,-0.0557802252,-0.016337,0.10893,-0.012682,0.06301753289999999,-3.917168276,-8.990148321,0.007009,0.41091,-1.0401,-0.00019999999999997797,-3.333333333355171e-05,9.999999999998899e-05,-0.002440395910258797,-0.00020270617471407348,-0.0013388719135519755
153000000000.0,5,-0.11864085169999998,-0.04733669954999999,0.034499794699999996,0.011078,0.062891,-0.021092,0.07060788,-3.9186392734999997,-8.989363789,0.007854,0.41107,-1.0403,-0.00019999999999997797,-3.333333333310762e-05,-5.0000000000105516e-05,-0.0016671605939834189,-0.0010181021173829574,-0.000879305028545746
153000000000.0,5,-0.13296836734999998,-0.018338435499999996,0.07200042429999999,0.042776,0.016827,-0.034833,0.07446189345,-3.921483202,-8.988186991,0.008284,0.41138,-1.041,-0.00019999999999997797,-5.000000000032756e-05,-4.999999999988347e-05,-0.0014783734885989164,-0.0015915184566863694,-0.0006095125133941115
153000000000.0,5,-0.15290528679999998,-0.00199074995,0.0814344216,0.073472,-0.021774,-0.047521,0.0753935252,-3.927955591,-8.9853430625,0.00839,0.4121,-1.0415,-0.00019999999999997797,-4.999999999988347e-05,-9.999999999998899e-05,-0.0005187594676099305,-0.0003340102214703933,-0.0004854377274873256
153000000000.0,5,-0.19489736209999997,0.00485429175,0.08673981925,0.09157,-0.035765,-0.060273,0.07354006834999999,-3.9357028445,-8.981910735,0.008187,0.41297,-1.0423,-0.00019999999999997797,-9.999999999976694e-05,-9.999999999998899e-05,-0.0004351347683732021,-0.00027847238374922867,-0.0005849665028783702
153000000000.0,5,-0.23947839299999998,0.01673995155,0.05920274605,0.088657,-0.009086,-0.075269,0.07368716809999999,-3.9435481644999997,-8.978478407499999,0.008206,0.41384,-1.043,-0.00029999999999996696,-0.00010000000000021103,-2.4999999999941735e-05,-0.0003078817453868177,-0.001574713100195746,-1.9124251177254914e-05
153000000000.0,5,-0.28330431185,0.0317343194,0.08096370239999999,0.06879,0.033711,-0.086052,0.07800209409999999,-3.9504128195,-8.975438346,0.008691,0.41461,-1.0441,-0.00029999999999996696,-0.00019999999999997797,-2.4999999999941735e-05,0.0005666054174974788,-0.00044875322030923925,-0.00048365380556281146
153000000000.0,5,-0.3190691644,0.00797280645,0.07055884675,0.033855,0.06597,-0.089371,0.08593567395,-3.954237413,-8.973673149,0.009576,0.41503,-1.0451,-0.000300000000000189,-4.999999999988347e-05,-2.500000000016378e-05,0.005131090299330565,-0.0013871332197712416,0.0009213409438289244
153000000000.0,5,-0.2946506059,-0.00267721545,0.0568001168,-0.002345,0.082251,-0.08306,0.09563445079999999,-3.954629679,-8.973378949499999,0.010657,0.41508,-1.0462,-0.00029999999999996696,-4.999999999988347e-05,-2.4999999999941735e-05,0.0012396139843398601,0.0007401307559802284,-0.00034864171414919487
153000000000.0,5,-0.24552909604999998,-0.0159063863,0.10990312655,-0.021573,0.08666,-0.07136,0.10547052075,-3.953060615,-8.973967348499999,0.011753,0.4149,-1.047,-0.00029999999999996696,-0.00010000000000021103,-9.999999999998899e-05,-0.0006964152549931435,0.00011822272382566723,-0.0009220332030277223
153000000000.0,5,-0.20936217084999997,-0.027674366299999996,0.22255211509999998,-0.019545,0.078101,-0.059598,0.114345539,-3.9511973515,-8.9747518805,0.01274,0.41469,-1.048,-0.00019999999999997797,-0.00019999999999997797,-0.00019999999999997797,-0.0005407047468776183,0.0009253091143073267,-0.0011456544856678352
153000000000.0,5,-0.1285455682,-0.024153778949999996,0.2940818202,-0.019884,0.042926,-0.047795,0.12016088244999999,-3.949334088,-8.975438346,0.013387,0.41449,-1.0485,-0.00029999999999996696,-0.00019999999999997797,-0.00019999999999997797,-0.0007610694893912529,6.328392942300809e-05,-0.0008114942929522972
153000000000.0,5,-0.0157298666,-0.017955976149999997,0.2935718744,-0.017194,-0.01358,-0.038085,0.12062179499999999,-3.9477650239999993,-8.976124811499998,0.013437,0.41431,-1.0491,-0.00019999999999997797,-0.00010000000000021103,-0.000300000000000189,-0.0004662096057593823,-0.0009774951929415465,-0.000522561239818059
153000000000.0,5,0.05239693095,0.00459931885,0.28697199895,-0.016481,-0.055149,-0.033741,0.1162480291,-3.9461959599999994,-8.9769093435,0.012949,0.41414,-1.0494,-0.00029999999999996696,-0.00019999999999997797,-0.00029999999999996696,0.002293915922803591,0.001316965663948677,-0.0006693525998917316
153000000000.0,5,0.0729810893,0.050916126799999996,0.2848831825,-0.021882,-0.068948,-0.042265,0.110030613,-3.9443326965,-8.977791942,0.012255,0.41393,-1.05,-0.00019999999999997797,-9.999999999976694e-05,-0.00029999999999996696,0.0010185046324650004,0.001033389171735788,-0.0008418129065130286
153000000000.0,5,0.07506990575,0.0962620764,0.29989716364999996,-0.035678,-0.065628,-0.051902,0.104342756,-3.941684901,-8.9790668065,0.01162,0.41363,-1.0505,-0.00020000000000020002,-0.00010000000000021103,-0.00029999999999996696,0.003137921983906611,0.0010262105444382996,9.972900994578704e-05
153000000000.0,5,0.06369419174999999,0.09747810099999998,0.26382830495,-0.053701,-0.052685,-0.056226,0.1000082167,-3.9372719085,-8.98093007,0.011135,0.41315,-1.0514,-0.00019999999999997797,-9.999999999976694e-05,-0.00029999999999996696,0.0005773092523813639,0.0006641654013288534,0.0003471883162676215
153000000000.0,5,0.06066393689999999,0.08503346214999999,0.25663022385,-0.07067,-0.036567,-0.050947,0.09750752095,-3.9315840515,-8.983479799,0.010853,0.41251,-1.0519,-9.999999999998899e-05,-0.00019999999999997797,-0.00039999999999995595,0.00046101335058534865,0.0008318359898800143,-0.0002846941345505116
153000000000.0,5,0.1005377758,0.06475330995,0.27288964955,-0.08138,-0.031174,-0.031761,0.0953402513,-3.9249155294999993,-8.986421793999998,0.010609,0.41177,-1.0527,-9.999999999998899e-05,-0.00019999999999997797,-0.000400000000000178,0.0009889093303409036,0.0011768457371674756,-0.0005476994228448828
153000000000.0,5,0.1402743216,0.0471111466,0.24133184984999997,-0.087904,-0.033273,-0.01042,0.09270226244999999,-3.917756675,-8.989559922,0.010312,0.41097,-1.0529,-5.0000000000105516e-05,-0.00010000000000021103,-0.0005999999999999339,-1.2626879220212217e-05,0.0011118220843169269,-0.00021048303115517308
153000000000.0,5,0.19828065635,0.03913834014999999,0.26079805009999996,-0.090251,-0.049258,0.00775,0.0887305692,-3.9103036209999997,-8.992894182999999,0.009866,0.41014,-1.0531,-4.999999999988347e-05,-9.999999999976694e-05,-0.00039999999999995595,0.0013281827925751277,0.0006202636999452782,0.00010338565459916405
153000000000.0,5,0.25825812775,0.0362453784,0.24718641989999998,-0.096868,-0.071589,0.01525,0.08262102625,-3.9021641014999995,-8.9965226435,0.009183,0.40923,-1.0529,-9.999999999998899e-05,-0.00010000000000021103,-0.00029999999999996696,0.0014973109228907933,0.0005586470987937187,0.00015910301599914023
153000000000.0,5,0.2667016534,0.04500271685,0.15332697274999998,-0.10334,-0.080058,0.014186,0.07521700549999999,-3.8933381164999994,-9.000347237,0.008357,0.40826,-1.0529,5.0000000000105516e-05,-9.999999999976694e-05,-0.00039999999999995595,0.00057963031820224,0.0008094688268729389,-0.00013483876917433357
153000000000.0,5,0.24389138549999997,0.07666838969999999,0.14273579074999998,-0.099111,-0.086484,0.01207,0.06736187885,-3.8848063309999996,-9.0041718305,0.007481,0.40731,-1.0528,4.999999999988347e-05,-0.00010000000000021103,-0.000500000000000167,0.0007074713768309149,-1.2378676303992364e-06,0.0001757657868977358
153000000000.0,5,0.23436912834999998,0.08634755325,0.09403596685,-0.093646,-0.0748,0.004587,0.060418770649999995,-3.876372612,-9.007800291,0.006707,0.40637,-1.053,4.999999999988347e-05,-9.999999999976694e-05,-0.00039999999999995595,0.00022517803101596012,-0.000469948136891718,0.00042529037481991994
153000000000.0,5,0.20829324599999996,0.08966220094999999,0.0445614176,-0.090332,-0.062038,0.002435,0.054770140249999995,-3.8683311589999994,-9.011330685,0.006078,0.40548,-1.053,5.0000000000105516e-05,-5.000000000032756e-05,-0.0005999999999999339,-0.0005429364159091898,-0.0011507563935930776,0.0008359903123573431
153000000000.0,5,0.18576737095,0.09103513194999999,0.03677493749999999,-0.088042,-0.037555,0.009867,0.05110245315,-3.8606819719999996,-9.0145668795,0.005669,0.40463,-1.0532,9.999999999998899e-05,-4.999999999988347e-05,-0.0004999999999999449,-3.655429501819851e-05,-0.0013263257074167534,0.000950884012965475
153000000000.0,5,0.1563376143,0.08389589075,0.0580749813,-0.087895,-0.009866,0.024762,0.0494059027,-3.8532289179999997,-9.017803074,0.005479,0.40381,-1.053,0.00019999999999997797,-4.999999999988347e-05,-0.000400000000000178,0.0011641433768297405,-0.00013439004008075628,0.0012586073085055216
153000000000.0,5,0.14399104194999998,0.0817678477,0.02878251775,-0.094173,0.015736,0.043921,0.049641262299999996,-3.8454816644999994,-9.021137335,0.005502,0.40294,-1.0528,6.666666666665932e-05,-4.999999999988347e-05,-0.00019999999999997797,0.0017726509450222139,0.0004599730064824836,0.0007067477922751975
153000000000.0,5,0.14958083244999998,0.0642531708,-0.013023231199999999,-0.10465,0.052033,0.063052,0.052426350899999995,-3.8367537459999994,-9.0247657955,0.005809,0.40198,-1.0522,6.666666666665932e-05,-4.999999999988347e-05,-9.999999999998899e-05,-0.00014269757872475974,0.0014837713792648088,0.00023130353856790076
153000000000.0,5,0.13214460875,0.050161014749999996,0.0242616521,-0.10763,0.089345,0.075788,0.058192661099999994,-3.8274374285,-9.0286884555,0.006445,0.40095,-1.0517,6.666666666665932e-05,-5.000000000032756e-05,-0.00039999999999995595,0.0020711055305695503,0.0012251716860856021,0.00047769200741831774
153000000000.0,5,0.15979936175,0.03252865805,0.023987065899999997,-0.10977,0.092553,0.082183,0.0648023432,-3.8177288449999995,-9.0328072485,0.007174,0.39987,-1.0508,0.00010000000000021103,-5.000000000032756e-05,-0.00029999999999996696,0.0008493257211119598,0.0014909630227621928,0.00033997237550528747
153000000000.0,5,0.20845995905,-0.035568719549999996,-0.0346763144,-0.1026,0.057327,0.084393,0.06881326304999999,-3.8085105939999995,-9.036631841999998,0.007615,0.39885,-1.0501,0.00029999999999996696,-4.999999999988347e-05,-0.0004999999999999449,-0.0025391199052869906,-0.0003184860858784777,9.71523036386035e-05
153000000000.0,5,0.2316526863,-0.07255940335,-0.0572512227,-0.093419,0.002908,0.08237,0.06806795765,-3.7998807419999996,-9.040260302499998,0.00753,0.3979,-1.0492,0.00019999999999997797,-1.6666666666775853e-05,-0.000400000000000178,-0.0009400960093823851,-0.00033199484926926814,0.0007016999287588754
153000000000.0,5,0.23620297189999998,-0.07631535029999999,-0.07922792534999999,-0.084187,-0.049375,0.073939,0.06261546024999999,-3.7921334884999998,-9.0435945635,0.006924,0.39704,-1.0486,9.999999999998899e-05,-1.6666666666331764e-05,-0.00019999999999997797,0.0011802896143707775,0.0004039746476811601,0.0011104117757833043
153000000000.0,5,0.1881111603,-0.09478127224999999,-0.12661365815,-0.073575,-0.063305,0.063308,0.0551918262,-3.7852688335,-9.046438491999998,0.006101,0.39629,-1.0479,9.999999999998899e-05,-1.6666666666775853e-05,-9.999999999998899e-05,0.001016046411547955,2.1622860789216602e-05,0.0014567981627817694
153000000000.0,5,0.08506288209999999,-0.05302455655,-0.1109720514,-0.061598,-0.037824,0.05688,0.04946474259999999,-3.77948291,-9.0488901545,0.005466,0.39564,-1.0476,0.00019999999999997797,-1.6666666666775853e-05,-0.00019999999999997797,0.0016174502241539934,-0.0008388866665205441,0.0013850308987179705
153000000000.0,5,-0.0101400761,-0.0429923536,-0.1335077331,-0.050524,0.017489,0.064273,0.0481506515,-3.7746776514999993,-9.050949550999999,0.00532,0.39511,-1.0469,9.999999999998899e-05,-1.6666666666331764e-05,1.666666666655381e-05,0.000311021264149447,-0.0002012119715850691,0.001270442770389374
153000000000.0,5,-0.07217694399999999,-0.043482686099999994,-0.1605544738,-0.044876,0.06432,0.074874,0.050925933449999995,-3.770656925,-9.0526166815,0.005625,0.39466,-1.0464,9.999999999998899e-05,-1.6666666666775853e-05,1.6666666666775853e-05,0.001857488754286929,0.0002007139765085597,0.0007018257424070695
153000000000.0,5,-0.08895612214999998,-0.05322068955,-0.20050676589999997,-0.046845,0.090966,0.08443,0.056486304,-3.7665381319999995,-9.054283812,0.006239,0.39422,-1.0456,5.0000000000105516e-05,-3.333333333355171e-05,1.6666666666775853e-05,-5.834074544669443e-05,-0.0003003797998564206,0.00039896490490634595
153000000000.0,5,-0.06599875449999999,-0.08290541909999999,-0.22877933785,-0.038236,0.10367,0.091895,0.06330192574999999,-3.763203871,-9.055656743,0.00699,0.39385,-1.0449,4.999999999988347e-05,-3.333333333310762e-05,1.666666666655381e-05,0.00019585433993490886,0.00012887324588528593,0.00018102040655446072
153000000000.0,5,-0.042080335149999995,-0.10724552439999999,-0.18752276129999998,-0.024367,0.10356,0.091919,0.0705098135,-3.761046408,-9.0565393415,0.007785,0.3936,-1.0439,-1.0000000000065512e-05,-3.333333333355171e-05,1.666666666655381e-05,-5.811779768610803e-05,-0.0004173239736358081,3.531765794603792e-05
153000000000.0,5,-0.018818961349999996,-0.1253878269,-0.17479372959999998,-0.015929,0.085388,0.080224,0.07672722959999999,-3.7597715435,-9.0569316075,0.008472,0.39347,-1.0432,-9.999999999843467e-06,-4.999999999988347e-05,1.6666666666775853e-05,0.0014478323994647213,-0.0008196151966877174,0.00014638298955579887
153000000000.0,5,0.01064021525,-0.12862402139999998,-0.18947428465,-0.005372,0.055491,0.054677,0.08094408909999999,-3.7593792775,-9.057029674,0.008937,0.39342,-1.0426,-1.0000000000065512e-05,-4.999999999988347e-05,-9.999999999998899e-05,-0.002249449522133573,-5.786499678883672e-05,-0.0003564775498388073
153000000000.0,5,0.017426417049999997,-0.10731417095,-0.12500536755,0.005196,0.02134,0.020599,0.08283677254999999,-3.7597715435,-9.0569316075,0.009146,0.39346,-1.0425,-1.0000000000065512e-05,-5.000000000032756e-05,3.333333333332966e-05,-0.0006482794286730709,-0.0006068873762221649,5.008482735294195e-05
153000000000.0,5,0.0082964259,-0.1074612707,-0.08621026015,0.016894,-4e-05,-0.006028,0.0829838723,-3.7611444744999996,-9.0563432085,0.009163,0.39361,-1.0425,-9.999999999843467e-06,-4.999999999988347e-05,3.333333333332966e-05,-0.0007807057905356851,-0.0011127533893962038,-0.00010559415837810282
153000000000.0,5,-0.0228887211,-0.0925355494,-0.05557428555,0.023306,-0.004345,-0.015616,0.08273870605,-3.7630077379999998,-9.055558676499999,0.009137,0.39382,-1.0428,-1.0000000000065512e-05,-9.999999999976694e-05,3.333333333332966e-05,0.0001365959451942178,-0.0011401217825113275,0.0001440410152004079
153000000000.0,5,-0.06173286175,-0.062233000899999995,-0.04867040395,0.020273,0.015928,-0.016725,0.08358207794999999,-3.764772935,-9.054872211,0.00923,0.39401,-1.0429,-1.0000000000065512e-05,-4.999999999988347e-05,-4.999999999988347e-05,0.0005058386757325062,-0.0010477723570232467,0.0003251708666978381
153000000000.0,5,-0.09524218479999999,-0.048778277099999996,-0.03980519235,0.016223,0.045796,-0.013583,0.08701440545,-3.7663419989999998,-9.054087678999998,0.00961,0.39419,-1.0432,-1.0000000000065512e-05,-5.000000000032756e-05,-5.0000000000105516e-05,0.0018100609038145254,-0.0007750457391233478,0.00042624285031089837
153000000000.0,5,-0.05622152445,-0.04859195075,-0.0061781894999999995,-0.001782,0.062992,-0.012577,0.0927316824,-3.7667342649999997,-9.053891546,0.010242,0.39423,-1.0433,-9.999999999843467e-06,-4.999999999988347e-05,9.999999999998899e-05,0.00044437720223172716,-0.0005748404010050834,0.000315024383485657
153000000000.0,5,-0.0339506223,-0.0339506223,-0.05127897285,-0.027345,0.067469,-0.014764,0.09919426475,-3.7648710014999995,-9.054578011499999,0.010954,0.39403,-1.0436,-1.0000000000065512e-05,-4.999999999988347e-05,9.999999999998899e-05,0.0001213709915291461,-0.0004167347718051495,0.0002598268847140428
153000000000.0,5,-0.01642613875,-0.0259287826,-0.06779337145,-0.046544,0.067628,-0.015865,0.10591182,-3.7612425409999997,-9.056049008999999,0.011694,0.39363,-1.0438,-5.0000000000105516e-05,3.333333333310762e-05,9.999999999998899e-05,0.001967293109930046,-0.0008748703541341385,0.000633424543283273
153000000000.0,5,-0.0356569794,-0.00752170055,-0.051975244999999996,-0.05618,0.064503,-0.011606,0.1124234356,-3.7564372825,-9.058010338999999,0.012411,0.3931,-1.0442,-4.999999999988347e-05,3.333333333355171e-05,9.999999999998899e-05,-0.0012949467987505292,0.00011092435084525398,-0.0004393629460800186
153000000000.0,5,-0.072373077,0.037412369749999994,-0.052102731449999995,-0.056319,0.053837,-0.000913,0.11770921994999999,-3.7515339575,-9.0598736025,0.012992,0.39256,-1.0442,-9.999999999998899e-05,3.333333333310762e-05,0.00020000000000020002,-0.0012012671191161672,0.0014655848072175903,-0.00046333606682497086
153000000000.0,5,-0.11429650575,0.07369697474999999,-0.05712373625,-0.035162,0.036604,0.007693,0.1210336743,-3.7481016299999994,-9.0613446,0.013356,0.39217,-1.0444,-9.999999999998899e-05,-9.999999999976694e-05,-0.00010000000000021103,-0.0026538374683243715,0.0009530997157667365,-0.000943803675505811
153000000000.0,5,-0.14040180805,0.13728329334999997,-0.0239478393,0.005235,0.020284,0.010994,0.1224458319,-3.747709364,-9.0614426665,0.013512,0.39214,-1.0442,-9.999999999998899e-05,9.999999999976694e-05,0.00010000000000021103,-0.0007209642280151529,0.0014310564735102727,-0.00017466674647603764
153000000000.0,5,-0.14909049994999998,0.17189096119999997,0.0472484397,0.054057,-0.015272,0.003669,0.12110232085,-3.7518281569999994,-9.059775536,0.013367,0.39259,-1.0444,-9.999999999998899e-05,1.6666666666775853e-05,4.999999999988347e-05,-0.0011234338915514508,0.0009129130288452192,-0.00033761398771442463
153000000000.0,5,-0.1165618419,0.18488477245,0.056025391449999996,0.082523,-0.061322,-0.001538,0.11612054265,-3.7589870114999995,-9.056833541,0.01282,0.39338,-1.0444,-9.999999999998899e-05,1.6666666666775853e-05,5.0000000000105516e-05,-0.0012889244732995353,0.000952761013656378,-0.00012780778090010214
153000000000.0,5,-0.1002631896,0.1441969816,0.0303417751,0.093971,-0.097655,0.00175,0.10774566355,-3.767322664,-9.05349928,0.011901,0.3943,-1.0446,-9.999999999998899e-05,1.6666666666775853e-05,0.00019999999999997797,-0.001344520697943219,0.00036654602297780947,9.362821992506265e-05
153000000000.0,5,-0.10009647655000001,0.09172159745,0.0499943017,0.091605,-0.12002,0.012459,0.09680144214999999,-3.7757563829999996,-9.050066952499998,0.010696,0.39523,-1.0445,-0.00019999999999997797,1.6666666666331764e-05,9.999999999998899e-05,-0.0008017036683395373,-3.0645648165794626e-06,0.00031739590995336076
153000000000.0,5,-0.0911037785,0.0385205212,0.05778078179999999,0.075453,-0.12948,0.020985,0.08436660994999999,-3.7829152374999997,-9.047223024,0.009325,0.39602,-1.0444,-9.999999999998899e-05,1.6666666666775853e-05,0.0001500000000000945,-0.0015485634722643415,-0.001526684325207306,-0.00010728162147097264
153000000000.0,5,-0.0874360914,-0.00210842975,0.054466134099999994,0.059552,-0.11337,0.026266,0.07247114349999999,-3.7882108285,-9.0451636275,0.008012,0.39661,-1.0442,-0.000300000000000189,1.6666666666775853e-05,0.00014999999999987246,0.00028697297991753246,-0.0006896201327082352,0.0002286541701709277
153000000000.0,5,-0.11228614249999999,-0.026840801049999998,0.025693422999999996,0.061963,-0.079298,0.027278,0.06305675949999999,-3.7931141535,-9.043104231,0.006973,0.39715,-1.0441,-0.00029999999999996696,-0.00010000000000021103,0.00029999999999996696,-0.00025791992870960456,0.0001535381476198694,-0.00038012160532679973
153000000000.0,5,-0.11120741099999999,-0.0032361944999999997,0.08689672565,0.074066,-0.036768,0.021887,0.0574865823,-3.798900077,-9.040750635,0.006359,0.39779,-1.0438,-0.00019999999999997797,-0.00010000000000021103,3.333333333332966e-05,0.0009529648154237846,0.001351063979741829,-0.0007059820799122096
153000000000.0,5,-0.10803005639999999,0.00065704555,0.0750404858,0.087142,-0.011289,0.009057,0.0550545331,-3.8057647319999997,-9.0379067065,0.006091,0.39855,-1.0439,-9.999999999998899e-05,-9.999999999976694e-05,3.333333333332966e-05,-0.0014306433089653625,0.0005101608559916482,-0.0011406463760010588
153000000000.0,5,-0.03115572705,-0.067862018,0.08819120344999999,0.092577,-0.011313,-0.011215,0.05420135455,-3.8133158524999997,-9.0347685785,0.005999,0.39938,-1.044,-0.00019999999999997797,-9.999999999976694e-05,3.333333333332966e-05,-0.0008776399522100187,-6.585729778052496e-05,-0.0013464494757471357
153000000000.0,5,0.050798447,-0.10652963894999999,0.10066526225,0.08081,-0.028243,-0.032553,0.0528970701,-3.820278574,-9.0318265835,0.005857,0.40015,-1.0445,-0.00029999999999996696,-0.00019999999999997797,9.999999999998899e-05,0.0009138803134297602,0.0001285159782209444,-0.0012131460103085023
153000000000.0,5,0.09617381654999999,-0.140235095,0.09146662455,0.059437,-0.045095,-0.052841,0.05076902705,-3.825770298,-9.029472987499998,0.005622,0.40076,-1.045,-0.00039999999999995595,-0.00010000000000021103,0.00019999999999997797,0.002224818880318835,0.0008253301618859066,-0.001177078354368949
153000000000.0,5,0.11564982345,-0.18005990064999997,0.09804688669999999,0.037157,-0.040635,-0.068898,0.0489547968,-3.829300692,-9.02800199,0.005422,0.40116,-1.046,-0.00019999999999997797,-9.999999999976694e-05,-9.999999999998899e-05,0.0010874151962146916,-0.002244575953371575,-0.00026907659399982853
153000000000.0,5,0.06579281484999999,-0.14445195449999998,0.1318798292,0.020287,-0.03088,-0.093495,0.04898421675,-3.8314581549999995,-9.0271193915,0.005426,0.40139,-1.047,-0.00019999999999997797,-0.00019999999999997797,-9.999999999998899e-05,0.0012558750173632949,1.303169685362704e-05,-0.0008897966914148958
153000000000.0,5,0.0510730332,-0.08721053845,0.1454522328,0.011865,-0.02759,-0.1138,0.05022966129999999,-3.8325368865,-9.026629059,0.005564,0.40151,-1.0484,-0.00020000000000020002,-0.00019999999999997797,4.999999999988347e-05,-0.0013366484115072685,-0.0006158237598401506,-0.0012297561910039334
153000000000.0,5,0.0426785408,-0.06504750945,0.12624100545,0.002347,-0.02643,-0.12876,0.0521909913,-3.8330272189999994,-9.026432926,0.005782,0.40157,-1.0498,-0.00019999999999997797,-0.00010000000000021103,5.0000000000105516e-05,0.00045116066976075286,0.0005497237471456806,-0.0007096668292611019
153000000000.0,5,0.007825706699999999,-0.0063350959,0.1062648594,-0.00729,-0.030613,-0.12877,0.05396599495,-3.8324388199999997,-9.026629059,0.005979,0.4015,-1.0513,-0.00019999999999997797,-4.999999999988347e-05,-3.333333333332966e-05,0.000404291958618741,0.00029622908963222727,-7.037686705194113e-05
153000000000.0,5,-0.0110422879,0.03564717275,0.0805322098,-0.016856,-0.016697,-0.11387,0.05653533725,-3.8313600884999994,-9.0271193915,0.006263,0.40138,-1.0526,-9.999999999998899e-05,-4.999999999988347e-05,-3.333333333332966e-05,-0.0005296303740004449,0.00018821708674887638,-0.00017927257346439518
153000000000.0,5,-0.04723863305,0.061144462749999996,0.1096775736,-0.02751,0.002545,-0.087234,0.060104957849999995,-3.8295948915,-9.027805856999999,0.006658,0.40119,-1.0538,-9.999999999998899e-05,-0.00010000000000021103,-3.333333333332966e-05,-0.000833570683278495,0.00027673512886439156,-0.00038248015571498706
153000000000.0,5,-0.0306752012,0.09843915269999999,0.0941046134,-0.036095,0.014308,-0.058449,0.0640374245,-3.827143229,-9.028786522,0.007093,0.40091,-1.0546,-9.999999999998899e-05,-0.00010000000000021103,-4.999999999988347e-05,-0.0007338315434555209,0.00019542163526931056,2.575380685962414e-05
153000000000.0,5,-0.00489351835,0.1209159945,0.07746272835,-0.039286,0.027096,-0.037128,0.06834254384999999,-3.8242993004999994,-9.029963319999998,0.007568,0.4006,-1.0552,-4.999999999988347e-05,-4.999999999988347e-05,-5.0000000000105516e-05,0.0003884100266189905,0.0009648961886765672,0.00018292418061757743
153000000000.0,5,0.06145827555,0.14960044574999998,0.13466491779999998,-0.030829,0.025946,-0.023236,0.07201023094999999,-3.8220437709999997,-9.030943985,0.007974,0.40035,-1.0555,-5.0000000000105516e-05,-4.999999999988347e-05,-5.0000000000105516e-05,-0.0005198335231693663,0.0007568899796732698,0.0002547605224553495
153000000000.0,5,0.12573105965,0.13265455455,0.13653798795,-0.025773,0.000317,-0.009306,0.0734321952,-3.8199843744999997,-9.031728517,0.008131,0.40013,-1.0559,1.666666666655381e-05,-0.00010000000000021103,-4.999999999988347e-05,0.0005965850878841827,0.0005280512386161007,0.0003951217172369903
153000000000.0,5,0.1843061801,0.10721610444999999,0.12123961395,-0.006861,-0.024368,0.009984,0.07171603145,-3.8193959754999995,-9.0320227165,0.007941,0.40006,-1.0559,1.6666666666775853e-05,-9.999999999976694e-05,-9.999999999998899e-05,7.329100689623669e-05,0.00017240853640942966,0.00037614176053332726
153000000000.0,5,0.20585139014999998,0.09199618365,0.19666255909999997,0.009898,-0.051166,0.029273,0.06663618674999999,-3.8201805075,-9.031728517,0.007378,0.40015,-1.0558,1.6666666666775853e-05,-0.00010000000000021103,-9.999999999998899e-05,0.00069880171353226,0.0006213471679785698,0.00030785545558742466
153000000000.0,5,0.19608396674999998,0.0555644789,0.1697727248,0.016102,-0.067215,0.043189,0.05920274605,-3.8216515049999997,-9.031140118,0.006555,0.40031,-1.0554,1.666666666655381e-05,-9.999999999976694e-05,-9.999999999998899e-05,-4.7837252986515644e-05,0.0002813544490112285,0.0004720573286549068
153000000000.0,5,0.17186154124999997,0.0056976636499999995,0.16097615975,0.014984,-0.068281,0.051728,0.0509553534,-3.8231225024999995,-9.0306497855,0.005642,0.40047,-1.0551,1.666666666655381e-05,-0.00010000000000021103,-9.999999999998899e-05,0.0013095796179111163,0.0005329921355210487,0.00026569257976361005
153000000000.0,5,0.14238275135,-0.0324207849,0.17720616549999998,0.005438,-0.058616,0.055964,0.04331597305,-3.8237109014999997,-9.030355585999999,0.004797,0.40054,-1.0544,1.6666666666775853e-05,-9.999999999976694e-05,-0.00019999999999997797,0.0005874398582941809,6.738070127920714e-05,0.00024069202090909458
153000000000.0,5,0.10884400835,-0.052622483899999996,0.12810426895,-0.007162,-0.036133,0.052701,0.0375006296,-3.8231225024999995,-9.0306497855,0.004152,0.40047,-1.0541,2.4999999999941735e-05,-0.00010000000000021103,-9.999999999998899e-05,0.0003440894075030787,7.428077830429203e-05,4.381622485921666e-06
153000000000.0,5,0.0871811185,-0.050935740099999995,0.1290947406,-0.017554,-0.006203,0.045158,0.0347743809,-3.8215534384999996,-9.031336250999999,0.00385,0.40029,-1.0536,2.4999999999941735e-05,-0.00019999999999997797,-9.999999999998899e-05,9.319637191684826e-05,0.00044717802012228525,0.00011241702813780119
153000000000.0,5,0.1056764604,-0.040805470649999995,0.1404508413,-0.028063,0.008811,0.036574,0.034391921549999996,-3.8191017759999997,-9.0324149825,0.003807,0.40002,-1.0534,2.500000000016378e-05,-9.999999999976694e-05,-9.999999999998899e-05,0.001083414464814414,-0.0008214030963307195,0.0005364786993857229
153000000000.0,5,0.12637829855,-0.030076995549999996,0.09538928455,-0.041948,0.003603,0.031222,0.0344801814,-3.8155713819999995,-9.033885979999999,0.003817,0.39964,-1.0531,2.4999999999941735e-05,-0.00010000000000021103,-0.00020000000000020002,0.0008743181652439702,-0.0009225320716412799,0.0006985137244996387
153000000000.0,5,0.1355867429,-0.0136508568,0.04398282525,-0.061204,-0.001566,0.032265,0.0339506223,-3.810471924,-9.036043443,0.003757,0.39907,-1.053,9.999999999998899e-05,-9.999999999976694e-05,-0.00039999999999995595,0.001470110127044677,-0.0015016454604039886,0.000956776291314243
153000000000.0,5,0.118856598,0.0020397832,0.0058839899999999995,-0.082418,0.01672,0.036466,0.03437230825,-3.8036072689999996,-9.0388873715,0.003802,0.39831,-1.0526,4.999999999988347e-05,-0.00010000000000021103,-9.999999999998899e-05,0.0019551835321203748,-0.0019074201768882748,0.0010905672978217817
153000000000.0,5,0.06057567705,0.01415099595,0.0060310897499999995,-0.10244,0.049915,0.039574,0.037284883299999995,-3.7950754835,-9.042515832,0.004123,0.39736,-1.0525,5.0000000000105516e-05,-9.999999999976694e-05,-9.999999999998899e-05,0.0012606445310819336,-0.0012336039393969767,0.0008862008851385494
153000000000.0,5,0.019868272899999997,0.025654196399999996,-0.023290793749999997,-0.11595,0.094782,0.039472,0.043874952099999996,-3.7852688335,-9.0465365585,0.00485,0.39628,-1.0521,5.0000000000105516e-05,-0.00010000000000021103,-9.999999999998899e-05,-0.00019800923353052724,-0.0018950746138037822,0.0008402051226150953
153000000000.0,5,-0.011454167199999999,0.0375986961,-0.012375992300000001,-0.12196,0.1396,0.028707,0.05470149369999999,-3.7747757179999994,-9.050851484499999,0.006044,0.39512,-1.052,4.999999999988347e-05,-4.999999999988347e-05,-9.999999999998899e-05,0.00012217614536869092,-0.001129569293567556,0.0005577129481303955
153000000000.0,5,0.01599464615,0.0698821879,0.00065704555,-0.11624,0.1758,0.010507,0.06959779505,-3.7644787354999996,-9.055068343999999,0.007686,0.39398,-1.0518,0.00019999999999997797,-4.999999999988347e-05,-0.00019999999999997797,-0.0011065385475302336,-0.002147880896039789,0.0005778279911571871
153000000000.0,5,0.06357651195,0.0887894091,-0.000784532,-0.09679,0.20122,0.004093,0.08740667145,-3.7556527504999995,-9.058598737999999,0.009649,0.39301,-1.052,9.999999999998899e-05,9.999999999976694e-05,-1.1111111111183902e-05,-0.0005733259383668421,-0.0007969563449909955,0.000503545925944815
153000000000.0,5,0.08776951749999999,0.08887766894999999,0.041756715699999995,-0.06808,0.19245,0.009495,0.10511748134999999,-3.7492784279999998,-9.0610504005,0.0116,0.39231,-1.0519,9.999999999998899e-05,-4.999999999988347e-05,-1.1111111110961858e-05,-0.000449009301299097,0.00011084499115465718,1.3070779338125726e-05
153000000000.0,5,0.12873189455,0.10316595799999999,0.005275977699999999,-0.041814,0.1496,0.021357,0.1193665438,-3.745159635,-9.062521398,0.013171,0.39186,-1.052,0.00010000000000021103,-4.999999999988347e-05,-1.1111111111183902e-05,-0.000971672134583268,9.387168851771044e-05,-0.00030327133683227814
153000000000.0,5,0.1478254421,0.1054018742,-0.023290793749999997,-0.005987,0.098152,0.028982,0.12855537485,-3.7440809035,-9.0628155975,0.014184,0.39174,-1.0517,9.999999999998899e-05,-2.4999999999941735e-05,-1.1111111111183902e-05,-0.00036056134959128183,-2.1044330234643027e-05,-0.00019653743706760096
153000000000.0,5,0.15362117224999997,0.07071575315,-0.00522694445,0.029848,0.045642,0.03127,0.13263494125,-3.7462383665,-9.061932999,0.014636,0.39197,-1.0516,3.333333333332966e-05,-2.5000000000385825e-05,-1.1111111110961858e-05,-0.00031306410092257764,-0.0008251858269752166,-0.0002616543922404069
153000000000.0,5,0.148472681,0.0338329425,0.014906108,0.060493,0.000648,0.018594,0.1325466814,-3.7511416915,-9.0598736025,0.014629,0.39251,-1.0514,3.333333333332966e-05,-2.4999999999941735e-05,-1.1111111111183902e-05,0.00044355354715208684,-0.0018697510395473405,4.0257792877473886e-05
153000000000.0,5,0.15469990375,0.006197802799999999,0.0177892631,0.075359,-0.021833,-0.001621,0.1305068982,-3.7576140805,-9.057225806999998,0.014408,0.39323,-1.0515,3.333333333332966e-05,-2.4999999999941735e-05,-1.1111111111183902e-05,0.0015926110377307845,-0.0014470442594871624,0.0001804596630123334
153000000000.0,5,0.10212645309999999,-0.00856120545,0.0041580196,0.068085,-0.012158,-0.025133,0.12951642654999998,-3.7637922699999997,-9.054676078,0.014303,0.39391,-1.0518,-3.333333333332966e-05,-4.999999999988347e-05,-1.1111111110961858e-05,0.0010044128694614018,-0.001985632963193318,0.0004260194647522919
153000000000.0,5,0.035813885799999993,-0.021103910799999997,-0.03858916775,0.040844,0.036041,-0.047681,0.13327237349999999,-3.7679110629999997,-9.052910880999999,0.014721,0.39436,-1.0523,-3.333333333332966e-05,-4.999999999988347e-05,-1.1111111111183902e-05,0.0011165871936129057,-0.0024753963142323254,0.0008602406387866746
153000000000.0,5,-0.03003776895,-0.03649054465,-0.06015399109999999,0.000836,0.094992,-0.060663,0.14301037695,-3.7685975285,-9.052420548499999,0.015797,0.39444,-1.053,-3.333333333332966e-05,2.4999999999941735e-05,0.00019999999999997797,0.002049759440972354,-0.00047184005913503135,0.0003301763619703302
153000000000.0,5,-0.09908639159999999,-0.0265760215,-0.10882439504999998,-0.043544,0.1497,-0.057633,0.15804397139999998,-3.7652632675,-9.053597346499998,0.017454,0.39407,-1.0538,-3.333333333332966e-05,2.4999999999941735e-05,5.0000000000105516e-05,-0.0019200157820686847,-0.0012238205282670833,-0.00013011141097479806
153000000000.0,5,-0.15335639269999998,-0.0304790682,-0.15581786185,-0.07305,0.20108,-0.049236,0.17745133175,-3.7585947455,-9.056049008999999,0.019592,0.39334,-1.0544,-3.333333333332966e-05,2.4999999999941735e-05,4.999999999988347e-05,0.0009598227772159018,-0.0016494272536486942,0.00024564790577677464
153000000000.0,5,-0.17856928984999998,-0.013346850649999999,-0.14136285975,-0.083511,0.23739,-0.035443,0.2001144999,-3.7507494254999996,-9.058794871,0.022087,0.39247,-1.0549,-3.333333333332966e-05,2.4999999999941735e-05,0.00019999999999997797,-0.0009225894027177772,-0.0014139649670921184,-6.97422141002213e-05
153000000000.0,5,-0.19562305419999998,0.0401288118,-0.15603360815,-0.073856,0.24796,-0.02904,0.22389562615,-3.7436886374999996,-9.061148466999999,0.024705,0.39169,-1.0552,-5.0000000000105516e-05,0.00010000000000021103,9.999999999998899e-05,-0.0018534490643888901,-0.0013179349785406025,-0.0003477222907737332
153000000000.0,5,-0.17392093775,0.0838272442,-0.1544351242,-0.047324,0.23282,-0.026833,0.24664705415,-3.738687246,-9.062619464499999,0.027209,0.39114,-1.0557,-5.0000000000105516e-05,0.00010000000000021103,0.00019999999999997797,-0.0014898026341298998,-0.0007487031974016123,-0.0002786513565436466
153000000000.0,5,-0.13714600024999998,0.13993108885,-0.1276433564,-0.014507,0.19526,-0.035249,0.26658397359999997,-3.7366278494999996,-9.062913664,0.029406,0.39091,-1.0561,-4.999999999988347e-05,9.999999999976694e-05,0.00029999999999996696,-0.0008313349859358499,-0.0008599229063328551,8.204570269870759e-05
153000000000.0,5,-0.06571436165,0.18462979955,-0.1189742778,0.026726,0.13739,-0.048951,0.281646988,-3.738098847,-9.061932999,0.03107,0.39107,-1.0568,-5.0000000000105516e-05,9.999999999976694e-05,0.00020000000000020002,-5.6310599217179735e-05,-0.00033402759630596357,-7.637441961083624e-05
153000000000.0,5,-0.010571568699999999,0.15721040614999998,-0.0728830228,0.077454,0.074106,-0.053021,0.2911398252,-3.7438847705,-9.059187137,0.032127,0.39171,-1.0573,-9.999999999998899e-05,0.00010000000000021103,0.00029999999999996696,-0.0001037059148965569,0.0018402801590644557,-0.0004701800465527206
153000000000.0,5,-0.020525318449999996,0.140627361,0.008521978849999999,0.11867,0.027938,-0.047531,0.29569991744999996,-3.7535933539999995,-9.054970277499999,0.032645,0.39278,-1.0581,9.999999999998899e-05,4.999999999988347e-05,-9.999999999998899e-05,-0.0019564583218171228,-0.0017269257327063858,-0.00011409589021335598
153000000000.0,5,-0.02711538725,0.0944576528,0.04700327345,0.1461,-0.004268,-0.035685,0.29646483614999997,-3.7661458659999996,-9.049772753,0.032748,0.39416,-1.0585,-9.999999999998899e-05,4.999999999988347e-05,9.999999999998899e-05,-0.001008654141927301,0.002497411409946082,-0.0009928705617053835
153000000000.0,5,-0.0403053315,0.05739832244999999,0.10552936064999999,0.15013,-0.025621,-0.024967,0.29468983249999997,-3.77948291,-9.044281028999999,0.032571,0.39564,-1.059,-1.4285714285744433e-05,-9.999999999976694e-05,-9.999999999998899e-05,-0.0015910827490362434,-0.0011037781117022583,-0.0002486981927083409
153000000000.0,5,-0.04104083025,0.011375713999999999,0.13200731565,0.12971,-0.036121,-0.013243,0.2912378917,-3.7912508899999997,-9.0394757705,0.032207,0.39694,-1.0592,-1.4285714285744433e-05,-3.333333333355171e-05,-5.0000000000105516e-05,0.0002298732987685015,0.0007677884071020102,-0.0004394666595020358
153000000000.0,5,-0.0249677309,-0.047081726649999996,0.1493356662,0.097686,-0.035859,-0.010097,0.28758001125,-3.800076875,-9.03584731,0.031815,0.39792,-1.0594,-1.4285714285744433e-05,-3.333333333310762e-05,-4.999999999988347e-05,-0.000768783970700182,0.0014146783479220826,-0.0007012415918382919
153000000000.0,5,0.021231397249999995,-0.07783538104999999,0.18414927369999998,0.066676,-0.045193,-0.011202,0.28357889805000003,-3.8058627984999998,-9.0335917805,0.031381,0.39856,-1.0595,-1.4285714285522388e-05,-3.333333333355171e-05,-9.999999999998899e-05,0.00043646726725904417,0.0006628183285215528,-0.0005126876729469043
153000000000.0,5,0.07547197839999999,-0.07965941794999999,0.2375366763,0.035563,-0.06625,-0.010151,0.2782735004,-3.8088047935,-9.032513048999999,0.030798,0.39889,-1.0599,-1.4285714285744433e-05,-4.999999999988347e-05,-9.999999999998899e-05,0.0010822651911217007,0.00015469294550540802,-0.00018953617914799215
153000000000.0,5,0.10723571775,-0.08825004335,0.23356498305,0.010861,-0.087357,-0.011224,0.2711930991,-3.809491259,-9.0324149825,0.030016,0.39896,-1.06,-1.4285714285744433e-05,-4.999999999988347e-05,-5.0000000000105516e-05,0.0005140383303306462,-0.00027702604328760927,-0.000133250492155651
153000000000.0,5,0.0908880322,-0.0578984616,0.20228176955,-0.011482,-0.082906,-0.016607,0.2638969515,-3.808314461,-9.033101448,0.029206,0.39883,-1.0602,-1.4285714285744433e-05,-4.999999999988347e-05,-5.0000000000105516e-05,0.00088765687287784,0.00011285880195277542,0.0002031980262828248
153000000000.0,5,0.06979392805,-0.0157298666,0.20282113529999998,-0.034817,-0.067792,-0.019877,0.25806199475,-3.8052743994999996,-9.0345724455,0.028556,0.39849,-1.0604,1.999999999990898e-05,-5.000000000032756e-05,-9.999999999998899e-05,0.0007714779149321505,5.890911237216301e-05,3.098457383687858e-05
153000000000.0,5,0.0223787753,0.0206724182,0.1270157308,-0.062385,-0.048383,-0.022093,0.25400204165,-3.800076875,-9.0369260415,0.0281,0.39792,-1.0608,2.0000000000131024e-05,-1.2499999999970868e-05,-9.999999999998899e-05,0.0011281188198860592,0.0002385699208418135,0.0003781352199404009
153000000000.0,5,-0.0194760069,0.0326365312,0.06967624825,-0.077114,-0.021623,-0.021098,0.2523054912,-3.7935064195,-9.039671903499999,0.027904,0.39719,-1.061,1.999999999990898e-05,-1.2499999999970868e-05,4.999999999988347e-05,-0.0002482113420744225,0.00017959505213482885,8.550334966581086e-05
153000000000.0,5,-0.05887912659999999,0.0246539181,0.07810996725,-0.079115,-0.00349,-0.020067,0.25251143085,-3.786543698,-9.042613898499999,0.027918,0.39642,-1.0614,2.0000000000131024e-05,-1.2499999999970868e-05,5.0000000000105516e-05,-0.0007179065117662309,0.0004725018223845634,3.375912877234821e-05
153000000000.0,5,-0.0383047749,0.03050848815,0.0665675402,-0.072744,-0.004613,-0.015784,0.25317828305,-3.7801693754999994,-9.045261693999999,0.027983,0.39571,-1.0616,1.999999999990898e-05,-1.2499999999970868e-05,-5.0000000000105516e-05,-0.00014364050551729513,0.00043382502868771766,0.00026130286373998723
153000000000.0,5,-0.0159063863,0.038255741649999994,0.038549941149999996,-0.050478,-0.016534,-0.003982,0.2524820109,-3.77556025,-9.047223024,0.0279,0.39521,-1.0618,4.999999999988347e-05,-1.2499999999970868e-05,-4.999999999988347e-05,-0.0008451755242375181,0.0004482017538127714,-8.7042287567618e-06
153000000000.0,5,0.0140038962,0.0356177528,0.06918591575,-0.015359,-0.021097,0.006761,0.250854107,-3.773991186,-9.047909489499999,0.027718,0.39504,-1.0617,5.0000000000105516e-05,-1.2499999999970868e-05,-9.999999999998899e-05,0.00011436169944978314,0.0008609794923686298,-2.9197213154558144e-05
153000000000.0,5,0.04765051234999999,0.03772618255,0.11012867949999999,0.01657,-0.020307,0.021757,0.24862799745,-3.7753641169999996,-9.047419156999998,0.027474,0.39519,-1.0617,5.0000000000105516e-05,-1.2499999999970868e-05,-5.0000000000105516e-05,0.000542848824124087,0.0012893186558191605,-0.00028776624748064195
153000000000.0,5,0.0838076309,0.032577691299999996,0.1156204035,0.038845,-0.027964,0.035686,0.2454016096,-3.778894511,-9.046046226,0.027121,0.39558,-1.0614,4.999999999988347e-05,-1.2499999999970868e-05,-4.999999999988347e-05,0.00016196362150117105,0.0010040040736587486,-0.00029962667690205946
153000000000.0,5,0.13910733025,0.031842192549999995,0.10431333605,0.038677,-0.043953,0.043185,0.24037079815,-3.782621038,-9.0445752285,0.02657,0.39599,-1.0611,3.333333333332966e-05,-3.333333333355171e-05,-4.999999999988347e-05,0.00212851447437562,0.0006245582083583834,5.485896083787245e-05
153000000000.0,5,0.14883552705,0.00940457735,0.0916921775,0.022528,-0.064063,0.039991,0.23333943009999997,-3.7853669,-9.0435945635,0.025796,0.39629,-1.0607,3.333333333355171e-05,-3.333333333310762e-05,-5.0000000000105516e-05,0.0012987138032272694,2.288576772402351e-05,0.00015205238450116676
153000000000.0,5,0.15613167465,-0.027174227149999997,0.07521700549999999,-0.00097,-0.07877,0.02183,0.2252979771,-3.7858572324999997,-9.0435945635,0.024907,0.39635,-1.0605,3.333333333332966e-05,-3.333333333355171e-05,-9.999999999998899e-05,0.0001965391749305656,0.0003925263713213667,8.358029830971003e-05
153000000000.0,5,0.14529532639999998,-0.0093555441,0.08717131184999999,-0.023346,-0.087091,0.002593,0.217119231,-3.7842881685,-9.044477162,0.024002,0.39617,-1.0605,3.333333333332966e-05,-4.999999999988347e-05,-3.333333333332966e-05,0.002871662947243059,0.0008341171961412375,0.0003611629713725917
153000000000.0,5,0.08252295975,-0.00030400615,0.06869558325,-0.039212,-0.077353,-0.011329,0.21016631614999998,-3.7808558409999997,-9.046046226,0.023229,0.3958,-1.0607,3.333333333332966e-05,-4.999999999988347e-05,-3.333333333332966e-05,0.0006222098960861899,-0.00035331691601481197,0.00044138564705445416
153000000000.0,5,0.033666229449999995,-0.00093163175,0.0397953857,-0.049633,-0.046364,-0.011402,0.2059004234,-3.7765409149999996,-9.048007556,0.022752,0.39531,-1.0609,3.333333333332966e-05,-4.999999999988347e-05,-3.333333333332966e-05,0.0004188895748539201,-9.946902529667234e-05,0.00041495261032115094
153000000000.0,5,-0.014121576,-0.020182085699999998,0.058702606899999996,-0.054682,-0.00478,0.000259,0.20490995174999999,-3.7717356564999998,-9.049968886,0.022639,0.39479,-1.061,5.0000000000105516e-05,-5.000000000032756e-05,-9.999999999998899e-05,0.0003769461035454391,0.0005564654060685736,0.00016726602595801277
153000000000.0,5,-0.0246539181,-0.036323831599999995,0.050945546749999994,-0.060824,0.038942,0.018317,0.20736161425,-3.7665381319999995,-9.052126349,0.022904,0.39421,-1.0609,4.999999999988347e-05,-3.333333333355171e-05,-9.999999999998899e-05,3.113168313984005e-05,0.0010378622851379138,7.343857044489477e-05
153000000000.0,5,-0.06414529765,-0.0101008495,0.06585165474999999,-0.058522,0.069813,0.032142,0.21258855869999999,-3.7613406074999998,-9.0541857455,0.023475,0.39364,-1.0607,3.333333333332966e-05,-3.333333333310762e-05,-3.333333333332966e-05,9.0292034685302e-05,0.0018198181510848954,-0.0002189229491756095
153000000000.0,5,-0.06412568434999999,0.0016279038999999999,0.07283398954999999,-0.05432,0.062318,0.03323,0.21795279625,-3.7564372825,-9.056049008999999,0.024062,0.3931,-1.0604,3.333333333332966e-05,-3.333333333355171e-05,-3.333333333332966e-05,-0.00048347135999154967,0.002374096701202033,-0.0003590510328307095
153000000000.0,5,-0.039510992849999996,0.02372228635,0.031165533699999998,-0.042853,0.022807,0.023713,0.2205711718,-3.7525146224999997,-9.057618072999999,0.024347,0.39267,-1.0601,3.333333333332966e-05,-3.333333333310762e-05,-3.333333333332966e-05,-0.0006992290782754651,0.0009774394340207326,-4.6747067919128416e-05
153000000000.0,5,-0.0339113957,0.054142514649999994,0.04870963055,-0.009095,-0.026487,0.021723,0.21902172109999998,-3.751043625,-9.058206471999998,0.024174,0.3925,-1.06,-2.4999999999941735e-05,-3.333333333355171e-05,-9.999999999998899e-05,-0.0004361446786751433,0.0008972513937124393,2.635579797460874e-06
153000000000.0,5,-0.07136299204999999,0.0789239192,0.12590757935,0.025631,-0.085393,0.028293,0.21187267324999998,-3.7530049549999998,-9.057618072999999,0.023387,0.39271,-1.0597,-2.500000000016378e-05,-3.333333333310762e-05,-9.999999999998899e-05,-2.9473901542897973e-05,0.00025624991792883023,1.946955963977315e-06
153000000000.0,5,-0.0354804597,0.045620535799999994,0.09325143485,0.042284,-0.1303,0.040143,0.19979088044999999,-3.7566334155,-9.0563432085,0.022057,0.39312,-1.0595,-2.4999999999941735e-05,2.4999999999941735e-05,-9.999999999998899e-05,-3.350023577158856e-05,-0.0002978064893917054,0.0002140461875683175
153000000000.0,5,-0.014239255799999998,0.004314926,0.02083913125,0.032513,-0.14088,0.054019,0.18512993869999997,-3.760261876,-9.0551664105,0.020441,0.39351,-1.059,-2.4999999999941735e-05,2.4999999999941735e-05,-0.00014999999999987246,0.0006674604696741415,-0.0005173898975006086,0.0004986073918686051
153000000000.0,5,-0.0469346269,0.034509601349999995,-0.0248108245,-0.00141,-0.11077,0.058177,0.17217535404999998,-3.7612425409999997,-9.055068343999999,0.019012,0.39363,-1.0585,-4.999999999988347e-05,2.4999999999941735e-05,-0.0001500000000000945,-0.001274141431508391,-0.0018876341338338598,0.0003948655363167075
153000000000.0,5,-0.09649743599999999,0.08059104969999999,-0.11454167199999998,-0.046744,-0.053907,0.041988,0.16398680129999998,-3.7582024795,-9.056441275,0.018105,0.39329,-1.058,-5.0000000000105516e-05,2.4999999999941735e-05,9.999999999998899e-05,0.0006767257921997949,0.00012051768959175924,0.0007356858579208037
153000000000.0,5,-0.12444638849999999,0.11055036545,-0.16274135674999998,-0.079195,0.011383,0.021536,0.16260406364999996,-3.7518281569999994,-9.059089070499999,0.017947,0.39259,-1.0577,-9.999999999998899e-05,0.00010000000000021103,5.0000000000105516e-05,-0.0004890313548380765,0.0007440644559053577,-0.00015963288978629309
153000000000.0,5,-0.15032613784999999,0.1272314771,-0.1287809278,-0.093827,0.049873,0.018239,0.1658892914,-3.7433944379999997,-9.062521398,0.018303,0.39165,-1.0575,-0.00010000000000021103,0.00010000000000021103,4.999999999988347e-05,2.9496275644802505e-05,0.0006884026482938399,-3.672745068350469e-05
153000000000.0,5,-0.1650655328,0.13453743135,-0.15258166734999998,-0.087495,0.044488,0.023597,0.16955697849999998,-3.7352549185,-9.065855658999999,0.018701,0.39076,-1.0574,-0.00029999999999996696,9.999999999976694e-05,0.00019999999999997797,0.0008231310629730482,0.0026338203460294363,-0.0005752998305151025
153000000000.0,5,-0.1487276539,0.14473634735,-0.13545925645,-0.052542,0.016485,0.031179,0.1705768701,-3.7295670614999996,-9.0681111885,0.018808,0.39014,-1.057,-9.999999999998899e-05,0.00010000000000021103,9.999999999998899e-05,0.0001009758897383417,0.0010107973934860848,-0.0004375780620250458
153000000000.0,5,-0.13032057184999998,0.1602798876,-0.07646245004999999,-0.009073,-0.017972,0.031315,0.168478247,-3.7278018645,-9.068895720499999,0.018576,0.38993,-1.0568,-0.00019999999999997797,9.999999999976694e-05,-6.666666666665932e-05,-0.0014567068488410828,0.0008089889563405173,-0.0009310431328019841
153000000000.0,5,-0.1400193487,0.17599014089999998,-0.0057859235,0.044091,-0.045044,0.025051,0.16396718799999999,-3.7307438594999995,-9.067816989,0.01808,0.39026,-1.0565,-0.00019999999999997797,5.000000000032756e-05,-6.666666666665932e-05,4.838626125963641e-05,0.0003051466762309385,-0.0005144080151204822
153000000000.0,5,-0.09171179079999998,0.160240661,0.0740794341,0.080253,-0.069833,0.008078,0.1575536389,-3.737314315,-9.0651691935,0.017378,0.39099,-1.0564,-0.00019999999999997797,4.999999999988347e-05,-6.666666666665932e-05,0.001256980160647292,-0.00030080010631827747,0.0001771967603024227
153000000000.0,5,-0.056780503499999996,0.1183662655,0.15048304424999998,0.093974,-0.097633,-0.00786,0.14911011324999998,-3.7454538344999997,-9.0620310655,0.016452,0.39188,-1.0565,-9.999999999998899e-05,-3.333333333355171e-05,-0.00019999999999997797,0.00012640090965210238,0.0001795687243688615,-0.0003835504824160063
153000000000.0,5,-0.009561483749999999,0.06989199454999999,0.17173405479999998,0.080187,-0.098567,-0.026028,0.1404900679,-3.752612689,-9.059187137,0.015507,0.39267,-1.0568,-9.999999999998899e-05,-3.333333333310762e-05,-0.00019999999999997797,9.250139279159963e-06,-0.00036193166217213246,-0.0005233860360583098
153000000000.0,5,0.0403053315,0.009502643849999999,0.22412117909999998,0.056894,-0.083452,-0.034633,0.13312527375,-3.7579082799999997,-9.057029674,0.014698,0.39326,-1.0571,-9.999999999998899e-05,-3.333333333355171e-05,-0.000300000000000189,0.0010726445659756667,-0.0007814863462978217,-0.00019543009710928927
153000000000.0,5,0.05310300974999999,-0.022251288850000002,0.30676181865,0.009243,-0.040432,-0.037994,0.1293104869,-3.7593792775,-9.0565393415,0.014277,0.39342,-1.0576,-9.999999999998899e-05,1.2499999999970868e-05,-0.00039999999999995595,0.0008815837259767978,-0.0030170191346781117,0.0002896138301450579
153000000000.0,5,0.0751385523,-0.03401926885,0.2634654589,-0.051272,0.001624,-0.033905,0.12941836005,-3.755554684,-9.058108405499999,0.014286,0.393,-1.0579,-9.999999999998899e-05,1.2499999999970868e-05,-0.00019999999999997797,0.002072159132805118,0.00030112990796848926,-0.00020469688481433712
153000000000.0,5,0.061066009549999994,-0.039932678799999996,0.1937597907,-0.10757,0.032989,-0.03299,0.13271339445,-3.746336433,-9.0618349325,0.014644,0.39198,-1.0583,-0.00019999999999997797,1.2499999999970868e-05,-0.00029999999999996696,-0.0013164589812294514,0.0006369580375242823,-0.0005619072814505854
153000000000.0,5,0.07786480099999998,-0.0459147353,0.14648193104999999,-0.13722,0.060938,-0.03309,0.13851893125,-3.733783921,-9.0669343905,0.015276,0.3906,-1.0587,-9.999999999998899e-05,1.2500000000414957e-05,-0.00019999999999997797,0.0004992713432181994,0.0004544053913966284,-0.0009503972552230011
153000000000.0,5,0.04438489789999999,-0.01695569785,0.18577717759999998,-0.13077,0.066214,-0.034156,0.14550126605,-3.7213294754999997,-9.072033848499998,0.016038,0.38922,-1.0591,-0.00020000000000020002,1.2499999999970868e-05,-0.00019999999999997797,0.0007178774493462603,0.00020120561992476027,-0.0005232954064492978
153000000000.0,5,0.03723585005,0.0116306869,0.17117507574999996,-0.11068,0.042611,-0.037282,0.1510027967,-3.710640227,-9.076250708,0.016636,0.38805,-1.0595,-9.999999999998899e-05,1.2499999999970868e-05,-0.00039999999999995595,-0.0011515298239334615,0.000602004550603219,-0.0007811638645338348
153000000000.0,5,0.03966789925,0.05031792115,0.10807908964999999,-0.074721,0.001825,-0.039283,0.1535132991,-3.7030891065,-9.0792907695,0.016907,0.38722,-1.0599,-9.999999999998899e-05,1.2499999999970868e-05,-0.00019999999999997797,0.00020004872987111622,-0.00032880293358572565,0.00027988804148459945
153000000000.0,5,0.020309572149999996,0.059575398749999994,0.10788295665,-0.03549,-0.030468,-0.040225,0.1529641267,-3.6991664464999996,-9.0809579,0.016843,0.38679,-1.0603,-9.999999999998899e-05,1.2499999999970868e-05,-0.000300000000000189,0.0003344072496062056,-0.0004215693354026051,-0.00011199840572589936
153000000000.0,5,0.0192014207,0.069038816,0.11957248345,-0.01116,-0.057307,-0.041203,0.1498848386,-3.6981857815,-9.081350166,0.016503,0.38667,-1.0608,-9.999999999998899e-05,-3.333333333355171e-05,-9.999999999998899e-05,8.935387226471914e-05,0.00019907119714046573,-7.219559464718972e-05
153000000000.0,5,-0.005756503549999999,0.0583299542,0.07299089595,-0.00482,-0.065883,-0.042244,0.1455110727,-3.6980877149999998,-9.0814482325,0.016022,0.38667,-1.0613,-9.999999999998899e-05,-3.333333333310762e-05,-0.00029999999999996696,0.0007380679794815048,0.0004990942196274606,-0.00023780932567088464
153000000000.0,5,-0.0117287534,0.02807643895,0.03078307435,-0.018592,-0.052984,-0.041223,0.1419218388,-3.6972051164999997,-9.081938565,0.015625,0.38656,-1.0618,-9.999999999998899e-05,-3.333333333355171e-05,-0.00019999999999997797,0.0012436346562553213,0.0004944807192437395,-0.0005808956230362039
153000000000.0,5,-0.034833220799999995,-0.011532620399999999,0.0191033542,-0.047265,-0.03038,-0.031706,0.14017625509999998,-3.693968922,-9.083213429499999,0.015431,0.38621,-1.0622,-9.999999999998899e-05,-3.333333333310762e-05,-0.00029999999999996696,-0.0004050746936457572,0.0003775617343184656,-0.00028073756211574596
153000000000.0,5,-0.027605719749999997,-0.0646454368,-0.025301156999999998,-0.075956,-0.009908,-0.022185,0.1399801221,-3.6879868655,-9.085665092,0.015405,0.38555,-1.0625,-9.999999999998899e-05,-3.333333333355171e-05,-9.999999999998899e-05,5.6129360388124105e-05,0.000987376378950966,-0.0005011146604252947
153000000000.0,5,-0.00648219565,-0.07517777889999999,-0.0027654753,-0.091913,0.001938,-0.013695,0.14055871444999998,-3.6799454124999995,-9.0889012865,0.015463,0.38467,-1.0626,-9.999999999998899e-05,-3.333333333310762e-05,-4.999999999988347e-05,0.001427873362988108,0.0013673846752073615,-0.0003408532334634451
153000000000.0,5,0.04011900515,-0.0593694591,0.0530932031,-0.089819,0.000848,-0.007285,0.1412353733,-3.6717078265,-9.0922355475,0.015533,0.38376,-1.0628,-9.999999999998899e-05,-2.0000000000131024e-05,-5.0000000000105516e-05,-0.00031153594354421665,0.0009253166892075892,-0.00035193370636527055
153000000000.0,5,0.08644561975,-0.06997044775,0.0894170347,-0.076108,-0.008864,0.005563,0.14085291395,-3.6643528389999998,-9.0951775425,0.015486,0.38295,-1.0628,-9.999999999998899e-05,-2.0000000000131024e-05,-9.999999999998899e-05,0.0003592283740410096,0.0007538232663135691,-0.00018956613060175376
153000000000.0,5,0.092378643,-0.05791807489999999,0.10865768199999999,-0.053957,-0.031439,0.020585,0.13806782534999998,-3.659057248,-9.097433072,0.015175,0.38237,-1.0627,-9.999999999998899e-05,-1.9999999999686935e-05,-9.999999999998899e-05,0.0011804106617008259,-0.00041934029770840375,0.0002327467948575468
153000000000.0,5,0.11559098355,-0.062174161,0.07809035395,-0.028536,-0.054035,0.02494,0.1328016543,-3.6560171864999997,-9.0987079365,0.014595,0.38204,-1.0624,-9.999999999998899e-05,-2.0000000000131024e-05,-9.999999999998899e-05,0.00016425868756098083,0.0001217710700107677,-0.00029782253290785987
153000000000.0,5,0.1258977727,-0.049817782,0.0344605681,-0.000855,-0.068105,0.014339,0.1263881052,-3.655330721,-9.099100202499999,0.01389,0.38196,-1.0623,-9.999999999998899e-05,-2.0000000000131024e-05,-0.00019999999999997797,-0.0003571548046751305,-0.0003360833491194981,-0.00012904574850799988
153000000000.0,5,0.10741223744999999,-0.0241635856,0.0317343194,0.027999,-0.074713,-0.006948,0.11973919649999999,-3.657488184,-9.0983156705,0.01316,0.3822,-1.0623,-9.999999999998899e-05,-4.999999999988347e-05,-4.999999999988347e-05,0.00022043295687634856,0.0006198254882530119,-0.00041774712355643895
153000000000.0,5,0.09313375505,-0.056554950550000004,0.03138128,0.039843,-0.075851,-0.030408,0.11366888015,-3.661214711,-9.096844673,0.012494,0.3826,-1.0627,-4.999999999988347e-05,-4.999999999988347e-05,-5.0000000000105516e-05,0.0004519788755560916,-0.00021594694647197876,-0.00025341498341488466
153000000000.0,5,0.09048595955000001,-0.06498866955,-0.00732556755,0.032442,-0.075785,-0.040026,0.10823599604999999,-3.664548972,-9.0955698085,0.011899,0.38298,-1.0631,-5.0000000000105516e-05,-4.999999999988347e-05,-0.00020000000000020002,0.0001413025369719212,-0.0009053710987856345,-0.00018179760610942397
153000000000.0,5,0.07219655729999999,-0.0973211946,-0.04638545449999999,0.010135,-0.062815,-0.03902,0.10377397029999999,-3.6662161025,-9.094981409499999,0.01141,0.38316,-1.0636,-5.0000000000105516e-05,-5.000000000032756e-05,-9.999999999998899e-05,-0.0009819286278404116,-0.00032341349175712963,-0.0007455325372332788
153000000000.0,5,0.05873202685,-0.0970662217,-0.05320107625,-0.0153,-0.037032,-0.034841,0.1013811477,-3.66572577,-9.0951775425,0.011146,0.3831,-1.064,-4.999999999988347e-05,-0.00010000000000021103,-5.0000000000105516e-05,0.0011795326532323402,-0.0002517620096851303,-5.749161293311378e-05
153000000000.0,5,0.0448752304,-0.073157609,-0.057349289199999993,-0.037394,0.002576,-0.033882,0.10221471295,-3.662979908,-9.096256274,0.011237,0.3828,-1.0645,-4.999999999988347e-05,2.4999999999941735e-05,-4.999999999988347e-05,-0.001873666179823208,-0.0004543923964170915,-0.0005282485597009057
153000000000.0,5,0.0326365312,-0.041972461999999995,-0.058702606899999996,-0.045607,0.045267,-0.031838,0.10698074484999999,-3.6591553145,-9.0977272715,0.011758,0.38238,-1.0649,-5.0000000000105516e-05,2.4999999999941735e-05,9.999999999998899e-05,-7.023949029338894e-05,-2.0883829802809117e-05,-0.00022028490815090285
153000000000.0,5,0.022672974799999995,-0.006903881599999999,-0.065900688,-0.039041,0.066524,-0.030796,0.11423766584999999,-3.6556249204999998,-9.099100202499999,0.012555,0.38199,-1.0653,-2.4999999999941735e-05,2.5000000000385825e-05,9.999999999998899e-05,-0.0008739403437531545,-0.00023280585074947346,-0.00024306951595295945
153000000000.0,5,0.0332641568,0.0174950636,-0.11588518304999999,-0.017701,0.064215,-0.031821,0.12161226665,-3.653565524,-9.0998847345,0.013364,0.38176,-1.0656,-2.500000000016378e-05,2.4999999999941735e-05,4.999999999988347e-05,-0.0012473735511189799,-0.00026169382724172685,-0.0004121855915042161
153000000000.0,5,0.05630978429999999,0.04011900515,-0.1390779103,0.007762,0.046954,-0.030679,0.12775122954999998,-3.6536635905,-9.0996886015,0.014038,0.38178,-1.066,-2.4999999999941735e-05,3.333333333355171e-05,5.0000000000105516e-05,-0.0020135320039236237,0.0003579825205544118,-0.0003353129857236459
153000000000.0,5,0.06722458575,0.0443064447,-0.14638386455,0.03106,0.028647,-0.027406,0.13209557549999998,-3.656115253,-9.0987079365,0.014517,0.38205,-1.0663,-2.4999999999941735e-05,3.333333333310762e-05,0.00010000000000021103,-0.0008693911464747739,5.9988200950211734e-05,-0.00036734442314284577
153000000000.0,5,0.07558965819999999,0.03205793885,-0.14572681899999998,0.049051,0.013575,-0.022011,0.13465511115,-3.6603321125,-9.0969427395,0.014801,0.38251,-1.0666,-2.4999999999941735e-05,3.333333333355171e-05,9.999999999998899e-05,-0.0010518699297628609,-9.995300710796684e-05,-0.00011253889797283034
153000000000.0,5,0.08504326879999999,0.021084297499999998,-0.14414794835,0.058495,-0.006748,-0.023026,0.13538080325,-3.6656277035,-9.0947852765,0.014884,0.3831,-1.0669,-2.500000000016378e-05,9.999999999976694e-05,0.00019999999999997797,-0.0017341747148334474,-0.0008573764053789734,1.0575316689936942e-05
153000000000.0,5,0.09070170585,0.042580474300000004,-0.13428245845,0.061555,-0.027015,-0.027255,0.134351105,-3.6713155604999996,-9.092529747,0.014775,0.38371,-1.0672,-2.500000000016378e-05,0.00010000000000021103,9.999999999998899e-05,-0.0010576525540163528,-0.00015274407247156674,6.177835810841636e-05
153000000000.0,5,0.0673716855,0.07028426054999999,-0.13114433044999999,0.068927,-0.037737,-0.02402,0.13209557549999998,-3.677297617,-9.0900780845,0.014531,0.38438,-1.0675,-2.4999999999941735e-05,9.999999999976694e-05,0.00029999999999996696,-0.001027887886004497,-0.0005153324655322589,7.425125172155767e-05
153000000000.0,5,0.025242317099999998,0.0977526872,-0.12273022474999999,0.076374,-0.037803,-0.019738,0.1294870066,-3.683966139,-9.087430289,0.014248,0.38511,-1.0679,2.0000000000131024e-05,0.00010000000000021103,9.999999999998899e-05,-0.0012282899325571917,-0.0009158612478181727,8.885031578795277e-05
153000000000.0,5,-0.00187307015,0.0859847072,-0.12516227394999999,0.087106,-0.026179,-0.012267,0.1274276101,-3.6915172595,-9.084488294,0.014026,0.38594,-1.068,1.999999999990898e-05,9.999999999976694e-05,9.999999999998899e-05,0.0003305040759771227,-0.0003977179615513027,0.00013145317815868585
153000000000.0,5,-0.01654381855,0.08609258035,-0.11482606485,0.089323,-0.014478,-0.010149,0.12637829855,-3.6992645129999997,-9.081350166,0.013915,0.38679,-1.0683,2.0000000000131024e-05,3.333333333355171e-05,0.00029999999999996696,0.00020323092930735198,4.5644381534426515e-06,-0.00014475419941573087
153000000000.0,5,-0.0011571847,0.0417959423,-0.0845137097,0.083037,-0.00057,-0.01232,0.12655481824999998,-3.7067175669999997,-9.078212038,0.01394,0.38761,-1.0684,1.999999999990898e-05,3.333333333310762e-05,9.999999999998899e-05,0.00030865398290430557,-0.00047045701066861234,0.0003053712350356841
153000000000.0,5,0.014327515649999999,0.0071490478500000005,-0.07677626284999998,0.062905,0.015583,-0.014518,0.12828078865,-3.712601557,-9.075858442,0.014133,0.38826,-1.0687,2.0000000000131024e-05,3.333333333355171e-05,9.999999999998899e-05,0.00020511787412280658,-9.143754563556428e-05,-0.0001478669111473485
153000000000.0,5,0.020084019199999997,-0.02150598345,-0.056025391449999996,0.037437,0.034968,-0.010326,0.13165427624999998,-3.716328084,-9.074289378,0.014507,0.38867,-1.0688,4.999999999988347e-05,4.999999999988347e-05,9.999999999998899e-05,0.0003261290194401245,8.11669426958872e-06,-2.923340705646149e-05
153000000000.0,5,0.04437509125,-0.049817782,-0.01464132845,0.012985,0.047953,-0.00719,0.1362339818,-3.7177990815,-9.0736029125,0.015014,0.38883,-1.069,5.0000000000105516e-05,4.999999999988347e-05,9.999999999998899e-05,0.0004220212333573836,0.00021329377302281571,0.00026197786134357637
153000000000.0,5,0.07390291439999999,-0.04615990155,0.0050013915,0.002314,0.054431,0.000251,0.14128440655,-3.7177990815,-9.073504845999999,0.015569,0.38884,-1.069,5.0000000000105516e-05,0.00010000000000021103,0.00029999999999996696,0.00013702441013441202,0.0003600774952148278,-0.00011583143744786639
153000000000.0,5,0.10490173504999999,-0.01644575205,0.030694814499999997,0.005399,0.045871,0.009878,0.14544242615,-3.7177990815,-9.073406779499999,0.016028,0.38883,-1.069,4.999999999988347e-05,9.999999999976694e-05,0.000300000000000189,-0.00047662025629913174,0.00044279000076485886,6.851662038218076e-05
153000000000.0,5,0.11917041079999999,0.0077864801,0.0226337482,0.025521,0.029714,0.015279,0.14793331524999997,-3.719073946,-9.0728183805,0.016304,0.38898,-1.0689,9.999999999998899e-05,0.00010000000000021103,9.999999999998899e-05,-0.0009943750726097988,-0.00041811395809832064,0.00044963582666673885
153000000000.0,5,0.10182244694999999,0.043365006299999995,0.044090698399999996,0.053083,0.006046,0.013234,0.14837461449999997,-3.7229966059999997,-9.0712493165,0.016355,0.3894,-1.0688,5.0000000000105516e-05,9.999999999976694e-05,0.00029999999999996696,-0.0003336967580441774,0.0003194724808022187,0.00011038718533121217
153000000000.0,5,0.0962228498,0.04841543105,0.03772618255,0.07312,-0.025018,0.010121,0.14634463795,-3.7290767289999995,-9.068797653999999,0.016136,0.39008,-1.0687,4.999999999988347e-05,5.000000000032756e-05,0.00019999999999997797,0.0011401694210781965,0.0006295208606501568,0.000502406385532117
153000000000.0,5,0.055387959199999996,0.02403609915,0.0002549729,0.081508,-0.042139,0.0123,0.14228468484999998,-3.7362355834999996,-9.065855658999999,0.015694,0.39087,-1.0686,9.999999999998899e-05,4.999999999988347e-05,-9.999999999998899e-05,0.0008325549858532177,-0.0010944310877420982,0.0005610764016409087
153000000000.0,5,0.017955976149999997,0.0065508421999999995,0.00387362675,0.080462,-0.039998,0.011227,0.13796975884999998,-3.743590571,-9.062913664,0.015222,0.39168,-1.0685,9.999999999998899e-05,9.999999999976694e-05,0.00029999999999996696,0.0008051245240590643,0.0005745919571440439,0.00044656988364769057
153000000000.0,5,-0.005668243699999999,-0.012856518150000001,0.03603943875,0.068846,-0.024984,0.011181,0.1350964104,-3.7502590929999995,-9.0602658685,0.01491,0.39241,-1.0685,4.999999999988347e-05,4.999999999988347e-05,0.00019999999999997797,9.824335252445193e-05,0.00012790225475356465,0.0002583675994889678
153000000000.0,5,-0.01819133575,-0.0282627653,0.0574473557,0.050832,-0.009923,0.013259,0.13371367274999998,-3.7553585509999996,-9.058108405499999,0.01476,0.39297,-1.0684,5.0000000000105516e-05,5.000000000032756e-05,0.00019999999999997797,-0.0005499509689887994,1.5801655995462127e-05,1.6300164395827155e-05
153000000000.0,5,0.015288567349999999,-0.022525875049999998,0.0355981395,0.038054,-0.003429,0.018562,0.13285068754999999,-3.7589870114999995,-9.056637408,0.014668,0.39337,-1.0683,9.999999999998899e-05,4.999999999988347e-05,9.999999999998899e-05,-0.001621528730611388,-0.0002747438725811957,-0.00010703329058367461
153000000000.0,5,0.0262425954,-0.00414821295,0.05439748755,0.02953,0.003033,0.023872,0.13252706809999998,-3.7616348069999996,-9.055558676499999,0.014634,0.39367,-1.0681,4.999999999988347e-05,4.999999999988347e-05,0.00019999999999997797,-0.0010989776485882397,-2.174720407310815e-06,1.4397748067052074e-05
153000000000.0,5,0.04862137069999999,0.032283491799999994,0.07955154479999998,0.027473,0.01264,0.023851,0.1327428144,-3.7640864695,-9.054479944999999,0.014659,0.39394,-1.0679,5.0000000000105516e-05,5.000000000032756e-05,9.999999999998899e-05,-0.00037552393930195826,0.0004874213226440105,0.0002864323616657005
153000000000.0,5,0.04855272415,0.08413125034999999,0.09625226975000001,0.031854,0.025385,0.024905,0.13400787225,-3.7667342649999997,-9.053401213499999,0.0148,0.39423,-1.0676,9.999999999998899e-05,4.999999999988347e-05,0.000300000000000189,0.001164492823261587,0.0024084314032928322,0.00010047325108106242
153000000000.0,5,0.0335779696,0.0946145592,0.13221325529999997,0.029758,0.03073,0.02596,0.1358024892,-3.7693820604999995,-9.0522244155,0.015001,0.39453,-1.0674,9.999999999998899e-05,9.999999999976694e-05,-0.00020000000000020002,-0.0008741711236396332,-0.001935252359759776,0.000291072952770588
153000000000.0,5,0.04500271685,0.08466080945,0.11857220514999998,0.021157,0.024411,0.025955,0.13725387339999998,-3.7716375899999997,-9.051341816999999,0.015163,0.39477,-1.0672,9.999999999998899e-05,0.00010000000000021103,0.000300000000000189,0.0009790336263026944,0.0030357682533468378,-0.00020817453660421092
153000000000.0,5,0.046767913849999995,0.07659974315,0.10058680905,0.015661,0.006338,0.029179,0.13713619359999998,-3.7731085874999994,-9.050753418,0.015151,0.39494,-1.0669,9.999999999998899e-05,9.999999999976694e-05,-5.0000000000105516e-05,-0.00011309989320740232,0.00017925014035946596,0.0003631360951147633
153000000000.0,5,0.06334115235,0.07689394265,0.12044527529999999,0.00694,-0.018105,0.030276,0.13492969735,-3.773991186,-9.050361151999999,0.014908,0.39503,-1.0666,9.999999999998899e-05,0.00010000000000021103,-4.999999999988347e-05,-0.001615118841418739,0.000627639808588043,0.0002663839635804466
153000000000.0,5,0.06492982964999999,0.0678816313,0.10798102315,0.000343,-0.042559,0.030308,0.13049709155,-3.7742853855,-9.050361151999999,0.014418,0.39506,-1.0664,0.00019999999999997797,0.00010000000000021103,-4.999999999988347e-05,-0.0013282097495544987,0.0003197976949311787,0.0002375120188996549
153000000000.0,5,0.05406406144999999,0.08562186114999999,0.0855728279,0.000264,-0.051078,0.029254,0.1250544008,-3.774383452,-9.050361151999999,0.013817,0.39507,-1.0661,9.999999999998899e-05,9.999999999976694e-05,-5.0000000000105516e-05,-0.0004158448900718481,0.00031981107393153074,0.0003605551271862184
153000000000.0,5,0.013484143749999998,0.11074649844999998,0.0947518523,0.005594,-0.048995,0.033529,0.11954306349999999,-3.7747757179999994,-9.0502630855,0.013208,0.39512,-1.0658,9.999999999998899e-05,0.00019999999999997797,0.00019999999999997797,-0.0019838967561487397,0.0002664550626489959,0.00034677634016125336
153000000000.0,5,-0.019887886199999996,0.13422361854999998,0.09854702585,0.00989,-0.043706,0.036729,0.11431611905,-3.7754621834999997,-9.050066952499998,0.012631,0.3952,-1.0654,9.999999999998899e-05,0.00010000000000021103,-9.999999999998899e-05,-0.00011427770310468155,0.00013308459443694964,0.0004954770707980283
153000000000.0,5,-0.01475900825,0.14149034619999998,0.06004611795,0.012067,-0.038396,0.036724,0.10933434084999999,-3.7765409149999996,-9.0496746865,0.012081,0.39531,-1.0651,0.00010000000000021103,9.999999999976694e-05,0.00019999999999997797,-0.00041524140626092443,0.0007442872177247928,0.00026252628617590146
153000000000.0,5,-0.02625240205,0.1332135336,0.07624670374999999,0.01855,-0.024609,0.045251,0.10541168085,-3.777913846,-9.0490862875,0.011648,0.39547,-1.0646,9.999999999998899e-05,0.00010000000000021103,-9.999999999998899e-05,0.00030035193462307763,-0.00013867053749039293,0.00047691419624154574
153000000000.0,5,-0.06343921884999999,0.11742482709999999,0.09671318229999999,0.017611,-0.003298,0.053751,0.10294040504999999,-3.77948291,-9.0484978885,0.011376,0.39564,-1.0642,9.999999999998899e-05,0.00019999999999997797,9.999999999998899e-05,0.0011372942714093504,-0.00025659902871510987,0.0005033762726028845
153000000000.0,5,-0.05629997764999999,0.08948568124999999,0.0578003951,0.021978,0.013707,0.061201,0.10194012674999998,-3.7813461735,-9.0477133565,0.011266,0.39585,-1.0636,9.999999999998899e-05,9.999999999976694e-05,4.999999999988347e-05,0.0007009358411182443,0.0002695692355945134,0.0005371163441535154
153000000000.0,5,-0.058810480049999996,0.07241230359999999,0.09162353095,0.028328,0.012581,0.069753,0.10085158859999999,-3.7838959025,-9.0467326915,0.011148,0.39613,-1.0629,9.999999999998899e-05,0.00010000000000021103,5.0000000000105516e-05,0.00016818840892551812,0.0009110818870285975,0.00014088226205624665
153000000000.0,5,-0.01919161405,0.0424431812,0.09159411099999999,0.03029,-0.010865,0.062324,0.09819398644999999,-3.786543698,-9.0455558935,0.010855,0.39642,-1.0622,5.0000000000105516e-05,9.999999999976694e-05,1.2499999999970868e-05,-4.2612780714101905e-05,0.0005795124730978429,-8.79731498304448e-06
153000000000.0,5,0.0287530978,0.00973800345,0.056888376649999996,0.030059,-0.044954,0.053844,0.09290820209999999,-3.7890934269999996,-9.0445752285,0.010272,0.39671,-1.0617,4.999999999988347e-05,0.00010000000000021103,1.2499999999970868e-05,0.00029568625258685755,9.5905681461117e-05,0.00022019433337086558
153000000000.0,5,0.0369318439,-0.0019122967499999998,0.08038511004999999,0.035199,-0.075892,0.045369,0.0850236555,-3.7921334884999998,-9.0433984305,0.009402,0.39704,-1.0612,3.333333333332966e-05,4.999999999988347e-05,1.2499999999970868e-05,0.0001411908709049725,0.0003368472701159586,-8.521593375990233e-05
153000000000.0,5,0.03039080835,-0.02874329115,0.06664599339999999,0.02976,-0.09289,0.038986,0.07540333184999999,-3.794781284,-9.042319699,0.008338,0.39733,-1.0608,3.333333333332966e-05,4.999999999988347e-05,1.2500000000192912e-05,0.00016018172550019694,-0.0002780240637150211,0.0003227923667731003
153000000000.0,5,-0.0179657828,-0.032489431449999995,0.0404622379,0.02247,-0.080028,0.024007,0.0666067668,-3.796742614,-9.041633233499999,0.007366,0.39755,-1.0605,3.333333333332966e-05,5.000000000032756e-05,1.2499999999970868e-05,0.0008103635788974106,0.0001921966811579967,0.0001724180781914053
153000000000.0,5,-0.0584672473,-0.025722842949999998,0.06257623365,0.014211,-0.050115,0.016468,0.06055606374999999,-3.7979194119999997,-9.041142900999999,0.006698,0.39769,-1.0604,-1.1111111111183902e-05,4.999999999988347e-05,1.2499999999970868e-05,0.0007658069262434508,0.0004068347908312564,7.305877471799893e-05
153000000000.0,5,-0.09421248654999999,-0.037706569249999995,0.09597768355,-0.003603,-0.00947,0.014229,0.05814362785,-3.7979194119999997,-9.041142900999999,0.006431,0.39768,-1.0602,-1.1111111110961858e-05,4.999999999988347e-05,1.2499999999970868e-05,0.000748722735045726,0.0001349302649467088,0.00016747002159375746
153000000000.0,5,-0.10941279405,-0.052200797949999996,0.04541459614999999,-0.019455,0.010905,0.016301,0.0579376882,-3.7964484144999995,-9.0417313,0.006407,0.39752,-1.0601,-1.1111111111183902e-05,4.999999999988347e-05,1.2499999999970868e-05,0.00048102325831900217,0.0006505614033938123,-2.361571859238465e-05
153000000000.0,5,-0.07932599185,-0.0642139442,0.04027591155,-0.03216,0.020597,0.015196,0.059124292849999996,-3.7937025525,-9.042908098,0.006538,0.39722,-1.06,-1.1111111111183902e-05,4.999999999988347e-05,3.333333333332966e-05,0.0002823038837919123,0.0002357829210164475,-0.0002066944737034171
153000000000.0,5,-0.028811937699999998,-0.05426019444999999,0.05296571665,-0.040733,0.013213,0.010924,0.06024225095,-3.790270225,-9.0443790955,0.00666,0.39683,-1.0599,-1.1111111110961858e-05,5.000000000032756e-05,3.333333333332966e-05,9.857611826058488e-05,0.0003989710962870596,7.156913720390845e-05
153000000000.0,5,-0.0001176798,-0.029047297299999997,0.02211399575,-0.039793,-0.004903,0.00562,0.060114764499999994,-3.786739831,-9.045850093,0.006646,0.39644,-1.0598,-1.1111111111183902e-05,4.999999999988347e-05,3.333333333332966e-05,0.00019903853434821706,0.00033966794816753243,-6.585704000527937e-06
153000000000.0,5,0.004314926,-0.01344491715,0.02601704245,-0.024997,-0.023139,0.00461,0.058388794099999995,-3.7841901019999997,-9.046928824499998,0.006454,0.39616,-1.0598,-1.1111111111183902e-05,4.999999999988347e-05,5.0000000000105516e-05,-0.0002802587077708196,0.0004032058213614409,-2.469305496458074e-05
153000000000.0,5,-0.007158854499999999,0.0035500073,0.01022833595,-0.016509,-0.028535,0.004634,0.05563312545,-3.782621038,-9.04761529,0.006149,0.39599,-1.0598,-1.1111111110961858e-05,0.00010000000000021103,4.999999999988347e-05,-0.0002685567977626091,-0.00011662213083529771,-0.0003051045695156296
153000000000.0,5,-0.04570879565,0.00630567595,0.007198081099999999,-0.000403,-0.015881,0.00464,0.053485469099999995,-3.7824249049999996,-9.0477133565,0.005912,0.39597,-1.0598,-1.1111111111183902e-05,3.333333333310762e-05,-3.333333333332966e-05,-0.0005463945459109332,0.00013010489716025475,-0.0003403576993812607
153000000000.0,5,-0.06279197995,0.0119248864,0.0433846196,0.013605,-0.003211,0.001441,0.052622483899999996,-3.7835036364999994,-9.047223024,0.005816,0.39609,-1.0598,-4.999999999988347e-05,3.333333333355171e-05,-3.333333333332966e-05,-0.00046843985462546867,0.00033928868886867747,-0.0005156209590304883
153000000000.0,5,-0.062017254599999995,0.030410421649999998,0.0750993257,0.024264,-0.006492,-0.001737,0.0519948583,-3.7857591659999996,-9.0463404255,0.005748,0.39633,-1.0599,-5.0000000000105516e-05,3.333333333310762e-05,-3.333333333332966e-05,-0.0004825936844449208,0.00018422497987313768,-0.0004952873534028734
153000000000.0,5,-0.04384553215,0.01675956485,0.08619064685,0.025176,-0.031002,-0.009163,0.049984495049999994,-3.7882108285,-9.045261693999999,0.005526,0.39661,-1.0599,-5.0000000000105516e-05,4.999999999988347e-05,-5.0000000000105516e-05,9.482957428419425e-05,-2.9137557592706642e-05,-0.0003526740183506516
153000000000.0,5,-0.00871811185,0.017946169499999998,0.10433294934999998,0.019717,-0.051196,-0.016609,0.046424681100000004,-3.790270225,-9.044477162,0.005133,0.39684,-1.0602,-4.999999999988347e-05,5.000000000032756e-05,-4.999999999988347e-05,0.0006171301729149814,0.0006132105394884846,-0.00043368194936346804
153000000000.0,5,-0.00510926465,0.030528101449999998,0.13565538945,0.013279,-0.061786,-0.027276,0.0420705285,-3.7916431559999997,-9.043888763,0.004651,0.39699,-1.0605,-4.999999999988347e-05,3.333333333355171e-05,-9.999999999998899e-05,0.00012570732589289868,-0.00019131855807508202,-7.045949139874996e-05
153000000000.0,5,-0.0137685366,0.04797413179999999,0.15666123375,0.010156,-0.055361,-0.03263,0.038157675149999994,-3.7926238209999994,-9.043496497,0.004219,0.3971,-1.0608,-5.0000000000105516e-05,3.333333333310762e-05,-9.999999999998899e-05,-0.0007324904181121861,1.9482268005521775e-06,-8.199908861167282e-05
153000000000.0,5,-0.01152281375,0.0584084074,0.17984415435,0.00279,-0.040375,-0.033738,0.035470653049999995,-3.793016087,-9.043300363999998,0.003922,0.39714,-1.0612,-5.0000000000105516e-05,3.333333333355171e-05,-4.999999999988347e-05,0.0007119358513361096,0.00012129015815065536,1.0779916022052305e-06
153000000000.0,5,-0.03649054465,0.053809088549999995,0.11349236045,-0.007786,-0.025375,-0.028446,0.03394081565,-3.7925257544999997,-9.0435945635,0.003753,0.39708,-1.0616,-4.999999999988347e-05,4.999999999988347e-05,-5.0000000000105516e-05,-0.0008129826399059237,9.801956394239753e-05,-0.0003283564734523903
153000000000.0,5,-0.0508769002,0.03095959405,0.0732164489,-0.011973,-0.012568,-0.019935,0.033215123549999996,-3.791447023,-9.0439868295,0.003673,0.39697,-1.0618,-4.999999999988347e-05,4.999999999988347e-05,-5.0000000000105516e-05,-0.000573128188471328,0.00047703133345278204,-0.0002694162153099866
153000000000.0,5,-0.047523025899999995,0.0225356817,0.06886229629999999,-0.016235,-0.005085,-0.009281,0.033009183899999996,-3.790074092,-9.0445752285,0.003649,0.39682,-1.062,-5.0000000000105516e-05,3.333333333355171e-05,-4.999999999988347e-05,-0.000779068376887404,0.0006746804737107759,-0.0003788385796958116
153000000000.0,5,-0.06020302435,0.03803999535,0.016867438,-0.01309,-0.007241,-0.005004,0.0325188514,-3.7888972939999994,-9.045065561,0.003595,0.39668,-1.0621,-3.333333333332966e-05,3.333333333310762e-05,-9.999999999998899e-05,-0.0014731101183341755,0.0009194362225102282,-0.00045593382144432093
153000000000.0,5,-0.0268309944,0.04341403955,0.0014415775499999998,0.000681,-0.019078,-0.003892,0.031175340349999997,-3.788505028,-9.045261693999999,0.003446,0.39664,-1.0621,-3.333333333355171e-05,3.333333333355171e-05,-0.00010000000000021103,-0.00016644591125053454,0.0006148456719059503,-0.0003992420179620426
153000000000.0,5,0.013611630199999999,0.0648807964,0.0684700303,0.0144,-0.03837,-0.004902,0.028439284999999995,-3.789681826,-9.044771361499999,0.003144,0.39677,-1.0622,-3.333333333332966e-05,-6.2500000002074785e-06,-3.333333333332966e-05,-4.429613972234403e-05,0.0005309153108137288,-0.0004890077590813668
153000000000.0,5,0.04361017255,0.06374322499999999,0.04878808375,0.022688,-0.067213,-0.001634,0.02313388735,-3.7916431559999997,-9.0439868295,0.002558,0.39699,-1.0623,-9.999999999998899e-05,-6.249999999763389e-06,-3.333333333332966e-05,-3.847939664175515e-05,-7.188033220195678e-05,-0.00011871797876836232
153000000000.0,5,0.0469346269,0.025987622499999998,0.021309850449999997,0.022696,-0.071476,-0.005895,0.016661498349999998,-3.7937025525,-9.043104231,0.001842,0.39721,-1.0623,-4.999999999988347e-05,-6.2500000002074785e-06,-3.333333333332966e-05,-0.00038988901687814215,0.00026104153884642933,-0.00024371290027502823
153000000000.0,5,0.017475450299999997,0.01307226445,0.05245577084999999,0.018596,-0.056514,-0.015535,0.0115522337,-3.7954677494999998,-9.0424177655,0.001278,0.39741,-1.0625,-5.0000000000105516e-05,-6.249999999763389e-06,-9.999999999998899e-05,-0.00014448543739287167,0.0002893574769986529,-0.0001613619532912225
153000000000.0,5,0.0028341218499999994,0.0009610516999999999,0.0636255452,0.011332,-0.036191,-0.027326,0.00854159215,-3.7966445474999997,-9.041927433,0.000945,0.39754,-1.0628,-3.333333333332966e-05,-6.2500000002074785e-06,-9.999999999998899e-05,-0.00012203165491053714,9.605138856016993e-05,-0.00011204950300353067
153000000000.0,5,-0.007678606949999999,-0.046424681100000004,0.0530932031,0.002971,-0.013746,-0.026312,0.007825706699999999,-3.7971348799999998,-9.041633233499999,0.000866,0.3976,-1.0631,-3.333333333332966e-05,-6.249999999763389e-06,-4.999999999988347e-05,0.0002453005552313092,-5.741676159165543e-05,-8.112315940253523e-05
153000000000.0,5,-0.013386077249999998,-0.052759777,0.0733733553,-0.004505,-0.009426,-0.019929,0.0077080269,-3.796938747,-9.0417313,0.000852,0.39757,-1.0633,-3.333333333332966e-05,-6.2500000002074785e-06,-5.0000000000105516e-05,0.0007413446147562786,-0.0005336492450647157,0.00013798159445452263
153000000000.0,5,0.013140911,-0.07161796494999999,0.03437230825,-0.014226,-0.018945,-0.01139,0.00675678185,-3.795761949,-9.0422216325,0.000748,0.39744,-1.0635,-3.333333333332966e-05,-6.2500000002074785e-06,-9.999999999998899e-05,-1.6032033854918026e-05,-0.00041099971033409233,-2.3940255504117935e-06
153000000000.0,5,0.013356657299999998,-0.07282418289999999,0.0015494506999999998,-0.018533,-0.019985,-0.003924,0.005197524499999999,-3.7940948185,-9.042908098,0.000575,0.39726,-1.0636,-3.333333333332966e-05,-6.249999999763389e-06,1.999999999990898e-05,9.29413582581029e-05,-9.849154716490283e-05,7.615696923596316e-05
153000000000.0,5,-0.027213453749999998,-0.04539498285,0.0120817928,-0.020565,-0.009309,-0.007148,0.004314926,-3.792231555,-9.043790696499999,0.000478,0.39705,-1.0636,-3.333333333332966e-05,-6.2500000002074785e-06,2.0000000000131024e-05,8.711277944478679e-05,3.570605032576779e-05,0.0003586778289070003
153000000000.0,5,-0.0252227038,-0.046679654,0.0016475171999999999,-0.020425,0.005613,-0.011444,0.005021004799999999,-3.7903682915,-9.0445752285,0.000555,0.39684,-1.0638,-5.0000000000105516e-05,-6.249999999763389e-06,1.999999999990898e-05,0.00034645499574925687,-5.868718181667454e-05,0.0002823080495661934
153000000000.0,5,-0.03962867265,-0.0367160976,-0.00924767095,-0.021436,0.015207,-0.007193,0.00656064885,-3.788505028,-9.0453597605,0.000726,0.39663,-1.0639,-4.999999999988347e-05,-6.2500000002074785e-06,2.0000000000131024e-05,-0.001015961188272796,-0.0002658713753160846,5.1509190582749165e-05
153000000000.0,5,-0.049857008599999995,-0.05874183349999999,-0.03596098555,-0.023564,0.019472,0.002404,0.008257199299999999,-3.7864456315,-9.0461442925,0.000912,0.39642,-1.0639,-3.333333333332966e-05,-6.249999999763389e-06,1.999999999990898e-05,-0.0001821987678027881,3.451521554209691e-05,7.288778712100097e-05
153000000000.0,5,-0.02021150565,-0.0495628091,-0.04262950755,-0.016149,0.0194,0.013091,0.00958109705,-3.7848765675,-9.046830757999999,0.001059,0.39624,-1.0639,-3.333333333332966e-05,-6.2500000002074785e-06,1.666666666655381e-05,-0.0008202884066094152,0.00032430333667954336,-9.681005672759757e-05
153000000000.0,5,-0.00675678185,-0.0072176943999999995,-0.012297539099999998,-0.005487,0.021447,0.014172,0.01079712165,-3.7842881685,-9.047026891,0.001193,0.39617,-1.0637,-3.333333333332966e-05,-6.249999999763389e-06,1.6666666666775853e-05,-0.0005762175627656019,0.000545828734568099,-0.0001782834742067585
153000000000.0,5,0.0030302548499999997,0.004903325,0.009924329800000001,0.011573,0.018113,0.011005,0.0120817928,-3.785170767,-9.0467326915,0.001335,0.39627,-1.0636,-5.0000000000105516e-05,-6.2500000002074785e-06,1.6666666666775853e-05,-0.0009585199213686391,0.0005261432214187511,-0.00035861336252762666
153000000000.0,5,0.0017357770499999998,0.00467777205,0.0372064301,0.023192,0.003096,0.01212,0.012474058799999998,-3.7872301634999994,-9.045850093,0.001379,0.3965,-1.0635,-4.999999999988347e-05,-3.333333333310762e-05,1.666666666655381e-05,-0.0002108665772952989,0.00040656450394238597,-1.8259450387247966e-05
153000000000.0,5,0.00463854545,-0.02391841935,0.0277920461,0.029398,-0.021464,0.012174,0.01062060195,-3.790074092,-9.044673294999999,0.001175,0.39681,-1.0634,-3.333333333332966e-05,-3.333333333355171e-05,1.666666666655381e-05,-0.00016095816037320354,-2.4345452494189956e-05,3.244562321369493e-05
153000000000.0,5,0.00946341725,-0.04000132535,0.04237453465,0.033461,-0.044939,0.013289,0.0065508421999999995,-3.7931141535,-9.0433984305,0.000724,0.39715,-1.0632,-3.333333333332966e-05,-3.333333333310762e-05,1.6666666666775853e-05,0.00030337142616421175,-5.129360699629437e-05,0.00030185924311249
153000000000.0,5,-0.008825985,-0.03192064575,0.0676462717,0.024863,-0.05552,0.009023,0.0011964113,-3.7956638825,-9.042319699,0.000132,0.39743,-1.0631,-3.333333333332966e-05,-4.999999999988347e-05,-9.999999999998899e-05,0.0001137010682916717,-0.0005210082894937518,0.00025430255585923156
153000000000.0,5,-0.0234771201,-0.0414036763,0.07140221865,0.014255,-0.051167,0.004728,-0.0039128533499999995,-3.7974290795,-9.041535167,-0.000433,0.39762,-1.0631,-9.999999999998899e-05,-5.000000000032756e-05,9.999999999998899e-05,0.0017238840317532755,-0.0004270179973648869,0.00035916696088461597
153000000000.0,5,-0.05008256155,-0.03721623675,0.08404299049999998,0.008056,-0.024478,0.006805,-0.0070804013,-3.7983116779999997,-9.0412409675,-0.000783,0.39772,-1.063,-4.999999999988347e-05,-0.00010000000000021103,-4.999999999988347e-05,0.0001466999708337191,-0.0003571212453870043,5.788447348398229e-05
153000000000.0,5,-0.0850040422,-0.0359315656,0.13520428355,0.001917,0.014993,0.015263,-0.007168661149999999,-3.7987039439999997,-9.0410448345,-0.000793,0.39776,-1.0629,-5.0000000000105516e-05,-9.999999999976694e-05,-5.0000000000105516e-05,0.0009321654026184234,0.00019006324379300388,0.0001806189089616772
153000000000.0,5,-0.10033183614999999,-0.04172729575,0.13041863835,-0.010663,0.044931,0.01839,-0.0044129925,-3.7979194119999997,-9.041339034,-0.000488,0.39769,-1.0627,-9.999999999998899e-05,-4.999999999988347e-05,-9.999999999998899e-05,-0.0001036305409967131,4.0682191936980416e-05,7.885830533357896e-05
153000000000.0,5,-0.07832571355,-0.03977577239999999,0.09752713425,-0.018035,0.056712,0.018357,-8.825985e-05,-3.7964484144999995,-9.041927433,-9e-06,0.39752,-1.0625,-9.999999999998899e-05,-5.000000000032756e-05,-4.999999999988347e-05,0.0007294803850679266,0.00040184733591752675,-0.00022200656410337194
153000000000.0,5,-0.05231847775,-0.04961184235,0.09866470565,-0.028697,0.05361,0.01194,0.0044326057999999995,-3.7940948185,-9.042908098,0.00049,0.39726,-1.0624,-9.999999999998899e-05,-9.999999999976694e-05,-5.0000000000105516e-05,0.0002885561317550467,-0.0002990020216890876,-6.61838254824576e-05
153000000000.0,5,-0.02250626175,-0.035274520049999994,0.10701997145,-0.038396,0.037713,0.005546,0.007992419749999998,-3.7909566905,-9.044281028999999,0.000884,0.39691,-1.0623,-9.999999999998899e-05,-0.00019999999999997797,-9.999999999998899e-05,0.00011646385599139997,0.0005604144379811604,-0.0003653705202737445
153000000000.0,5,0.0082964259,-0.00581534345,0.09716428819999999,-0.041806,0.008974,0.001322,0.009218250999999998,-3.7873282299999995,-9.045752026499999,0.001019,0.39651,-1.0623,-0.00019999999999997797,-0.00010000000000021103,-9.999999999998899e-05,0.0006718358302941763,0.0001668456130350382,-0.0003186859284524113
153000000000.0,5,0.00348136075,-0.00354020065,0.08843636969999999,-0.033404,-0.011336,-0.003965,0.008492558899999999,-3.7841901019999997,-9.0471249575,0.000939,0.39617,-1.0624,-9.999999999998899e-05,-4.999999999988347e-05,5.0000000000105516e-05,0.0019076167305838165,-6.682712475925001e-05,0.0003798315286329679
153000000000.0,5,-0.01018910935,0.01660265845,0.1261723589,-0.017436,-0.017858,-0.007128,0.0070411747,-3.7824249049999996,-9.047909489499999,0.000779,0.39596,-1.0625,-0.00019999999999997797,-4.999999999988347e-05,4.999999999988347e-05,0.00013998932617187432,0.0004804349880633829,-0.00028691292684770997
153000000000.0,5,-0.03915795345,0.024506818349999997,0.1497475455,-0.000354,-0.022256,-0.014562,0.00534462425,-3.782228772,-9.047909489499999,0.00059,0.39594,-1.0626,-0.00010000000000021103,-0.00010000000000021103,-9.999999999998899e-05,-0.000791199654848862,-1.543931986724978e-05,-0.00041164407888535925
153000000000.0,5,-0.022202255599999998,0.007600153749999999,0.12369127644999998,0.007063,-0.03403,-0.023067,0.0031969679,-3.7829152374999997,-9.04761529,0.000353,0.39603,-1.0629,-9.999999999998899e-05,-0.00019999999999997797,-9.999999999998899e-05,-0.0001252587116054027,0.0004898015318273163,-0.0004413041445457122
153000000000.0,5,-0.00844352565,0.008012033049999999,0.10178322034999998,0.00706,-0.039348,-0.031597,0.00065704555,-3.7837978359999997,-9.047223024,7.3e-05,0.39612,-1.0632,-9.999999999998899e-05,-9.999999999976694e-05,-9.999999999998899e-05,-0.0013170975688794329,3.938405046155502e-05,-0.0005210594282483161
153000000000.0,5,-0.0162594257,-0.00214765635,0.08159132799999999,0.010251,-0.042568,-0.034788,-0.0020005566,-3.7848765675,-9.046830757999999,-0.000221,0.39624,-1.0637,-4.999999999988347e-05,-0.00019999999999997797,-9.999999999998899e-05,2.85006095418483e-05,-0.0002554797754523719,-5.7109236228342075e-05
153000000000.0,5,-0.021358883699999998,-0.0056486304,0.08254257304999998,0.012366,-0.04046,-0.028384,-0.0045306723,-3.7861514319999996,-9.046242358999999,-0.000501,0.39638,-1.064,-5.0000000000105516e-05,-0.00010000000000021103,-9.999999999998899e-05,0.00024751410694001663,-0.0004468835705755403,2.3858377325380875e-05
153000000000.0,5,-0.0163574922,-0.00973800345,0.06793066454999999,0.012347,-0.036208,-0.017718,-0.006982334799999999,-3.7874262964999996,-9.045752026499999,-0.000772,0.39652,-1.0643,-9.999999999998899e-05,-0.00019999999999997797,-0.00019999999999997797,0.00022789105190823555,-0.0002390152042301974,-0.00030035312440301887
153000000000.0,5,-0.0074138274,0.00418743955,0.042923707049999996,0.006006,-0.023376,-0.01028,-0.00889463155,-3.7882108285,-9.045457827,-0.000984,0.39661,-1.0644,-9.999999999998899e-05,-9.999999999976694e-05,-5.0000000000105516e-05,0.0004489183568635591,-9.06219954721621e-05,0.00030776141138944
153000000000.0,5,0.009267284249999999,-0.0029223816999999997,0.0481310382,-0.002488,-0.016914,-0.008171,-0.0103165958,-3.7883088949999997,-9.0453597605,-0.00114,0.39661,-1.0645,-9.999999999998899e-05,-0.00019999999999997797,-4.999999999988347e-05,0.0008183678605236944,-0.0004587265167541599,0.00018366581087342349
153000000000.0,5,0.027262487,0.009218250999999998,0.0426393142,-0.017376,-0.012528,-0.010339,-0.01124822755,-3.787132097,-9.045850093,-0.001244,0.39648,-1.0646,-9.999999999998899e-05,-0.00010000000000021103,-9.999999999998899e-05,-0.0009908206102712258,-0.000272938574425341,-7.599849179859564e-05
153000000000.0,5,0.025330576949999996,0.0035500073,0.03317589695,-0.025817,-0.000737,-0.010375,-0.0112580342,-3.7850727004999998,-9.0467326915,-0.001245,0.39626,-1.0648,-9.999999999998899e-05,-0.00010000000000021103,-5.0000000000105516e-05,0.0013901955563233592,0.00083744207508607,-5.3763190528632876e-05
153000000000.0,5,-0.006472388999999999,-0.019485813549999998,0.054122901349999995,-0.034155,0.024908,-0.010435,-0.00909076455,-3.782228772,-9.047909489499999,-0.001004,0.39594,-1.0649,-9.999999999998899e-05,-0.00019999999999997797,-4.999999999988347e-05,-0.00014875588058693712,0.0005382141724998846,-0.0005088989588268034
153000000000.0,5,-0.0158475464,-0.031773546,0.04398282525,-0.037208,0.044113,-0.009407,-0.005099457999999999,-3.778894511,-9.049282420499999,-0.000564,0.39558,-1.0651,-9.999999999998899e-05,-9.999999999976694e-05,-9.999999999998899e-05,4.93668764948163e-05,-0.00025786528511950735,-0.0001506529520934885
153000000000.0,5,-0.01921122735,-0.0293218835,0.0321069721,-0.034015,0.046212,-0.004068,-0.0006864654999999999,-3.7758544494999997,-9.0506553515,-7.6e-05,0.39524,-1.0651,-9.999999999998899e-05,-0.00019999999999997797,-9.999999999998899e-05,0.0001818887628320942,-0.00012620188622602946,9.827473641649265e-05
153000000000.0,5,-0.0034323275,-0.03223445855,0.026164142199999997,-0.027762,0.0323,0.003439,0.00253992235,-3.7732066539999995,-9.051734083,0.00028,0.39495,-1.0651,-9.999999999998899e-05,-0.00019999999999997797,-0.00010000000000021103,3.244238406963085e-05,-0.0002574994693660404,7.945975339651579e-05
153000000000.0,5,0.01303303785,-0.06785221135,0.017573516799999998,-0.016135,0.01622,0.001354,0.004020726499999999,-3.7715395234999995,-9.052420548499999,0.000444,0.39476,-1.0651,-4.999999999988347e-05,-0.00010000000000021103,-9.999999999998899e-05,-0.0006842515817023775,-0.0010304271758347916,0.00027089820435863277
153000000000.0,5,0.014572681899999999,-0.0257718762,0.02574245625,-0.004444,0.00654,-0.005013,0.0048837117,-3.7709511245,-9.0526166815,0.000539,0.3947,-1.0652,-5.0000000000105516e-05,-9.999999999976694e-05,2.4999999999941735e-05,2.5407490034545788e-05,-0.00048193289369269365,-4.759220603964276e-05
153000000000.0,5,0.0165732385,-0.027252680349999996,0.028664837949999997,0.001875,-0.005229,-0.008184,0.004971971549999999,-3.7711472575,-9.052518615,0.00055,0.39472,-1.0653,-9.999999999998899e-05,-0.00019999999999997797,2.500000000016378e-05,2.9205863039782898e-05,-0.00042614728021828086,-0.0004235658185902935
153000000000.0,5,-0.0049425516,-0.02984163595,-0.02433029865,0.004891,-0.027633,-0.007072,0.0032950343999999998,-3.7715395234999995,-9.052420548499999,0.000364,0.39476,-1.0654,-0.00019999999999997797,-0.00010000000000021103,2.4999999999941735e-05,-0.00014136294455202592,0.00019651038453716296,-0.0002841274502078661
153000000000.0,5,0.008865211599999999,-0.03211677875,-0.060605097,0.010166,-0.038326,-0.012381,0.00026477954999999995,-3.772422122,-9.0520282825,2.9e-05,0.39486,-1.0655,-9.999999999998899e-05,-0.00019999999999997797,2.4999999999941735e-05,-0.0006079022772100817,0.0002685084283717831,-0.00043311549590710485
153000000000.0,5,-0.012729031699999999,-0.02837063845,-0.0383047749,0.020952,-0.027752,-0.018785,-0.0020790098,-3.7741873189999997,-9.0512437505,-0.00023,0.39506,-1.0658,-9.999999999998899e-05,-0.00019999999999997797,-4.999999999988347e-05,0.0005030300253456854,0.0002811504981445889,0.0001357239931757681
153000000000.0,5,-0.03688281065,-0.0203586054,-0.00552114395,0.027519,-0.005438,-0.013475,-0.0026183755499999996,-3.7766389814999997,-9.0502630855,-0.00029,0.39533,-1.066,-9.999999999998899e-05,-0.0002999999999997449,-5.0000000000105516e-05,0.0010299827790685723,-2.313449071422724e-06,0.0004909820190333314
153000000000.0,5,-0.04980797535,-0.02686041435,-0.025369803549999997,0.019052,0.006348,-0.008174,-0.00196133,-3.7786983779999996,-9.049380487,-0.000217,0.39556,-1.0661,-0.00010000000000021103,-0.00010000000000021103,9.999999999998899e-05,0.00012683723441825334,-0.00042558177684992593,0.0002097774474863201
153000000000.0,5,-0.027174227149999997,-0.042178401649999996,-0.054544587299999996,0.003096,0.019263,-0.000754,-0.00036284604999999996,-3.7793848435,-9.0490862875,-4e-05,0.39563,-1.0662,-0.00019999999999997797,-0.00010000000000021103,0.00020000000000020002,0.003018838030881099,0.0014681535832552495,0.0008822426774213188
153000000000.0,5,-0.0194760069,-0.055387959199999996,-0.03180296595,-0.006474,0.027859,0.006686,0.00196133,-3.7790906439999996,-9.049282420499999,0.000217,0.3956,-1.0662,-9.999999999998899e-05,-0.00019999999999997797,-3.333333333332966e-05,-0.00024532010914302127,-0.00016175057522782588,0.00040700848588726135
153000000000.0,5,-0.016553625199999998,-0.0433846196,0.010875574849999998,-0.0139,0.036439,0.011995,0.004726805299999999,-3.777913846,-9.049772753,0.000523,0.39547,-1.0661,-9.999999999998899e-05,-0.00019999999999997797,-3.333333333332966e-05,0.0007799360019475898,-0.0005219583677402717,0.0001799709235029423
153000000000.0,5,-0.009963556399999999,-0.03060655465,0.02442836515,-0.013917,0.034308,0.011999,0.007423634049999999,-3.7766389814999997,-9.0502630855,0.00082,0.39533,-1.066,-6.666666666665932e-05,-0.00019999999999997797,-3.333333333332966e-05,-0.00043055697941613014,-0.001095217939935944,-8.903835615142741e-05
153000000000.0,5,0.0026477955,-0.02958666305,0.0510926465,-0.006478,0.029985,0.010952,0.009924329800000001,-3.7758544494999997,-9.050557285,0.001096,0.39524,-1.0659,-6.666666666665932e-05,-0.0002999999999997449,-0.000400000000000178,-0.003066892682413336,-0.002335727072430238,-0.0005230193551657436
153000000000.0,5,-0.008737725149999999,-0.01179739995,0.047091533299999995,-0.004369,0.021452,0.002432,0.011885659799999998,-3.7753641169999996,-9.050753418,0.001313,0.39519,-1.066,-6.666666666665932e-05,-0.000300000000000189,9.999999999998899e-05,-0.00034515606253970876,-3.7100795462707836e-05,-0.0002216626662586707
153000000000.0,5,-0.01311149105,-0.00752170055,0.0183580488,-0.004317,0.020398,-0.009308,0.013856796449999998,-3.7749718509999997,-9.050949550999999,0.001531,0.39515,-1.066,-9.999999999998899e-05,-0.00019999999999997797,2.4999999999941735e-05,-0.0006980821593396969,0.0004029484909262582,1.3813435945392305e-05
153000000000.0,5,-0.0355785262,-0.0024222425499999998,0.00420705285,-0.009522,0.030042,-0.020008,0.016867438,-3.7740892525,-9.051341816999999,0.001864,0.39505,-1.0663,-9.999999999998899e-05,-0.00019999999999997797,2.4999999999941735e-05,-0.0012643518240609275,0.00024294014761072624,2.4058354797851234e-05
153000000000.0,5,-0.053171656299999995,-0.0189856744,0.024349911949999997,-0.015829,0.042884,-0.020042,0.02115294405,-3.772814388,-9.0518321495,0.002337,0.39491,-1.0665,-9.999999999998899e-05,-0.00019999999999997797,2.500000000016378e-05,0.0009745434440427969,-8.768558564531403e-05,0.00029250648832052084
153000000000.0,5,-0.062174161,-0.0293218835,0.0395600261,-0.014771,0.047128,-0.011508,0.02595820255,-3.7714414569999994,-9.052420548499999,0.002868,0.39476,-1.0667,-9.999999999998899e-05,-0.00019999999999997797,2.4999999999941735e-05,-0.0004658058491829875,-9.784989641326014e-05,3.8932252608758766e-05
153000000000.0,5,-0.0379713488,-0.02941995,0.0481506515,-0.019198,0.038627,0.004509,0.029596469699999996,-3.7698723929999995,-9.0530089475,0.003269,0.39458,-1.0667,-9.999999999998899e-05,-0.00019999999999997797,-9.999999999998899e-05,0.00048305519858665713,-0.0011954906468305548,0.0003598733091415285
153000000000.0,5,-0.02480101785,-0.013337044000000001,0.07102956595,-0.015062,0.026863,0.012009,0.0318323859,-3.768499462,-9.053597346499998,0.003516,0.39442,-1.0667,-9.999999999998899e-05,-0.00019999999999997797,-4.999999999988347e-05,-0.0019398864831844387,-0.0011138425334626945,0.00012829966749311472
153000000000.0,5,0.004344345949999999,-0.00279489525,0.08118925534999999,-0.006608,0.015066,0.013113,0.032911117399999995,-3.7678129964999996,-9.053891546,0.003635,0.39435,-1.0665,-9.999999999998899e-05,-0.000300000000000189,-5.0000000000105516e-05,-9.95643263743129e-05,-0.0002255165459723596,0.00010118082008139795
153000000000.0,5,0.006325289249999999,0.0018828768,0.08640639314999998,0.001784,-0.000991,0.016358,0.032577691299999996,-3.7678129964999996,-9.053891546,0.003598,0.39435,-1.0664,-9.999999999998899e-05,-0.00019999999999997797,9.999999999998899e-05,0.001465013900794676,0.00011575678047170967,1.4946933152876207e-05
153000000000.0,5,0.0035696206,0.01774022985,0.0854159215,0.005959,-0.014878,0.014256,0.03099882065,-3.7684013954999998,-9.053695413,0.003424,0.39442,-1.0662,-0.00019999999999997797,-0.00019999999999997797,0.000300000000000189,0.002229364083993879,0.0017223769973475633,3.7490286840247133e-05
153000000000.0,5,9.80665e-05,0.03570601265,0.06443949715,0.004804,-0.026589,0.013207,0.028331411849999998,-3.768891728,-9.05349928,0.00313,0.39447,-1.0662,-0.00019999999999997797,-0.00019999999999997797,-5.0000000000105516e-05,0.0006681579778486935,1.9000913584532597e-05,0.00017830568681070913
153000000000.0,5,-0.0395600261,0.06707748599999999,0.0408741172,0.007063,-0.014872,0.003582,0.0262425954,-3.7693820604999995,-9.0532050805,0.002898,0.39453,-1.0661,-0.00020000000000020002,-0.00019999999999997797,-5.0000000000105516e-05,0.0001844144155682681,-0.00023640431536797735,0.00028044771677840363
153000000000.0,5,-0.056554950550000004,0.0640178112,0.07351064839999999,0.005104,0.00433,-0.000724,0.0260268491,-3.7700685259999998,-9.052910880999999,0.002875,0.3946,-1.0661,-9.999999999998899e-05,-0.00019999999999997797,-9.999999999998899e-05,-0.0005491913855872332,-0.00016036581955614082,0.00018528482937049673
153000000000.0,5,-0.08877960245,0.057849428349999996,0.07306934914999999,-0.003394,0.012918,0.00565,0.0268309944,-3.7700685259999998,-9.0530089475,0.002963,0.3946,-1.0661,-0.00019999999999997797,-0.00019999999999997797,9.999999999998899e-05,4.5374064539582815e-05,0.0011719453886132047,5.714398649642183e-05
153000000000.0,5,-0.1001455098,0.03384274915,0.0166909183,-0.010854,0.019364,0.014165,0.027870499299999997,-3.7692839939999994,-9.053303147,0.003078,0.39451,-1.066,-0.00019999999999997797,-0.00019999999999997797,-4.999999999988347e-05,-9.627774952963852e-05,0.0005103497431178106,0.0006712526993318813
153000000000.0,5,-0.09588942369999999,0.0264387284,0.032950344,-0.010823,0.028941,0.024823,0.0294591766,-3.7683033289999996,-9.053695413,0.003253,0.3944,-1.0658,-9.999999999998899e-05,-0.00019999999999997797,-5.0000000000105516e-05,-0.0012801897322943234,-0.00045519804858140667,0.0006120586119198468
153000000000.0,5,-0.10418584959999999,0.027262487,0.08560224785000001,-0.007606,0.034237,0.030156,0.0314597332,-3.7676168634999994,-9.053989612499999,0.003475,0.39433,-1.0655,-0.00019999999999997797,-0.00019999999999997797,-9.999999999998899e-05,0.0008692683423870973,-0.00013207558997385682,0.0005735308895902236
153000000000.0,5,-0.08211108045,0.036284605,0.08764203105,-0.003316,0.038457,0.034426,0.03362700285,-3.767322664,-9.054087678999998,0.003714,0.3943,-1.0651,-0.00029999999999996696,-0.000300000000000189,-4.999999999988347e-05,0.0008000936524280022,0.0010549598821416595,-0.00036319980552998454
153000000000.0,5,-0.10588240004999999,0.05282842355,0.11537523724999998,0.002003,0.035219,0.032307,0.03570601265,-3.7676168634999994,-9.053989612499999,0.003944,0.39433,-1.0648,-0.00019999999999997797,-0.0002999999999997449,-5.0000000000105516e-05,-0.003050141222082303,-0.000684928562225906,-0.000804190378376396
153000000000.0,5,-0.06026186425,0.02999854235,0.12526034044999998,-0.006694,0.00973,0.021662,0.0361669252,-3.7672245975,-9.0541857455,0.003995,0.39428,-1.0646,-0.00029999999999996696,-0.000300000000000189,-5.0000000000105516e-05,0.0004515603183221639,-0.000611974311823138,0.00043351264400209866
153000000000.0,5,-0.06400800455,-0.0058643767,0.059428299,-0.01861,-0.016805,0.015283,0.03437230825,-3.7657536,-9.0547741445,0.003796,0.39413,-1.0645,-0.00019999999999997797,-0.0002999999999997449,-4.999999999988347e-05,-9.306628588690025e-05,-0.0006395297696417668,0.00011495674513933851
153000000000.0,5,-0.11405133949999999,-0.013562596949999998,0.0486605973,-0.023986,-0.024217,0.012085,0.03160683295,-3.763596137,-9.055656743,0.00349,0.39389,-1.0643,-0.00020000000000020002,-0.000300000000000189,-9.999999999998899e-05,-0.0005990341751120898,-0.0012351592693535807,0.0002590016554631369
153000000000.0,5,-0.1779318576,-0.0462089348,0.0610954295,-0.016482,-0.02108,0.009958,0.02890019755,-3.7617328734999997,-9.056441275,0.003191,0.39368,-1.0642,-0.00039999999999995595,-0.00019999999999997797,0.00019999999999997797,0.0007575592456426916,0.00253718564424954,6.62863723297491e-05
