Time,placement_label,user_acc_x(m/s^2),user_acc_y(m/s^2),user_acc_z(m/s^2),rotation_rate_x(rad/s),rotation_rate_y(rad/s),rotation_rate_z(rad/s),gravity_x(m/s^2),gravity_y(m/s^2),gravity_z(m/s^2),attitude_roll(rad),attitude_pitch(rad),attitude_yaw(rad),target_delta_x,target_delta_y,target_delta_z,target_delta_roll,target_delta_pitch,target_delta_yaw
152840000000.0,5,-0.0507592204,-0.04937648275,-0.11521833085,0.043752,-0.022327,0.001865,-0.3091252213,-3.4154600619999997,-9.187458119,-0.033633,0.35574,-1.2927,0.0,0.0,0.0,0.0,0.0,0.0
152840000000.0,5,-0.0951441183,-0.0879068106,-0.06332153905,-0.008981,0.059085,0.009102,-0.30587922014999996,-3.415852328,-9.187458119,-0.033281,0.35578,-1.2925,-9.999999999998899e-05,1.6666666666775853e-05,-9.090909090847532e-06,0.0005045597829423931,-0.001027703175177308,0.0005016996770575433
152840000000.0,5,-0.0907899657,-0.13037941174999998,-0.0234967334,-0.045938,0.11479,0.019615,-0.29691594205,-3.412125801,-9.1891252495,-0.032301,0.35537,-1.2924,-2.4999999999941735e-05,1.6666666666775853e-05,-9.090909091069577e-06,0.0007134830587187113,-0.0007112666325268524,0.0005910335147506218
152840000000.0,5,-0.055182019549999996,-0.1237403097,0.02383996615,-0.058633,0.12768,0.018503,-0.2856873278,-3.4065360105,-9.191576911999999,-0.031072,0.35476,-1.2922,-2.4999999999941735e-05,1.6666666666331764e-05,-9.090909090847532e-06,0.0006227047588948653,-0.00044483453417076824,0.0003236274118150473
152840000000.0,5,-0.00246146915,-0.10202838659999999,0.06344902549999999,-0.045015,0.09454,0.015383,-0.27645927015,-3.401730752,-9.1936363085,-0.030062,0.35424,-1.292,-2.500000000016378e-05,1.6666666666775853e-05,-9.090909090847532e-06,-0.00017974609855159196,-2.871669720638792e-05,-8.048186853573669e-05
152840000000.0,5,0.05680992345,-0.0631352127,0.0715297051,-0.005962,0.03562,0.005948,-0.27198743774999995,-3.4000636215,-9.194322774,-0.029574,0.35406,-1.2919,-2.4999999999941735e-05,1.6666666666775853e-05,-9.090909090847532e-06,-0.0006150605129311426,0.0002094806758932144,-0.0002121189737613327
152840000000.0,5,0.09686028205,-0.0184561153,0.1030286649,0.03629,-0.024389,-0.007748,-0.2726837099,-3.4022210845,-9.193538241999999,-0.029652,0.3543,-1.292,1.1111111111183902e-05,1.6666666666775853e-05,-9.090909091069577e-06,-0.0010074895555521324,0.0003570339357366059,-0.000495459496114653
152840000000.0,5,0.13079129104999998,0.01189546645,0.12718244385,0.068023,-0.064068,-0.016163,-0.27728302875,-3.4078108749999996,-9.1912827125,-0.030159,0.3549,-1.292,1.1111111110961858e-05,2.4999999999941735e-05,-9.090909090847532e-06,-0.0008596915077173639,0.0001596057603958645,-0.0003981648835157947
152840000000.0,5,0.1209748344,-0.00220649625,0.11205078289999999,0.078584,-0.080137,-0.017185,-0.2840790372,-3.4149697294999997,-9.188438783999999,-0.030907,0.35568,-1.2922,1.1111111111183902e-05,2.4999999999941735e-05,-9.090909090847532e-06,-0.0007860889593478415,0.00040118272716216374,-0.0003162952815742859
152840000000.0,5,0.10826541599999999,-0.022427808549999997,0.10013570314999999,0.065851,-0.06938,-0.014023,-0.29052200624999996,-3.4214421184999995,-9.185790988499999,-0.031616,0.35639,-1.2923,1.1111111111183902e-05,2.4999999999941735e-05,-9.090909090847532e-06,-6.690388504693168e-05,0.00029385197797915374,-5.411007487826636e-06
152840000000.0,5,0.0827288994,-0.0335975829,0.07040194035,0.043588,-0.043634,-0.002366,-0.2952193916,-3.4261493105,-9.183927725,-0.032134,0.3569,-1.2923,1.1111111110961858e-05,2.4999999999941735e-05,-9.090909091069577e-06,-1.8140603184835236e-05,1.700643456947759e-05,0.00010918830880041197
152840000000.0,5,0.058908546549999996,-0.01675956485,0.04093295709999999,0.016035,-0.013582,0.008208,-0.29742588784999996,-3.4283067735,-9.1830451265,-0.032378,0.35714,-1.2922,1.1111111111183902e-05,3.333333333355171e-05,-9.090909090847532e-06,4.4804380049778825e-05,-9.066096438536952e-05,0.00010457430625798736
152840000000.0,5,0.049964881749999995,0.005579983849999999,0.03207755215,-0.006259,0.00471,0.014542,-0.29775931395,-3.4284048400000002,-9.1830451265,-0.032414,0.35714,-1.292,1.1111111111183902e-05,3.333333333310762e-05,-3.333333333332966e-05,0.00022154112141598015,-8.714922357699884e-05,0.00042971473749012223
152840000000.0,5,0.06918591575,0.03821651505,-0.0157690932,-0.019,0.01653,0.020903,-0.2970826551,-3.4267377095,-9.1836335255,-0.032338,0.35696,-1.2918,1.1111111110961858e-05,3.333333333355171e-05,-3.333333333332966e-05,-0.0002151991133136355,-0.00016953384315532283,0.00021432089721221126
152840000000.0,5,0.0512299396,0.0371475902,-0.0108069283,-0.013595,0.025011,0.01983,-0.29544494455,-3.4252667119999995,-9.184319991,-0.032157,0.3568,-1.2916,1.1111111111183902e-05,4.999999999988347e-05,-3.333333333332966e-05,0.00032292535102024233,-3.2269575019228114e-05,0.00022873535139922296
152840000000.0,5,0.045473436049999996,0.0616446019,0.04406127844999999,-0.007221,0.019634,0.016649,-0.29386607389999997,-3.424286047,-9.184712257,-0.031984,0.3567,-1.2914,4.999999999988347e-05,4.999999999988347e-05,-5.0000000000105516e-05,-0.00038241120170889875,1.4534371340912955e-05,0.0001025784406669672
152840000000.0,5,0.04749360595,0.0715297051,0.030145642099999998,0.003325,0.003564,0.015628,-0.2934934212,-3.424286047,-9.184712257,-0.031944,0.3567,-1.2912,5.0000000000105516e-05,0.00010000000000021103,-4.999999999988347e-05,-0.0011702861958325372,0.0003681299116859993,-9.541687953379396e-05
152840000000.0,5,0.0472484397,0.07477570624999999,0.012748645,0.022383,-0.016836,0.012495,-0.2949055788,-3.4259531775,-9.1840257915,-0.032099,0.35687,-1.291,2.4999999999941735e-05,9.999999999976694e-05,1.6666666666775853e-05,0.00016686051726416684,0.00041643242966826755,-2.6353094913861286e-05
152840000000.0,5,0.0517987253,0.08516094860000001,0.04666984735,0.03717,-0.03614,0.015755,-0.29810254669999997,-3.428993239,-9.182750926999999,-0.032452,0.3572,-1.2909,2.500000000016378e-05,0.00010000000000021103,1.666666666655381e-05,-0.0006767407737365838,0.000837435486575,9.571771214833547e-05
152840000000.0,5,0.0488763436,0.09010350019999999,0.034401728199999995,0.039211,-0.045751,0.018977,-0.30266263895,-3.4325236329999997,-9.181279929499999,-0.032953,0.3576,-1.2906,2.4999999999941735e-05,9.999999999976694e-05,1.666666666655381e-05,-0.00015306484035798595,0.0009311917321421781,-0.00019604307502726903
152840000000.0,5,0.044963490249999995,0.06905842929999999,-0.0055701772,0.040288,-0.044693,0.01791,-0.3074188642,-3.4362501599999997,-9.179808932,-0.033477,0.35799,-1.2904,2.4999999999941735e-05,0.00010000000000021103,1.6666666666775853e-05,-0.0007259936085384777,0.00045127436115510733,1.6735338527085197e-05
152840000000.0,5,0.04786625864999999,0.0703529071,-0.026468148349999998,0.039341,-0.027639,0.021081,-0.31092964489999997,-3.439780554,-9.1783379345,-0.033864,0.35838,-1.2901,3.333333333332966e-05,9.999999999976694e-05,1.6666666666775853e-05,-0.0007835707525862268,0.0004023193577529227,5.7080118887775644e-05
152840000000.0,5,0.02409493905,0.052220411249999994,-0.0101793027,0.044794,-0.009573,0.024262,-0.31290078154999995,-3.4436051475,-9.176866937,-0.034083,0.3588,-1.2899,3.333333333332966e-05,0.00010000000000021103,1.666666666655381e-05,-0.0004995099465488484,-0.00012760545177736837,0.0005365833523529873
152840000000.0,5,-0.0046189321499999995,0.0383832281,0.02750765325,0.044898,0.00215,0.022106,-0.31365589359999996,-3.4476258739999994,-9.175297873,-0.034172,0.35923,-1.2896,3.333333333332966e-05,0.00019999999999997797,-1.666666666655381e-05,-0.00048009476109378557,-0.00020300700319419995,4.193563137624978e-05
152840000000.0,5,0.00505042475,0.0298710559,0.0088063717,0.043834,3.1e-05,0.018906,-0.314205066,-3.4514504674999995,-9.1738268755,-0.034237,0.35966,-1.2893,-7.692307692375167e-06,0.00010000000000021103,-1.6666666666775853e-05,-0.00012252187459838026,1.3436486581364093e-05,0.00032553984990546514
152840000000.0,5,0.0164947853,0.0033636809499999996,0.001176798,0.034221,-0.00202,0.017825,-0.31487191819999993,-3.4545885955,-9.1726500775,-0.034313,0.36,-1.2891,-7.692307692153122e-06,9.999999999976694e-05,-1.6666666666775853e-05,-3.062498919881307e-05,-7.131565790308159e-05,0.0001613334854215498
152840000000.0,5,0.0020790098,-0.028449091649999998,0.03656899785,0.022544,0.000215,0.011396,-0.31527399084999996,-3.4567460585,-9.171767479,-0.034361,0.36023,-1.289,-7.692307692375167e-06,0.00010000000000021103,-1.666666666655381e-05,0.0003611142485935859,1.5880492272968283e-05,0.0001908389759608664
152840000000.0,5,0.00980665,-0.04151154945,0.0638412915,0.004486,0.006763,0.006016,-0.3150680512,-3.4574325239999997,-9.171571345999999,-0.034339,0.36031,-1.2888,-7.692307692375167e-06,9.999999999976694e-05,-1.666666666655381e-05,0.00029215761637729765,-0.00028329228113621596,0.00017214214718347387
152840000000.0,5,0.0194760069,-0.07403040085,0.07264766319999999,-0.008272,0.013263,0.003849,-0.3141069995,-3.4568441249999995,-9.171767479,-0.034234,0.36024,-1.2888,-7.692307692153122e-06,0.00010000000000021103,-1.6666666666775853e-05,-0.0001335508244018624,-0.00024128504488230007,9.061227363721391e-05
152840000000.0,5,-0.0179853961,-0.07689394265,0.08401357055,-0.019925,0.02295,0.002744,-0.3122633493,-3.4549808614999997,-9.172552010999999,-0.03403,0.36004,-1.2887,-7.692307692375167e-06,9.999999999976694e-05,-9.999999999998899e-05,0.0003340637285431103,-0.00025381191978368633,4.610768301516188e-05
152840000000.0,5,-0.01456287525,-0.07565830474999999,0.09277090899999998,-0.024134,0.02938,0.001658,-0.30970381364999994,-3.4526272655,-9.173532676,-0.033748,0.35978,-1.2887,-7.692307692375167e-06,0.00010000000000021103,-9.999999999998899e-05,0.0012653149853302237,-0.0008572695102515571,6.276994755347043e-05
152840000000.0,5,-0.01124822755,-0.08099312235,0.0881617835,-0.028418,0.027284,0.001654,-0.30733060435,-3.4499794699999997,-9.174611407499999,-0.033485,0.3595,-1.2887,-7.692307692375167e-06,4.999999999988347e-05,-9.999999999998899e-05,-4.49042533668953e-05,-0.00038299457399104675,2.177608429471123e-05
152840000000.0,5,-0.011885659799999998,-0.08633774659999999,0.0777078946,-0.028444,0.023022,0.002728,-0.30519275464999995,-3.4473316745,-9.175690139,-0.033249,0.35921,-1.2887,-7.692307692153122e-06,4.999999999988347e-05,-5.0000000000105516e-05,0.00015871457615057594,1.8006509652002123e-05,0.00011453152675325318
152840000000.0,5,-0.011866046499999998,-0.08660252615,0.06447872375,-0.026361,0.01342,-0.002588,-0.30372175715,-3.4448800119999996,-9.176670804,-0.033085,0.35893,-1.2886,-7.692307692375167e-06,5.000000000032756e-05,-4.999999999988347e-05,0.00037059231316244334,-0.00017433832190838494,0.0001599740599078081
152840000000.0,5,-0.0019809433,-0.0806302763,0.0464050678,-0.022107,0.011255,-0.004711,-0.30252534585,-3.4429186819999997,-9.177455336,-0.032952,0.35872,-1.2887,-7.692307692375167e-06,4.999999999988347e-05,-4.999999999988347e-05,0.0005340095540806722,-0.0001365802033890251,6.948510624821269e-05
152840000000.0,5,-0.0145530686,-0.08224837355,0.034627281149999994,-0.017855,0.008025,-0.006833,-0.3014760343,-3.4412515514999997,-9.178043735,-0.032836,0.35855,-1.2887,-7.692307692153122e-06,4.999999999988347e-05,-5.0000000000105516e-05,-0.0003177462376172113,-0.00022033319406911112,-0.0002847877217529715
152840000000.0,5,-0.014768814899999998,-0.0838272442,0.0323423317,-0.017896,0.002698,-0.006824,-0.30067188899999997,-3.4398786205,-9.178632133999999,-0.032746,0.35839,-1.2888,-7.692307692375167e-06,4.999999999988347e-05,-5.0000000000105516e-05,0.00012518920658388666,-4.296080215193676e-05,-0.00016842669036570834
152840000000.0,5,-0.018691474899999998,-0.0871811185,0.009894909849999998,-0.020012,0.001655,-0.012163,-0.30018155649999995,-3.4383095564999997,-9.179220532999999,-0.032691,0.35822,-1.2889,-4.999999999988347e-05,4.999999999988347e-05,-4.999999999988347e-05,0.0003259139237266062,-0.0001357767120444553,-0.00026290991903227257
152840000000.0,5,-0.02984163595,-0.09066247925,-0.00626644935,-0.018943,-0.001543,-0.019626,-0.29966180405,-3.4367404925,-9.179808932,-0.032632,0.35805,-1.2891,-5.0000000000105516e-05,5.000000000032756e-05,1.2499999999970868e-05,0.00033706472043937286,0.00016434313579560822,-0.00016860699427018178
152840000000.0,5,-0.0154356671,-0.0645865969,0.026330855249999997,-0.024293,-0.004694,-0.021765,-0.29924992475,-3.434877229,-9.180593464,-0.032585,0.35784,-1.2893,-9.999999999998899e-05,3.333333333310762e-05,1.2499999999970868e-05,0.00028588808725754644,-7.207487772054044e-05,-0.0002284801471030551
152840000000.0,5,-0.0151218543,-0.04690520694999999,0.009345737449999999,-0.025425,-0.012145,-0.020686,-0.29956373755,-3.4326216995,-9.181377995999998,-0.032616,0.3576,-1.2895,-4.999999999988347e-05,3.333333333355171e-05,1.2499999999970868e-05,3.63909711937338e-05,-3.279254811938692e-05,-0.0002996119088672644
152840000000.0,5,-0.027066353999999997,-0.019348520449999997,-0.0389912404,-0.016868,-0.012211,-0.024941,-0.29988735699999997,-3.430954569,-9.181966395,-0.032649,0.35743,-1.2898,-5.0000000000105516e-05,3.333333333310762e-05,1.2499999999970868e-05,8.291565722123861e-05,-0.0002342813297140367,-0.00038180958609299043
152840000000.0,5,-0.05131819945,0.01999575935,-0.02990047585,-0.002942,-0.006997,-0.024927,-0.29987755034999997,-3.4306603694999995,-9.1820644615,-0.032647,0.35739,-1.29,-9.999999999998899e-05,0.00010000000000021103,1.2500000000192912e-05,4.853063730436702e-05,0.00017777249025230368,-9.954182026578051e-05
152840000000.0,5,-0.06283120655,0.0200644059,-0.0264387284,0.008834,-0.000702,-0.022783,-0.29928915135,-3.4314449015,-9.181770261999999,-0.032584,0.35748,-1.2902,-9.999999999998899e-05,9.999999999976694e-05,1.2499999999970868e-05,-0.0006157995322026433,-0.0005861399598861006,-0.0003499101862714238
152840000000.0,5,-0.06275275335,0.019760399749999998,-0.04916073645,0.010954,0.001407,-0.01958,-0.29862229915,-3.432719766,-9.181377995999998,-0.032513,0.35761,-1.2904,-0.00010000000000021103,0.00010000000000021103,1.2499999999970868e-05,-0.0010016690949945506,-0.0004099211394674729,-0.0003161340556416814
152840000000.0,5,-0.0453263363,0.0023732093,-0.0594086857,0.015243,0.006695,-0.015312,-0.29764163415,-3.4341907634999997,-9.180887663499998,-0.032409,0.35777,-1.2906,-9.999999999998899e-05,9.999999999976694e-05,1.2499999999970868e-05,-0.0008467441364231054,-0.00014913999862020688,-7.877979220569098e-05
152840000000.0,5,-0.048258524649999995,0.0077766734499999995,-0.0347351543,0.017467,0.01414,-0.017458,-0.2959058571,-3.4359559605,-9.180201197999999,-0.032222,0.35797,-1.2907,-9.999999999998899e-05,0.00010000000000021103,5.0000000000105516e-05,-0.0002331748514093901,-0.0002788174909309493,-0.0002256221419684179
152840000000.0,5,-0.024497011699999998,-0.00304986815,0.0023143694,0.019579,0.008799,-0.021714,-0.29422891994999995,-3.4379172904999997,-9.179612799,-0.032042,0.35817,-1.2909,-9.999999999998899e-05,9.999999999976694e-05,4.999999999988347e-05,-0.00028558914861487317,-1.580036688153541e-06,-0.00018738229192732936
152840000000.0,5,0.0111207411,0.0121014061,-0.0045110589999999996,0.020646,0.0056,-0.028111,-0.29273830915,-3.4398786205,-9.1789263335,-0.031881,0.35839,-1.2912,-9.999999999998899e-05,0.00010000000000021103,9.999999999998899e-05,-0.00023478778979846293,0.00034062848604166085,-0.00023200131456124762
152840000000.0,5,0.03647093135,0.02558554985,0.029115943849999996,0.028042,-0.006178,-0.032347,-0.29205184365,-3.4424283495,-9.1779456685,-0.031811,0.35867,-1.2915,-0.00019999999999997797,5.000000000032756e-05,9.999999999998899e-05,-6.548489105545618e-05,0.0006670724092856517,-0.00015279457235131688
152840000000.0,5,0.07652128995,0.026173948849999996,0.08509230205,0.052404,-0.028756,-0.033332,-0.2927481158,-3.4462529429999997,-9.176474671,-0.031891,0.35909,-1.2919,-9.999999999998899e-05,4.999999999988347e-05,-4.999999999988347e-05,-5.825379475465908e-06,0.0013967891451418524,-0.0007889159028934278
152840000000.0,5,0.08584741409999999,0.030488874849999997,0.31862786514999997,0.042433,-0.084069,-0.048195,-0.29728859475,-3.451156268,-9.174513340999999,-0.032392,0.35963,-1.2923,-9.999999999998899e-05,9.999999999976694e-05,-5.0000000000105516e-05,0.0003469860145762782,0.0014391023163162764,-0.0009038481354095573
152840000000.0,5,0.15781841845,-0.07116685905,0.52174319995,0.005837,-0.12,-0.042858,-0.30640877925,-3.4526272655,-9.1736307425,-0.033388,0.35978,-1.2928,-9.999999999998899e-05,2.4999999999941735e-05,-0.00019999999999997797,0.0008631194866913772,0.00081067153784109,-0.0004150137414284383
152840000000.0,5,0.1066767387,0.0851413353,0.23987065899999999,-0.003652,-0.091179,-0.019442,-0.31482288495,-3.4526272655,-9.173336543,-0.034305,0.35978,-1.293,-4.999999999988347e-05,2.4999999999941735e-05,-0.00019999999999997797,0.000935188679982546,-2.6625550278103205e-05,0.00017459438078615275
152840000000.0,5,0.11298241464999999,-0.0205743517,0.44178958249999994,-0.044727,-0.01307,-0.003639,-0.317539327,-3.449391071,-9.174513340999999,-0.034597,0.35943,-1.2931,-5.0000000000105516e-05,2.5000000000385825e-05,-0.00019999999999997797,0.0014394515861504975,-0.0005164426726085303,0.0002581517339626249
152840000000.0,5,0.0141608026,-0.0014709974999999999,0.22728872704999997,-0.080461,0.060741,0.005776,-0.31373434679999995,-3.4427225489999995,-9.1771611365,-0.034173,0.3587,-1.293,-3.333333333332966e-05,2.4999999999941735e-05,-0.00019999999999997797,0.0013840335960649264,-0.0007179740885727703,0.00020182877984686876
152840000000.0,5,-0.038245934999999995,-0.037157396849999996,0.0569962498,-0.093008,0.094938,0.012097,-0.30577134699999997,-3.43428883,-9.180593464,-0.033294,0.35778,-1.293,-3.333333333332966e-05,3.333333333310762e-05,-0.00019999999999997797,0.0007788557110548489,-0.0007291741812529562,0.00021302603681488952
152840000000.0,5,0.012621158549999999,-0.052426350899999995,0.11321777424999999,-0.094195,0.077902,0.008922,-0.29813196664999997,-3.4254628449999998,-9.184123858,-0.03245,0.35682,-1.2929,-3.333333333332966e-05,3.333333333355171e-05,-0.00019999999999997797,0.0010288670137451605,-0.0004429749094674307,6.639326185134409e-05
152840000000.0,5,0.0828269659,-0.04115851005,0.05994805145,-0.073185,0.031916,0.001568,-0.29411124015,-3.4182059239999996,-9.1869677865,-0.032003,0.35603,-1.2929,-3.333333333332966e-05,3.333333333310762e-05,-9.999999999998899e-05,-0.00031534530320342924,-0.00028858838574352674,-7.362204796693139e-05
152840000000.0,5,0.1263881052,-0.0409133438,0.06247816714999999,-0.041515,-0.013096,-0.002567,-0.29413085344999995,-3.4137929314999997,-9.188536850499998,-0.031999,0.35555,-1.2929,-3.333333333332966e-05,5.000000000032756e-05,-0.00020000000000020002,-8.464140558173128e-05,0.0001355351014524775,-0.00022933682970541214
152840000000.0,5,0.11400230624999999,-0.0385205212,0.13804821204999998,-0.015157,-0.051674,-0.004587,-0.29760240754999995,-3.4123219339999995,-9.189027182999999,-0.032376,0.35539,-1.2929,-3.333333333332966e-05,4.999999999988347e-05,-0.00019999999999997797,-0.0015391676555154277,0.0010606387481177926,-0.00039519626064848934
152840000000.0,5,0.08498442889999999,-0.059663658599999995,0.1362339818,-0.003587,-0.075208,-0.008795,-0.30376098375,-3.4118316015,-9.189027182999999,-0.033045,0.35534,-1.293,-5.0000000000105516e-05,-1.6666666666775853e-05,-9.999999999998899e-05,-0.00040472009388614616,0.00047357795540903247,-0.000277013101254997
152840000000.0,5,0.04333558635,-0.09719370814999999,0.10064564894999999,0.010267,-0.076389,-0.007702,-0.31042950575,-3.4127141999999995,-9.188438783999999,-0.033772,0.35544,-1.2931,-4.999999999988347e-05,-1.6666666666775853e-05,-0.00019999999999997797,-0.00036248854011217135,0.00048072320446168604,-0.0001602232850058949
152840000000.0,5,-0.01611232595,-0.08752435125000001,0.11660106849999999,0.023194,-0.061576,-0.008773,-0.31622523589999996,-3.4147735965,-9.187458119,-0.034406,0.35566,-1.2931,-4.999999999988347e-05,-1.6666666666331764e-05,-9.999999999998899e-05,-0.0006178265176621234,0.00017190700999480946,-0.0002752905354515556
152840000000.0,5,-0.057015863099999994,-0.09336911464999999,0.11548311039999999,0.028775,-0.030722,-0.00455,-0.3196183368,-3.417421392,-9.186379387499999,-0.034779,0.35595,-1.2931,-5.0000000000105516e-05,-1.6666666666775853e-05,-0.00019999999999997797,-0.00018082881431241704,-2.7232721420134e-06,-3.655897000692798e-05
152840000000.0,5,-0.09309452844999999,-0.10372493705,0.07879643275,0.01837,0.000269,-0.007825,-0.3200498294,-3.4194807884999996,-9.1855948555,-0.034829,0.35617,-1.2932,-9.999999999998899e-05,-1.6666666666775853e-05,-9.999999999998899e-05,-7.893389577606769e-05,-9.518919134876569e-05,0.00010833662332027094
152840000000.0,5,-0.09215309005,-0.10784373004999999,0.0290080707,0.003577,0.017444,-0.012149,-0.31845134545,-3.4203633869999996,-9.185300655999999,-0.034656,0.35626,-1.2933,-9.999999999998899e-05,-1.6666666666775853e-05,-9.999999999998899e-05,0.0010891517638575987,0.0001833555583912183,-0.00014241943674592195
152840000000.0,5,-0.0678816313,-0.13802859875,-0.0087475318,-0.013286,0.036775,-0.022886,-0.31459733199999995,-3.4195788549999997,-9.185692922,-0.034235,0.35619,-1.2935,-9.999999999998899e-05,-4.999999999988347e-05,-9.999999999998899e-05,0.0012648569414964728,-0.00022220104574754984,-7.988785628854078e-06
152840000000.0,5,-0.06143866224999999,-0.10919704775,0.00171616375,-0.03126,0.051848,-0.028282,-0.3090663814,-3.4173233255,-9.1867716535,-0.03363,0.35594,-1.2938,-0.00019999999999997797,-4.999999999988347e-05,-0.00019999999999997797,0.0002189635176171878,-0.001042694888470086,-0.0002391146187071258
152840000000.0,5,-0.077668668,-0.11593421629999999,-0.0063154826,-0.030066,0.067823,-0.028308,-0.30195656015,-3.4145774634999997,-9.188046517999998,-0.032853,0.35564,-1.2941,-0.00010000000000021103,-5.000000000032756e-05,-9.999999999998899e-05,2.7940120740865826e-05,-0.0004953705036363498,-1.1901214308912555e-05
152840000000.0,5,-0.0940653868,-0.08450390305,0.031842192549999995,-0.011886,0.07513,-0.027221,-0.29410143349999995,-3.4133025989999997,-9.1887329835,-0.031995,0.3555,-1.2944,-9.999999999998899e-05,-4.999999999988347e-05,-9.999999999998899e-05,-0.0007520660019524339,-0.0007843532016020838,0.00024405277634645395
152840000000.0,5,-0.06381187155,-0.07816880715,0.08569050769999999,0.014735,0.068517,-0.027164,-0.2867856726,-3.4143813304999995,-9.188634917,-0.031201,0.35562,-1.2946,-0.00019999999999997797,-4.999999999988347e-05,-4.999999999988347e-05,-2.919185670247071e-05,-0.0009078849836818836,-0.00020743620295118892
152840000000.0,5,-0.050298307849999994,-0.0838076309,0.0981057266,0.028594,0.062017,-0.0346,-0.27995043755,-3.4169310595,-9.187850384999999,-0.030461,0.3559,-1.2949,-0.00019999999999997797,-4.999999999988347e-05,-5.0000000000105516e-05,0.00017305005272660878,-0.0010471374236125097,-0.0005683352287827459
152840000000.0,5,-0.025026570799999998,-0.07202003759999999,0.06921533569999999,0.029638,0.052429,-0.045256,-0.27349766184999996,-3.4199711209999997,-9.1869677865,-0.029762,0.35622,-1.2953,-9.999999999998899e-05,-0.00010000000000021103,-0.00019999999999997797,-0.00031278859797867486,-0.0013020679061275242,-1.8166195655477946e-05
152840000000.0,5,-0.026311241949999998,-0.099635564,0.0528186169,0.022157,0.048234,-0.051665,-0.26742734549999997,-3.4222266505,-9.186281321,-0.029103,0.35647,-1.2959,-0.00019999999999997797,-5.000000000032756e-05,-5.0000000000105516e-05,-0.0003925715475407987,-0.0009587658595975324,-4.1550295182157804e-05
152840000000.0,5,-0.019985952699999997,-0.09091745215,0.018642441649999997,0.016818,0.050405,-0.047408,-0.26118050945,-3.424089914,-9.185692922,-0.028426,0.35667,-1.2964,-9.999999999998899e-05,-4.999999999988347e-05,-4.999999999988347e-05,-0.0003662946382040344,-0.0011139863451079535,-0.000210109088342042
152840000000.0,5,-0.027125193899999997,-0.08776951749999999,0.01997614605,0.022122,0.055675,-0.034599,-0.2550905798,-3.4261493105,-9.185104523,-0.027765,0.3569,-1.2968,-9.999999999998899e-05,-9.999999999976694e-05,-0.00010000000000021103,-0.0007181674547648287,-0.0008644729505205007,-7.032006581281225e-05
152840000000.0,5,-0.0521321514,-0.09764481405,0.05888893325,0.030622,0.059853,-0.020715,-0.24894181025,-3.428993239,-9.1842219245,-0.027098,0.35721,-1.297,-0.00019999999999997797,-0.00010000000000021103,-9.999999999998899e-05,-0.0006016248300593774,-0.00020800753165817198,0.0001009154271053303
152840000000.0,5,-0.00661948875,-0.09937078444999999,0.0688819096,0.040093,0.0523,-0.004675,-0.24372467244999999,-3.4326216995,-9.1830451265,-0.026534,0.35761,-1.297,-9.999999999998899e-05,-9.999999999976694e-05,-6.666666666665932e-05,0.000171979884773521,0.000335804074983459,-2.5158747287423733e-06
152840000000.0,5,0.019917306149999998,-0.13299778729999998,0.06796989114999999,0.039992,0.041642,-0.001454,-0.23973336589999997,-3.4366424259999997,-9.1816721955,-0.026104,0.35804,-1.297,-9.999999999998899e-05,-0.00010000000000021103,-6.666666666665932e-05,0.00015269349613611372,0.00024646798128036274,-9.364120805757659e-05
152840000000.0,5,0.07406962745,-0.13291933409999998,0.08031646349999999,0.023892,0.025796,-0.005725,-0.23701692384999998,-3.4393882879999995,-9.180691530499999,-0.025812,0.35834,-1.2971,-9.999999999998899e-05,-0.00019999999999997797,-6.666666666665932e-05,-0.0007272241716201333,-0.0006381362633081089,7.706124741829745e-05
152840000000.0,5,0.10955008715,-0.14392239539999999,0.03435269495,0.011072,0.021642,-0.008942,-0.2349477207,-3.4407612189999996,-9.180201197999999,-0.025587,0.35849,-1.2971,-9.999999999998899e-05,-9.999999999976694e-05,-5.0000000000105516e-05,0.0007670973716574214,6.402592537435581e-05,8.685817360415404e-05
152840000000.0,5,0.09364370085,-0.14259849765,0.023830159499999996,0.003701,0.034492,-0.012178,-0.23190765919999998,-3.4415457509999996,-9.180005065,-0.025257,0.35857,-1.2972,-9.999999999998899e-05,-0.00019999999999997797,-4.999999999988347e-05,0.001062875728546686,-0.00018060565406674556,-2.193125225580239e-05
152840000000.0,5,0.09200599029999999,-0.12367166315,0.0577611685,0.002704,0.041961,-0.014327,-0.22773002629999997,-3.4418399505,-9.180005065,-0.024802,0.35861,-1.2973,-0.00019999999999997797,-0.00010000000000021103,-4.999999999988347e-05,-0.0011142081667660508,-9.59196610570423e-05,-0.00016969220494444937
152840000000.0,5,0.07182390459999999,-0.10204799989999999,0.0097085835,0.002765,0.047292,-0.016472,-0.22296399439999998,-3.4422322165,-9.1799069985,-0.024283,0.35865,-1.2975,-0.00010000000000021103,-0.00019999999999997797,-5.0000000000105516e-05,-0.0004872072789059989,-0.0005767000582306281,-0.00027998531670156424
152840000000.0,5,0.055299699349999995,-0.07514835895,-0.05153394575,0.010291,0.055752,-0.014339,-0.21751149699999997,-3.443114815,-9.179710865499999,-0.02369,0.35875,-1.2976,-9.999999999998899e-05,-9.999999999976694e-05,-5.0000000000105516e-05,-0.0004743570263969765,-0.0009317995739068774,0.00030279037742370063
152840000000.0,5,0.028449091649999998,-0.0395404128,-0.0829250324,0.015722,0.071684,-0.006887,-0.21099988139999998,-3.4445858124999997,-9.1793185995,-0.022983,0.35891,-1.2977,-4.999999999988347e-05,-0.00010000000000021103,-4.999999999988347e-05,-0.00020197691716772326,-0.001755894901814603,0.00042390689553375993
152840000000.0,5,-0.0067862018,-0.030685007849999998,-0.06971547485,0.019046,0.092959,0.002688,-0.20300746165,-3.4466452089999997,-9.178828267,-0.022113,0.35913,-1.2976,-5.0000000000105516e-05,-9.999999999976694e-05,9.999999999998899e-05,0.00023657638569485329,-0.002136244041449853,0.0006895840476216775
152840000000.0,5,-0.03437230825,-0.011179581,-0.0816501679,0.016063,0.11962,0.003703,-0.19262221929999998,-3.4483123394999997,-9.1783379345,-0.020984,0.35931,-1.2976,-9.999999999998899e-05,-0.00010000000000021103,-9.999999999998899e-05,0.00010781079629329504,-0.0019227488170698859,0.00046559463633336073
152840000000.0,5,-0.05565273875,0.018338435499999996,-0.048032971699999996,0.009896,0.14632,-0.000625,-0.17957937479999997,-3.4494891375,-9.178141801499999,-0.019563,0.35944,-1.2975,-9.999999999998899e-05,-9.999999999976694e-05,-1.6666666666775853e-05,0.0005653332876546235,-0.0017748448808405648,0.0004889389017382617
152840000000.0,5,-0.0146707484,0.03264633785,-0.0024810824500000003,0.001394,0.15171,0.001486,-0.16564412515,-3.4500775365,-9.178239867999999,-0.018046,0.3595,-1.2975,-9.999999999998899e-05,-0.00010000000000021103,-1.666666666655381e-05,-0.0002108532466755797,-0.001057724345233435,0.00047025302871153696
152840000000.0,5,0.0033146476999999994,0.03378390925,-0.0131605243,-0.004029,0.14004,0.000429,-0.15250321415,-3.4499794699999997,-9.1785340675,-0.016614,0.3595,-1.2975,-9.999999999998899e-05,-0.00010000000000021103,-1.666666666655381e-05,0.0008108369349391076,-0.0006476336521321624,0.00045423466905411547
152840000000.0,5,0.0378732823,0.01346453045,-0.04519884985,0.003353,0.12932,-0.000606,-0.1403723881,-3.450175603,-9.178632133999999,-0.015292,0.35952,-1.2975,-9.999999999998899e-05,-9.999999999976694e-05,-1.6666666666775853e-05,0.00033269834474936033,-0.0009349789214743165,0.0005342044332553586
152840000000.0,5,0.05899680639999999,0.013915636349999998,0.0008629851999999999,0.009697,0.12287,0.000484,-0.12902609404999998,-3.4510582015,-9.178436001,-0.014057,0.35961,-1.2974,-4.999999999988347e-05,-0.00010000000000021103,-1.6666666666775853e-05,7.638454195019184e-05,-0.0006556102636618988,0.0007607596349606671
152840000000.0,5,0.05427000109999999,0.0306163613,0.0363630582,0.006453,0.12077,0.002618,-0.1180132261,-3.451744667,-9.1783379345,-0.012857,0.35969,-1.2974,-5.0000000000105516e-05,-9.999999999976694e-05,-1.666666666655381e-05,6.385262312930129e-05,-0.000804295452769388,0.0005443811241872543
152840000000.0,5,0.04296293365,0.017092990949999998,0.027693979599999998,-0.003126,0.12511,0.004729,-0.10686306505,-3.451744667,-9.1785340675,-0.011642,0.35968,-1.2973,-5.0000000000105516e-05,-0.00010000000000021103,-1.2499999999970868e-05,-0.00022465015813138978,-0.0013106999115348739,0.00048792959602383945
152840000000.0,5,0.0352254868,0.0014709974999999999,0.0427962206,-0.015969,0.12095,0.007916,-0.09597768355,-3.4504698025,-9.1790244,-0.010456,0.35955,-1.2972,-4.999999999988347e-05,-4.999999999988347e-05,-1.2499999999970868e-05,0.00011716406438383453,-0.001243662655719735,0.0005434796485045135
152840000000.0,5,0.03496070725,0.007286340949999999,0.01974078645,-0.015999,0.11988,0.012187,-0.08538650155,-3.448802672,-9.179808932,-0.009302,0.35936,-1.2971,-4.999999999988347e-05,-4.999999999988347e-05,-1.2499999999970868e-05,-0.00020766775226532808,-0.0007174874100737139,0.0005863198387807689
152840000000.0,5,0.0372260434,0.016465365349999997,0.02801759905,-0.003292,0.11124,0.017561,-0.0756877247,-3.4481162064999995,-9.180201197999999,-0.008244,0.35929,-1.2969,-5.0000000000105516e-05,-0.00010000000000021103,-1.2500000000192912e-05,0.00010195624033038087,-0.0007790207966360541,0.0006740750929605244
152840000000.0,5,0.03882452735,0.026281822,0.06431201069999999,0.017793,0.085484,0.02725,-0.06815621749999999,-3.4491949379999998,-9.179808932,-0.007424,0.35941,-1.2966,-3.333333333332966e-05,-9.999999999976694e-05,-1.2499999999970868e-05,-0.00019871252029257658,-0.00028896346542683915,0.0005262387774685462
152840000000.0,5,0.05255383735,0.0293218835,0.0690780426,0.025009,0.05984,0.037981,-0.0633313457,-3.4513524009999994,-9.1790244,-0.006899,0.35965,-1.2962,-3.333333333332966e-05,-5.000000000032756e-05,-1.2499999999970868e-05,0.00041560729590672807,0.00012167551103448027,0.0005661891549644249
152840000000.0,5,0.05585867839999999,0.010493115499999999,0.030577134699999998,0.010973,0.039708,0.03906,-0.06065413025,-3.452725332,-9.1785340675,-0.006608,0.35979,-1.2957,-3.333333333332966e-05,-4.999999999988347e-05,-1.2499999999970868e-05,0.0008125136922505494,-0.00023319577537272984,0.000533978039649774
152840000000.0,5,0.04768973895,-0.028811937699999998,-0.0290080707,-0.012465,0.040972,0.03368,-0.058163241149999996,-3.4520388664999997,-9.178828267,-0.006337,0.35972,-1.2953,-4.999999999988347e-05,-9.999999999976694e-05,-1.2499999999970868e-05,0.0006507150223333813,-0.001524570009213022,0.0004679625252113073
152840000000.0,5,0.034087915399999995,-0.056378430849999994,-0.05704528305,-0.031449,0.061387,0.02187,-0.0538385085,-3.4494891375,-9.179808932,-0.005865,0.35944,-1.295,-5.0000000000105516e-05,-0.00010000000000021103,4.999999999988347e-05,9.761570984823109e-05,-0.0014396315975768736,0.0002795203872998919
152840000000.0,5,0.012375992300000001,-0.0697645081,-0.0182992089,-0.032296,0.085907,0.018622,-0.047091533299999995,-3.4464490759999995,-9.18098573,-0.005129,0.35911,-1.2948,-5.0000000000105516e-05,-4.999999999988347e-05,5.0000000000105516e-05,7.044108961534734e-05,-0.0003949178312321333,0.0004907500509759022
152840000000.0,5,-0.015886773,-0.08936800144999998,0.0096497436,-0.014128,0.094274,0.026111,-0.03933447314999999,-3.4445858124999997,-9.1816721955,-0.004284,0.35891,-1.2945,-4.999999999988347e-05,-4.999999999988347e-05,9.999999999998899e-05,0.00011708696794388018,-0.0008343814786209158,0.000683158875620371
152840000000.0,5,-0.0021182363999999996,-0.07083343295,0.0443064447,0.019838,0.081194,0.037935,-0.0325973046,-3.445664544,-9.181377995999998,-0.00355,0.35902,-1.2942,-3.333333333332966e-05,-0.00010000000000021103,9.999999999998899e-05,-0.0009062605623895714,-0.00047408955147587584,0.0005811901442172029
152840000000.0,5,0.009129991149999999,-0.08508249539999999,0.09266303585,0.04519,0.053273,0.044433,-0.02842947835,-3.4491949379999998,-9.180005065,-0.003097,0.35941,-1.2937,-3.333333333332966e-05,-9.999999999976694e-05,9.999999999998899e-05,-0.0008103509869280545,0.0004259099373633557,0.0006532852874214234
152840000000.0,5,0.022192448949999995,-0.10555878059999999,0.09170198415,0.054604,0.030815,0.04769,-0.0268309944,-3.4541963294999998,-9.178141801499999,-0.002923,0.35995,-1.2932,-3.333333333332966e-05,-0.00019999999999997797,-4.0000000000040004e-05,-0.0005300564969693,-6.774946237841917e-05,0.0003458143116443213
152840000000.0,5,0.01093441475,-0.13063438465,0.12275964469999999,0.045985,0.017039,0.042362,-0.0264975683,-3.4587073884999997,-9.176474671,-0.002888,0.36045,-1.2926,-5.0000000000105516e-05,-0.00010000000000021103,-4.0000000000040004e-05,-0.00045050503750498905,0.00010740456515700991,0.00018641510686306928
152840000000.0,5,-0.01621039245,-0.15654355395,0.1292908736,0.019333,0.013008,0.030582,-0.0264387284,-3.4612571174999998,-9.175494006,-0.002881,0.36072,-1.2923,-4.999999999988347e-05,-0.00019999999999997797,-3.999999999981796e-05,-0.0001561505837867072,0.0003951651813309809,0.0001633084482543512
152840000000.0,5,-0.038677427599999994,-0.1570633064,0.12381876289999999,-0.001974,0.011062,0.020942,-0.026115108949999997,-3.4614532505,-9.1753959395,-0.002847,0.36075,-1.292,-9.999999999998899e-05,-0.00019999999999997797,-4.0000000000040004e-05,0.0001531979442280229,-0.0005280789115948981,0.0002580379250412268
152840000000.0,5,-0.047503412599999996,-0.17553903499999998,0.180834626,-0.011651,0.002615,0.022008,-0.0264191151,-3.4606687184999996,-9.175690139,-0.002879,0.36066,-1.2918,-5.0000000000105516e-05,-0.00019999999999997797,-4.0000000000040004e-05,0.00012811656214239964,1.7524156100678923e-05,0.0001779639055806137
152840000000.0,5,-0.07142183195,-0.16609523105,0.23277064439999998,-0.020284,-0.006908,0.026279,-0.0277920461,-3.4590015879999996,-9.176278538,-0.003028,0.36048,-1.2914,-4.999999999988347e-05,-0.00019999999999997797,-9.999999999998899e-05,0.00014236944740136925,-0.00047066274597939994,0.00039717862134444615
152840000000.0,5,-0.08967200759999999,-0.13649876135,0.22162048335,-0.03207,-0.016397,0.022006,-0.029890669199999997,-3.456451859,-9.177259203,-0.003257,0.3602,-1.2912,-9.999999999998899e-05,-0.000300000000000189,-9.999999999998899e-05,-0.0007598956294787018,0.00032795545538299997,-7.987526980668402e-07
152840000000.0,5,-0.09573251729999999,-0.09953749749999999,0.16631097734999997,-0.044819,-0.016281,0.011309,-0.0319108391,-3.452725332,-9.178730200499999,-0.003476,0.35979,-1.291,-0.00020000000000020002,-0.00019999999999997797,-9.999999999998899e-05,0.0006136087982963057,0.0007135415811625467,-0.0004032510643690035
152840000000.0,5,-0.12734915689999998,-0.07178467799999999,0.13721464679999998,-0.060734,-0.014003,-0.003665,-0.0332053169,-3.4477239404999995,-9.180593464,-0.003617,0.35924,-1.291,-0.00019999999999997797,-0.0002999999999997449,-0.00019999999999997797,0.0018336181777226512,0.000656797956713806,-0.000280407243477665
152840000000.0,5,-0.13824434505,-0.06045799725,0.12340688359999999,-0.068067,-0.00434,-0.015437,-0.033244543499999994,-3.4418399505,-9.182750926999999,-0.00362,0.3586,-1.2911,-0.00019999999999997797,-0.000300000000000189,-0.00019999999999997797,0.0014259340433386836,-0.00014273863866298697,-0.00022760819348238703
152840000000.0,5,-0.14825693469999998,-0.049023443349999994,0.12802581575,-0.066904,0.000989,-0.026118,-0.03235213835,-3.4358578939999997,-9.1850064565,-0.003523,0.35796,-1.2914,-0.00029999999999996696,-0.0002999999999997449,-9.999999999998899e-05,0.0010402622439570908,0.0001435996101093462,-0.0009273042339699444
152840000000.0,5,-0.1211513541,-0.0312636002,0.15173829545,-0.053046,-0.004446,-0.032489,-0.0314793465,-3.4308565024999997,-9.186869719999999,-0.003426,0.35742,-1.2917,-0.00019999999999997797,-0.00020000000000042206,-9.999999999998899e-05,-0.001390635187295708,-0.00020321217777241607,-0.00028619806386284696
152840000000.0,5,-0.0796496113,0.0007354987499999999,0.18355106805,-0.037089,-0.012034,-0.034583,-0.031234180249999997,-3.4274241749999996,-9.1881445845,-0.003399,0.35704,-1.292,-0.00019999999999997797,-0.0002999999999997449,-9.999999999998899e-05,0.00112006099795392,0.00047757112492052833,1.2691729995517598e-05
152840000000.0,5,-0.035362779899999995,0.0116699135,0.23142713334999998,-0.028707,-0.031284,-0.034534,-0.032577691299999996,-3.425070579,-9.189027182999999,-0.003545,0.35678,-1.2924,-0.00029999999999996696,-0.000300000000000189,-9.999999999998899e-05,0.0008064119628314881,-0.00040856841782344056,-0.0002582300188793407
152840000000.0,5,0.01320955755,-0.0027360553499999997,0.2372228635,-0.035211,-0.045081,-0.036656,-0.035352973249999996,-3.422324717,-9.190007847999999,-0.003847,0.35648,-1.2927,-0.00029999999999996696,-0.0002999999999997449,-9.999999999998899e-05,0.0008624871472381335,0.0006349666061959969,-0.0006598208352626977
152840000000.0,5,0.07672722959999999,-0.028037212349999997,0.2001341132,-0.039463,-0.047171,-0.043064,-0.0384224547,-3.418990456,-9.1912827125,-0.00418,0.35612,-1.2931,-0.00019999999999997797,-0.000300000000000189,-0.000300000000000189,0.00039776169617422585,0.0006040774767090973,-0.001199837697912487
152840000000.0,5,0.10357783729999999,-0.0687250032,0.22929909029999998,-0.048925,-0.033234,-0.048442,-0.04043281795,-3.4149697294999997,-9.19275371,-0.004398,0.35568,-1.2936,-0.00020000000000020002,-0.00039999999999995595,-0.00029999999999996696,0.0011717346122398498,-0.0002522825562027986,-0.0005667053388086762
152840000000.0,5,0.1395486295,-0.1035974506,0.2729190695,-0.071227,-0.025583,-0.057034,-0.04123696325,-3.4091838059999997,-9.194911173,-0.004485,0.35505,-1.2942,-0.00019999999999997797,-0.0002999999999997449,-0.00019999999999997797,0.0006282064725110503,4.1288183501242415e-05,-0.0002791607844107591
152840000000.0,5,0.1928379656,-0.11641474214999999,0.19382843725,-0.092555,-0.02434,-0.059207,-0.04169787579999999,-3.4012404195,-9.197853168,-0.004534,0.35419,-1.2948,-9.999999999998899e-05,-0.00040000000000040004,-0.00029999999999996696,0.0008924758493580875,0.0004677029986768222,-0.0012558519056276585
152840000000.0,5,0.18649306305,-0.12437774195,0.1270353441,-0.10322,-0.022124,-0.056027,-0.041943042050000004,-3.3921202349999997,-9.201187428999999,-0.004559,0.3532,-1.2954,-0.00019999999999997797,-0.0002999999999997449,-0.00029999999999996696,0.0006031030834830475,0.00018530909050240574,-0.00024701187065925834
152840000000.0,5,0.1998791403,-0.1175425069,0.1248778811,-0.098978,-0.024292,-0.053881,-0.0423058881,-3.3829019839999996,-9.2046197565,-0.004596,0.3522,-1.296,-9.999999999998899e-05,-0.00039999999999995595,-0.00029999999999996696,0.0005049969528084786,0.00023931421966438826,-0.0004139933703369292
152840000000.0,5,0.19041572304999999,-0.06987238125,0.08750473795,-0.088407,-0.031846,-0.046378,-0.04347287945,-3.3746643979999997,-9.207659818,-0.004721,0.3513,-1.2965,-9.999999999998899e-05,-0.000300000000000189,-0.00029999999999996696,0.0006922212485807044,0.0007467729769299325,-0.0006593974164241512
152840000000.0,5,0.18274692274999998,-0.037902702249999996,0.03358777625,-0.077819,-0.03514,-0.037813,-0.0452282698,-3.367407477,-9.2103076135,-0.004911,0.35051,-1.2969,-9.999999999998899e-05,-0.0002999999999997449,-0.00020000000000020002,-0.00012420270391300114,0.0002218298543690267,-0.0005615855987448348
152840000000.0,5,0.18456115299999998,-0.00444241245,-0.0302633219,-0.061834,-0.034212,-0.03245,-0.0471895998,-3.3615234869999995,-9.21236701,-0.005123,0.34987,-1.2972,-9.999999999998899e-05,-0.000300000000000189,-0.00019999999999997797,0.00039845904505808605,0.0002532631266587426,5.758367165356604e-05
152840000000.0,5,0.15875985684999996,0.03668667765,-0.05231847775,-0.04578,-0.027952,-0.0303,-0.04862137069999999,-3.3571104945,-9.213936074,-0.005277,0.3494,-1.2976,-9.999999999998899e-05,-0.000300000000000189,-0.00019999999999997797,0.001146744793177501,0.00042363469485762195,-0.0006597736800225684
152840000000.0,5,0.14283385725,0.04886653694999999,-0.057976914799999994,-0.041475,-0.025852,-0.034565,-0.0497589421,-3.3537762335,-9.2152109385,-0.0054,0.34903,-1.2979,-9.999999999998899e-05,-0.0002999999999997449,-0.00019999999999997797,0.0015127906157386128,0.000451601220062825,-0.0008062926884322558
152840000000.0,5,0.13506699045,0.057025669749999994,-0.11800341945,-0.043608,-0.026898,-0.036702,-0.05067096054999999,-3.3501477729999998,-9.2165838695,-0.005498,0.34863,-1.2983,-9.999999999998899e-05,-0.000300000000000189,-9.999999999998899e-05,-0.00019419026137884599,0.0004873257927262564,-0.000501278516109524
152840000000.0,5,0.12222027895,0.03115572705,-0.1512969962,-0.052095,-0.021499,-0.037794,-0.05129858615,-3.3457347804999995,-9.218054867,-0.005565,0.34817,-1.2987,-4.999999999988347e-05,-0.00019999999999997797,-0.00019999999999997797,-0.0009639937328498882,-0.00022854918665848878,-0.00013808996275878338
152840000000.0,5,0.0993609778,0.01530818065,-0.17474469635,-0.059484,-0.008654,-0.035693,-0.0510338066,-3.340733389,-9.219918130499998,-0.005535,0.34762,-1.2991,-5.0000000000105516e-05,-0.0002999999999997449,-9.999999999998899e-05,0.0005901895877065688,-7.948864023443747e-06,-0.0002976023262639682
152840000000.0,5,0.07440305355,0.0112580342,-0.20152665749999998,-0.055056,0.014748,-0.03039,-0.04896460345,-3.3357319975,-9.221781393999999,-0.00531,0.34708,-1.2994,-9.999999999998899e-05,-0.00019999999999997797,2.4999999999941735e-05,-0.00027361237112699666,-0.0003497198974302673,-1.7498687075387376e-05
152840000000.0,5,0.051455492549999995,0.0191621941,-0.16507533945,-0.039932,0.037002,-0.03147,-0.044718324,-3.3318093374999997,-9.223154325,-0.004848,0.34665,-1.2997,-9.999999999998899e-05,-0.00019999999999997797,2.4999999999941735e-05,0.0008302311921506433,-0.000482094145898726,-0.0002626829138995118
152840000000.0,5,0.03529413335,0.05226944449999999,-0.15780861179999997,-0.024914,0.041151,-0.041058,-0.0394815729,-3.329161542,-9.22413499,-0.00428,0.34637,-1.3001,-9.999999999998899e-05,-0.00019999999999997797,2.500000000016378e-05,0.0008809308705542973,-0.0008480255478009457,-0.00034415452392227985
152840000000.0,5,0.03229329845,0.08435680329999999,-0.19300467864999998,-0.000317,0.03883,-0.051688,-0.03394081565,-3.3284750764999997,-9.224429189499999,-0.003679,0.34629,-1.3006,-4.999999999988347e-05,-0.00010000000000021103,2.4999999999941735e-05,-0.00014656276410496272,-0.0008964638045227957,-0.00038124641070717835
152840000000.0,5,0.020750871399999996,0.1234853368,-0.15987781495,0.022141,0.038656,-0.062323,-0.028086245599999997,-3.3300441404999996,-9.223938856999998,-0.003045,0.34646,-1.3012,-5.0000000000105516e-05,-0.00010000000000021103,5.0000000000105516e-05,0.00024707279006941363,-0.0006672391433055758,-0.0001725226786280648
152840000000.0,5,0.0319304524,0.13327237349999999,-0.16071138019999998,0.032769,0.034305,-0.061229,-0.0226533615,-3.3327900024999995,-9.2228601255,-0.002456,0.34676,-1.3019,-9.999999999998899e-05,-9.999999999976694e-05,4.999999999988347e-05,0.0003999341494470565,-0.0010640378086557156,-0.00018114562380212862
152840000000.0,5,0.0157690932,0.11209000949999999,-0.17422494389999998,0.034917,0.040673,-0.053765,-0.01711260425,-3.335830064,-9.221781393999999,-0.001856,0.34709,-1.3025,-9.999999999998899e-05,-0.00010000000000021103,4.999999999988347e-05,-0.0006401670246584112,-0.0007809670779190814,-0.00018188756671369544
152840000000.0,5,0.017151830849999997,0.07737446849999999,-0.13449820475,0.034959,0.054512,-0.04098,-0.01071866845,-3.3390662585,-9.220702662499999,-0.001162,0.34743,-1.3029,-3.333333333332966e-05,-9.999999999976694e-05,5.0000000000105516e-05,-0.0003969569875803547,-0.0008512945587797471,-6.909182118319812e-06
152840000000.0,5,0.022751427999999997,0.0594086857,-0.0794142517,0.030713,0.065189,-0.028197,-0.0037461403,-3.3418121204999998,-9.2197219975,-0.000407,0.34774,-1.3032,-3.333333333355171e-05,-0.00010000000000021103,-1.4285714285744433e-05,-0.00031393858357220417,-0.0002386272848768911,-0.00018766952182210084
152840000000.0,5,0.03490186735,0.03631402495,-0.01460210185,0.021026,0.058868,-0.020731,0.0026576021499999996,-3.3438715169999997,-9.2189374655,0.000288,0.34796,-1.3035,-3.333333333332966e-05,-9.999999999976694e-05,-1.4285714285744433e-05,-0.0005358695136878366,-0.0003029246637333838,-0.0001548037218450926
152840000000.0,5,0.05822208104999999,0.0019417166999999998,0.03766734265,0.010242,0.047231,-0.01646,0.00791396655,-3.3449502485,-9.2185451995,0.000859,0.34808,-1.3036,1.6666666666775853e-05,-0.00010000000000021103,-1.4285714285744433e-05,-0.0003544547669229181,-0.00025827632348329743,-8.447844425873985e-05
152840000000.0,5,0.0752366188,-0.0031969679,0.1064217658,-0.003772,0.03136,-0.014321,0.0115522337,-3.3447541155,-9.218643265999999,0.001253,0.34806,-1.3038,1.666666666655381e-05,-9.999999999976694e-05,-1.4285714285522388e-05,0.0005521353791677619,-0.00010936079882872818,-0.00010862349270192306
152840000000.0,5,0.0774136951,-0.0321069721,0.1486099741,-0.01349,0.017586,-0.013246,0.013866603099999998,-3.3435773174999994,-9.219035532,0.001504,0.34793,-1.3039,1.6666666666775853e-05,-0.00019999999999997797,-1.4285714285744433e-05,0.00014038415201439447,4.279835944309696e-06,5.6308488073558705e-05
152840000000.0,5,0.07904159899999999,-0.05887912659999999,0.18258020969999997,-0.023194,0.00807,-0.008976,0.0150826277,-3.341517921,-9.219820063999999,0.001636,0.3477,-1.304,1.6666666666775853e-05,-0.00010000000000021103,-1.4285714285744433e-05,-0.00011355406468888107,-0.0002468738275913651,4.2550974250571416e-05
152840000000.0,5,0.0867888525,-0.08428815675,0.19680965884999999,-0.025508,-0.005778,0.004921,0.014817848149999998,-3.338968192,-9.220702662499999,0.001607,0.34743,-1.3039,1.666666666655381e-05,-0.00019999999999997797,-1.4285714285744433e-05,0.00036943510627007736,0.0003645921720849543,0.00013815342420335497
152840000000.0,5,0.0760015375,-0.11118779770000001,0.21683483815,-0.029921,-0.013218,0.022005,0.01318994425,-3.3361242635,-9.2216833275,0.00143,0.34712,-1.3037,1.6666666666775853e-05,-0.00019999999999997797,-9.999999999998899e-05,-0.0004237455739080631,0.0004120359855352973,0.00042404487441163874
152840000000.0,5,0.08330749175,-0.14318689664999998,0.20724393444999997,-0.035502,-0.031309,0.042308,0.00946341725,-3.3328880689999996,-9.2228601255,0.001026,0.34677,-1.3033,5.0000000000105516e-05,-9.999999999976694e-05,-9.999999999998899e-05,-0.0002372823504083743,0.0011402867269458827,0.00030369807279995165
152840000000.0,5,0.07239269029999999,-0.14973773885,0.1711848824,-0.041002,-0.047257,0.051932,0.00392266,-3.329161542,-9.2242330565,0.000426,0.34637,-1.3028,4.999999999988347e-05,-0.00019999999999997797,-9.999999999998899e-05,0.00035496616737540343,0.0006642116131958531,0.000193434704605297
152840000000.0,5,0.053573728949999996,-0.14071562085,0.1275845165,-0.044235,-0.049365,0.055132,-0.0023928226,-3.325238882,-9.225704054,-0.00026,0.34593,-1.3021,1.999999999990898e-05,-0.00019999999999997797,-9.999999999998899e-05,0.0013906641480627702,0.0007195202911407517,0.0005206177023423519
152840000000.0,5,0.00832584585,-0.0951048917,0.09316317499999999,-0.032371,-0.035605,0.049792,-0.007727640199999999,-3.321904621,-9.226880852,-0.000838,0.34557,-1.3016,2.0000000000131024e-05,-0.00010000000000021103,-9.999999999998899e-05,3.193716511562528e-05,-0.00034866070569750107,0.00020726247447445945
152840000000.0,5,-0.0412271566,-0.05976172509999999,0.09838031279999998,-0.015145,-0.02082,0.042324,-0.0112972608,-3.3202374905,-9.227469250999999,-0.001224,0.3454,-1.3011,1.999999999990898e-05,-0.00019999999999997797,-5.0000000000105516e-05,0.00017361269477006447,0.00012548455470873243,0.00018852151629122904
152840000000.0,5,-0.0627429467,-0.03949137955,0.12196530605,-0.007655,-0.020876,0.035934,-0.01417060925,-3.319551025,-9.227665384,-0.001536,0.34532,-1.3007,2.0000000000131024e-05,-0.00019999999999997797,-4.999999999988347e-05,-0.0005683269694281567,0.0005900249251364897,8.262014576503052e-05
152840000000.0,5,-0.05959501204999999,-0.06512596265,0.07505029245,-0.010925,-0.031502,0.032745,-0.01775984315,-3.318962626,-9.227959583499999,-0.001925,0.34525,-1.3003,1.999999999990898e-05,-0.00019999999999997797,-3.333333333332966e-05,4.488540493785553e-05,0.0010155642402871479,0.0003153300117140073
152840000000.0,5,-0.01634768555,-0.103362091,0.028449091649999998,-0.00995,-0.044297,0.033835,-0.022712201399999996,-3.3182761605,-9.2281557165,-0.002461,0.34518,-1.3,-9.999999999998899e-05,-0.000300000000000189,-3.333333333332966e-05,0.0011664851038695745,0.0009198806008203775,0.00014240039402728388
152840000000.0,5,0.011434553899999998,-0.1340765188,0.055064339749999996,-0.016428,-0.053834,0.033841,-0.028351025149999997,-3.3170012959999995,-9.2285479825,-0.003072,0.34505,-1.2996,-2.4999999999941735e-05,-0.0002999999999997449,-3.333333333332966e-05,-0.00020850315449921775,0.001338910441332164,3.352899336703241e-05
152840000000.0,5,0.02076067805,-0.14624657144999997,0.06729323229999999,-0.034589,-0.061135,0.025283,-0.034529214649999994,-3.3145496335,-9.229430580999999,-0.003741,0.34478,-1.2993,-2.4999999999941735e-05,-0.00019999999999997797,-9.999999999998899e-05,0.0005710003966869492,-7.452989519096676e-05,-0.00016945823219095824
152840000000.0,5,0.03156760635,-0.15571979535,0.0351274203,-0.05916,-0.073706,0.011387,-0.041452709549999994,-3.3098424414999994,-9.231097711499999,-0.00449,0.34427,-1.2991,-2.500000000016378e-05,-0.000300000000000189,-9.999999999998899e-05,0.0014524199944267457,0.0002895981407691206,-0.0003473837457143164
152840000000.0,5,0.0459931885,-0.16294729639999997,-0.01075789505,-0.083683,-0.078819,-0.001455,-0.04853311085,-3.3029777864999996,-9.233549373999999,-0.005257,0.34353,-1.2991,-2.4999999999941735e-05,-0.000300000000000189,-9.999999999998899e-05,0.0008224775951360397,0.0010393144438298751,-0.0007465419270832468
152840000000.0,5,0.012974197949999999,-0.12957526645,-0.017034151049999998,-0.097581,-0.088285,-0.011069,-0.0562117178,-3.294446001,-9.2365894355,-0.006086,0.3426,-1.2992,-0.00010000000000021103,-0.0002999999999997449,-0.00020000000000020002,0.000506929526442712,0.0007634086169583387,-0.0008219732619523246
152840000000.0,5,-0.00705098135,-0.11901350439999998,-0.02888058425,-0.094408,-0.089381,-0.006792,-0.06433162399999999,-3.2855219494999996,-9.239629497,-0.006962,0.34164,-1.2993,-9.999999999998899e-05,-0.000300000000000189,0.00010000000000021103,0.001468484298544681,0.0009418173880941794,-0.00015482068737196486
152840000000.0,5,-0.11662068179999999,-0.02383996615,-0.0627233334,-0.062362,-0.083254,-0.004613,-0.07193177775,-3.279147627,-9.241885026499999,-0.007783,0.34094,-1.2993,-9.999999999998899e-05,-0.00019999999999997797,-0.00010000000000021103,0.0002589051387174579,0.00081494367524515,-0.00017828934270115726
152840000000.0,5,-0.1838746875,0.06781298475,-0.006080123,-0.023944,-0.083569,-0.005613,-0.0793357985,-3.2762056319999995,-9.242865691499999,-0.008583,0.34063,-1.2994,-9.999999999998899e-05,-0.00019999999999997797,0.00010000000000021103,-0.0007966542759200168,0.0007494395525362574,-3.269752164669626e-05
152840000000.0,5,-0.21151963385,0.11524775079999999,-0.0250069575,0.005876,-0.092336,-0.008748,-0.0872987983,-3.2762056319999995,-9.242767624999999,-0.009445,0.34063,-1.2994,-0.00019999999999997797,-0.0002999999999997449,5.0000000000105516e-05,-0.0005239437978146189,0.001244079914388907,-0.0007170189538461824
152840000000.0,5,-0.21465776184999996,0.14969851225,-0.058624153699999994,0.030364,-0.099994,-0.010827,-0.0959874902,-3.278755361,-9.241786959999999,-0.010386,0.34091,-1.2995,-0.00019999999999997797,-0.00019999999999997797,4.999999999988347e-05,-0.0008356172440848186,0.00021355676967815818,-0.00041575841206129005
152840000000.0,5,-0.183384355,0.12463271484999999,-0.02085874455,0.040062,-0.092607,-0.018295,-0.1040681698,-3.2825799545,-9.2403159625,-0.011262,0.34132,-1.2996,-0.00019999999999997797,-0.00019999999999997797,4.999999999988347e-05,0.0010053524260594804,0.0014060872144394665,-0.0003843418342234506
152840000000.0,5,-0.14858055415,0.0939869336,0.03668667765,0.028494,-0.079711,-0.032214,-0.11074649844999998,-3.2859142154999996,-9.2391391645,-0.011986,0.34168,-1.3,-0.00029999999999996696,-0.00019999999999997797,5.0000000000105516e-05,0.0013808054031971828,0.0011074591155093572,-0.0006702909683859726
152840000000.0,5,-0.06051683715,0.0534070159,0.04123696325,0.007319,-0.064609,-0.040816,-0.1157576966,-3.2871890799999997,-9.2385507655,-0.012529,0.34182,-1.3003,-0.00019999999999997797,-0.00020000000000042206,-0.00019999999999997797,-0.002469131488497256,-0.001721488711247332,-0.0003352002390686615
152840000000.0,5,0.0031185146999999996,-0.01758332345,0.0838272442,-0.009584,-0.047415,-0.045146,-0.11893505119999999,-3.2868948805000002,-9.238648831999999,-0.012873,0.34178,-1.3008,-0.00019999999999997797,-0.00019999999999997797,9.999999999998899e-05,0.0008382120493654055,0.000978112783902363,-0.0005859623860441643
152840000000.0,5,0.07691355594999999,-0.0650965427,0.14471673405,-0.022327,-0.03666,-0.03985,-0.121210194,-3.2851296835,-9.239237230999999,-0.013118,0.3416,-1.3012,-0.00019999999999997797,-0.00019999999999997797,-0.00020000000000020002,-0.0002595655560138632,0.0005654183320402684,-0.0005323170853169107
152840000000.0,5,0.1321740287,-0.09319259494999999,0.18374720105,-0.035166,-0.037626,-0.0324,-0.12364224319999999,-3.2821876884999996,-9.240217895999999,-0.01338,0.34127,-1.3016,-9.999999999998899e-05,-0.0002999999999997449,-9.999999999998899e-05,-0.001026488753573751,-0.00017848067228909414,-0.0006271441968832142
152840000000.0,5,0.2110979479,-0.1252505338,0.18005990064999997,-0.043771,-0.039698,-0.021737,-0.12671172465,-3.2780688955,-9.2416888935,-0.01371,0.34083,-1.3018,-0.00010000000000021103,-0.00019999999999997797,1.6666666666775853e-05,0.0010462375740341034,0.0002503066561274636,-0.00028198153878866705
152840000000.0,5,0.2550709665,-0.12983023935,0.1488845603,-0.054411,-0.028963,-0.014301,-0.1293693268,-3.2730675039999997,-9.243356023999999,-0.013995,0.34029,-1.302,-9.999999999998899e-05,-0.000300000000000189,1.666666666655381e-05,0.0026617250959505845,0.0008573123171169428,4.3527591859576775e-05
152840000000.0,5,0.26242595399999996,-0.1175621202,0.08041453,-0.068131,-0.007543,-0.010093,-0.13043825165,-3.266987381,-9.245513486999998,-0.014108,0.33963,-1.3021,-9.999999999998899e-05,-0.0002999999999997449,1.666666666655381e-05,0.00014507858863793688,0.0004538037519139504,0.0002049733058692299
152840000000.0,5,0.26076863014999996,-0.0923394164,0.0026183755499999996,-0.074367,0.010626,-0.011205,-0.12969294625,-3.260122726,-9.2479651495,-0.014023,0.33889,-1.3022,-9.999999999998899e-05,-0.000300000000000189,1.6666666666775853e-05,0.0005298410266363351,0.0004426022937651375,-5.398777962432877e-05
152840000000.0,5,0.2432441466,-0.04455161095,-0.0965562759,-0.067867,0.022295,-0.012281,-0.1274276101,-3.2537484034999995,-9.250220679,-0.013774,0.3382,-1.3023,-3.333333333332966e-05,-0.00019999999999997797,1.6666666666775853e-05,4.92862843323727e-05,-7.542454649023256e-05,-0.00025047340307833565
152840000000.0,5,0.20752832729999998,-0.008786758399999999,-0.16845863369999997,-0.047589,0.026386,-0.00905,-0.12463271484999999,-3.2489431449999997,-9.251985875999999,-0.01347,0.33768,-1.3025,-3.333333333332966e-05,-0.00019999999999997797,1.666666666655381e-05,0.0004661809482800483,-0.0006947130332082274,2.9349480344012524e-05
152840000000.0,5,0.1574751857,0.029027683999999998,-0.23211359884999996,-0.019884,0.024024,-0.005796,-0.1220143393,-3.2466876154999995,-9.252770408,-0.013186,0.33744,-1.3025,-3.333333333332966e-05,-0.00010000000000021103,0.00020000000000020002,0.00011366461117034987,-0.0003372478597460926,0.00013264522490390174
152840000000.0,5,0.1127960883,0.0917510174,-0.26242595399999996,0.007789,0.017399,-0.002534,-0.11997455609999999,-3.246981815,-9.252672341499999,-0.012966,0.33747,-1.3026,-1.6666666666775853e-05,-9.999999999976694e-05,0.00019999999999997797,-0.0004387744486631373,-0.000187720333720387,0.0001703681710083088
152840000000.0,5,0.0811009955,0.1386464177,-0.2597977718,0.033262,0.00546,0.005003,-0.1191115709,-3.249727677,-9.251789743,-0.012873,0.33777,-1.3025,-1.666666666655381e-05,-0.00010000000000021103,0.00019999999999997797,-0.0009523097981620765,-0.0005753447304122083,3.947293979232602e-05
152840000000.0,5,0.04970010219999999,0.12339707695,-0.24302840029999997,0.051336,-2e-05,0.00718,-0.1189742778,-3.254434869,-9.2501226125,-0.012862,0.33827,-1.3024,-1.666666666655381e-05,-9.999999999976694e-05,0.00019999999999997797,-0.0009266465819334213,-0.00010197713907622585,-7.752757096050888e-05
152840000000.0,5,0.0331857036,0.13631243499999998,-0.18404140054999998,0.064116,-0.007577,-0.000257,-0.11921944404999998,-3.2603188589999994,-9.248063215999998,-0.012891,0.33891,-1.3024,-1.6666666666775853e-05,-4.999999999988347e-05,4.999999999988347e-05,-0.0012735199678427511,-4.5510000140414064e-05,-0.00015189958364394962
152840000000.0,5,0.0342448218,0.1569848532,-0.1332135336,0.062986,-0.024605,-0.010905,-0.12043546865,-3.2663009154999996,-9.245905752999999,-0.013025,0.33956,-1.3025,-1.6666666666775853e-05,-5.000000000032756e-05,5.0000000000105516e-05,-0.0006689745350172416,2.2090669370644633e-05,-0.0003049356435708417
152840000000.0,5,0.0022751428,0.13310566045,-0.11426708579999999,0.06081,-0.033106,-0.01623,-0.12243602524999998,-3.2718907059999998,-9.243944423,-0.013244,0.34016,-1.3026,-1.666666666655381e-05,-2.0000000000131024e-05,0.00019999999999997797,0.00048141651248140294,0.00016759988645231871,-9.052549758561956e-05
152840000000.0,5,-0.021966895999999996,0.1173659872,-0.06920552904999999,0.058677,-0.029894,-0.01517,-0.12453464835,-3.2772843634999997,-9.241983093,-0.013474,0.34074,-1.3028,-9.999999999998899e-05,-1.9999999999686935e-05,0.00019999999999997797,-0.0012645757721665984,-0.00032456280890902356,3.123850110224591e-05
152840000000.0,5,-0.0744913134,0.1276237431,-0.049425515999999996,0.067337,-0.007599,-0.004521,-0.12541724685,-3.283070287,-9.2399236965,-0.013573,0.34137,-1.3029,-9.999999999998899e-05,-2.0000000000131024e-05,0.00039999999999995595,6.643944860085238e-05,-0.0001575731726453089,0.00020488521625315614
152840000000.0,5,-0.1537290454,0.13045786495,0.013503757049999999,0.076081,0.023223,0.003979,-0.12384818284999999,-3.2896407425,-9.237668167,-0.013406,0.34208,-1.3029,-5.0000000000105516e-05,-1.9999999999686935e-05,0.00019999999999997797,-0.0010801239661569761,-0.000449909176577723,0.0001656897106911137
152840000000.0,5,-0.1391171369,0.12963410635,0.05008256155,0.075165,0.046666,0.011408,-0.12020010905,-3.2963092644999996,-9.235314571,-0.013015,0.3428,-1.3027,-4.999999999988347e-05,-2.0000000000131024e-05,0.000300000000000189,-0.00043044282175669357,-0.00045529166596081083,0.00034092681471782627
152840000000.0,5,-0.07349103509999999,0.09713486825,0.05653533725,0.070984,0.054164,0.008184,-0.11550272369999999,-3.302683587,-9.233059041499999,-0.012509,0.34349,-1.3026,-9.999999999998899e-05,-2.4999999999941735e-05,0.00029999999999996696,-0.0004651244200803428,-0.0006087552170574995,0.00012822556098382454
152840000000.0,5,0.0009414384,0.035666786049999996,0.0863181333,0.059207,0.045741,0.002842,-0.11107011789999999,-3.3082733774999995,-9.231097711499999,-0.012032,0.3441,-1.3025,-9.999999999998899e-05,-2.5000000000385825e-05,0.00019999999999997797,-0.00033423321660069893,-0.0002915032621213509,-1.1327051976234292e-05
152840000000.0,5,0.08987794724999999,-0.0096497436,0.1276041298,0.058985,0.015911,-0.002442,-0.10888323494999999,-3.3133728355,-9.2293325145,-0.011797,0.34465,-1.3025,-9.999999999998899e-05,-2.4999999999941735e-05,9.999999999998899e-05,-0.0009296050601509398,4.430523151244259e-05,-0.0003097974148195126
152840000000.0,5,0.12814349555,-0.0637236117,0.1860909904,0.057674,-0.019235,-0.009855,-0.10958931374999999,-3.318374227,-9.227469250999999,-0.011875,0.3452,-1.3026,-5.0000000000105516e-05,-2.4999999999941735e-05,9.999999999998899e-05,-0.0006592123008157813,0.0002977177452416768,-0.00033413006697716185
152840000000.0,5,0.12198491935,-0.1215632334,0.22884798439999998,0.04882,-0.064973,-0.019396,-0.11390423975,-3.3229833524999997,-9.2258021205,-0.012346,0.34569,-1.3027,-4.999999999988347e-05,-4.999999999988347e-05,9.999999999998899e-05,-0.0005866526029205121,0.0011410255997867935,-0.0009610990484749671
152840000000.0,5,0.080218397,-0.14058813439999998,0.19610358005,0.024011,-0.11057,-0.038572,-0.1222693122,-3.325435015,-9.224821455499999,-0.013253,0.34596,-1.3031,-0.00019999999999997797,-4.999999999988347e-05,5.0000000000105516e-05,-0.00042515729884312625,0.0011831107608093472,-0.0012708491422559892
152840000000.0,5,0.02656621485,-0.0948891454,0.06934282215,-0.005917,-0.13481,-0.063133,-0.13265455455,-3.3255330815,-9.2246253225,-0.01438,0.34597,-1.3037,-9.999999999998899e-05,-0.00010000000000021103,4.999999999988347e-05,-6.43556908656584e-05,0.0007651841942637461,-0.001272402273298473
152840000000.0,5,-0.08841675639999999,-0.0301652554,-0.04074663075,-0.029194,-0.125,-0.086673,-0.1421768117,-3.3233756185,-9.2252137215,-0.01541,0.34574,-1.3045,-0.00029999999999996696,-9.999999999976694e-05,9.999999999998899e-05,0.0018040058634912204,0.001079900145335877,-0.0012342383146935892
152840000000.0,5,-0.20532183105,0.0521321514,-0.106892485,-0.041676,-0.088657,-0.096364,-0.14827654799999998,-3.3197471579999998,-9.226488586,-0.016069,0.34535,-1.3055,-0.000400000000000178,-0.00010000000000021103,0.00019999999999997797,0.0015691142322432627,0.0008643099596779003,-0.0009702784335928472
152840000000.0,5,-0.3164802088,0.13353715305,-0.13094819745,-0.049867,-0.044901,-0.095388,-0.150237878,-3.3154322319999996,-9.227959583499999,-0.01628,0.34487,-1.3065,-0.00029999999999996696,4.999999999988347e-05,0.00019999999999997797,-6.337630396480165e-05,0.0005824221575221333,-0.000811173327577408
152840000000.0,5,-0.38766668114999997,0.20535125099999998,-0.12596641925,-0.045362,-0.007654,-0.083704,-0.1484922943,-3.3112153725,-9.2295286475,-0.016087,0.34442,-1.3075,-0.00039999999999995595,5.000000000032756e-05,9.999999999998899e-05,0.00017711625233379769,-0.00020733795431771007,-0.0006916487211984651
152840000000.0,5,-0.40684848855,0.27591009774999997,-0.08395473064999999,-0.031358,0.017791,-0.069848,-0.1445696343,-3.3081753109999994,-9.2307054455,-0.01566,0.34409,-1.3082,-0.00029999999999996696,4.999999999988347e-05,9.999999999998899e-05,0.0005738055866412184,-0.0017378163443477757,-0.00018721698041902768
152840000000.0,5,-0.3762027073,0.3009268619,0.0316362529,-0.013313,0.011239,-0.060199,-0.14095098044999999,-3.3068023799999997,-9.231195778,-0.015267,0.34395,-1.3089,-0.00029999999999996696,4.999999999988347e-05,6.666666666665932e-05,-0.0010398002496485592,-0.0007634745501665652,-0.0007749248346264198
152840000000.0,5,-0.28621688689999997,0.29293444215,0.1226419649,0.004498,-0.026209,-0.054766,-0.14040180805,-3.3071946459999997,-9.231097711499999,-0.015209,0.34399,-1.3095,-0.00039999999999995595,0.00010000000000021103,6.666666666665932e-05,-0.000983872943061348,0.001267209259587787,-0.0005321673602413646
152840000000.0,5,-0.1671837692,0.24350892614999997,0.20623384949999998,0.024334,-0.075399,-0.047172,-0.1445107944,-3.3092540425,-9.2303131795,-0.015655,0.34421,-1.31,-0.000400000000000178,9.999999999976694e-05,6.666666666665932e-05,0.0012453598852922854,0.0026750158519033285,-0.0005170613853640316
152840000000.0,5,-0.07370678139999999,0.18988616394999996,0.300279623,0.047364,-0.12674,-0.040637,-0.1537486587,-3.313274769,-9.2287441155,-0.016658,0.34464,-1.3104,-0.00039999999999995595,0.00019999999999997797,-3.333333333332966e-05,-0.0010418822067839173,0.0011768653438291032,-0.001326229560486572
152840000000.0,5,-0.0246146915,0.13160524299999998,0.35734451934999995,0.056639,-0.16944,-0.042681,-0.1672229958,-3.3182761605,-9.226684719,-0.018122,0.34519,-1.3108,-0.00039999999999995595,3.333333333355171e-05,-3.333333333332966e-05,-0.0015526910245092784,0.0016614361945086475,-0.0012271210762730411
152840000000.0,5,0.0264583417,0.0713531854,0.36631760409999997,0.054351,-0.19073,-0.04585,-0.18327648185,-3.323277552,-9.224527256,-0.019866,0.34573,-1.3113,-0.00039999999999995595,3.333333333310762e-05,-3.333333333332966e-05,-0.0008552359254256348,0.0009582858173609043,-0.0011816314962319607
152840000000.0,5,0.0254776767,0.006639102049999999,0.33792735234999993,0.034155,-0.18736,-0.055497,-0.19949668094999998,-3.3268079459999997,-9.222958192,-0.021628,0.34611,-1.3118,-0.00039999999999995595,3.333333333355171e-05,-0.0001500000000000945,-0.0013901769447081658,0.0002888107474265933,-0.0009520324571932054
152840000000.0,5,0.01175817335,-0.0389127872,0.29974025725,0.015288,-0.15309,-0.068399,-0.21287295155,-3.328573143,-9.2220755935,-0.023079,0.3463,-1.3124,-0.000500000000000167,9.999999999976694e-05,-0.00014999999999987246,-0.0007556429026248646,0.0009053530886045102,-0.001868535735887522
152840000000.0,5,-0.0059232166000000004,-0.055603705499999996,0.3273655903,-0.008768,-0.10173,-0.081341,-0.22122821734999998,-3.328180877,-9.221977527,-0.023984,0.34625,-1.3133,-0.00039999999999995595,-4.999999999988347e-05,-9.999999999998899e-05,0.0009793846218709157,0.0015386915613626595,-0.0009009735208047459
152840000000.0,5,0.026036655749999995,-0.058300534249999994,0.31211624955,-0.029807,-0.069579,-0.089973,-0.22550391675,-3.3257292144999995,-9.222762058999999,-0.024446,0.34599,-1.3142,-0.00039999999999995595,-4.999999999988347e-05,-0.00029999999999996696,0.000697247371901466,0.0002730033546722854,-0.0005636781634754118
152840000000.0,5,0.06623411409999999,-0.08083621595,0.27020262745,-0.046734,-0.057706,-0.10283,-0.22770060634999997,-3.321904621,-9.2240369235,-0.02468,0.34558,-1.3152,-0.00039999999999995595,-3.333333333355171e-05,-0.00029999999999996696,0.0014033349267675854,-0.0011456493203902962,-0.0019467593401256977
152840000000.0,5,0.13922501005,-0.09972382384999999,0.24309704684999997,-0.06605,-0.080975,-0.11777,-0.23066221465,-3.3163148305,-9.2259982535,-0.024996,0.34497,-1.3164,-0.000500000000000167,-3.333333333310762e-05,-0.00019999999999997797,0.0018024021797767853,0.0011384294078564672,-0.0023798496521968276
152840000000.0,5,0.2144125956,-0.1150123912,0.1517677154,-0.081194,-0.11494,-0.12841,-0.23626181179999997,-3.3094501755,-9.2283518495,-0.025596,0.34423,-1.3178,-0.0004999999999999449,-3.333333333355171e-05,-9.999999999998899e-05,8.732137615341529e-05,0.0018615280176212945,-0.0013632861072961355
152840000000.0,5,0.19893770189999999,-0.1297027529,0.10964815365,-0.09528,-0.14785,-0.13798,-0.24473475739999997,-3.301506789,-9.230999644999999,-0.026506,0.34337,-1.3192,-0.00039999999999995595,-9.999999999976694e-05,-0.00029999999999996696,0.001498995702275685,0.0014938813478946322,-0.0011483791318162295
152840000000.0,5,0.12586835275,-0.11847413864999999,0.0702352273,-0.10608,-0.16374,-0.14117,-0.2550121266,-3.2924846709999995,-9.2338435735,-0.02761,0.34239,-1.3208,-0.0004999999999999449,-0.00010000000000021103,-0.00019999999999997797,0.00044203485681088006,0.0006167787537028069,-0.002334131894460162
152840000000.0,5,0.00865927195,-0.0989490985,0.0002941995,-0.10174,-0.1627,-0.15291,-0.2652894958,-3.2834625529999997,-9.2367855685,-0.028713,0.34141,-1.3224,-0.0004999999999999449,-2.4999999999941735e-05,-0.00020000000000020002,0.0005650783346524135,0.0009358872180085243,-0.0021321569745463426
152840000000.0,5,-0.07124531225,-0.0747070597,-0.0330680238,-0.074823,-0.13946,-0.16251,-0.27352708179999996,-3.2764017649999997,-9.239041098,-0.029596,0.34065,-1.3241,-0.000500000000000167,-2.4999999999941735e-05,-9.999999999998899e-05,-0.00047956165761064984,-0.00032846680119491545,-0.0016827676457285279
152840000000.0,5,-0.14137266639999999,-0.057339482549999994,-0.05161239895,-0.027587,-0.10575,-0.16676,-0.27866576639999996,-3.2734597699999997,-9.240021763,-0.030149,0.34033,-1.3258,-0.0004999999999999449,-2.4999999999941735e-05,-9.999999999998899e-05,0.0004173286287115774,0.0006876138939790888,-0.0016459352048665415
152840000000.0,5,-0.20736161425,-0.04564995575,-0.05104361325,0.017506,-0.069892,-0.16354,-0.28030347694999996,-3.2746365679999996,-9.2395314305,-0.030328,0.34046,-1.3276,-0.0005999999999999339,-2.4999999999941735e-05,-0.00019999999999997797,-0.0018445028041919609,-0.0002799688189329963,-0.002122484162434407
152840000000.0,5,-0.20803827309999998,-0.0689603628,-0.06817583079999999,0.04117,-0.046643,-0.16461,-0.27947971834999996,-3.278755361,-9.238060433,-0.030243,0.3409,-1.3293,-0.000600000000000156,-0.00010000000000021103,0.00029999999999996696,-0.0013939314708025785,0.0004243089369524444,-0.001721701657790009
152840000000.0,5,-0.13995070215,-0.14648193104999999,-0.09613458994999999,0.04344,-0.031738,-0.17103,-0.27679269624999997,-3.2834625529999997,-9.236491369,-0.029958,0.34142,-1.3311,-0.0005999999999999339,-0.00010000000000021103,-4.999999999988347e-05,0.002350558700687233,-0.0016515733022093304,-0.0018399302370364357
152840000000.0,5,-0.03896182045,-0.21853138860000001,-0.10803986305,0.030802,-0.01777,-0.18175,-0.27243854365,-3.2874832794999995,-9.235216504499999,-0.029491,0.34185,-1.333,-0.0005999999999999339,-9.999999999976694e-05,-5.0000000000105516e-05,0.0009694838405088224,-0.00015750315006868298,-0.0019819659694271935
152840000000.0,5,0.031724512749999996,-0.24918697649999996,-0.04353171935,0.008531,-0.003729,-0.18609,-0.2666624268,-3.289542676,-9.234628105499999,-0.028868,0.34208,-1.335,-0.00039999999999995595,-9.999999999976694e-05,-9.999999999998899e-05,-0.0006025112057255755,-0.001250971531806977,-0.0009232778768252514
152840000000.0,5,0.09684066875,-0.23258431804999996,0.019338713799999997,-0.01713,-0.004593,-0.17652,-0.26098437645,-3.2891504099999995,-9.234922305,-0.028254,0.34203,-1.3369,-0.000600000000000156,-0.00010000000000021103,3.333333333332966e-05,0.00041068194704224625,0.0007653028500156367,-0.0014602235681848846
152840000000.0,5,0.13795014555,-0.20880319179999998,0.0154160538,-0.030111,-0.015163,-0.15518,-0.25690481005,-3.2869929469999994,-9.2358049035,-0.027809,0.3418,-1.3386,-0.00039999999999995595,-9.999999999976694e-05,3.333333333332966e-05,-0.00036559297468247154,-0.0005268451850464206,-0.0015023595041902676
152840000000.0,5,0.1420787452,-0.15525888279999997,0.03423501515,-0.026069,-0.030137,-0.1338,-0.25506115985,-3.2847374175,-9.236687502,-0.027607,0.34155,-1.34,-0.0005999999999999339,-0.00010000000000021103,3.333333333332966e-05,-0.0005392414607933715,0.0007133879753973282,-0.0015836467910212704
152840000000.0,5,0.113364874,-0.05355411564999999,0.044414317849999996,-0.013394,-0.038777,-0.12416,-0.25477676699999996,-3.2834625529999997,-9.237079768,-0.027575,0.34142,-1.3414,-0.00039999999999995595,-9.999999999976694e-05,-9.999999999998899e-05,-0.0005762339995234456,-0.001342864978044922,-0.0010996485892851987
152840000000.0,5,0.0856512811,0.035882532349999996,0.03409772205,0.004758,-0.038923,-0.12733,-0.25459044064999997,-3.2839528854999998,-9.2369817015,-0.027555,0.34146,-1.3427,-0.000500000000000167,-0.00010000000000021103,-4.999999999988347e-05,0.0014479361115339873,0.0001329991745639969,-0.0009838674203198616
152840000000.0,5,0.08267986614999999,0.06640082715,0.009894909849999998,0.021928,-0.02947,-0.13158,-0.2535607424,-3.2860122819999997,-9.236197169499999,-0.027446,0.34169,-1.3441,-0.00029999999999996696,-0.00010000000000021103,-5.0000000000105516e-05,-0.0010866486038382805,-2.12163646322594e-05,-0.0016337115555311033
152840000000.0,5,0.0793357985,0.05953617215,0.02105487755,0.025185,-0.017783,-0.12413,-0.25126598629999997,-3.2888562104999997,-9.235314571,-0.027201,0.342,-1.3454,-0.0004999999999999449,-9.999999999976694e-05,3.333333333332966e-05,-0.0006613426236791731,-0.0003017546472841026,-0.0013453766085865237
152840000000.0,5,0.1011457881,0.03080268765,0.0434042329,0.018713,-0.019872,-0.11346,-0.24913794325,-3.2914059394999997,-9.2344319725,-0.026973,0.34227,-1.3466,-0.00029999999999996696,-4.999999999988347e-05,3.333333333332966e-05,0.0017186148278717783,4.404819277592509e-05,-0.0004190468670525471
152840000000.0,5,0.15515100965,-0.010571568699999999,0.033960428949999996,0.005827,-0.020847,-0.098536,-0.24762771914999998,-3.2927788705,-9.23394164,-0.02681,0.34243,-1.3477,-0.0004999999999999449,-5.000000000032756e-05,3.333333333332966e-05,0.0001567651246843771,-0.00035085741556706296,-0.0006228635800723803
152840000000.0,5,0.17934401519999998,-0.0554860257,0.04763089905,-0.002662,-0.006937,-0.086834,-0.24548006279999998,-3.293269203,-9.2338435735,-0.026579,0.34247,-1.3486,-0.000400000000000178,-9.999999999976694e-05,9.999999999998899e-05,-0.0003096065038466489,0.0007442755973998683,-0.0005891055016099545
152840000000.0,5,0.17257742669999998,-0.08252295975,0.09019176005,-0.004732,0.003732,-0.082586,-0.24245961459999998,-3.293269203,-9.23394164,-0.026251,0.34248,-1.3495,-0.00029999999999996696,-0.00010000000000021103,-9.999999999998899e-05,0.00022998992749251324,-0.0005768163065946741,-0.0013282950693275786
152840000000.0,5,0.16005433465,-0.11680700814999999,0.09317298165,0.00064,0.006886,-0.083651,-0.23905670704999998,-3.2935634025,-9.23394164,-0.025883,0.34251,-1.3504,-0.00029999999999996696,-0.00019999999999997797,2.4999999999941735e-05,-0.00026968022483458975,-0.000654002641738094,-0.0009872372290639364
152840000000.0,5,0.13910733025,-0.17578420125,0.09511469834999998,0.008208,0.015355,-0.090057,-0.23487907414999998,-3.2943479344999997,-9.233745507,-0.025431,0.34259,-1.3513,-0.00029999999999996696,-9.999999999976694e-05,2.4999999999941735e-05,-0.0011512376937119484,-0.00109089748814295,-0.0006542401475538584
152840000000.0,5,0.13879351745,-0.20161491735,0.10407797644999998,0.00613,0.019641,-0.097538,-0.2299267159,-3.2951324664999997,-9.2336474405,-0.024896,0.34268,-1.3523,-0.00029999999999996696,-0.00019999999999997797,2.500000000016378e-05,0.0005436721726077565,-0.000940842065588976,-0.0007539210692184273
152840000000.0,5,0.14424601485,-0.23200572569999997,0.08031646349999999,-0.001295,0.019711,-0.10609,-0.22460170494999998,-3.295426666,-9.2336474405,-0.02432,0.34271,-1.3534,-0.00039999999999995595,-0.00019999999999997797,2.4999999999941735e-05,-0.0001945128566931409,-0.0005478739604936056,-0.0011957017299014383
152840000000.0,5,0.16113306615,-0.2680353578,0.024791211199999996,-0.015111,0.014515,-0.12212,-0.21918843414999997,-3.2945440675,-9.234039706499999,-0.023733,0.34261,-1.3546,-0.000300000000000189,-0.00019999999999997797,-9.999999999998899e-05,-0.0004317036356485393,-0.00037544151960000605,-0.0020229815528331474
152840000000.0,5,0.19428934979999998,-0.24047867129999997,-0.028713871199999998,-0.026813,0.013555,-0.13068,-0.21344173724999999,-3.2925827374999996,-9.234922305,-0.023109,0.34241,-1.356,-0.00029999999999996696,-0.000300000000000189,4.999999999988347e-05,0.0011225118712915316,-0.0004969155813960846,-0.0013379858270315403
152840000000.0,5,0.1728520129,-0.18008932059999996,-0.05673147025,-0.024621,0.019931,-0.13068,-0.20727335439999997,-3.2906214074999998,-9.2358049035,-0.022439,0.34219,-1.3574,-0.00019999999999997797,-0.00019999999999997797,5.0000000000105516e-05,0.002183704127221575,-0.0005415120213916325,-0.0006810089605235325
152840000000.0,5,0.1210336743,-0.13104626395,-0.08807352364999999,-0.013942,0.025164,-0.12427,-0.20079115874999998,-3.289542676,-9.236295236,-0.021736,0.34207,-1.3587,-0.00019999999999997797,-0.00019999999999997797,-9.999999999998899e-05,-0.0013965584244046148,-0.0007036196110490334,-0.0007983597321771507
152840000000.0,5,0.09121165165,-0.05661379045,-0.1330958538,0.004191,0.02927,-0.11784,-0.19400495694999997,-3.289934942,-9.236295236,-0.021002,0.34211,-1.36,-0.00029999999999996696,-0.00010000000000021103,0.00029999999999996696,-0.002135353249821559,-0.0005899811316369963,-0.0008516773344013073
152840000000.0,5,0.08202282059999999,0.014886494699999999,-0.1595541955,0.026486,0.02268,-0.10605,-0.1879738672,-3.292288538,-9.235608770499999,-0.02035,0.34237,-1.3612,-0.00029999999999996696,-0.00019999999999997797,0.000300000000000189,-0.0006884358290112358,-9.327674049064427e-05,-0.001060252975013054
152840000000.0,5,0.07344200185,0.058486860599999996,-0.1762255005,0.039163,0.017231,-0.090006,-0.18298228234999997,-3.2960150649999997,-9.234333906,-0.019813,0.34278,-1.3622,-0.00029999999999996696,-9.999999999976694e-05,0.00019999999999997797,0.00011011852202830186,-0.0004659354602380983,-0.0006934118807254974
152840000000.0,5,0.04543420945,0.10170476715,-0.15570018204999997,0.047577,0.008626,-0.079303,-0.17921652875,-3.3008203235,-9.2326667755,-0.019408,0.34329,-1.363,-9.999999999998899e-05,-0.00010000000000021103,9.999999999998899e-05,-0.0010031475380593013,-0.0010675779994462342,-0.00035170144880428134
152840000000.0,5,0.0324992381,0.13492969735,-0.1604956339,0.046462,0.007562,-0.071831,-0.1758528478,-3.305625582,-9.231097711499999,-0.019047,0.34381,-1.3638,-0.00019999999999997797,-4.999999999988347e-05,9.999999999998899e-05,0.0003350867709918659,-0.0011577115490102319,-0.00026834685711679684
152840000000.0,5,0.03131263345,0.1498063854,-0.14301037695,0.043192,0.007574,-0.05796,-0.1728716262,-3.3100385744999996,-9.2295286475,-0.018728,0.34429,-1.3644,-0.00020000000000020002,-4.999999999988347e-05,0.00019999999999997797,-0.00036228363574730693,-0.00023915504863603054,-0.0004308004420681133
152840000000.0,5,0.02433029865,0.13204654224999998,-0.12612332564999998,0.039925,0.009715,-0.041958,-0.17022383069999997,-3.3139612345,-9.2281557165,-0.018444,0.34471,-1.3649,-9.999999999998899e-05,-2.4999999999941735e-05,0.00019999999999997797,-0.0006661264650695276,-7.850276073151363e-05,-8.601897622745325e-05
152840000000.0,5,0.010679441849999999,0.1014399876,-0.11259014864999999,0.046275,0.013908,-0.024876,-0.16794868789999998,-3.3180800274999998,-9.226684719,-0.0182,0.34516,-1.3652,-0.00019999999999997797,-2.5000000000385825e-05,0.00019999999999997797,-0.00032428590682431757,-0.00030327317055256486,-2.8342570077527496e-05
152840000000.0,5,0.006060509699999999,0.07332432205,-0.05150452579999999,0.062211,0.013762,-0.009905,-0.1660265845,-3.3234736849999997,-9.224821455499999,-0.017996,0.34575,-1.3653,-9.999999999998899e-05,-2.4999999999941735e-05,0.00029999999999996696,-0.0009839868189193135,0.00015870176615950804,1.878915196640296e-05
152840000000.0,5,0.046287388,0.04700327345,0.01630845895,0.075953,0.002983,-0.001323,-0.16525185915,-3.3300441404999996,-9.2224678595,-0.017916,0.34646,-1.3653,-0.00019999999999997797,-2.4999999999941735e-05,0.00029999999999996696,-0.0010148453396998103,-1.0003236657674108e-05,3.2297288967780835e-05
152840000000.0,5,0.09115281174999999,0.012856518150000001,0.0501119815,0.083307,-0.008803,0.00298,-0.16582064485,-3.3374971945,-9.2197219975,-0.017983,0.34727,-1.3653,-9.999999999998899e-05,-4.999999999988347e-05,9.999999999998899e-05,-0.0008300735333244824,-5.306506643321107e-05,-1.3312158089168191e-05
152840000000.0,5,0.13153659645,-0.041776328999999994,0.0793750251,0.079054,-0.010893,-0.003428,-0.16670324335,-3.3446560489999997,-9.217172268499999,-0.018084,0.34805,-1.3653,-5.0000000000105516e-05,-4.999999999988347e-05,0.00020000000000020002,-0.00030757451534835223,-0.000226856307701917,7.63770170253697e-05
152840000000.0,5,0.17270491315,-0.0900054337,0.1083634825,0.073845,-0.000187,-0.008794,-0.16672285664999997,-3.3513245709999997,-9.214720606,-0.018091,0.34877,-1.3653,-4.999999999988347e-05,-0.00010000000000021103,0.00019999999999997797,-0.0005469077105115794,-0.00032601666407860996,-1.7102128014506723e-05
152840000000.0,5,0.18868975265,-0.11443379885,0.13804821204999998,0.06108,0.005245,-0.007759,-0.16609523105,-3.357012428,-9.212661209499998,-0.018027,0.34939,-1.3654,-9.999999999998899e-05,-9.999999999976694e-05,0.00029999999999996696,0.00035231269967078704,-7.322159407241458e-05,0.0002692896878389861
152840000000.0,5,0.21230416585,-0.1257997062,0.11986668294999998,0.05261,0.017033,-0.006725,-0.16456539365,-3.3618176865,-9.2108960125,-0.017865,0.34991,-1.3654,1.999999999990898e-05,-0.00010000000000021103,9.999999999998899e-05,-8.217647670621941e-05,-0.0002864075104060948,4.1230480218784615e-05
152840000000.0,5,0.2164131522,-0.11047191225,0.1437066491,0.04417,0.030952,-0.003562,-0.16179991835,-3.3659364794999997,-9.209523081499999,-0.017567,0.35035,-1.3655,2.0000000000131024e-05,-9.999999999976694e-05,9.999999999998899e-05,-0.0015902141974133421,-0.0004936356721136903,1.5601804185388923e-05
152840000000.0,5,0.23200572569999997,-0.09452629935,0.16393776805,0.029252,0.033206,-0.002525,-0.15868140365,-3.3688784744999998,-9.208444349999999,-0.017231,0.35067,-1.3655,1.999999999990898e-05,-0.00019999999999997797,9.999999999998899e-05,0.00016486950815147727,-0.0006123838501803647,6.256760852230148e-05
152840000000.0,5,0.23170171954999996,-0.0641158777,0.1277218096,0.010065,0.033367,-0.00576,-0.15538636925000002,-3.3702514054999995,-9.208052084,-0.016873,0.35082,-1.3655,2.0000000000131024e-05,-0.00010000000000021103,9.999999999998899e-05,0.00041695820750492496,-0.0001528523059630693,-7.170453108187869e-05
152840000000.0,5,0.22413098574999998,-0.044326057999999995,0.08828926995,-0.008001,0.038851,-0.013272,-0.151414676,-3.3698591395,-9.208248217,-0.016442,0.35077,-1.3656,1.999999999990898e-05,-9.999999999976694e-05,-9.999999999998899e-05,-0.0003133947771067347,-0.00047600251877510935,-0.00023328970856625886
152840000000.0,5,0.20706741474999998,-0.004716998649999999,0.05196543835,-0.019674,0.045343,-0.015439,-0.1467663239,-3.3682900754999996,-9.2089346825,-0.015936,0.35061,-1.3658,4.999999999988347e-05,-0.00010000000000021103,0.00019999999999997797,0.0006803640136616718,-0.00017486813347811214,-0.0002087155247701422
152840000000.0,5,0.167301449,0.060546257099999994,0.013827376499999999,-0.01536,0.057019,-0.005846,-0.14142169964999998,-3.366819078,-9.209523081499999,-0.015355,0.35045,-1.3659,5.0000000000105516e-05,-9.999999999976694e-05,9.999999999998899e-05,0.0008940600770532825,-0.0005638761409527682,0.00032020289997486406
152840000000.0,5,0.13226228855,0.11530659069999999,0.023408473549999996,0.0017,0.064324,0.008047,-0.13554751629999998,-3.3666229449999996,-9.209621147999998,-0.014717,0.35043,-1.3658,9.999999999998899e-05,-0.00010000000000021103,9.999999999998899e-05,0.0001034610851865514,-0.0006264161902500565,0.00036776464937832154
152840000000.0,5,0.11231556244999999,0.17342079859999998,0.02331040705,0.021919,0.064147,0.01769,-0.12996753244999998,-3.3682900754999996,-9.209130815499998,-0.014112,0.35061,-1.3657,9.999999999998899e-05,0.00010000000000021103,0.00019999999999997797,0.0002910285551542269,-0.00033449286010345247,0.0009161733014200202
152840000000.0,5,0.10685325839999998,0.21299063135,0.00195152335,0.038894,0.055477,0.023071,-0.12510343405,-3.371722403,-9.207954017499999,-0.013586,0.35098,-1.3654,9.999999999998899e-05,3.333333333310762e-05,0.00019999999999997797,-0.0007100081638466982,-1.976760915489706e-05,0.0005824852057301211
152840000000.0,5,0.12204375924999998,0.22703375415,0.0006080123,0.0505,0.041524,0.027385,-0.12144555359999998,-3.3763315284999997,-9.206286887,-0.013191,0.35148,-1.3651,0.00019999999999997797,3.333333333355171e-05,9.999999999998899e-05,-0.0005355822129596288,-0.00015326979433316623,0.0008652766427754144
152840000000.0,5,0.12336765699999998,0.19897692849999998,0.013395883899999999,0.054603,0.027626,0.038091,-0.11947441694999998,-3.3814309865,-9.2044236235,-0.01298,0.35204,-1.3647,0.00019999999999997797,3.333333333310762e-05,0.00019999999999997797,-0.001111008936175606,-0.0004123951082237731,0.0005617142480275339
152840000000.0,5,0.1287417012,0.16258445035,0.0376967626,0.051299,0.020184,0.048772,-0.1187193049,-3.3862362449999996,-9.2026584265,-0.012899,0.35256,-1.3642,9.999999999998899e-05,0.00010000000000021103,0.00020000000000020002,-0.00019682299247625323,-6.158787367605001e-05,0.0006217885698789061
152840000000.0,5,0.13808743864999998,0.13203673559999998,0.05571157865,0.044842,0.021289,0.061567,-0.1184839453,-3.390551171,-9.2010893625,-0.012877,0.35303,-1.3635,0.00020000000000020002,3.333333333310762e-05,9.999999999998899e-05,0.00021289543134472844,0.0001820159183147929,0.0008101541356390074
152840000000.0,5,0.15335639269999998,0.0993805911,0.11315893435,0.040547,0.022382,0.070097,-0.1184839453,-3.394277698,-9.199716431499999,-0.012879,0.35343,-1.3628,0.00019999999999997797,3.333333333355171e-05,9.999999999998899e-05,-0.0011847636170729814,-0.00022668414182658303,0.0006866178888865759
152840000000.0,5,0.16612465099999998,0.07095111275,0.14199048535,0.027691,0.020349,0.07755,-0.1189938911,-3.396827427,-9.198833832999998,-0.012935,0.35371,-1.3619,0.00029999999999996696,3.333333333310762e-05,-9.999999999998899e-05,-5.98359081802613e-05,-0.00028774334510983657,0.0006484733137125942
152840000000.0,5,0.16905683935,0.0614092423,0.138666031,0.012633,0.010876,0.082879,-0.12041585534999999,-3.3980042249999998,-9.1983435005,-0.013091,0.35384,-1.3611,0.00029999999999996696,4.999999999988347e-05,1.999999999990898e-05,0.0005095062247151838,0.0005984928106601561,0.0006472097992698267
152840000000.0,5,0.1739895843,0.05641765745,0.1066375121,0.001891,0.002438,0.083943,-0.12267138484999998,-3.3980042249999998,-9.1983435005,-0.013335,0.35383,-1.3602,0.00029999999999996696,5.000000000032756e-05,2.0000000000131024e-05,-0.0006661340944305594,0.0002624525459931082,0.0011959838138840273
152840000000.0,5,0.15622974115,0.041325223099999996,0.07309876909999999,0.000797,0.002442,0.089278,-0.12526034044999998,-3.3975138924999997,-9.198441567,-0.013616,0.35379,-1.3592,0.00029999999999996696,9.999999999976694e-05,1.999999999990898e-05,-0.0008834314018837386,0.000480357960623623,0.0010830755904439604
152840000000.0,5,0.1197588098,0.026262208699999998,0.09692892859999999,0.00829,0.010896,0.097815,-0.12738838349999998,-3.3977100255,-9.1983435005,-0.013848,0.35381,-1.3582,0.00029999999999996696,5.000000000032756e-05,2.0000000000131024e-05,0.00039514888425629113,0.0004626010173378603,0.0005928252873348971
152840000000.0,5,0.08391550404999999,0.00784532,0.09962575735,0.012565,0.012988,0.10315,-0.1294085534,-3.3984945575,-9.198049301,-0.014068,0.35389,-1.3571,0.000300000000000189,4.999999999988347e-05,1.999999999990898e-05,-0.0012022885529267002,0.00010597827983294117,0.0012593981456293646
152840000000.0,5,0.0727849563,-0.023859579449999998,0.08773029090000001,0.0125,0.010847,0.11277,-0.13188963585,-3.399377156,-9.197657034999999,-0.014339,0.35399,-1.3559,0.00029999999999996696,9.999999999976694e-05,-9.999999999998899e-05,0.0007476096852421787,-0.00026719907795902387,0.0008194640571534406
152840000000.0,5,0.070215614,-0.05703547639999999,0.082571993,0.006125,0.014097,0.11168,-0.13426284515,-3.3998674885,-9.197460902,-0.014597,0.35404,-1.3547,0.00029999999999996696,4.999999999988347e-05,-0.00019999999999997797,0.00021474274777483204,0.0001812426062832717,0.0010905455397537678
152840000000.0,5,0.059153712799999994,-0.07189255115,0.05628036435,-0.003414,0.01738,0.10419,-0.13606726875,-3.3996713554999998,-9.197460902,-0.014793,0.35402,-1.3536,0.00039999999999995595,5.000000000032756e-05,9.999999999998899e-05,-0.00028815533424075834,8.149302459314889e-05,0.001306530143804857
152840000000.0,5,0.06709709929999999,-0.0732752888,0.0216530832,-0.010817,0.019583,0.093497,-0.13728329334999997,-3.3985926239999995,-9.197853168,-0.014924,0.3539,-1.3525,0.00029999999999996696,4.999999999988347e-05,5.0000000000105516e-05,-0.000352689406963258,0.000789858476135441,0.0009557789924203863
152840000000.0,5,0.057417935749999996,-0.05616268455,-0.01211121275,-0.007578,0.021692,0.089229,-0.138077632,-3.397611959,-9.198245434,-0.01501,0.3538,-1.3516,0.00029999999999996696,4.999999999988347e-05,4.999999999988347e-05,0.00035211564837717146,-9.949394622377206e-05,0.001072337713029503
152840000000.0,5,0.0521321514,-0.0348136075,-0.0180834626,0.003138,0.030123,0.094569,-0.138469898,-3.397611959,-9.198245434,-0.015053,0.35379,-1.3506,0.00019999999999997797,5.000000000032756e-05,9.999999999998899e-05,0.0018248292776884556,5.3790118238028484e-05,0.000734337582246225
152840000000.0,5,0.012993811249999999,-0.037657536,-0.0016573238499999997,0.012784,0.039628,0.10097,-0.13824434505,-3.3984945575,-9.1979512345,-0.015028,0.35389,-1.3495,0.000400000000000178,4.999999999988347e-05,5.0000000000105516e-05,-0.0011035063769773146,-0.0012081637367653553,0.0009619981590823362
152840000000.0,5,-0.006207609449999999,-0.026007235799999997,-0.0101596894,0.012826,0.044955,0.10203,-0.13759710614999998,-3.3996713554999998,-9.197460902,-0.014959,0.35402,-1.3484,0.00029999999999996696,9.999999999976694e-05,4.999999999988347e-05,-0.00021679157258608361,-0.00013271719871976728,0.0014196761683840098
152840000000.0,5,-0.007374600799999999,-0.01750487025,-0.043374812949999994,0.009723,0.054575,0.097739,-0.13596920225,-3.400553954,-9.197166702499999,-0.014783,0.35411,-1.3473,0.00029999999999996696,0.00010000000000021103,9.999999999998899e-05,-0.00019690703689573263,-0.00043404401694591144,0.0015649269175897484
152840000000.0,5,0.0062174160999999995,-0.024908891,-0.030635974599999997,0.008701,0.058849,0.093461,-0.13370386609999999,-3.4013384859999998,-9.1969705695,-0.014537,0.3542,-1.3463,0.00019999999999997797,3.333333333310762e-05,5.0000000000105516e-05,0.0001956073951387416,0.0008507043354264443,0.0006546791196341689
152840000000.0,5,0.0048052584999999995,-0.023506540049999997,0.005933023249999999,0.001216,0.051461,0.084922,-0.1315464031,-3.401730752,-9.1967744365,-0.014302,0.35424,-1.3454,0.00029999999999996696,3.333333333355171e-05,4.999999999988347e-05,-0.000676950644490526,0.0004515879764521724,0.0007727237893267874
152840000000.0,5,0.0030204482,-0.029145363799999997,-0.0081395195,7.4e-05,0.03656,0.077474,-0.1305068982,-3.401730752,-9.1967744365,-0.01419,0.35424,-1.3445,0.00029999999999996696,3.333333333310762e-05,9.999999999998899e-05,0.0003923069306841498,0.0002312817780802945,0.000940933226294044
152840000000.0,5,-0.0056486304,-0.019917306149999998,0.008119906199999999,0.009588,0.024761,0.076444,-0.1303696051,-3.402319151,-9.196578303499999,-0.014175,0.3543,-1.3437,0.00029999999999996696,0.00010000000000021103,3.333333333332966e-05,-0.0012130935295746048,-0.0007511982529109229,0.000613921162353398
152840000000.0,5,-0.0330484105,0.0022751428,0.048837117,0.020187,0.018278,0.077542,-0.1310952972,-3.4037901484999997,-9.1959899045,-0.014255,0.35447,-1.3429,0.00020000000000020002,9.999999999976694e-05,3.333333333332966e-05,-0.0002714412262922461,-0.0006064190253356472,0.0004250970988485675
152840000000.0,5,-0.05969307855,0.00559959715,0.02801759905,0.029731,0.009677,0.075439,-0.13259571465,-3.4062418109999997,-9.195107306,-0.014419,0.35474,-1.342,0.00029999999999996696,0.00010000000000021103,3.333333333332966e-05,-0.0008183416794806386,0.00011215229596395204,0.0008023705565285838
152840000000.0,5,-0.08223856689999999,0.021260817199999997,-0.0003334261,0.034042,0.009648,0.070108,-0.13414516534999998,-3.4091838059999997,-9.194028574499999,-0.014589,0.35506,-1.3413,0.00019999999999997797,9.999999999976694e-05,9.999999999998899e-05,0.00025475478196251844,-0.0002062938981666207,0.0010812262702236675
152840000000.0,5,-0.10433294934999998,0.0176127434,0.012121019399999999,0.035144,0.01071,0.064771,-0.13538080325,-3.4123219339999995,-9.1928517765,-0.014726,0.35539,-1.3405,0.00019999999999997797,0.00010000000000021103,9.999999999998899e-05,-0.0011792346753880523,4.044888366649957e-05,0.00010381628653668984
152840000000.0,5,-0.09791940025,0.027213453749999998,0.00561921045,0.024457,0.007604,0.061557,-0.13671450764999998,-3.4148716629999996,-9.1918711115,-0.014873,0.35567,-1.3398,0.00019999999999997797,0.00010000000000021103,4.999999999988347e-05,0.00033814035306212187,0.0008193965349885257,0.0003179622992730141
152840000000.0,5,-0.0907899657,0.04333558635,-0.0055505638999999996,0.009518,0.003471,0.055134,-0.1381560852,-3.415852328,-9.1914788455,-0.01503,0.35578,-1.3392,9.999999999998899e-05,9.999999999976694e-05,5.0000000000105516e-05,0.0016425348661937011,0.0007847845217088256,0.0005404582631733518
152840000000.0,5,-0.06989199454999999,0.028292185249999997,-0.01909354755,0.005234,0.000311,0.054064,-0.13989186225,-3.4163426605,-9.1912827125,-0.015219,0.35584,-1.3387,9.999999999998899e-05,0.00010000000000021103,0.00019999999999997797,0.001438203163785956,0.00041955558438666607,0.0007218461267574777
152840000000.0,5,-0.04300216025,0.041315416449999996,-0.006325289249999999,0.007357,0.000292,0.056203,-0.14179435234999999,-3.417029126,-9.190988513,-0.015427,0.3559,-1.338,0.00019999999999997797,9.999999999976694e-05,9.999999999998899e-05,-0.0008732865183807004,-0.0003807212231476953,0.0006254118665485336
152840000000.0,5,-0.05122013295,0.05347566245,0.00185345685,0.016931,-0.005114,0.056227,-0.14405968849999998,-3.4182059239999996,-9.190498180499999,-0.015673,0.35604,-1.3374,0.00019999999999997797,0.00019999999999997797,9.999999999998899e-05,-0.0009661982364067567,0.0002582927213277131,0.0003259066223693097
152840000000.0,5,-0.04300216025,0.08355265799999999,-0.02362421985,0.030742,-0.01375,0.054132,-0.1470409101,-3.4206575865,-9.189517515499999,-0.016,0.3563,-1.3368,9.999999999998899e-05,0.00019999999999997797,9.999999999998899e-05,-0.0018006539638303898,-0.00010657385300238964,0.0005692752493688669
152840000000.0,5,-0.05491724,0.09960614404999998,-0.0135135637,0.043505,-0.019182,0.052029,-0.1505320775,-3.424286047,-9.1881445845,-0.016382,0.35669,-1.3363,0.00019999999999997797,0.00019999999999997797,9.999999999998899e-05,-0.002406191155784554,0.0001803368015922402,0.0001989138079043773
152840000000.0,5,-0.07709988229999999,0.09489895205,-0.0035696206,0.055202,-0.026733,0.047793,-0.15469009709999998,-3.4290913054999996,-9.186281321,-0.016838,0.35722,-1.3357,0.00010000000000021103,0.00019999999999997797,9.999999999998899e-05,-0.0002457421987555608,0.0002598790159311637,0.0006261936094120041
152840000000.0,5,-0.07601134415,0.0699214145,0.020182085699999998,0.056258,-0.027807,0.04673,-0.15891676325,-3.4341907634999997,-9.184319991,-0.017301,0.35778,-1.3352,4.999999999988347e-05,0.00010000000000021103,4.999999999988347e-05,-0.0005087164667632593,0.0005240082141995117,-0.0003566129974845733
152840000000.0,5,-0.0738244612,0.029027683999999998,0.043551332649999996,0.042402,-0.028754,0.042438,-0.1632022693,-3.438407623,-9.1826528605,-0.017771,0.35823,-1.3347,5.0000000000105516e-05,0.00019999999999997797,5.0000000000105516e-05,-0.0005755169579882979,0.00013820688378385348,0.00015552738440190172
152840000000.0,5,-0.0633901856,-0.0205155118,0.0346370878,0.02856,-0.028634,0.037077,-0.16735048225,-3.4412515514999997,-9.181574129,-0.018225,0.35854,-1.3342,9.999999999998899e-05,9.999999999976694e-05,0.00010000000000021103,-0.00017562563076656268,0.00020362056407474682,0.00033892298438337187
152840000000.0,5,-0.06665580004999999,-0.05665301705,0.062174161,0.012687,-0.018902,0.026358,-0.17037093044999999,-3.4426244824999994,-9.18098573,-0.018555,0.35869,-1.3339,-1.1111111111183902e-05,0.00019999999999997797,5.0000000000105516e-05,-2.826570358877012e-05,-0.0001715230764731679,0.0001919193241941286
152840000000.0,5,-0.06128175585,-0.06371380505,0.11407095279999999,-0.003235,-0.016626,0.013518,-0.17260684664999998,-3.4426244824999994,-9.180887663499998,-0.018798,0.35869,-1.3337,-1.1111111110961858e-05,0.00010000000000021103,4.999999999988347e-05,0.0005594359174389552,0.00017469290964022832,6.498030289223133e-05
152840000000.0,5,-0.05004333495,-0.05110245315,0.08906399529999999,-0.020173,-0.007949,0.000665,-0.17366596485,-3.440957352,-9.1814760625,-0.018912,0.35851,-1.3336,-1.1111111111183902e-05,9.999999999976694e-05,4.999999999988347e-05,0.0004703287342859852,-9.720784722122566e-05,-6.74319001731094e-05
152840000000.0,5,-0.04182536225,-0.0572512227,0.08260141295,-0.029627,0.002798,-0.012179,-0.17335215204999999,-3.4383095564999997,-9.182554794,-0.018877,0.35822,-1.3337,-1.1111111111183902e-05,0.00010000000000021103,5.0000000000105516e-05,0.0009389572256714995,-5.067593506247192e-05,-0.00010180769379876387
152840000000.0,5,-0.0358531124,-0.05512317965,0.12314210404999999,-0.033814,0.010296,-0.01647,-0.17214593409999998,-3.4351714285,-9.183731591999999,-0.018742,0.35788,-1.3339,-1.1111111110961858e-05,0.00010000000000021103,2.4999999999941735e-05,5.126808148775419e-05,-0.00022643339966110787,-0.000277835691374434
152840000000.0,5,-0.031293020149999996,-0.0551329863,0.11687565469999998,-0.038117,0.005004,-0.016468,-0.17101816935,-3.431542968,-9.185104523,-0.018617,0.35749,-1.3341,-1.1111111111183902e-05,9.999999999976694e-05,2.500000000016378e-05,0.00030659302404578703,-5.7769570862120645e-05,-4.3444798264347106e-05
152840000000.0,5,-0.015327793949999998,-0.04590492865,0.08607296704999999,-0.040279,0.002889,-0.014333,-0.17037093044999999,-3.4279145075,-9.186477454,-0.018544,0.35709,-1.3342,-1.1111111111183902e-05,0.00010000000000021103,2.4999999999941735e-05,-4.5912630863953474e-05,0.00022959016230661433,-0.00018154709856077478
152840000000.0,5,-0.0206724182,-0.045600922499999995,0.08137558169999999,-0.038215,-0.00459,-0.011115,-0.1702630573,-3.42448218,-9.1877523185,-0.018529,0.35672,-1.3343,-1.1111111110961858e-05,9.999999999976694e-05,2.4999999999941735e-05,0.00038489367111577133,0.000624705395394276,4.21648852708123e-07
152840000000.0,5,-0.004726805299999999,-0.0035598139499999995,0.0721181041,-0.025584,-0.028134,-0.014254,-0.1719890277,-3.4219324509999995,-9.188634917,-0.018716,0.35644,-1.3345,-1.1111111111183902e-05,0.00019999999999997797,4.999999999988347e-05,-0.00039893930524564913,0.0002747845556236861,-0.0006276102512032672
152840000000.0,5,0.00118660465,0.011385520649999998,0.05631959095,0.002062,-0.040081,-0.017386,-0.17506831579999999,-3.4216382514999997,-9.1887329835,-0.01905,0.35641,-1.3346,-3.333333333332966e-05,0.00010000000000021103,5.0000000000105516e-05,-0.0003725501512195084,0.0004390996183127882,-0.00016336737816115277
152840000000.0,5,0.013856796449999998,0.039059886950000004,0.0738636878,0.031952,-0.036069,-0.014139,-0.17815741054999998,-3.4241879804999997,-9.187654252,-0.019389,0.35668,-1.3348,-3.333333333332966e-05,0.00019999999999997797,9.999999999998899e-05,-0.000294142285070631,0.00023190545927143091,0.0001428857742430678
152840000000.0,5,-0.0441103117,0.1016753472,0.09840973274999999,0.047918,-0.038336,-0.008771,-0.18124650529999997,-3.4284048400000002,-9.186085188,-0.019728,0.35715,-1.3349,-3.333333333332966e-05,0.00019999999999997797,2.4999999999941735e-05,-0.0007046835620113656,-0.00017537346035001455,-0.00043005522842126664
152840000000.0,5,-0.0152395341,0.0640178112,0.02846870495,0.045802,-0.03406,-0.00558,-0.18437482664999996,-3.4328178324999996,-9.184319991,-0.020072,0.35762,-1.3349,-3.333333333332966e-05,0.00019999999999997797,2.4999999999941735e-05,0.0004867031204267569,0.0003929807679738939,-0.00023238114084214723
152840000000.0,5,-0.00573689025,0.0519948583,0.010012589649999999,0.039384,-0.032946,-0.001323,-0.18729720835,-3.436838559,-9.182750926999999,-0.020394,0.35806,-1.3349,-3.333333333355171e-05,9.999999999976694e-05,2.500000000016378e-05,-0.000916372271446364,7.621970583171489e-05,-2.7915061101488337e-05
152840000000.0,5,0.014866881399999999,0.030175062049999996,0.03301899055,0.030943,-0.021155,-0.001358,-0.18949389795,-3.4399766869999997,-9.181574129,-0.020635,0.3584,-1.3349,-3.333333333332966e-05,0.00019999999999997797,2.4999999999941735e-05,0.000146551498931502,0.00026897469975972754,-5.885290503715446e-05
152840000000.0,5,0.0107677017,-0.0056976636499999995,0.0252619304,0.022544,-0.005101,-0.001402,-0.19018036345,-3.4422322165,-9.180691530499999,-0.020712,0.35865,-1.3349,1.0000000000065512e-05,0.00010000000000021103,5.0000000000105516e-05,0.00020396079211515428,0.0003267893553879908,0.00019747981126637393
152840000000.0,5,0.0176911966,-0.021329463749999996,0.0235751866,0.008866,0.016328,-0.005733,-0.18887607899999997,-3.4432128814999996,-9.180397331,-0.020571,0.35876,-1.3349,1.0000000000065512e-05,0.00019999999999997797,4.999999999988347e-05,-0.0002845873598000259,-0.00036028470387061695,0.00027020656271550814
152840000000.0,5,0.0350881937,-0.02982202265,0.02597781585,-0.004894,0.031359,-0.005782,-0.1860713771,-3.4429186819999997,-9.1804953975,-0.020265,0.35873,-1.335,9.999999999843467e-06,0.00019999999999997797,3.333333333332966e-05,0.0004035652938533252,-0.0006566528413605166,0.00030902278239031133
152840000000.0,5,0.04490465034999999,-0.04734650619999999,0.05577041855,-0.013405,0.035689,-0.00367,-0.1827175028,-3.441938017,-9.18098573,-0.019899,0.35861,-1.335,1.0000000000065512e-05,0.00010000000000021103,3.333333333332966e-05,0.00040449752479759793,2.2580311199504877e-05,0.00033368609639376767
152840000000.0,5,0.05803575469999999,-0.05800633475,0.0763545769,-0.016678,0.029318,0.000605,-0.17999125409999997,-3.44017282,-9.1816721955,-0.019601,0.35843,-1.335,1.0000000000065512e-05,0.00019999999999997797,3.333333333332966e-05,-0.0005038867321680018,-0.00038956269981871294,0.0002696847328952645
152840000000.0,5,0.07420692055,-0.06028147754999999,0.07938483175,-0.010457,0.010081,0.005987,-0.17880464945,-3.4389960219999995,-9.182162528,-0.019471,0.3583,-1.3349,1.0000000000065512e-05,9.999999999976694e-05,-1.999999999990898e-05,-0.00038865491989481527,3.4664827231356554e-05,-0.00023799959706631568
152840000000.0,5,0.079237732,-0.0624879738,0.1169148813,0.004309,-0.011352,0.004983,-0.17949111494999997,-3.4389960219999995,-9.182162528,-0.019546,0.3583,-1.3349,1.0000000000065512e-05,0.00019999999999997797,-2.0000000000131024e-05,-0.0002971361443112053,0.0002346516428739509,-0.0003275832282339103
152840000000.0,5,0.08135596839999999,-0.057545422199999995,0.122975391,0.01278,-0.022074,0.000747,-0.18146225159999999,-3.4399766869999997,-9.181770261999999,-0.019761,0.3584,-1.3348,9.999999999843467e-06,0.00010000000000021103,-1.999999999990898e-05,-0.00035600837747457037,-0.00019468532971522734,-0.00023656551488203392
152840000000.0,5,0.08801468375,-0.05910467955,0.11235478905,0.021342,-0.020012,-0.000309,-0.1834824215,-3.4418399505,-9.18098573,-0.019983,0.35861,-1.3348,1.0000000000065512e-05,0.00019999999999997797,-2.0000000000131024e-05,-0.0006412423529140177,-0.00016993228931894144,-0.00015562064916634089
152840000000.0,5,0.08401357055,-0.07825706699999999,0.13473356434999997,0.022446,-0.009375,0.009281,-0.18471805939999997,-3.443899347,-9.180201197999999,-0.020119,0.35883,-1.3347,1.0000000000065512e-05,9.999999999976694e-05,-1.999999999990898e-05,0.00011513012422070812,9.980800512687793e-05,0.0001353895813408501
152840000000.0,5,0.09547754439999999,-0.0983214729,0.13236035505,0.012803,-0.005048,0.0242,-0.18585563079999998,-3.4453703444999997,-9.179612799,-0.020244,0.35899,-1.3345,4.999999999988347e-05,0.00010000000000021103,-4.999999999988347e-05,0.0005356169700891922,0.000297882898284918,0.00010886503983660589
152840000000.0,5,0.09793901354999998,-0.12508382075,0.10260697895,-0.006434,-0.007025,0.027372,-0.18712068865,-3.445272278,-9.179612799,-0.020382,0.35898,-1.3342,5.0000000000105516e-05,9.999999999976694e-05,-5.0000000000105516e-05,0.0009464344621389342,0.00010304500459779042,0.0003611283797760184
152840000000.0,5,0.1250151742,-0.11288434815,0.061262142549999996,-0.021351,-0.009026,0.020945,-0.1887583992,-3.443703214,-9.180201197999999,-0.020559,0.35881,-1.3339,5.0000000000105516e-05,0.00010000000000021103,9.999999999998899e-05,0.00028389755720731324,0.0004285568826201125,0.0002065138601765465
152840000000.0,5,0.13693025395,-0.10289137179999999,0.05575080524999999,-0.0245,-0.005798,0.015597,-0.18990577725,-3.4415457509999996,-9.18098573,-0.020681,0.35858,-1.3337,4.999999999988347e-05,4.999999999988347e-05,-4.999999999988347e-05,0.00014914559711337594,0.00019763555956364698,0.00015139830527075016
152840000000.0,5,0.1149927779,-0.10077313539999999,0.09874315885,-0.019145,-0.003712,0.017736,-0.19070992254999997,-3.439780554,-9.181574129,-0.020768,0.35839,-1.3336,9.999999999998899e-05,4.999999999988347e-05,-5.0000000000105516e-05,-5.587407225865482e-05,0.00030287794011107927,0.00036422609801463335
152840000000.0,5,0.0966739557,-0.0987137389,0.13487085745,-0.022405,-0.005825,0.026273,-0.19184749395,-3.438015357,-9.182260594499999,-0.02089,0.35818,-1.3333,0.00019999999999997797,5.000000000032756e-05,-9.999999999998899e-05,-0.0002752516613670486,-9.453038292139837e-07,0.0002685314043080339
152840000000.0,5,0.0802772369,-0.10054758244999999,0.0920648302,-0.026681,-0.003661,0.027331,-0.19310274514999998,-3.4355636944999994,-9.183143193,-0.021025,0.35792,-1.333,9.999999999998899e-05,4.999999999988347e-05,-9.999999999998899e-05,-0.00030050993878405485,0.0001578983637229303,0.0002648923387620211
152840000000.0,5,0.061595568649999995,-0.0655280353,0.02625240205,-0.021225,0.010149,0.025182,-0.1932694582,-3.4334062314999994,-9.183927725,-0.021042,0.35769,-1.3327,9.999999999998899e-05,4.999999999988347e-05,1.666666666655381e-05,0.0009518205047667205,-0.00032164962154479504,0.00017895875559026386
152840000000.0,5,0.039030467,-0.0555252523,0.0657241683,-0.011541,0.020724,0.026247,-0.19225937325,-3.4324255664999996,-9.184319991,-0.02093,0.35758,-1.3324,9.999999999998899e-05,4.999999999988347e-05,1.6666666666775853e-05,0.00048726645699859183,0.00038252151161555226,0.0002666207526710457
152840000000.0,5,0.02105487755,-0.045895122,0.0663125673,-0.00833,0.0207,0.024118,-0.19088644224999998,-3.4316410345,-9.1846141905,-0.020781,0.3575,-1.3321,9.999999999998899e-05,4.999999999988347e-05,1.6666666666775853e-05,0.0004166991733008385,0.0001797627697455173,0.0002025219139123735
152840000000.0,5,0.04851349755,-0.06777375814999999,0.013552790299999999,-0.01269,0.006887,0.020932,-0.1905235962,-3.4307584359999996,-9.1850064565,-0.02074,0.3574,-1.3319,9.999999999998899e-05,5.000000000032756e-05,1.666666666655381e-05,0.0009774018865415512,0.0003842115573025051,0.00034777020541666703
152840000000.0,5,0.09317298165,-0.0645473703,-0.0165928518,-0.006357,-0.00169,0.020958,-0.1911904484,-3.4300719705000002,-9.1852025895,-0.020812,0.35733,-1.3317,9.999999999998899e-05,9.999999999976694e-05,1.666666666655381e-05,-0.00011629249241518202,-0.00010853034859548139,6.210531808488462e-05
152840000000.0,5,0.0964778227,-0.04650313429999999,-0.02746842665,0.004336,0.000354,0.019906,-0.19179846069999998,-3.4303661699999997,-9.185104523,-0.020878,0.35735,-1.3315,9.999999999998899e-05,0.00010000000000021103,1.6666666666775853e-05,-0.0010311639969102226,-8.350498642162307e-05,0.00024887367722264964
152840000000.0,5,0.07881604605,-0.04117812334999999,-0.025203090499999997,0.011816,0.002423,0.020982,-0.1920926602,-3.4314449015,-9.184712257,-0.020911,0.35748,-1.3312,9.999999999998899e-05,0.00010000000000021103,3.333333333332966e-05,-0.0006801094637398086,0.00020825228611598412,2.5401483486592324e-05
152840000000.0,5,0.07688413599999999,-0.018828768,-0.05492704665,0.019311,0.007686,0.023121,-0.19224956659999998,-3.433308165,-9.1840257915,-0.02093,0.35768,-1.331,0.00019999999999997797,9.999999999976694e-05,3.333333333332966e-05,-0.0005585661897937744,-0.0005637657250372463,0.0004715633814789816
152840000000.0,5,0.0672343924,-0.02580129615,-0.045296916349999994,0.020351,0.007672,0.02846,-0.19233782644999997,-3.4351714285,-9.183339326,-0.020941,0.35788,-1.3306,9.999999999998899e-05,0.00010000000000021103,3.333333333332966e-05,-0.0005791190889091191,-0.00016625864399877344,0.0002844894820358129
152840000000.0,5,0.06522402914999999,-0.02599742915,-0.05031792115,0.024602,0.008697,0.033803,-0.19257318605,-3.4373288914999995,-9.1824567275,-0.020968,0.35812,-1.3303,0.00019999999999997797,9.999999999976694e-05,9.999999999998899e-05,-0.000568011769053689,-1.147398807122002e-05,0.0007639619907620215
152840000000.0,5,0.03915795345,-0.04055049775,-0.043482686099999994,0.028876,0.010791,0.035941,-0.19282815895,-3.4398786205,-9.1814760625,-0.020999,0.35839,-1.3299,0.00020000000000020002,0.00010000000000021103,4.999999999988347e-05,-0.0006191228302753204,-0.00017248002639869142,0.0003852625524235209
152840000000.0,5,0.02609549565,-0.055495832349999996,0.0011375714,0.029936,0.009716,0.037012,-0.19309293849999998,-3.442526416,-9.1804953975,-0.02103,0.35869,-1.3295,9.999999999998899e-05,9.999999999976694e-05,5.0000000000105516e-05,-0.00013541944967609965,-4.7679639771258664e-05,0.00040896099633770666
152840000000.0,5,0.01448442205,-0.073157609,0.01783829635,0.026762,0.009748,0.031669,-0.19329887815,-3.445076145,-9.1795147325,-0.021055,0.35896,-1.3291,9.999999999998899e-05,5.000000000032756e-05,9.999999999998899e-05,0.00021359646380147979,0.0001136666539081066,0.0001222498945630951
152840000000.0,5,0.0051190713,-0.09385944715,0.0376771493,0.023667,0.017242,0.022044,-0.19276931905,-3.4473316745,-9.178730200499999,-0.020999,0.3592,-1.3288,9.999999999998899e-05,4.999999999988347e-05,9.999999999998899e-05,-8.948143020826027e-05,-9.393411767910642e-05,9.698673468842844e-05
152840000000.0,5,-0.02076067805,-0.0818070743,0.06006573125,0.020641,0.036453,0.017735,-0.1905235962,-3.4491949379999998,-9.178043735,-0.020756,0.35941,-1.3286,9.999999999998899e-05,2.4999999999941735e-05,5.0000000000105516e-05,-7.729768324554742e-05,-0.0003763562588270375,0.0004882605431523468
152840000000.0,5,-0.03882452735,-0.10568626704999999,0.12808465565,0.014313,0.045031,0.015575,-0.1869735889,-3.450764002,-9.1775534025,-0.02037,0.35958,-1.3284,5.0000000000105516e-05,2.4999999999941735e-05,4.999999999988347e-05,8.402609818519702e-05,-0.0003673485020583289,-2.2686510761552037e-05
152840000000.0,5,-0.049660875599999994,-0.11941557705,0.1450795801,-0.000674,0.038761,0.01556,-0.18362952124999998,-3.4510582015,-9.1775534025,-0.020006,0.35961,-1.3282,4.999999999988347e-05,2.4999999999941735e-05,3.333333333332966e-05,0.0005735713595314551,3.376601327054196e-05,0.0003174443925236664
152840000000.0,5,-0.032479624799999995,-0.11940577039999999,0.10860864875,-0.015749,0.019707,0.013432,-0.1817956777,-3.4498814034999996,-9.1779456685,-0.019806,0.35948,-1.3281,9.999999999998899e-05,2.4999999999941735e-05,3.333333333332966e-05,-1.4753002392120518e-05,-5.073212692274787e-05,0.00027122251011191256
152840000000.0,5,-0.013503757049999999,-0.08583760744999999,0.0765310966,-0.007228,0.013251,0.005987,-0.18072675285,-3.4489007385,-9.1783379345,-0.019687,0.35938,-1.328,9.999999999998899e-05,1.2499999999970868e-05,3.333333333332966e-05,-0.00014268069315742649,0.00015222575839768382,9.262097813664272e-05
152840000000.0,5,-0.016622271749999997,-0.0545642006,0.14557971925,0.016223,0.007735,0.0007,-0.18000106075,-3.4499794699999997,-9.178043735,-0.01961,0.35949,-1.328,4.999999999988347e-05,1.2499999999970868e-05,5.0000000000105516e-05,0.0004901928750324913,0.00015849226750175305,-4.497583670320937e-05
152840000000.0,5,-0.00406975975,-0.01844630865,0.1924456996,0.024624,-0.010447,-0.001388,-0.18043255334999997,-3.4522349995,-9.1771611365,-0.019659,0.35974,-1.3279,5.0000000000105516e-05,1.2499999999970868e-05,4.999999999988347e-05,0.0005600036829865873,0.00012488438357638465,-3.893444825089909e-05
152840000000.0,5,0.010600988649999999,-0.024497011699999998,0.12584873945,0.015919,-0.02956,0.001833,-0.1828351826,-3.4540982629999997,-9.1763766045,-0.019921,0.35995,-1.3279,5.0000000000105516e-05,1.2499999999970868e-05,-1.6666666666775853e-05,0.00024019606020719841,0.0004428358601378246,-4.283903574434089e-05
152840000000.0,5,0.0311263071,-0.0346763144,0.04137425634999999,-0.000126,-0.034755,0.001814,-0.18614983029999999,-3.4545885955,-9.1761804715,-0.020283,0.35999,-1.3278,4.999999999988347e-05,1.2500000000414957e-05,-1.666666666655381e-05,0.00046138152615471384,0.0001760080069863612,1.5366279654871473e-05
152840000000.0,5,0.0166516917,-0.025458063399999998,0.0156318001,-0.009514,-0.013359,-0.004645,-0.18798367384999998,-3.4540982629999997,-9.176278538,-0.020483,0.35994,-1.3278,4.999999999988347e-05,1.2499999999970868e-05,-1.666666666655381e-05,0.00023056781131081117,-0.0001877253621787034,4.1910982483128745e-06
152840000000.0,5,-0.0166516917,-0.010424468949999998,0.02870406455,-0.016723,0.016542,-0.00898,-0.18700300884999999,-3.4528233985,-9.1767688705,-0.020375,0.3598,-1.3279,5.0000000000105516e-05,1.2499999999970868e-05,-1.6666666666775853e-05,0.00042514533588411396,-0.00033362294320338215,0.00011716520413757037
152840000000.0,5,-0.038442067999999996,0.00381478685,0.05303436319999999,-0.027297,0.031545,-0.007955,-0.18421792024999997,-3.4506659355,-9.177651468999999,-0.02007,0.35957,-1.328,5.0000000000105516e-05,1.2499999999970868e-05,-1.6666666666775853e-05,0.0005525602871802038,-0.0004601890739723835,0.0002574558531573262
152840000000.0,5,-0.056270557699999994,-0.01371950335,0.0098654899,-0.026233,0.035791,-0.000489,-0.18090327255,-3.4483123394999997,-9.178632133999999,-0.019706,0.35931,-1.328,4.999999999988347e-05,-1.2499999999970868e-05,-1.666666666655381e-05,4.502723571353506e-05,-0.0004147594285262013,0.00020341179501255635
152840000000.0,5,-0.049857008599999995,-0.0153376006,0.0351666469,-0.013483,0.034609,0.011275,-0.17803973074999999,-3.446841342,-9.179220532999999,-0.019393,0.35915,-1.3279,4.999999999988347e-05,-1.2499999999970868e-05,9.999999999998899e-05,0.00031475689215249014,8.954205122768677e-05,0.00019887095612496075
152840000000.0,5,-0.02382035285,-0.0170243444,0.11580672985,0.003424,0.017415,0.016672,-0.1765393133,-3.4469394085,-9.179220532999999,-0.01923,0.35916,-1.3277,5.0000000000105516e-05,-1.2499999999970868e-05,-9.999999999998899e-05,-0.0004276352198074873,6.502835819310882e-05,-7.130599923317604e-05
152840000000.0,5,-0.00491313165,-0.020309572149999996,0.14858055415,0.007463,-0.010325,0.016728,-0.17734345859999998,-3.4477239404999995,-9.1789263335,-0.019318,0.35924,-1.3275,-1.0000000000065512e-05,-1.2500000000414957e-05,-2.4999999999941735e-05,0.00010428378068355615,0.00032861871546785437,2.4905802932642662e-05
152840000000.0,5,0.0094928372,-0.028252958649999996,0.11573808329999999,0.00414,-0.031599,0.007153,-0.18007951395,-3.4481162064999995,-9.178730200499999,-0.019617,0.35929,-1.3274,-9.999999999843467e-06,-1.2499999999970868e-05,-2.500000000016378e-05,4.41932896955155e-06,0.0003562698938794906,-0.00017152269905874873
152840000000.0,5,0.016867438,-0.04243337455,0.11018751939999999,-0.003263,-0.030461,-0.004603,-0.1829724757,-3.44801814,-9.178632133999999,-0.019931,0.35928,-1.3274,-1.0000000000065512e-05,-1.2499999999970868e-05,-2.4999999999941735e-05,7.89735035221506e-05,5.4875862532055564e-05,-8.788362694249485e-05
152840000000.0,5,0.00120621795,-0.0637039984,0.13010482555,-0.013761,-0.014381,-0.013189,-0.18436502,-3.4471355415,-9.1790244,-0.020083,0.35918,-1.3275,-1.0000000000065512e-05,-1.2499999999970868e-05,-2.4999999999941735e-05,0.00030642352934284744,-0.00013330326243976565,-0.00010511484333286525
152840000000.0,5,-0.04031513815,-0.06449833705,0.12197511269999999,-0.022145,0.004868,-0.01217,-0.1839923673,-3.445272278,-9.179710865499999,-0.02004,0.35898,-1.3276,-1.0000000000065512e-05,-1.2499999999970868e-05,-9.999999999998899e-05,0.00037574594360895164,-0.00020258615158441629,6.211813792410259e-05
152840000000.0,5,-0.0739813676,-0.06602817445,0.09355544099999999,-0.031673,0.018791,-0.004739,-0.18234485009999998,-3.442526416,-9.180789597,-0.019859,0.35868,-1.3277,-9.999999999843467e-06,-2.4999999999941735e-05,-5.0000000000105516e-05,0.0005940670555088512,-9.191496827387624e-05,2.405188247439627e-05
152840000000.0,5,-0.0623114541,-0.06051683715,0.07920831205000001,-0.030595,0.023041,-0.001542,-0.18024622699999998,-3.439780554,-9.181770261999999,-0.019629,0.35839,-1.3277,-1.0000000000065512e-05,-2.4999999999941735e-05,-4.999999999988347e-05,1.7375661473917337e-05,1.5456560735760405e-06,1.7093512586413562e-05
152840000000.0,5,-0.0340094622,-0.056172491199999994,0.07374600799999999,-0.027474,0.01236,-0.002585,-0.1787752295,-3.4372308249999994,-9.182750926999999,-0.019466,0.35811,-1.3277,-1.0000000000065512e-05,-2.4999999999941735e-05,-4.999999999988347e-05,-7.362402057453643e-05,7.063276215890646e-05,-0.00018988574380350565
152840000000.0,5,-0.005060231399999999,-0.039932678799999996,0.06081103665,-0.029726,-0.008925,-0.008958,-0.17884387605,-3.434681096,-9.183731591999999,-0.019472,0.35782,-1.3278,-9.999999999843467e-06,-2.4999999999941735e-05,-5.0000000000105516e-05,-9.456929499307432e-05,0.0004910045541695052,-0.00037833620448413097
152840000000.0,5,0.0023143694,-0.03576485255,0.02068222485,-0.02768,-0.023854,-0.015332,-0.1803835201,-3.4322294335,-9.1846141905,-0.019637,0.35756,-1.3279,-1.0000000000065512e-05,-1.6666666666775853e-05,-3.333333333332966e-05,-0.0002670535446436806,3.718217226644782e-05,-0.00021790149041257811
152840000000.0,5,0.0068842683,-0.033450483149999995,-0.01766177665,-0.013803,-0.018643,-0.014247,-0.18180548435,-3.4306603694999995,-9.1852025895,-0.019791,0.35739,-1.328,-1.999999999990898e-05,-1.6666666666775853e-05,-3.333333333332966e-05,-0.00011993086826195265,-4.163708833959667e-05,4.3098221857093555e-05
152840000000.0,5,-0.025212897149999997,-0.01573967325,0.015298373999999998,-0.006266,-0.008053,-0.011051,-0.18233504344999998,-3.4300719705000002,-9.185398722499999,-0.019848,0.35733,-1.3282,-2.0000000000131024e-05,-1.6666666666331764e-05,-3.333333333332966e-05,-6.999251640193993e-05,-0.00013073822778664201,-6.035139575337467e-05
152840000000.0,5,-0.02903749065,-0.01621039245,0.028086245599999997,-0.001947,-0.000634,-0.004654,-0.18239388335,-3.429973904,-9.185496789,-0.019855,0.35731,-1.3282,-1.999999999990898e-05,-1.6666666666775853e-05,-1.4285714285744433e-05,0.00017727669665895673,4.330859809886789e-05,-1.4012192758261488e-05
152840000000.0,5,-0.0051779112,-0.02070183815,-0.00104931155,-0.003069,-0.002764,0.00282,-0.18276653604999998,-3.429777771,-9.185496789,-0.019894,0.35729,-1.3282,-2.0000000000131024e-05,-1.6666666666775853e-05,-1.4285714285744433e-05,-5.2440065215764164e-05,0.00015180127075153926,-1.0076246646520404e-05
152840000000.0,5,-0.021260817199999997,-0.0475622525,-0.009914523149999998,0.002297,-0.001738,-0.000376,-0.18314899540000001,-3.4298758375,-9.185496789,-0.019936,0.3573,-1.3281,-1.999999999990898e-05,-1.6666666666775853e-05,-1.4285714285744433e-05,-0.00023747887234581988,-6.695179010574037e-05,-0.0001325295478795535
152840000000.0,5,-0.0027850886,-0.0409525704,0.029557243100000002,0.004445,-0.003881,-0.006773,-0.18336474169999997,-3.4303661699999997,-9.185300655999999,-0.01996,0.35735,-1.3282,-3.333333333332966e-05,-3.333333333310762e-05,-1.4285714285522388e-05,-0.00027446995528634943,-0.00019924907833512862,-0.00017885634127857986
152840000000.0,5,0.0161221326,-0.05684915005,0.036235571749999994,0.00553,-0.007076,-0.017438,-0.18341377495,-3.430954569,-9.185104523,-0.019966,0.35742,-1.3283,-3.333333333332966e-05,-3.333333333355171e-05,-1.4285714285744433e-05,9.064167902789189e-05,0.0002463473221121504,-0.00023656698619876904
152840000000.0,5,0.0338329425,-0.0784924266,0.02737036015,0.003393,-0.008123,-0.018507,-0.18347261485,-3.4314449015,-9.184908389999999,-0.019972,0.35747,-1.3285,-3.333333333332966e-05,-3.333333333310762e-05,-1.4285714285744433e-05,-0.0003541114777484422,0.0001287177461193334,-0.00024567182550273847
