Time,placement_label,user_acc_x(m/s^2),user_acc_y(m/s^2),user_acc_z(m/s^2),rotation_rate_x(rad/s),rotation_rate_y(rad/s),rotation_rate_z(rad/s),gravity_x(m/s^2),gravity_y(m/s^2),gravity_z(m/s^2),attitude_roll(rad),attitude_pitch(rad),attitude_yaw(rad),target_delta_x,target_delta_y,target_delta_z,target_delta_roll,target_delta_pitch,target_delta_yaw
149700000000.0,6,0.0015396440499999998,-0.11080533834999999,-0.4810750224,-0.032378,-0.007719,0.000706,-0.022486648449999997,-0.57752342515,-9.789586429,-0.002297,0.058925,-1.8615,0.0,0.0,0.0,0.0,0.0,0.0
149700000000.0,6,0.0096497436,-0.01697531115,-0.25968989865,-0.00359,-0.010088,0.00076,-0.0234182802,-0.5763368205,-9.7896844955,-0.002392,0.058804,-1.8615,3.999999999892978e-06,-1.42857142870767e-06,-2.0000000000020002e-05,-0.0005715084610267915,-0.00044358470272176653,5.545693651727579e-05
149700000000.0,6,0.03792231555,0.09656608254999999,0.0671559392,0.01343,-0.015556,0.001867,-0.024153778949999996,-0.5757091948999999,-9.7896844955,-0.002467,0.05874,-1.8615,4.000000000115023e-06,-1.4285714282635809e-06,-4.999999999921734e-06,0.0002733701366724878,0.0002071309368814056,-0.00017321324716029762
149700000000.0,6,0.0442279915,0.054024834849999995,0.21240223235,0.006005,-0.010167,0.001844,-0.025369803549999997,-0.5765525667999999,-9.7896844955,-0.002592,0.058826,-1.8614,3.999999999892978e-06,-1.42857142870767e-06,-5.000000000032756e-06,0.00026178252527094686,0.00021298491046439771,0.000192038110721382
149700000000.0,6,0.009590903699999999,-0.0077374468499999995,0.1256427998,-0.007822,-0.004725,0.001811,-0.02589936265,-0.5760033943999999,-9.7896844955,-0.002646,0.058769,-1.8614,4.000000000115023e-06,-1.42857142870767e-06,2.0000000000020002e-05,-0.00012913217523841114,-0.00017863422818686914,-8.643666127788885e-05
149700000000.0,6,-0.04315906665,-0.023908612699999998,0.0363434449,-0.004604,-0.00262,0.001813,-0.026272015349999997,-0.57538557545,-9.7896844955,-0.002683,0.058707,-1.8614,3.999999999892978e-06,-1.42857142870767e-06,2.0000000000020002e-05,-0.000585394373338842,-0.00022196054766476792,0.00016646647571225137
149700000000.0,6,-0.04211956175,-0.0077864801,0.0578984616,-0.003529,-0.001564,0.001813,-0.027164420499999998,-0.5752090557499999,-9.789782562,-0.002775,0.058688,-1.8614,4.000000000115023e-06,-1.4285714282635809e-06,1.999999999990898e-05,2.9695292624663805e-05,8.076119621969191e-05,0.00013961289757069562
149700000000.0,6,-0.01122861425,5.88399e-05,0.1027933053,0.000735,-0.002664,0.000755,-0.0273801668,-0.5751207959,-9.789782562,-0.002796,0.05868,-1.8614,3.999999999892978e-06,-1.42857142870767e-06,3.0000000000085514e-05,0.0005121344866901509,0.0004330761108899406,-7.995368261934366e-05
149700000000.0,6,0.01673995155,0.01013026945,0.07807074064999998,0.006034,-0.005907,0.002904,-0.027811659399999997,-0.5756111284,-9.7896844955,-0.002841,0.058729,-1.8614,4.000000000115023e-06,-1.42857142870767e-06,-6.666666666710341e-06,-0.0009078662071940191,-0.00029088483931349884,-6.9138947421665264e-06
149700000000.0,6,0.027448813349999997,0.0078060934,-0.0087279185,-0.00036,-0.006916,-0.000307,-0.0284981249,-0.57583668135,-9.7896844955,-0.002911,0.058752,-1.8613,3.999999999892978e-06,-1.4285714282635809e-06,-6.666666666599319e-06,0.0004605488891409881,-2.0536293239947767e-05,-6.509777582847098e-05
149700000000.0,6,0.041854782199999996,-0.02009382585,-0.1065590589,-0.012104,-0.007884,-0.000326,-0.028390251749999998,-0.57516982915,-9.7896844955,-0.0029,0.058684,-1.8613,4.000000000115023e-06,-1.42857142870767e-06,-6.666666666710341e-06,-8.51020446940437e-05,8.147919534606807e-05,4.2572055529738195e-05
149700000000.0,6,0.02560516315,-0.035696206,-0.07863952635,-0.014221,-0.005736,-0.000333,-0.029047297299999997,-0.5737772848499999,-9.789782562,-0.002968,0.058542,-1.8614,3.999999999892978e-06,-1.42857142870767e-06,2.0000000000020002e-05,-0.0003476135565930044,1.3261218816174036e-05,-1.5895551449651713e-05
149700000000.0,6,-0.00605070305,-0.0079629998,0.0645865969,-0.000311,0.000541,0.001815,-0.0291061372,-0.5733752122,-9.789782562,-0.002974,0.058501,-1.8613,4.000000000115023e-06,-1.4285714282635809e-06,-2.0000000000020002e-05,-3.671295856055856e-05,-0.000374620703847528,-4.516428051884458e-05
149700000000.0,6,-0.02689964095,0.0281646988,0.2086266721,0.010363,0.000454,0.000766,-0.0290669106,-0.5743362638999999,-9.789782562,-0.002969,0.0586,-1.8613,3.999999999892978e-06,-1.42857142870767e-06,-2.0000000000020002e-05,0.0004819314546687242,0.0006259570933486724,4.613685228044284e-05
149700000000.0,6,-0.0013729309999999998,0.007698220249999999,0.1901901701,0.002923,0.002649,-0.001386,-0.0290080707,-0.57497369615,-9.789782562,-0.002963,0.058664,-1.8613,4.000000000115023e-06,-1.42857142870767e-06,2.999999999997449e-05,0.0002625199770175182,-0.0001310285791742416,-0.00015170861742962172
149700000000.0,6,0.0272036471,-0.030057382249999997,0.03562755945,-0.005629,0.000588,-0.001397,-0.02899826405,-0.5746304634,-9.789782562,-0.002962,0.058629,-1.8613,3.999999999892978e-06,-1.4285714282635809e-06,9.99999999995449e-06,2.2195726769910773e-05,0.00015203420288578684,0.00028846295084576645
149700000000.0,6,0.0373241099,-0.024928504299999998,-0.0598009517,-0.004593,-0.002618,-0.000322,-0.029096330549999997,-0.57391457795,-9.789782562,-0.002972,0.058557,-1.8613,4.000000000115023e-06,-1.42857142870767e-06,1.0000000000065512e-05,-5.741468346091849e-05,0.00012495483592367407,-0.00023882552948949198
149700000000.0,6,0.021908056099999997,0.0058447633999999995,-0.020270345549999996,-0.000335,-0.003718,-0.000313,-0.02893942415,-0.5735713452,-9.789782562,-0.002956,0.058522,-1.8613,3.999999999892978e-06,-1.42857142870767e-06,2.999999999997449e-05,3.081540238153435e-05,7.054969239361775e-05,0.00011166258810749174
149700000000.0,6,0.00183384355,0.01466094175,0.054250387799999994,0.002871,-0.003743,-0.001375,-0.029214010349999996,-0.5735615385499999,-9.789782562,-0.002984,0.05852,-1.8614,4.000000000115023e-06,-1.42857142870767e-06,-1.999999999990898e-05,-2.3849364108416427e-05,-0.00021926323895726796,-8.96480353108492e-05
149700000000.0,6,-0.0069234948999999995,-0.0001176798,0.04661100745,-0.001407,-0.00371,0.000753,-0.02974356945,-0.5735909585,-9.789782562,-0.003038,0.058523,-1.8614,3.999999999892978e-06,-1.4285714282635809e-06,-3.0000000000085514e-05,-5.963208557543953e-05,5.578743360312721e-05,2.2891177511558114e-05
149700000000.0,6,-0.0011571847,0.0009610516999999999,0.00683523505,-0.004588,-0.002616,-0.001389,-0.02995931575,-0.5731692725499999,-9.789880628499999,-0.003061,0.058481,-1.8614,4.000000000115023e-06,-1.42857142870767e-06,1.0000000000065512e-05,-0.00029598153548603817,-0.00018040237271121917,-5.2745989817165606e-05
149700000000.0,6,-0.002157463,0.00252030905,0.00818855275,-0.001396,-0.003708,-0.001382,-0.0303221618,-0.57293391295,-9.789880628499999,-0.003097,0.058457,-1.8614,3.999999999892978e-06,-1.42857142870767e-06,9.99999999995449e-06,-0.0005320333919855355,-0.00018308420725299257,0.00012196413744934576
149700000000.0,6,-0.0062174160999999995,0.0037559469499999997,0.04201168859999999,-0.000304,-0.000521,-0.001386,-0.0304398416,-0.5728260397999999,-9.789880628499999,-0.00311,0.058445,-1.8614,4.000000000115023e-06,-1.4285714282635809e-06,-2.0000000000020002e-05,0.001101567593682247,-0.00012548870845585647,-0.0004176037049533482
149700000000.0,6,-0.01093441475,-0.0011179581,0.0844940964,0.002917,0.002648,-0.000318,-0.03050848815,-0.5731888858499999,-9.789880628499999,-0.003117,0.058483,-1.8614,3.999999999892978e-06,-1.42857142870767e-06,-9.99999999995449e-06,-0.0015081275801259314,-0.00018384874270549467,0.000494321980911705
149700000000.0,6,-0.012425025549999998,-0.0009708583499999999,0.07983593765000001,0.000775,0.0016,-0.00032,-0.03066539455,-0.573492892,-9.789782562,-0.003133,0.058513,-1.8614,4.000000000115023e-06,-1.42857142870767e-06,-2.999999999997449e-05,0.0005891912941044519,0.000451358453153361,-0.00031207667033472664
149700000000.0,6,-0.01213082605,0.0053936575,0.04735631285,0.001841,0.001591,-0.000318,-0.030812494299999996,-0.5735713452,-9.789782562,-0.003148,0.058521,-1.8614,3.999999999892978e-06,-1.42857142870767e-06,1.999999999990898e-05,-0.00012255079593124357,-0.00042010806569869885,-0.00017870908556893994
149700000000.0,6,-0.00748247395,0.014435388799999999,0.02478140455,0.000752,-0.000532,0.000751,-0.0309694007,-0.5733261789499999,-9.789782562,-0.003164,0.058496,-1.8614,-9.999999999998899e-05,-1.4285714282635809e-06,-6.666666666599319e-06,-0.00030006026891625515,0.0001193675414679074,0.0001613406735732209
149700000000.0,6,0.0027850886,-0.0035107806999999996,0.017730423199999998,-0.000301,0.000543,-0.00032,-0.030910560799999997,-0.573492892,-9.789782562,-0.003158,0.058514,-1.8614,-2.2222222222367805e-06,-1.42857142870767e-06,-6.666666666710341e-06,-0.00041557935322402567,-4.0728525736000165e-05,-1.0511138825539112e-05
149700000000.0,6,0.013503757049999999,-0.00987529655,0.004707192,-0.002443,-0.000504,-0.000322,-0.03086152755,-0.5735615385499999,-9.789782562,-0.003152,0.05852,-1.8614,-2.2222222222367805e-06,-1.42857142870767e-06,-6.666666666599319e-06,0.00021504592254220634,-0.00021125148888345713,9.060073680713931e-05
149700000000.0,6,0.007423634049999999,-0.00061781895,0.0102577559,-0.001378,0.00055,0.001813,-0.0307732677,-0.5733948255,-9.789782562,-0.003143,0.058503,-1.8614,-2.2222222222367805e-06,-1.4285714282635809e-06,1.999999999990898e-05,-4.6269689537442593e-07,3.985712468335123e-05,-5.0372348868399364e-05
149700000000.0,6,-0.0159063863,0.00577611685,0.042286274799999995,-0.000289,0.002674,0.000744,-0.0309301741,-0.57334579225,-9.789782562,-0.00316,0.058499,-1.8614,-2.2222222222367805e-06,-1.42857142870767e-06,-1.999999999990898e-05,0.0003049486654635586,-0.0003720991293145737,-0.00029920899151787694
149700000000.0,6,-0.0243989452,0.00234378935,0.06651850695,0.001845,0.002656,0.000747,-0.0312636002,-0.5735125053,-9.789782562,-0.003194,0.058515,-1.8614,-2.2222222222367805e-06,-1.42857142870767e-06,-2.0000000000020002e-05,-0.0004663208886099071,-5.832746787670651e-05,0.00017834785218652505
149700000000.0,6,-0.02897865075,-0.0020790098,0.08774990419999999,0.000792,0.00373,-0.000324,-0.03146953985,-0.5737282516,-9.789782562,-0.003215,0.058538,-1.8613,-2.2222222222367805e-06,-1.4285714282635809e-06,-9.99999999995449e-06,0.00044587503678532314,0.0004708053664104206,1.8483444992445364e-05
149700000000.0,6,-0.0101793027,0.0083552658,0.0762172838,0.001848,0.003719,0.001813,-0.031420506599999995,-0.5738361247499999,-9.789782562,-0.003209,0.058548,-1.8613,-2.2222222222367805e-06,-1.42857142870767e-06,-1.0000000000065512e-05,-0.0004597426416026937,-0.00011967717733729621,0.00011913479506733826
149700000000.0,6,0.015347407249999999,0.00363826715,0.05002372164999999,0.001845,0.002655,0.000747,-0.030910560799999997,-0.5740616776999999,-9.789782562,-0.003157,0.058571,-1.8613,-2.222222222014736e-06,-1.42857142870767e-06,9.99999999995449e-06,0.0005454993682731946,2.4084344919517164e-05,-0.00013846732426625596
149700000000.0,6,0.021849216199999997,0.0007453054,0.03131263345,0.000761,0.000533,0.000749,-0.0303810017,-0.5741597442,-9.789782562,-0.003104,0.058581,-1.8613,-2.2222222222367805e-06,-1.4285714282635809e-06,-1.999999999990898e-05,-0.0009521997659972456,-0.0001885761021089838,-0.00010325821205478536
149700000000.0,6,0.0232025339,-0.010895188149999999,0.00542307745,-0.001376,-0.000513,-0.00032,-0.0299298958,-0.5741793574999999,-9.789782562,-0.003058,0.058584,-1.8613,-2.2222222222367805e-06,-1.42857142870767e-06,5.999999999994898e-05,0.0016426336962068189,0.0006118521120119791,0.0002796515908365105
149700000000.0,6,-0.000392266,-0.014543261949999999,-0.029439563299999996,-0.002417,0.002692,-0.000327,-0.029831829299999998,-0.57413032425,-9.789782562,-0.003047,0.058579,-1.8613,-2.2222222222367805e-06,-1.42857142870767e-06,2.0000000000020002e-05,-0.0011634267479591273,-0.0001984282916585034,0.00011941799700594669
149700000000.0,6,-0.01160126695,-0.0041776329,0.004236472799999999,0.000761,0.000534,0.000749,-0.02999854235,-0.5740224510999999,-9.789782562,-0.003064,0.058568,-1.8613,-2.2222222222367805e-06,-1.42857142870767e-06,3.3333333333551707e-06,0.0010011097159743354,0.0003267729220697291,-6.966755522447299e-05
149700000000.0,6,-0.0050013915,-0.00448163905,0.0637628383,0.002889,-0.001613,-0.001378,-0.030312355149999998,-0.5744735569999999,-9.789782562,-0.003096,0.058613,-1.8613,-2.2222222222367805e-06,-1.4285714282635809e-06,3.3333333332441484e-06,-1.9306737188320988e-05,0.0001816858133203425,-1.1572439437626536e-05
149700000000.0,6,0.0169262779,-0.0028439284999999996,0.05343643585,-0.000317,-0.001587,-0.000316,-0.030096608849999998,-0.57460104345,-9.789782562,-0.003074,0.058627,-1.8613,-2.2222222222367805e-06,-1.42857142870767e-06,3.3333333333551707e-06,-0.00028335189677217154,-0.00039591205997080436,-9.670916808718344e-05
149700000000.0,6,0.034715541,-0.00330484105,-0.011640493549999999,-0.004636,-0.007945,-0.000313,-0.030076995549999996,-0.5742970373,-9.789782562,-0.003072,0.058596,-1.8614,-2.2222222222367805e-06,-1.42857142870767e-06,-9.99999999995449e-06,-0.0005061679151631554,-0.00014883200591375711,9.165340971285796e-05
149700000000.0,6,0.03745159635,-0.0020986231,-0.05963423864999999,-0.005706,-0.008999,-0.00138,-0.0302633219,-0.5736988316499999,-9.789782562,-0.003092,0.058535,-1.8614,-2.2222222222367805e-06,-1.4285714282635809e-06,9.99999999995449e-06,0.0007682629202625801,0.0003137951661109639,5.552011646903221e-05
149700000000.0,6,0.02111371745,-0.00328522775,-0.02848831825,-0.00461,-0.004747,-0.000318,-0.03039080835,-0.5732771457,-9.789782562,-0.003104,0.058491,-1.8614,-2.2222222222367805e-06,-1.42857142870767e-06,-2.999999999997449e-05,-0.001328043922515676,-0.0005006048105489214,-0.00021895997714035942
149700000000.0,6,-0.01328801075,0.00171616375,0.06817583079999999,0.000755,-0.001593,-0.001382,-0.030851720899999997,-0.5731790792,-9.789880628499999,-0.003151,0.058481,-1.8614,-2.2222222222367805e-06,-1.42857142870767e-06,-2.5000000000052758e-05,0.000846515901120469,0.00012715836763010913,0.00021754740972150521
149700000000.0,6,-0.045463629400000004,0.01568083335,0.13998992875,0.005068,0.004763,-0.000318,-0.03144992655,-0.5733850188499999,-9.789782562,-0.003212,0.058502,-1.8614,-2.2222222222367805e-06,-1.42857142870767e-06,-2.4999999999941735e-05,-0.0003125399318099284,-0.0004080783548536804,-0.00011192977637412838
149700000000.0,6,-0.056270557699999994,0.017848103,0.1749898626,0.007239,0.010071,0.000744,-0.03156760635,-0.5737478649,-9.789782562,-0.003225,0.058539,-1.8614,-2.2222222222367805e-06,-1.4285714282635809e-06,-2.999999999997449e-05,0.0006754289275231265,0.00012429041451200717,-0.0001456331244278769
149700000000.0,6,-0.022584714949999998,0.0059624432,0.16073099349999997,0.006191,0.011147,-0.001395,-0.0308321076,-0.5744343304,-9.789782562,-0.003149,0.058609,-1.8614,-2.2222222222367805e-06,-1.42857142870767e-06,-2.0000000000020002e-05,-0.0003388769033705885,-0.00010102898865360643,6.197775262942185e-05
149700000000.0,6,0.0070804013,0.009051537949999999,0.13496892394999999,0.007287,0.0154,-0.000333,-0.029223817,-0.57497369615,-9.789782562,-0.002985,0.058665,-1.8614,-2.2222222222367805e-06,-1.42857142870767e-06,-2.0000000000020002e-05,0.00029151934687302733,0.00010790876068123012,-7.047575888280422e-05
149700000000.0,6,0.0108069283,0.00540346415,0.10589220669999999,0.008311,0.010063,-0.000322,-0.02786069265,-0.5758268746999999,-9.7896844955,-0.002846,0.058751,-1.8614,-2.222222222014736e-06,-1.4285714282635809e-06,1.0000000000065512e-05,-7.079973330170741e-05,-2.9692892255850367e-05,-1.9978041584267636e-05
149700000000.0,6,0.01354298365,0.0039814999,0.03074384775,0.00404,0.009034,-0.001395,-0.026713314599999996,-0.57634662715,-9.7896844955,-0.002729,0.058805,-1.8614,-2.2222222222367805e-06,-1.42857142870767e-06,-1.0000000000065512e-05,7.472824145227791e-05,-3.395618210011442e-05,0.00016520275579920418
149700000000.0,6,0.0035107806999999996,-0.00459931885,-0.0802576236,-0.004548,0.003775,0.000734,-0.026105302299999997,-0.57599358775,-9.7896844955,-0.002667,0.058769,-1.8614,-2.2222222222367805e-06,-1.42857142870767e-06,2.0000000000020002e-05,-0.00031907414948176976,-0.0001372022592431854,-0.00018967111064341347
149700000000.0,6,-0.0103165958,-0.0255757432,-0.12215163239999999,-0.00459,-0.001553,0.000744,-0.0263406619,-0.57581706805,-9.7896844955,-0.002691,0.058751,-1.8614,-2.2222222222367805e-06,-1.4285714282635809e-06,-2.0000000000020002e-05,-0.00011486163322545206,2.1721002336105855e-05,6.98429477345025e-05
149700000000.0,6,0.0017259703999999998,-0.013817569850000001,-0.07007832089999999,-0.001389,-0.001579,0.000749,-0.0264191151,-0.5759053278999999,-9.7896844955,-0.002699,0.05876,-1.8614,-2.2222222222367805e-06,-1.42857142870767e-06,2.0000000000020002e-05,0.00037592914688163587,0.000250586204598946,-2.0216050268792585e-05
149700000000.0,6,0.00862004535,-9.80665e-05,-0.009169217749999998,-0.003529,-0.001562,0.001813,-0.026428921749999997,-0.5757091948999999,-9.7896844955,-0.0027,0.058739,-1.8614,-2.2222222222367805e-06,-1.42857142870767e-06,-2.999999999997449e-05,-0.00025669979301486123,-0.00030038540616295073,0.00018132621825081574
149700000000.0,6,0.02625240205,0.0089828914,0.0462089348,0.001828,0.000526,0.000751,-0.02595820255,-0.57550325525,-9.7896844955,-0.002652,0.058719,-1.8614,-2.2222222222367805e-06,-1.4285714282635809e-06,9.99999999995449e-06,0.0004011856328825156,0.0002719171092648853,-0.00010295173071415975
149700000000.0,6,0.030498681499999996,0.011287454149999999,0.07583482445,0.002892,-0.000546,-0.000312,-0.025409030149999998,-0.57556209515,-9.7896844955,-0.002595,0.058725,-1.8614,-2.2222222222367805e-06,-1.42857142870767e-06,1.0000000000065512e-05,-1.8174445539642647e-05,-0.00019136949527398528,-2.379207368619074e-05
149700000000.0,6,0.020005566,0.0034715540999999996,0.08899534875,0.001842,0.001594,-0.000318,-0.024948117599999996,-0.57583668135,-9.7896844955,-0.002548,0.058753,-1.8614,-2.2222222222367805e-06,-1.42857142870767e-06,-1.0000000000065512e-05,0.0005415068226427844,0.00032765068395979036,7.607283533403453e-05
149700000000.0,6,0.0017946169499999999,-0.0028243152,0.05995785809999999,0.000787,0.003733,0.000744,-0.02454604495,-0.57597397445,-9.7896844955,-0.002507,0.058767,-1.8614,-2.2222222222367805e-06,-1.42857142870767e-06,-5.999999999994898e-05,-0.0011541626194956425,-0.0007705709491059309,-0.000157165223983749
149700000000.0,6,-0.0097281968,-0.00844352565,0.03913834014999999,-0.000266,0.004808,-0.000327,-0.024242038799999997,-0.57618972075,-9.7896844955,-0.002476,0.058789,-1.8614,-2.2222222222367805e-06,-1.4285714282635809e-06,9.99999999995449e-06,0.00010688306678942328,0.00013332417758116222,7.725726114032883e-05
149700000000.0,6,-0.00752170055,-0.0033832942499999997,0.0578200084,0.005068,0.004764,-0.000318,-0.02389880605,-0.5766114067,-9.7896844955,-0.002441,0.058832,-1.8614,-2.2222222222367805e-06,-1.42857142870767e-06,1.4999999999987246e-05,0.0006771002668292531,0.00034314823503067693,-5.339252515057513e-05
149700000000.0,6,-0.0070804013,0.0039618866,0.08114022209999999,0.005091,0.006896,-0.001389,-0.0234378935,-0.5770821259,-9.789586429,-0.002395,0.05888,-1.8614,-2.2222222222367805e-06,-1.42857142870767e-06,1.4999999999987246e-05,0.00048815686292422167,0.0004962839310582723,0.00035165249482363437
149700000000.0,6,0.009208444349999999,6.864654999999999e-05,0.0576434887,-0.001297,0.008016,-0.00247,-0.022525875049999998,-0.577219419,-9.789586429,-0.002301,0.058894,-1.8614,-2.2222222222367805e-06,-1.4285714282635809e-06,-7.999999999996898e-05,-0.0009580310091344066,-0.000907728941758057,-0.00034265603353896
149700000000.0,6,0.019436780299999998,-0.00559959715,0.03339164325,0.000825,0.005868,-0.00353,-0.021525596749999997,-0.57738613205,-9.789586429,-0.002199,0.058911,-1.8614,-2.2222222222367805e-06,-1.42857142870767e-06,4.999999999999449e-05,0.0005115926617692487,0.0007547725599756916,0.00032449841427016624
149700000000.0,6,0.01271922505,0.00093163175,0.0311459204,0.00082,0.005868,-0.002462,-0.0206528049,-0.57748419855,-9.789586429,-0.00211,0.058921,-1.8614,-2.222222222014736e-06,-1.42857142870767e-06,-9.99999999995449e-06,0.0004961630384976087,9.602727763802221e-05,0.00010445345338799816
149700000000.0,6,0.0012356379,0.009208444349999999,0.06465524345,0.002957,0.006914,-0.001393,-0.01993691945,-0.57768033155,-9.789586429,-0.002037,0.058941,-1.8614,-2.2222222222367805e-06,-1.42857142870767e-06,9.99999999995449e-06,0.00024349176381271986,0.00025534797922044383,-4.436583719252818e-05
149700000000.0,6,-0.005933023249999999,0.009483030549999999,0.052230217899999994,0.001876,0.005857,-0.000325,-0.0193583271,-0.5778078179999999,-9.789586429,-0.001977,0.058954,-1.8614,-2.2222222222367805e-06,-1.4285714282635809e-06,-4.999999999999449e-05,-0.0010657115029065814,-0.000647802334873715,8.678203129997009e-06
149700000000.0,6,0.0017063571,-0.0030596748,0.028566771449999997,0.001899,0.007989,-0.001397,-0.01846592195,-0.57813143745,-9.789586429,-0.001886,0.058988,-1.8615,-2.2222222222367805e-06,-1.42857142870767e-06,2.999999999997449e-05,0.00027887422138946766,0.0004014774546452493,-3.066626860594168e-05
149700000000.0,6,-0.0150434011,-0.02005459925,0.026752541199999997,-0.001307,0.008014,-0.000335,-0.01787752295,-0.5784942835,-9.789586429,-0.001827,0.059024,-1.8615,-2.2222222222367805e-06,-1.42857142870767e-06,-3.999999999992898e-05,1.7191998378990325e-05,-0.0003285703312887467,-0.0002604865626796571
149700000000.0,6,-0.02103526425,-0.0119248864,0.01611232595,0.000796,0.004798,0.000742,-0.01772061655,-0.57870022315,-9.789586429,-0.00181,0.059045,-1.8614,-2.2222222222367805e-06,-1.4285714282635809e-06,-1.0000000000065512e-05,0.0003339997613536552,-0.00010732606856667104,0.000350386323760124
149700000000.0,6,-0.0121798593,-0.007119627899999999,0.0141608026,0.001863,0.004789,0.000744,-0.017298930599999998,-0.5788669362,-9.789586429,-0.001767,0.059062,-1.8614,-2.2222222222367805e-06,-1.42857142870767e-06,1.0000000000065512e-05,0.00031422147130799605,0.0004980727705594656,0.00017099847581658612
149700000000.0,6,-0.0023732093,-0.00075511205,0.025369803549999997,0.001919,0.011184,-0.000335,-0.01632807225,-0.57909248915,-9.789488362499998,-0.001668,0.059086,-1.8615,-2.2222222222367805e-06,0.00010000000000021103,1.999999999990898e-05,0.0002547962513048535,-9.864914432933247e-05,-0.0002529735538370492
149700000000.0,6,0.0052563644,0.00962032365,0.06665580004999999,0.005081,0.006894,0.000746,-0.015288567349999999,-0.57928862215,-9.789488362499998,-0.001561,0.059106,-1.8615,1.666666666655381e-05,-0.00010000000000021103,-5.999999999994898e-05,-8.126771510824637e-06,-6.019154833092344e-05,-0.00017599808770735192
149700000000.0,6,-0.0078060934,0.01328801075,0.12812388225,0.008293,0.008998,0.001815,-0.01464132845,-0.579965281,-9.789488362499998,-0.001495,0.059174,-1.8614,1.6666666666775853e-05,1.2499999999970868e-05,9.99999999995449e-06,3.8059426345084246e-05,-0.00024784342615324917,0.0002558758329437444
149700000000.0,6,-0.0087475318,0.01058137535,0.0661556609,0.001897,0.009052,0.000736,-0.013846989799999999,-0.5802496738499999,-9.789488362499998,-0.001414,0.059203,-1.8614,1.6666666666775853e-05,1.2499999999970868e-05,1.0000000000065512e-05,0.00032281831457297433,0.00025981977549061064,-0.00023217727735248828
149700000000.0,6,-0.017475450299999997,-0.007060788,-0.01464132845,-0.003455,0.006964,0.000731,-0.013356657299999998,-0.5801221874,-9.789488362499998,-0.001364,0.05919,-1.8614,1.666666666655381e-05,1.2499999999970868e-05,9.99999999995449e-06,0.00011934657128037651,5.569795922655274e-05,0.0002638476509505827
149700000000.0,6,0.00583495675,-0.02899826405,-0.05116129305,-0.002404,0.004825,0.000736,-0.01271922505,-0.5803281270499999,-9.789488362499998,-0.0013,0.059212,-1.8614,1.666666666655381e-05,1.2500000000414957e-05,1.0000000000065512e-05,1.6915570166593785e-05,0.00023251187677342244,-0.00025121087733810665
149700000000.0,6,0.03035158175,-0.014043122799999998,-0.030076995549999996,0.000749,-0.00053,0.001819,-0.012091599449999999,-0.58062232655,-9.789488362499998,-0.001235,0.059241,-1.8614,1.6666666666775853e-05,1.2499999999970868e-05,-4.0000000000040004e-05,0.00010024701007674969,-0.00021165515961629744,0.00025637641690519353
149700000000.0,6,0.0417371024,0.018240369,0.007649186999999999,-0.000305,0.000546,0.000748,-0.011365907350000001,-0.5802790938,-9.789488362499998,-0.001161,0.059206,-1.8614,-9.999999999998899e-05,1.2499999999970868e-05,2.0000000000020002e-05,2.947858693714417e-05,0.00025996703678243804,-0.00018924817904397706
149700000000.0,6,0.036853390699999995,0.013503757049999999,0.016945891199999997,-0.001375,-0.000509,-0.00032,-0.0106696352,-0.5800339275499999,-9.789488362499998,-0.001089,0.059181,-1.8614,-3.999999999892978e-06,1.2499999999970868e-05,-1.0000000000065512e-05,-0.00013339311977851598,-0.00035784165203600615,0.00016046979322088817
149700000000.0,6,0.011611073599999999,0.0010002783,0.01770100325,-0.001358,0.001622,-0.000324,-0.010404855650000001,-0.5799456677,-9.789488362499998,-0.001063,0.059173,-1.8614,-4.000000000115023e-06,1.2499999999970868e-05,-9.99999999995449e-06,0.00025886536764946344,-3.8398277802276226e-05,-9.026160534994498e-05
149700000000.0,6,0.012121019399999999,-0.006766588499999999,0.035048967099999995,-0.001349,0.002688,-0.000325,-0.00987529655,-0.579965281,-9.789488362499998,-0.001009,0.059175,-1.8614,-3.999999999892978e-06,-4.999999999988347e-05,-9.99999999995449e-06,-0.0003592799952784678,-1.3539681865237796e-05,8.735790832468948e-05
149700000000.0,6,-0.01065982855,0.0013925443,0.07230443045,0.001863,0.004792,0.000744,-0.009688970199999999,-0.5800437342,-9.789488362499998,-0.00099,0.059183,-1.8614,-4.000000000115023e-06,-5.000000000032756e-05,9.99999999995449e-06,-3.495190538334997e-05,6.782614990674674e-05,-8.761946925932296e-05
149700000000.0,6,-0.0376183094,0.0117287534,0.0995178842,0.006149,0.005824,-0.001385,-0.00981645665,-0.5805046467499999,-9.789488362499998,-0.001003,0.059229,-1.8614,-3.999999999892978e-06,9.090909090847532e-06,2.0000000000020002e-05,-7.150966473565973e-05,5.4937479249561605e-05,8.816893394154868e-05
149700000000.0,6,-0.0146511351,0.0039128533499999995,0.08018897705,0.00294,0.004784,-0.001389,-0.009590903699999999,-0.58091652605,-9.789390295999999,-0.00098,0.059272,-1.8614,-4.000000000115023e-06,9.090909090847532e-06,-1.0000000000065512e-05,0.0002836880360167285,-0.0002702439475572582,-8.67720328500271e-05
149700000000.0,6,0.0192602606,-0.004971971549999999,0.0034323275,-0.003486,0.001641,-0.001395,-0.009080957899999999,-0.5807105864,-9.789488362499998,-0.000928,0.059251,-1.8615,-3.999999999892978e-06,9.090909091291621e-06,-1.999999999990898e-05,-6.425153613943968e-05,0.0002901271398263461,-9.188190712007549e-05
149700000000.0,6,0.02083913125,-0.0030204482,-0.03678474415,-0.004556,0.000586,-0.002462,-0.008865211599999999,-0.5802692871499999,-9.789488362499998,-0.000906,0.059206,-1.8615,-4.000000000115023e-06,9.090909090847532e-06,2.999999999997449e-05,0.00021277687691032693,9.966266510974542e-05,0.0001249815484342942
149700000000.0,6,0.011856239849999999,0.01171894675,0.00032361945,0.003959,-0.000552,-0.00031,-0.008708305199999999,-0.5802006406,-9.789488362499998,-0.00089,0.059198,-1.8615,-3.999999999892978e-06,9.090909090847532e-06,-4.0000000000040004e-05,-0.00015072214356188357,-0.00011931803940345986,-5.440774395218395e-05
149700000000.0,6,-0.010424468949999998,0.0155925735,0.05718257615,0.003981,0.00158,-0.001382,-0.008737725149999999,-0.5803281270499999,-9.789488362499998,-0.000892,0.059211,-1.8615,-4.000000000115023e-06,9.090909090847532e-06,2.0000000000020002e-05,9.011863606839948e-05,1.8872461845509392e-05,6.201338986611127e-05
149700000000.0,6,-0.018593408399999997,-0.00467777205,0.06524364245,-0.000283,0.002679,-0.000323,-0.008786758399999999,-0.58055368,-9.789488362499998,-0.000898,0.059235,-1.8615,-3.999999999892978e-06,9.090909090847532e-06,9.99999999995449e-06,6.724110742555023e-05,6.59463006793537e-05,2.1882830317232482e-05
149700000000.0,6,-0.022869107799999996,-0.006864655,0.032783630949999996,-0.002417,0.002696,-0.000327,-0.00885540495,-0.58046542015,-9.789488362499998,-0.000905,0.059226,-1.8615,-4.000000000115023e-06,9.090909090847532e-06,-3.3333333333551707e-06,-0.00019804591358384832,8.591802773771917e-05,-0.00011072510960816184
149700000000.0,6,-0.00530539765,-0.0029223816999999997,0.028733484499999996,-0.000319,-0.00052,0.001817,-0.0090613446,-0.5805144534,-9.789488362499998,-0.000925,0.059231,-1.8615,-3.999999999892978e-06,9.090909091291621e-06,-3.3333333332441484e-06,0.00034044976367155616,7.207383735785555e-05,0.0002481976352549653
149700000000.0,6,0.00385401345,0.0101793027,0.0437180457,-0.000291,0.001613,-0.000322,-0.0089436648,-0.5802987071,-9.789488362499998,-0.000913,0.059209,-1.8615,-4.000000000115023e-06,9.090909090847532e-06,-3.3333333333551707e-06,-0.0005623160870463842,-0.0004334108727424013,-0.0003513600213752993
149700000000.0,6,-0.00306948145,0.0015886773,0.0338329425,0.00075,-0.001592,-0.000314,-0.009051537949999999,-0.5803869669499999,-9.789488362499998,-0.000924,0.059217,-1.8615,-3.999999999892978e-06,9.090909090847532e-06,2.0000000000020002e-05,0.0005534838538352183,0.00020939022586774492,0.000289933986216212
149700000000.0,6,-0.007247114349999999,0.0027752819499999998,0.023065240799999998,-0.001358,0.001622,-0.000323,-0.0090613446,-0.5802202539,-9.789488362499998,-0.000926,0.059201,-1.8615,-4.000000000115023e-06,-0.00010000000000021103,-2.999999999997449e-05,-0.000147941630725755,-5.513243937826928e-06,-0.00015049393109474452
149700000000.0,6,-0.0144746154,0.01921122735,0.03399965555,0.000761,0.000538,0.00075,-0.009316317499999999,-0.5800535408499999,-9.789488362499998,-0.000951,0.059184,-1.8615,-3.999999999892978e-06,0.00010000000000021103,1.999999999990898e-05,2.1830804201664056e-06,-0.00015389571424107018,0.0001234196660540865
149700000000.0,6,-0.0252227038,0.009590903699999999,0.041335029749999995,0.000778,0.002668,0.000746,-0.0096497436,-0.5800045076,-9.789488362499998,-0.000985,0.059179,-1.8615,-4.000000000115023e-06,6.2500000002074785e-06,-5.999999999994898e-05,-0.0003642483844030764,-0.0003623071120786303,-0.000588188750838825
149700000000.0,6,-0.034607667849999996,0.0004903325,0.052848036849999995,0.001856,0.001583,0.000748,-0.009992976349999998,-0.5801810273,-9.789488362499998,-0.00102,0.059197,-1.8615,-3.999999999892978e-06,6.249999999763389e-06,-9.99999999995449e-06,0.00021130959507731362,-0.00012108742148586593,-7.097235806469149e-06
149700000000.0,6,-0.0253992235,0.0032558077999999997,0.043865145450000004,-0.00132,0.004805,0.000737,-0.010061622899999999,-0.5802496738499999,-9.789488362499998,-0.001028,0.059204,-1.8615,-4.000000000115023e-06,6.249999999763389e-06,-5.0000000000105516e-05,-0.0003466761688098244,0.00014390349443904604,0.00013822650696349026
149700000000.0,6,0.0029027683999999997,0.00246146915,0.0206724182,-0.000261,0.003731,0.00074,-0.009483030549999999,-0.58021044725,-9.789488362499998,-0.000969,0.059199,-1.8615,-3.999999999892978e-06,6.2500000002074785e-06,-2.999999999997449e-05,-0.00031251165208204257,-0.00023681953620369178,0.0004151472948876467
149700000000.0,6,0.01517088755,0.01065982855,0.05814362785,0.030852,0.02266,-0.003509,-0.007688413599999999,-0.5818187378499999,-9.789390295999999,-0.000785,0.059364,-1.8615,-4.000000000115023e-06,6.2500000002074785e-06,-7.00000000000145e-05,-5.220336427756711e-05,-0.00014649750580031373,-0.00016737493670460069
149700000000.0,6,0.0314989598,0.0635078654,0.29062987939999996,0.10226,0.013547,-0.002302,-0.00591340995,-0.5900857438,-9.7888999635,-0.000604,0.060208,-1.8615,-3.999999999892978e-06,6.249999999763389e-06,-2.999999999997449e-05,0.00037324885043769906,-0.0005111911079682674,0.0002750891240845821
149700000000.0,6,0.04766031899999999,0.1440989151,0.8447840576,0.073518,0.0255,0.002964,-0.0027752819499999998,-0.59674445915,-9.7885076975,-0.000283,0.060889,-1.8615,-4.000000000115023e-06,6.249999999763389e-06,1.0000000000065512e-05,-0.0003640429849001772,0.000385463145613274,3.962155246599319e-05
149700000000.0,6,-0.007727640199999999,0.0182011424,0.19340675129999998,0.012687,0.022806,0.001796,-0.00050013915,-0.59939225465,-9.788311564499999,-5.1e-05,0.061159,-1.8615,-3.999999999892978e-06,6.2500000002074785e-06,1.999999999990898e-05,0.0002112689820809241,1.2188419289183017e-05,-5.2442982146863604e-05
149700000000.0,6,0.0032950343999999998,-0.1275649032,-0.47017983425,-0.036389,0.024274,0.003844,0.0019417166999999998,-0.59833313645,-9.788409631,0.000198,0.061051,-1.8614,9.999999999998899e-05,6.2500000002074785e-06,-9.99999999995449e-06,0.0003323784180167752,-0.00036162504468584267,-8.91489430258352e-05
149700000000.0,6,-0.05779058844999999,-0.11438476560000001,-0.53727693355,-0.038589,0.014704,0.001722,0.0036284604999999998,-0.5944497030499999,-9.788605764,0.00037,0.060654,-1.8614,1.0000000000065512e-05,6.249999999763389e-06,5.999999999994898e-05,-0.00019535991040047634,0.00025706532699065754,-9.505449089364237e-05
149700000000.0,6,-0.055427185799999994,-0.05475052695,-0.28450072314999997,-0.030165,0.000781,0.001761,0.0039520799499999995,-0.59139002825,-9.788801896999999,0.000404,0.060342,-1.8614,9.999999999843467e-06,6.249999999763389e-06,-1.999999999990898e-05,0.00022401172624481047,0.00012773366104346096,-8.355277966165531e-05
149700000000.0,6,-0.008472945599999998,-0.005501530649999999,-0.18233504344999998,-0.050463,-0.006504,-0.004666,0.0033832942499999997,-0.5869181958499999,-9.7890960965,0.000346,0.059885,-1.8614,1.0000000000065512e-05,6.2500000002074785e-06,-1.0000000000065512e-05,0.00022349775988522724,0.0001464799489792057,0.00032767009039150197
149700000000.0,6,0.10267562549999999,-0.01573967325,-0.2265140017,-0.037663,-0.005544,-0.002511,0.004609125499999999,-0.58250520335,-9.789292229499999,0.000471,0.059434,-1.8615,1.0000000000065512e-05,6.2500000002074785e-06,1.0000000000065512e-05,-0.00010604568202660092,-0.00015824796167507316,-0.00025741123313613445
149700000000.0,6,0.0831800053,-0.02309466075,0.07985555094999999,0.000764,-0.002665,-0.001382,0.00436395925,-0.5815931848999999,-9.789390295999999,0.000446,0.05934,-1.8615,1.0000000000065512e-05,6.249999999763389e-06,-2.0000000000020002e-05,-4.649290588613908e-05,0.00032242588706021813,-0.00011971685498252116
149700000000.0,6,-0.00448163905,0.05184775855,0.46472733685,0.028477,-0.00609,-0.001328,0.0038834333999999996,-0.5839663942,-9.789292229499999,0.000397,0.059583,-1.8615,9.999999999843467e-06,6.249999999763389e-06,4.999999999999449e-05,0.00022526318137843643,-0.00017445346198208256,-0.0001695696470741942
149700000000.0,6,-0.026526988249999998,0.0610954295,0.42210763594999995,0.016725,-0.005997,0.001854,0.0033342610000000003,-0.58601598405,-9.7890960965,0.000341,0.059793,-1.8615,1.0000000000065512e-05,6.2500000002074785e-06,2.0000000000020002e-05,-1.5712882529619887e-05,0.00010219481965356714,-0.0002172485958382292
149700000000.0,6,-0.0546230405,-0.040177845049999994,-0.00122583125,-0.013195,-0.013208,-0.00032,0.0011964113,-0.5862023104,-9.7890960965,0.000123,0.059812,-1.8615,1.0000000000065512e-05,-9.999999999976694e-05,0.00010999999999994348,0.0005430173805883662,0.0006378984498920381,0.0007443707061398075
149700000000.0,6,-0.0012454445499999998,-0.08753415789999999,-0.38861792619999996,-0.031371,-0.017322,0.000723,-0.00040207264999999996,-0.5834466417499999,-9.789292229499999,-4.1e-05,0.05953,-1.8615,9.999999999843467e-06,-4.999999999988347e-05,2.999999999997449e-05,-0.0006151136715370001,8.27939306677905e-05,-0.00036919695765895433
149700000000.0,6,0.0341075287,-0.0732164489,-0.36229687759999996,-0.019695,-0.024877,0.000757,-0.00267721545,-0.58115188565,-9.789390295999999,-0.000274,0.059295,-1.8615,1.0000000000065512e-05,-5.000000000032756e-05,6.0000000000060005e-05,5.208709342549578e-05,-3.550231817062155e-05,0.0005241395984341424
149700000000.0,6,0.05547621904999999,0.008306232549999999,-0.0906722859,-0.004759,-0.025,0.000783,-0.00534462425,-0.5805242600499999,-9.789488362499998,-0.000546,0.059231,-1.8615,-4.999999999988347e-05,0.00010000000000021103,-2.999999999997449e-05,-0.0007143355620072289,-4.381631814132092e-05,-0.00043901254412789803
149700000000.0,6,0.041001603649999996,0.055103566349999994,0.12815330219999999,-0.001543,-0.022895,0.000785,-0.0068842683,-0.5795926283,-9.789488362499998,-0.000703,0.059136,-1.8615,-5.0000000000105516e-05,3.846153846076561e-06,5.999999999994898e-05,0.0005713251346543755,0.0005232940227053451,0.00036039640410047424
149700000000.0,6,0.0013337044,0.022790654599999998,0.20851879895,-0.0015,-0.017567,0.000776,-0.008816178349999999,-0.5794357218999999,-9.789488362499998,-0.000901,0.059121,-1.8614,1.999999999990898e-05,3.846153846076561e-06,-9.99999999995449e-06,-0.000387893249635847,-0.00046371596439098717,-0.0001797480171468191
149700000000.0,6,-0.0533285627,0.0040795664,0.16723280244999997,-0.003586,-0.012221,-0.000305,-0.01011065615,-0.5791415223999999,-9.789488362499998,-0.001033,0.05909,-1.8615,2.0000000000131024e-05,3.846153846076561e-06,5.999999999994898e-05,0.0005387345379731651,0.0006200763345813876,3.558603772042812e-05
149700000000.0,6,-0.09134894475,-0.0013631243499999997,0.10396029664999999,-0.005702,-0.010072,-0.000312,-0.011159967699999999,-0.5786315766,-9.789586429,-0.00114,0.059038,-1.8614,1.999999999990898e-05,3.84615384652065e-06,-2.999999999997449e-05,-0.0004093231303923181,-0.00047375421457762634,1.4453470695355297e-05
149700000000.0,6,-0.07357929495,-0.00481506515,0.0417174891,-0.002558,-0.016494,0.000772,-0.014258869099999998,-0.5784746702,-9.789586429,-0.001457,0.059022,-1.8614,2.0000000000131024e-05,3.846153846076561e-06,4.0000000000040004e-05,-0.0005623061975519594,-1.6602281196265167e-05,-0.00034366525021645167
149700000000.0,6,0.0016867438,0.00344213415,-0.0160044528,-0.006848,-0.018591,0.001836,-0.01605348605,-0.5779058845,-9.789586429,-0.001639,0.058964,-1.8614,1.999999999990898e-05,3.846153846076561e-06,3.999999999992898e-05,0.00016039426756956493,-0.000279020759444526,-0.00016241242026548974
149700000000.0,6,0.044443737799999994,0.01005181625,-0.054574007249999994,-0.006913,-0.026051,0.002916,-0.01840708205,-0.5771801924,-9.789586429,-0.00188,0.05889,-1.8614,-9.999999999998899e-05,3.846153846076561e-06,4.999999999999449e-05,-0.00017994073864269905,0.0004271251076555238,0.0003027270659933523
149700000000.0,6,0.0836114979,0.01999575935,-0.06111504279999999,-0.009028,-0.024965,0.000776,-0.0209077778,-0.57634662715,-9.7896844955,-0.002136,0.058805,-1.8614,9.999999999998899e-05,3.846153846076561e-06,-2.0000000000020002e-05,-0.0004550884607220501,-0.00043128419960702935,-6.053746229148227e-05
149700000000.0,6,0.07652128995,0.010875574849999998,-0.0070411747,-0.010063,-0.019631,0.002899,-0.022947561,-0.57530712225,-9.789782562,-0.002344,0.058698,-1.8613,5.555555555591951e-06,3.846153846076561e-06,4.999999999999449e-05,0.0005493145622657014,0.0004495177231176317,5.3496348925236026e-05
149700000000.0,6,0.00267721545,0.0180638493,0.10223432625,-0.002569,-0.016496,0.002907,-0.024673531399999997,-0.57456181685,-9.789782562,-0.00252,0.058623,-1.8613,5.555555555591951e-06,3.84615384652065e-06,3.0000000000085514e-05,-0.00033082573068336785,0.00019217856257736088,-7.921141437489121e-05
149700000000.0,6,-0.030273128549999997,0.009669356899999999,0.17988338095,0.000694,-0.008,0.003965,-0.0264387284,-0.5747089166,-9.789782562,-0.002701,0.058637,-1.8613,5.555555555591951e-06,3.846153846076561e-06,2.999999999997449e-05,0.0003929366329276651,0.00047152020385188287,0.00017771701591712263
149700000000.0,6,-0.02978279605,-0.010787315,0.1743033971,0.001758,-0.009073,0.002901,-0.028135278849999997,-0.5753365422,-9.7896844955,-0.002873,0.058702,-1.8612,5.5555555553699065e-06,3.846153846076561e-06,5.999999999994898e-05,0.00031541640663844406,0.00011001051210968171,0.00033776100049121016
149700000000.0,6,-0.00022555294999999998,-0.021368690349999997,0.0735891016,-0.00357,-0.009028,0.001825,-0.0291061372,-0.5755326752,-9.7896844955,-0.002973,0.058722,-1.8612,5.555555555591951e-06,3.846153846076561e-06,-3.999999999992898e-05,-0.00010726760133922958,-0.00025014289402158774,-8.062393043067884e-05
149700000000.0,6,0.028066632299999998,-0.013052651149999999,-0.012140632699999999,-0.00676,-0.008999,-0.000316,-0.029410143349999997,-0.57516982915,-9.7896844955,-0.003005,0.058685,-1.8612,5.555555555591951e-06,3.846153846076561e-06,2.999999999997449e-05,-0.000713271870416976,-0.0001606655442634164,-5.745408076671121e-05
149700000000.0,6,0.01130706745,-0.00771783355,0.0016475171999999999,-0.004604,-0.006885,-0.001383,-0.02986124925,-0.57481678975,-9.789782562,-0.00305,0.058649,-1.8612,5.555555555591951e-06,3.846153846076561e-06,-2.4999999999941735e-05,-0.0001598348153360532,-5.6475536921229974e-05,-4.376919761706066e-05
149700000000.0,6,-0.02095681105,0.00685484835,0.1013026945,0.001837,-0.002674,-0.002447,-0.0306752012,-0.5748756296499999,-9.789782562,-0.003133,0.058655,-1.8613,5.555555555591951e-06,3.846153846076561e-06,-2.5000000000052758e-05,-0.0004196791281141088,-0.00026945788633092604,-0.0001995203300228232
149700000000.0,6,-0.04361997919999999,0.013337044000000001,0.1769904192,0.006128,0.00155,-0.000312,-0.0314989598,-0.5753757688,-9.7896844955,-0.003218,0.058706,-1.8613,5.5555555553699065e-06,3.84615384652065e-06,4.999999999921734e-06,0.0007698207633643483,0.0005874767917242174,-0.0001036990947627936
149700000000.0,6,-0.03388197575,-7.845319999999999e-05,0.13132085015,-0.000273,0.001602,-0.000323,-0.0321069721,-0.57571900155,-9.7896844955,-0.00328,0.058741,-1.8613,5.555555555591951e-06,3.846153846076561e-06,5.000000000032756e-06,-0.0008370670669136174,-0.0007016247267195297,0.00010888683063824123
149700000000.0,6,0.011513007099999998,-0.028086245599999997,0.042727574049999995,-0.005624,-0.000485,-0.000329,-0.03186180585,-0.5760033943999999,-9.7896844955,-0.003255,0.05877,-1.8613,5.555555555591951e-06,3.846153846076561e-06,-9.99999999995449e-06,0.001067539503350902,0.0006999318261813325,6.483076406339772e-05
149700000000.0,6,0.04104083025,-0.025526709949999997,-0.007109821249999999,-0.002418,-0.00051,-0.001391,-0.031018433949999997,-0.5761603007999999,-9.7896844955,-0.003168,0.058786,-1.8613,5.555555555591951e-06,3.846153846076561e-06,2.0000000000020002e-05,-0.0005397901420517298,-0.0003894477708650257,5.103339177711663e-05
149700000000.0,6,0.048699823899999994,-0.009973363049999998,0.021309850449999997,-0.000306,-0.002658,-0.000316,-0.03029274185,-0.57630740055,-9.7896844955,-0.003094,0.058801,-1.8613,5.555555555591951e-06,3.846153846076561e-06,9.99999999995449e-06,0.00016187327089367542,7.321302240348437e-05,-0.0002922050568245349
149700000000.0,6,0.02593858925,0.0088455983,0.05259306394999999,-0.0003,-0.000529,0.001815,-0.029831829299999998,-0.57626817395,-9.7896844955,-0.003047,0.058797,-1.8613,5.555555555591951e-06,3.846153846076561e-06,-9.99999999995449e-06,0.0002983099464382438,0.00010227504539739307,5.004204902495091e-05
149700000000.0,6,-0.011856239849999999,0.012464252149999999,0.044963490249999995,0.000758,-0.001603,0.001819,-0.0301848687,-0.57615049415,-9.7896844955,-0.003084,0.058785,-1.8613,5.555555555591951e-06,3.84615384652065e-06,-2.0000000000020002e-05,-0.000494420475027374,-1.9864607810449186e-05,-7.891981287283523e-06
149700000000.0,6,-0.02580129615,-0.0005099458,0.02207476915,-0.002429,-0.000511,0.000744,-0.030753654399999997,-0.57605242765,-9.7896844955,-0.003142,0.058774,-1.8613,5.5555555553699065e-06,3.846153846076561e-06,2.999999999997449e-05,0.00014448989415470626,-0.00048007979269892864,-7.536052735440668e-05
149700000000.0,6,-0.02011343915,0.010002783,0.025085410699999998,-0.001357,-0.000519,-0.000321,-0.031214566949999998,-0.57564054835,-9.7896844955,-0.003188,0.058732,-1.8613,5.555555555591951e-06,3.846153846076561e-06,-2.999999999997449e-05,-0.00048390835351044825,0.0002971998992691294,0.000232649211776903
149700000000.0,6,-0.013405690549999998,0.0027458619999999995,0.04468890405,0.001835,-0.001611,-0.000314,-0.0316362529,-0.5757091948999999,-9.7896844955,-0.003232,0.05874,-1.8613,5.555555555591951e-06,3.846153846076561e-06,-0.00021999999999999797,-0.0045156639634874735,-0.0028371120219237156,-0.0008822706954560722
149700000000.0,6,-0.00589379665,-0.0004707192,0.06471408334999999,0.002911,-0.000554,-0.000314,-0.0318127726,-0.5760818475999999,-9.7896844955,-0.003249,0.058778,-1.8613,-5.0000000000105516e-05,2.4999999999941735e-05,-6.0000000000060005e-05,-0.0018547973158410322,-0.0010745918839900614,-0.00043055577025447045
149700000000.0,6,-0.016455558699999998,0.005491723999999999,0.04570879565,-0.000278,0.001602,0.000744,-0.0320285189,-0.57605242765,-9.7896844955,-0.003272,0.058775,-1.8613,-4.999999999988347e-05,2.4999999999941735e-05,3.0000000000085514e-05,-0.00022065630319776514,-1.8653524209932826e-05,0.0002090344691212942
149700000000.0,6,-0.0273017136,0.00469738535,-0.0003530394,-0.004554,0.000571,0.000739,-0.032558078,-0.57556209515,-9.7896844955,-0.003326,0.058725,-1.8613,-1.7241379310917182e-06,2.5000000000385825e-05,-1.0000000000065512e-05,-0.00014481774266889708,-0.0002559202724079501,-0.00013050157229395343
149700000000.0,6,-0.020466478549999997,-0.0008139519499999999,0.007600153749999999,-0.003493,0.000561,0.001808,-0.03296015065,-0.5752875089499999,-9.7896844955,-0.003367,0.058697,-1.8612,-1.7241379308696736e-06,2.4999999999941735e-05,-9.99999999995449e-06,-0.0007633775191388387,-0.0004808395060884596,-0.00027384258570249675
149700000000.0,6,0.0072373077,0.00485429175,0.04650313429999999,0.001842,0.000517,0.001817,-0.03283266419999999,-0.5752777023,-9.7896844955,-0.003353,0.058695,-1.8612,-1.7241379310917182e-06,-3.333333333355171e-05,-2.0000000000020002e-05,0.0007211155966723032,0.0002662983353460824,1.0611479116365286e-05
149700000000.0,6,0.025811102799999996,0.012748645,0.06700883945,-0.000301,-0.000531,0.001815,-0.0324011716,-0.5752384757,-9.7896844955,-0.003309,0.058691,-1.8612,-1.7241379310917182e-06,-3.333333333310762e-05,1.4999999999987246e-05,-0.0002491453786736264,-0.00027548819409206615,8.19272527377568e-06
149700000000.0,6,0.041207543299999996,0.00430511935,0.0463658412,-0.001368,-0.000521,0.001814,-0.031773546,-0.57516982915,-9.7896844955,-0.003246,0.058685,-1.8612,-1.7241379310917182e-06,-3.333333333355171e-05,1.4999999999987246e-05,0.00045413324644402037,0.00034123816474807,0.0003093532962141349
149700000000.0,6,0.030253515249999998,-0.00911037785,0.024820631149999998,-0.004554,0.000573,0.000739,-0.03115572705,-0.5750815693,-9.7896844955,-0.003182,0.058675,-1.8612,-1.7241379308696736e-06,4.999999999988347e-05,-2.999999999997449e-05,-0.00023842838324300564,-0.0002620337761736202,-0.00020227996223351474
149700000000.0,6,0.00101008495,-0.00522694445,0.0255757432,-0.000301,-0.000529,0.001815,-0.0310870805,-0.5750717626499999,-9.7896844955,-0.003176,0.058674,-1.8612,-1.7241379310917182e-06,5.000000000032756e-05,9.99999999995449e-06,0.0005593774532806975,0.00041089463170163043,0.00020323013596061645
149700000000.0,6,-0.026654474699999996,0.00585457005,0.033646616149999996,0.00078,0.000528,0.000748,-0.031547993049999994,-0.5750717626499999,-9.7896844955,-0.003223,0.058675,-1.8612,-1.7241379310917182e-06,-5.000000000032756e-05,1.0000000000065512e-05,-0.0005496436749920161,-3.7123223355139956e-05,-0.0003502684680535134
149700000000.0,6,-0.0240066792,-0.0044326057999999995,0.03649054465,-0.002421,0.000554,0.000743,-0.031950065699999995,-0.57511098925,-9.7896844955,-0.003264,0.058679,-1.8612,-1.7241379310917182e-06,-4.999999999988347e-05,2.999999999997449e-05,0.001467845622078752,0.0008041388694350893,0.000471299196390107
149700000000.0,6,-0.00031381279999999996,0.00050013915,0.034705734349999996,-0.001357,-0.000519,-0.000321,-0.0320089056,-0.5749540828499999,-9.789782562,-0.00327,0.058663,-1.8612,-1.7241379308696736e-06,4.761904762062841e-06,9.99999999995449e-06,-0.0008027812076231641,-0.00040267022630269267,4.2910872426332736e-05
149700000000.0,6,0.018103075899999998,0.005246557749999999,0.042492214449999996,-0.000276,0.000539,-0.001389,-0.031724512749999996,-0.5747677565,-9.789782562,-0.003241,0.058644,-1.8612,-1.7241379310917182e-06,4.7619047616187515e-06,1.0000000000065512e-05,0.00040703801314760646,0.000100136284044261,6.043844753222949e-05
149700000000.0,6,0.02468333805,-0.0028243152,0.06163479524999999,0.001852,0.000521,-0.000317,-0.0312636002,-0.5750717626499999,-9.7896844955,-0.003194,0.058675,-1.8612,-1.7241379310917182e-06,4.761904762062841e-06,9.99999999995449e-06,0.0007212053968382037,0.0004759238929812337,-0.00012862546966563304
149700000000.0,6,0.009992976349999998,-0.00626644935,0.053681602099999996,0.00078,0.000529,0.000748,-0.0310870805,-0.5753757688,-9.7896844955,-0.003175,0.058706,-1.8612,-1.7241379310917182e-06,4.761904762062841e-06,-2.0000000000020002e-05,-0.000935888156255088,-0.0002867577368497187,-6.993821683506929e-05
149700000000.0,6,-0.011110934449999998,-0.01928968055,0.026291628649999996,-0.003478,0.001629,0.000739,-0.0312439869,-0.57552286855,-9.7896844955,-0.003191,0.058721,-1.8612,-1.7241379308696736e-06,4.7619047616187515e-06,1.0000000000065512e-05,0.0002846011840360943,-0.000122924605989283,0.00011373278550161348
149700000000.0,6,-0.00665871535,-0.015445473749999999,0.0038442067999999996,-0.00242,0.000555,0.000743,-0.0312047603,-0.57562093505,-9.7896844955,-0.003187,0.058731,-1.8612,-1.7241379310917182e-06,4.761904762062841e-06,-2.0000000000020002e-05,0.0002576206501393036,0.00012147850952581862,-0.00017735825998159427
149700000000.0,6,-0.0014808041500000001,-0.00114737805,0.035107807,0.001839,-0.000546,0.000752,-0.031293020149999996,-0.5757091948999999,-9.7896844955,-0.003197,0.058739,-1.8612,-1.7241379310917182e-06,4.761904762062841e-06,2.0000000000020002e-05,-0.00047516531230835934,1.3887926364697378e-05,1.6231770855065775e-05
149700000000.0,6,0.01521011415,0.010591182,0.0644296905,0.002925,0.000514,-0.001383,-0.031067467199999997,-0.5759249412,-9.7896844955,-0.003174,0.058762,-1.8612,-1.7241379310917182e-06,4.7619047616187515e-06,-5.000000000032756e-06,-0.00012630499247375665,-0.00022172539294018634,0.0002344929535349205
149700000000.0,6,0.030361388399999995,-0.00354020065,0.041531162749999996,-0.001351,-0.000516,-0.001389,-0.03050848815,-0.5760033943999999,-9.7896844955,-0.003117,0.05877,-1.8612,-1.7241379308696736e-06,4.761904762062841e-06,-5.000000000032756e-06,0.0005692329898506696,0.00015955575036818992,-0.00021078625855874833
149700000000.0,6,0.0263406619,-0.01267999845,0.00457970555,-0.00456,-0.001555,-0.001392,-0.030233901949999996,-0.57583668135,-9.7896844955,-0.003088,0.058753,-1.8612,-1.7241379310917182e-06,4.761904762062841e-06,-1.999999999990898e-05,-0.0002426356253073872,-3.77492019221215e-05,9.511816552829067e-05
149700000000.0,6,-0.0067077486,0.0005099458,0.0150630144,-0.000289,-0.000526,-0.000319,-0.030400614999999995,-0.5757091948999999,-9.7896844955,-0.003106,0.05874,-1.8612,-1.7241379310917182e-06,4.7619047616187515e-06,9.99999999995449e-06,-0.00038684391614062646,-0.00010998599325495739,5.6553374139928225e-05
149700000000.0,6,-0.03435269495,0.0136312435,0.0617426684,0.003978,-0.000561,-0.000312,-0.031038047249999996,-0.57581706805,-9.7896844955,-0.00317,0.058751,-1.8612,-1.7241379310917182e-06,4.761904762062841e-06,9.99999999995449e-06,0.00014114361135932063,-0.000124355204248916,-7.043066112298602e-05
149700000000.0,6,-0.0406387576,0.0032950343999999998,0.06532209565,0.000772,-0.000537,0.00075,-0.03178335265,-0.5759641677999999,-9.7896844955,-0.003247,0.058766,-1.8612,-1.7241379308696736e-06,4.761904762062841e-06,-9.99999999995449e-06,0.0004857997217940224,0.0002166672441532569,-0.00020409052707492936
149700000000.0,6,-0.01615155255,0.0015592573499999998,0.02837063845,-0.00349,-0.000501,-0.000325,-0.03217561865,-0.57571900155,-9.7896844955,-0.003287,0.058741,-1.8612,-1.7241379310917182e-06,4.7619047616187515e-06,-9.99999999995449e-06,-0.0010593830683706118,-0.0004806297413175731,0.00021401948855956365
149700000000.0,6,0.009022117999999999,0.01389602305,0.008649465299999999,-0.002423,-0.000509,-0.000323,-0.032067745499999994,-0.5751894424499999,-9.7896844955,-0.003275,0.058686,-1.8612,-1.7241379310917182e-06,4.761904762062841e-06,-1.0000000000065512e-05,0.0012937036209657998,0.00028170980822039837,-8.955385543076011e-05
149700000000.0,6,0.02660544145,0.012552512,0.04247260115,0.001835,-0.00161,-0.000314,-0.03168528615,-0.5751894424499999,-9.7896844955,-0.003237,0.058687,-1.8612,-1.7241379310917182e-06,4.761904762062841e-06,2.0000000000020002e-05,-0.0008938567502337277,-3.8012733090786455e-05,-3.586907048902521e-05
149700000000.0,6,0.024281265399999998,0.010149882749999999,0.07537391189999999,0.003966,-0.002691,-0.001375,-0.03146953985,-0.5754836419499999,-9.7896844955,-0.003214,0.058716,-1.8612,-1.7241379308696736e-06,4.7619047616187515e-06,-9.99999999995449e-06,-0.00015895566946142609,-0.00012033974709924067,-2.0869572991577545e-05
149700000000.0,6,0.00044129925,0.00214765635,0.042756994,-0.002432,-0.001574,-0.000321,-0.03156760635,-0.5754051887499999,-9.7896844955,-0.003224,0.058709,-1.8612,-1.7241379310917182e-06,4.761904762062841e-06,9.99999999995449e-06,-0.00032010037233399374,3.771214144121515e-05,6.452806939388767e-05
149700000000.0,6,-0.0024516625,-0.004354152599999999,0.00491313165,-0.002434,-0.00051,0.001812,-0.03166567285,-0.5751894424499999,-9.7896844955,-0.003235,0.058687,-1.8612,-1.7241379310917182e-06,4.761904762062841e-06,-9.99999999995449e-06,0.0006187667952591916,0.0001616003876296901,-0.00025347642948722604
149700000000.0,6,-0.00397169325,0.007423634049999999,0.0167497582,-0.000284,0.001603,0.001812,-0.0316362529,-0.5749933094499999,-9.7896844955,-0.003232,0.058667,-1.8612,-1.7241379308696736e-06,4.7619047616187515e-06,-1.0000000000065512e-05,-0.0004144120282627353,-0.00019453914928635463,0.00028633986429912883
149700000000.0,6,0.01101286795,0.0155141203,0.05534873259999999,0.0029,-0.000554,0.001821,-0.031508766449999996,-0.5750129227499999,-9.7896844955,-0.003219,0.058669,-1.8612,-1.7241379310917182e-06,4.761904762062841e-06,2.0000000000020002e-05,0.00037583788173380095,0.0001972536620133969,-0.00018982786064128399
149700000000.0,6,0.00907115125,0.00730595425,0.0632725058,0.002905,-0.000553,0.000754,-0.031518573099999996,-0.5751796358,-9.7896844955,-0.003219,0.058686,-1.8612,-1.7241379310917182e-06,-0.00010000000000021103,-2.0000000000020002e-05,-0.00027730883599653977,-6.802762990476552e-06,0.00018109554144313256
149700000000.0,6,0.011454167199999999,-0.00130428445,0.0273605535,-0.002419,-0.000507,-0.00139,-0.0313616667,-0.5751011826,-9.7896844955,-0.003203,0.058678,-1.8612,-1.7241379310917182e-06,1.6666666666775853e-05,1.0000000000065512e-05,0.0005366829838432188,-0.00013919358132152837,-7.641333678790052e-05
149700000000.0,6,0.00538385085,-0.0070019481,0.0077766734499999995,-0.002429,-0.000509,0.000744,-0.031420506599999995,-0.5749344695499999,-9.789782562,-0.00321,0.058661,-1.8612,-1.7241379308696736e-06,1.6666666666775853e-05,9.99999999995449e-06,-0.0003806862010135026,0.0001654222310987219,-2.8539725948739658e-05
149700000000.0,6,-0.01303303785,-0.0030106415499999996,0.0258699427,0.001852,0.000523,-0.000317,-0.03170489945,-0.5750423427,-9.7896844955,-0.003239,0.058671,-1.8612,-1.7241379310917182e-06,1.6666666666331764e-05,-2.0000000000020002e-05,-0.00027510830725285124,-0.00016299161029209586,3.2422719709712666e-05
149700000000.0,6,-0.02093719775,-0.0070705946499999995,0.061909381449999995,0.002911,-0.000552,-0.000314,-0.0320285189,-0.5754640286499999,-9.7896844955,-0.003272,0.058715,-1.8612,-1.7241379310917182e-06,1.6666666666775853e-05,2.0000000000020002e-05,-0.0003851694166055672,-0.0001530686588389063,-0.00011229519554538381
149700000000.0,6,-0.01519050085,-0.00505042475,0.05067096054999999,-0.001348,0.000548,-0.000323,-0.0322442652,-0.5756895815999999,-9.7896844955,-0.003294,0.058738,-1.8612,-1.7241379310917182e-06,1.6666666666775853e-05,2.0000000000020002e-05,0.0009188496651023059,-0.00020394102781406964,-5.678375684192716e-05
149700000000.0,6,0.01232695905,0.0014808041500000001,0.0152199208,-0.002429,-0.000509,0.000745,-0.03207755215,-0.5754934486,-9.7896844955,-0.003277,0.058717,-1.8612,-1.7241379308696736e-06,1.6666666666775853e-05,-4.0000000000040004e-05,-8.58179807631046e-05,0.000501681050250502,0.00018491189518259066
149700000000.0,6,0.02705654735,0.0003530394,0.01493552795,-0.00242,0.000557,0.000743,-0.031547993049999994,-0.575258089,-9.7896844955,-0.003222,0.058694,-1.8612,-1.7241379310917182e-06,-5.000000000032756e-05,1.0000000000065512e-05,2.3821332385022542e-05,-0.000265343726906897,-0.0003486729384919035
149700000000.0,6,0.0221434157,6.864654999999999e-05,0.037069136999999995,0.00183,-0.001609,0.000754,-0.0312636002,-0.57542480205,-9.7896844955,-0.003194,0.058711,-1.8612,-1.7241379310917182e-06,-4.999999999988347e-05,-1.0000000000065512e-05,-0.0004392679942096592,-7.019011818520937e-05,0.00029333686227599187
149700000000.0,6,0.0077374468499999995,0.00099047165,0.058614347049999994,0.001839,-0.000543,0.000752,-0.0310870805,-0.5756013217499999,-9.7896844955,-0.003175,0.058729,-1.8612,-1.7241379310917182e-06,6.666666666710341e-06,1.0000000000065512e-05,-8.924514967294933e-05,0.00014912590057503117,-3.330768603258816e-05
149700000000.0,6,-0.013660663449999999,-0.0071490478500000005,0.043041386849999995,-0.001353,0.000549,0.000744,-0.03138128,-0.5756895815999999,-9.7896844955,-0.003206,0.058738,-1.8612,-1.7241379308696736e-06,6.666666666710341e-06,1.999999999990898e-05,-0.00027436826139354276,-4.0722231736456393e-05,0.00012206789274635255
149700000000.0,6,-0.0163182656,-0.0050406181,0.0216530832,-0.001353,0.000548,0.000745,-0.0315577997,-0.5755522885,-9.7896844955,-0.003224,0.058724,-1.8612,-1.7241379310917182e-06,6.666666666710341e-06,1.0000000000065512e-05,0.00018062838285951704,2.9784409051547556e-05,3.7713055011059926e-05
149700000000.0,6,-0.0031969679,-0.0027458619999999995,0.029880862549999995,0.001844,-0.000543,-0.000315,-0.03166567285,-0.5756111284,-9.7896844955,-0.003235,0.058729,-1.8612,-1.7241379310917182e-06,6.666666666710341e-06,9.99999999995449e-06,0.001427668450997746,0.0002618371289493382,-0.0002471022098357867
149700000000.0,6,-0.0020103632499999997,0.00048052584999999995,0.048572337449999996,0.002914,0.000513,0.000752,-0.0316558662,-0.57583668135,-9.7896844955,-0.003234,0.058752,-1.8612,-1.7241379310917182e-06,6.666666666710341e-06,-2.0000000000020002e-05,-0.001453905791304319,-0.0004541874881758279,0.0002429621526696124
149700000000.0,6,-0.0017259703999999998,0.002157463,0.046022608449999995,-0.000298,-0.00159,-0.000317,-0.0317931593,-0.5758661013,-9.7896844955,-0.003248,0.058756,-1.8612,-1.7241379308696736e-06,6.666666666710341e-06,1.0000000000065512e-05,0.0008142954387766951,0.0006205214729519959,-0.000159232830959824
149700000000.0,6,-0.0008139519499999999,0.0061193496,0.024349911949999997,-0.003487,0.000566,0.000741,-0.03180296595,-0.5754934486,-9.7896844955,-0.003249,0.058717,-1.8612,-1.7241379310917182e-06,6.666666666710341e-06,5.000000000032756e-06,0.0009464380559262506,-3.9792829382712114e-05,-0.00026542780722248194
149700000000.0,6,-0.00540346415,0.0067469752,0.03064578125,-0.001362,-0.000517,0.000746,-0.03199909895,-0.5752188624,-9.7896844955,-0.003269,0.058689,-1.8612,-1.7241379310917182e-06,6.666666666266252e-06,4.999999999921734e-06,-0.0010120775363302442,-7.851522315105441e-05,0.0005888439448417104
149700000000.0,6,-0.0023241760499999996,-0.0008335652500000001,0.052936296699999996,0.00187,0.002654,-0.000321,-0.031940259049999996,-0.5754149954,-9.7896844955,-0.003263,0.05871,-1.8612,-1.7241379310917182e-06,6.666666666710341e-06,2.0000000000020002e-05,6.0374120617566474e-05,0.00017955019356152846,2.8732205502965402e-05
149700000000.0,6,-0.0058643767,0.0039128533499999995,0.053681602099999996,-0.001348,0.000549,-0.000323,-0.0319892923,-0.5753757688,-9.7896844955,-0.003268,0.058706,-1.8612,-1.7241379308696736e-06,6.666666666710341e-06,2.0000000000020002e-05,0.0007374012135877572,-0.00031773663386558404,-0.00032749393534917126
149700000000.0,6,0.014396162199999998,-0.005727083599999999,0.020005566,-0.001365,-0.001581,-0.000319,-0.03190103245,-0.5754640286499999,-9.7896844955,-0.003259,0.058715,-1.8612,-1.7241379310917182e-06,6.666666666710341e-06,-2.0000000000020002e-05,-0.00019949875675240314,0.0004302144874828162,0.0003841483662122003
149700000000.0,6,0.0241439723,0.0024810824500000003,0.00685484835,-0.00029,-0.000524,-0.000319,-0.0314793465,-0.5752973156,-9.7896844955,-0.003215,0.058697,-1.8612,-1.7241379310917182e-06,6.666666666710341e-06,1.0000000000065512e-05,-4.734702010000119e-05,0.0001495130595938754,-2.5906279443113633e-05
149700000000.0,6,0.012905551399999998,0.0121014061,0.0332053169,0.000772,-0.000534,0.00075,-0.031302826799999996,-0.5750325360499999,-9.7896844955,-0.003198,0.058671,-1.8612,-1.7241379310917182e-06,6.666666666710341e-06,-4.0000000000040004e-05,-0.0008733839894703166,-0.0005850638064317515,-0.00029220828978157587
149700000000.0,6,0.004314926,0.00104931155,0.056388237499999994,0.000777,-0.000533,-0.000317,-0.031400893299999996,-0.5752090557499999,-9.7896844955,-0.003207,0.058688,-1.8612,-1.7241379308696736e-06,6.666666666710341e-06,-2.999999999997449e-05,-0.00022340322941143131,-0.000917277889886492,-0.00021269330962553346
149700000000.0,6,-0.0156121868,0.0027360553499999997,0.0548780134,0.000805,0.000529,-0.000324,-0.03166567285,-0.5753953821,-9.7896844955,-0.003235,0.058708,-1.8612,-1.7241379310917182e-06,6.666666666710341e-06,-2.0000000000020002e-05,-0.0010737512920208706,-6.491442324674246e-05,1.4681767017910019e-05
149700000000.0,6,-0.01744603035,-0.0025987622499999996,0.031528379749999995,-0.001337,-0.000519,-0.000326,-0.03207755215,-0.57544441535,-9.7896844955,-0.003277,0.058713,-1.8612,-1.7241379310917182e-06,-1.6666666666775853e-05,-9.99999999995449e-06,-0.00013558646290190435,0.0001598752331239961,4.580073644872007e-05
149700000000.0,6,-0.008865211599999999,-0.009237864299999999,0.022261095499999998,-0.002404,-0.00051,-0.000328,-0.032283491799999994,-0.5753953821,-9.7896844955,-0.003298,0.058707,-1.8612,-1.7241379310917182e-06,-1.6666666666775853e-05,-1.0000000000065512e-05,0.0005571850366872799,0.00046615798692406507,-1.4374741334671759e-05
149700000000.0,6,0.004020726499999999,-0.00887501825,0.03586291905,0.000805,0.000529,-0.000324,-0.032156005349999996,-0.5756111284,-9.7896844955,-0.003285,0.05873,-1.8612,-1.7241379308696736e-06,-1.6666666666775853e-05,1.666666666666483e-05,-0.0001396371258842108,-0.0004072168619591032,-5.206469404919756e-05
149700000000.0,6,0.0054328841,-0.00448163905,0.04961184235,0.001858,-0.000546,0.000747,-0.032067745499999994,-0.57581706805,-9.7896844955,-0.003276,0.058751,-1.8612,-1.7241379310917182e-06,-1.6666666666331764e-05,1.666666666666483e-05,0.0003925426444916502,0.00014916170424705832,0.0001861297034801701
149700000000.0,6,0.0066096821,-0.0049621649000000006,0.04870963055,-0.001315,0.001614,-0.001397,-0.03190103245,-0.5759249412,-9.7896844955,-0.003258,0.058762,-1.8612,9.999999999998899e-05,-1.6666666666775853e-05,1.666666666666483e-05,0.0005863380751611885,0.0005704006720210764,2.3375208820813898e-05
149700000000.0,6,-0.00218688295,-0.0033244543499999996,0.0313616667,-0.002404,-0.00051,-0.000328,-0.0319304524,-0.57577784145,-9.7896844955,-0.003262,0.058747,-1.8612,-3.1250000001037392e-06,-1.6666666666775853e-05,9.99999999995449e-06,0.0008929632764591092,0.0005423957451018424,0.00010452144062653157
149700000000.0,6,-0.00043149259999999994,0.00467777205,0.02688002765,0.0008,0.000528,0.000743,-0.0318912258,-0.57569938825,-9.7896844955,-0.003258,0.058738,-1.8612,-3.1249999998816946e-06,-2.0000000000131024e-05,6.0000000000060005e-05,0.000531428035561457,0.00035319543055067903,0.0002125427326683943
149700000000.0,6,-0.00252030905,0.0051190713,0.04918034975,-0.000276,-0.000528,0.000743,-0.032048132199999996,-0.57567977495,-9.7896844955,-0.003273,0.058737,-1.8612,-3.1250000001037392e-06,-1.9999999999686935e-05,-6.0000000000060005e-05,6.072707945105338e-05,1.0628197051554267e-05,-0.00012886136055335895
149700000000.0,6,0.0081787461,-0.0037755602499999997,0.0536619888,0.000783,-0.001603,0.000747,-0.031969678999999994,-0.57577784145,-9.7896844955,-0.003265,0.058746,-1.8612,-3.1249999998816946e-06,-2.0000000000131024e-05,5.0000000000105516e-05,0.0003550102757816226,0.00016164226777348745,0.00012255814192389802
149700000000.0,6,0.005540757249999999,-0.008208166049999998,0.031950065699999995,-0.000253,0.001604,-0.000328,-0.03187161249999999,-0.57597397445,-9.7896844955,-0.003256,0.058767,-1.8612,-3.1250000001037392e-06,-1.9999999999686935e-05,4.999999999999449e-05,0.0003646528229356641,0.0006154274349057243,0.00015616529568369952
149700000000.0,6,-0.0019122967499999998,0.0019809433,0.0316558662,-0.001342,-0.000519,0.000741,-0.0319108391,-0.57583668135,-9.7896844955,-0.003259,0.058753,-1.8612,-3.1249999998816946e-06,-2.0000000000131024e-05,1.999999999990898e-05,0.0012258903794865536,-9.832830135780846e-05,-0.0002444862694339772
149700000000.0,6,-0.0045306723,0.0089828914,0.04123696325,0.001881,0.001586,-0.000324,-0.0318323859,-0.5758072613999999,-9.7896844955,-0.003252,0.05875,-1.8612,-3.1250000001037392e-06,4.000000000115023e-06,7.00000000000145e-05,0.0016099918686544937,0.001089881917698765,0.00010146085179797704
149700000000.0,6,-0.014121576,0.005756503549999999,0.0460324151,-0.000248,0.001605,-0.001395,-0.031969678999999994,-0.5757288082,-9.7896844955,-0.003265,0.058742,-1.8612,-3.1249999998816946e-06,3.9999999996709334e-06,-2.0000000000020002e-05,-0.0007077211525274713,0.00023379863852168725,0.0003537690483592648
149700000000.0,6,-0.0117287534,0.0004609125499999999,0.0394619596,-0.003462,0.000564,-0.000331,-0.03211677875,-0.57552286855,-9.7896844955,-0.003281,0.058721,-1.8612,-3.1250000001037392e-06,4.000000000115023e-06,2.0000000000020002e-05,-0.0003396882889968797,-0.00042509497273490737,0.00020331622572263008
149700000000.0,6,0.0007256920999999999,-0.00018632635,0.030047575599999998,-0.001334,0.000546,0.00074,-0.03199909895,-0.5753169289,-9.7896844955,-0.003268,0.0587,-1.8612,-3.1249999998816946e-06,4.000000000115023e-06,1.0000000000065512e-05,0.0006439027738580003,0.0001191018315203074,-0.00030870582236920685
149700000000.0,6,0.0041972462,0.010855961549999998,0.03409772205,0.001846,-0.002676,-0.000317,-0.0320285189,-0.5751404092,-9.7896844955,-0.003272,0.058682,-1.8612,-3.1250000001037392e-06,4.000000000115023e-06,1.4999999999987246e-05,2.6979339379569478e-05,0.0001580905881903849,0.0003901205531651325
149700000000.0,6,-0.0022947561,0.01797558945,0.0572904493,0.002916,-0.00162,0.000751,-0.0321265854,-0.5750717626499999,-9.7896844955,-0.003281,0.058675,-1.8612,-3.1249999998816946e-06,3.9999999996709334e-06,1.4999999999987246e-05,0.00030751765516590784,0.0006463962161082915,5.9613281345141655e-05
149700000000.0,6,-0.00013729309999999998,0.008384685749999999,0.0520536982,-0.000285,-0.001594,0.000745,-0.0321854253,-0.575061956,-9.7896844955,-0.003288,0.058674,-1.8612,-3.1250000001037392e-06,4.000000000115023e-06,-3.3333333333551707e-06,0.0005969881710904054,5.791007273181492e-05,0.00011942446329173129
149700000000.0,6,-0.0001765197,0.00316754795,0.015406247149999998,-0.002399,-0.000509,-0.001395,-0.03229329845,-0.57477756315,-9.789782562,-0.003298,0.058645,-1.8612,-3.1249999998816946e-06,4.000000000115023e-06,-3.3333333332441484e-06,0.000136725622565316,0.00020254664695618096,0.00016996608207615893
149700000000.0,6,0.007423634049999999,0.0020986231,0.00869849855,-0.002396,0.000556,-0.00033,-0.03211677875,-0.57446375035,-9.789782562,-0.00328,0.058612,-1.8612,-3.1250000001037392e-06,3.9999999996709334e-06,-3.3333333333551707e-06,-0.0003653722726533054,-0.00037218497940050277,-0.00048196418435120236
149700000000.0,6,0.007590347099999999,0.0023339827,0.0528382302,0.000796,-0.000536,-0.000322,-0.03197948565,-0.5743951037999999,-9.789782562,-0.003267,0.058606,-1.8612,-3.1249999998816946e-06,4.000000000115023e-06,1.999999999990898e-05,0.00033971038387627106,5.4034625519561175e-05,0.00022033207607863314
149700000000.0,6,0.0065312289,0.0057859235,0.07438344024999999,0.001871,0.000521,-0.000322,-0.03182257925,-0.57456181685,-9.789782562,-0.003251,0.058622,-1.8612,-3.1250000001037392e-06,4.000000000115023e-06,1.0000000000065512e-05,0.00023589319836658795,-0.00026598335688765573,-0.00026070667025379635
149700000000.0,6,-0.0030989013999999995,-0.0033244543499999996,0.0434042329,-0.000254,0.001604,-0.000328,-0.031773546,-0.57458143015,-9.789782562,-0.003245,0.058624,-1.8612,-3.1250000001037392e-06,4.000000000115023e-06,-1.0000000000065512e-05,0.00024383600158157243,0.0006356563929910131,0.0002862407022790059
149700000000.0,6,-0.0053936575,-0.00887501825,0.016622271749999997,-0.001329,0.000548,-0.000328,-0.03186180585,-0.57456181685,-9.789782562,-0.003255,0.058623,-1.8612,-3.1249999998816946e-06,3.9999999996709334e-06,-9.99999999995449e-06,-0.0002674525507685918,2.838691145212735e-05,-2.473332382588178e-05
149700000000.0,6,-0.01030678915,-0.00392266,0.026193562150000002,0.000799,0.000529,0.000743,-0.032038325549999996,-0.5745716235,-9.789782562,-0.003273,0.058624,-1.8612,-3.1250000001037392e-06,4.000000000115023e-06,2.0000000000020002e-05,0.00041767846698819583,-3.308193488060773e-05,0.0001604548122450533
149700000000.0,6,-0.023330020349999998,0.0018240368999999999,0.05984998495,0.002947,0.001578,-0.000322,-0.0323423317,-0.5747873697999999,-9.789782562,-0.003303,0.058646,-1.8612,-3.1249999998816946e-06,4.000000000115023e-06,2.0000000000020002e-05,9.315791899534853e-05,0.0001827645336540673,3.4491072039913306e-05
149700000000.0,6,-0.0006276255999999999,-0.00467777205,0.06208590115,-0.000271,-0.000527,-0.000324,-0.03229329845,-0.5750129227499999,-9.7896844955,-0.003299,0.058669,-1.8612,-3.1250000001037392e-06,4.000000000115023e-06,-2.0000000000020002e-05,0.0004683560882896426,0.0005697240722437602,-0.00019222226575817125
149700000000.0,6,0.006197802799999999,-0.00392266,0.027213453749999998,-0.001337,-0.000518,-0.000326,-0.0322442652,-0.5750325360499999,-9.7896844955,-0.003293,0.05867,-1.8612,-3.1249999998816946e-06,3.9999999996709334e-06,1.4999999999987246e-05,-0.00027989824378103073,-0.0004811670117399469,0.00016236476433106883
149700000000.0,6,0.011836626549999998,-0.00397169325,0.01615155255,-0.000262,0.000539,-0.000326,-0.032038325549999996,-0.5749835027999999,-9.7896844955,-0.003272,0.058665,-1.8612,-3.1250000001037392e-06,4.000000000115023e-06,1.4999999999987246e-05,-6.593697243102714e-06,-4.355298776426153e-05,2.8195794327209867e-05
149700000000.0,6,0.0161613592,0.00020593964999999999,0.047101339949999994,0.002916,-0.001619,0.000751,-0.03187161249999999,-0.575258089,-9.7896844955,-0.003255,0.058694,-1.8612,-3.1249999998816946e-06,4.000000000115023e-06,9.99999999995449e-06,-0.00034048305397004625,0.00020751692488318874,5.968491735537651e-05
149700000000.0,6,3.9226599999999995e-05,-0.004609125499999999,0.06294888635,0.001869,-0.000543,-0.001388,-0.03176373935,-0.5755424818499999,-9.7896844955,-0.003245,0.058722,-1.8612,-3.1250000001037392e-06,3.9999999996709334e-06,-3.999999999992898e-05,-0.0005862460869675221,-0.0005626873043695912,-0.0003321276871625367
149700000000.0,6,0.0013140911,-0.014543261949999999,0.02584052275,-0.002387,0.001622,-0.000331,-0.0316950928,-0.57562093505,-9.7896844955,-0.003237,0.058731,-1.8612,-3.1249999998816946e-06,4.000000000115023e-06,-2.0000000000020002e-05,0.0007539763628661503,4.856979687151153e-05,0.0001348078644279882
149700000000.0,6,0.00128467115,0.0020103632499999997,0.014621715149999999,-0.002392,0.001621,0.000736,-0.031518573099999996,-0.57542480205,-9.7896844955,-0.003219,0.05871,-1.8612,-3.1250000001037392e-06,4.000000000115023e-06,-1.4999999999987246e-05,-0.0006432662125428826,-0.00012895298096715635,-1.494345073410619e-05
149700000000.0,6,-0.0092770909,0.0193583271,0.0412663832,0.001858,-0.000545,0.000747,-0.031724512749999996,-0.5752678956499999,-9.7896844955,-0.003241,0.058694,-1.8612,-3.1249999998816946e-06,4.000000000115023e-06,-1.4999999999987246e-05,-0.0007363133973675995,-0.00024379178676237068,-9.522444238552197e-05
149700000000.0,6,-0.0014513841999999999,0.0048248718,0.0744717001,0.002922,-0.001618,-0.000316,-0.03192064575,-0.5755424818499999,-9.7896844955,-0.00326,0.058723,-1.8612,-3.1250000001037392e-06,3.9999999996709334e-06,-2.0000000000020002e-05,-0.0012837651713145867,-0.0007000724119499147,-5.124156234059818e-05
149700000000.0,6,0.00013729309999999998,0.0042756994,0.05098477334999999,-0.003463,0.000566,-0.000331,-0.03186180585,-0.57544441535,-9.7896844955,-0.003255,0.058713,-1.8612,-3.1249999998816946e-06,4.000000000115023e-06,-0.0001100000000000545,-0.0025503143945141277,-0.0016819677162653868,-0.0005838307073076088
149700000000.0,6,0.0070019481,-0.0015592573499999998,0.008649465299999999,-0.000276,-0.000527,0.000744,-0.0316950928,-0.5752973156,-9.7896844955,-0.003237,0.058697,-1.8612,-3.1250000001037392e-06,4.999999999988347e-05,-9.99999999995449e-06,0.00010607357882153057,-1.994279464190285e-05,-0.0001272828809828208
149700000000.0,6,-0.0055113372999999995,-0.00020593964999999999,0.026007235799999997,0.000791,-0.000536,0.000745,-0.03190103245,-0.5752973156,-9.7896844955,-0.003258,0.058698,-1.8612,9.999999999998899e-05,5.000000000032756e-05,-9.00000000000345e-05,-0.0018045433878012551,-0.0011141429806940106,-0.0002771648571304186
149700000000.0,6,0.00016671305,0.006639102049999999,0.0432080999,0.001875,0.001586,0.000744,-0.031744126049999995,-0.5754149954,-9.7896844955,-0.003242,0.05871,-1.8612,-5.263157893953263e-07,-3.333333333355171e-05,5.000000000032756e-06,-0.0007927696820322488,-0.00046482323611862775,-0.00011412573822616734
149700000000.0,6,-0.006894074949999999,0.007698220249999999,0.05951655884999999,-0.000271,-0.000526,-0.000324,-0.03186180585,-0.57542480205,-9.7896844955,-0.003255,0.05871,-1.8612,-5.263157896173709e-07,-3.333333333310762e-05,5.000000000032756e-06,-0.00020062177976287732,-1.949021125846606e-05,-4.428201594172676e-05
149700000000.0,6,-0.00020593964999999999,-0.002353596,0.0243597186,-0.003463,0.000566,-0.000331,-0.0318127726,-0.57524828235,-9.7896844955,-0.00325,0.058693,-1.8612,-5.263157893953263e-07,-3.333333333355171e-05,9.99999999995449e-06,0.0010528486601748266,-5.5056502616057656e-05,-0.00029104131969726055
149700000000.0,6,0.00748247395,-0.001176798,0.0017848103,-0.002401,0.000556,0.000738,-0.031577413,-0.5749246629,-9.789782562,-0.003226,0.05866,-1.8612,-5.263157893953263e-07,2.0000000000131024e-05,7.00000000000145e-05,0.001291893244187485,0.0015027822120481371,0.0006720664071139248
149700000000.0,6,0.00491313165,0.00157887065,0.028576578099999996,0.000796,-0.000535,-0.000322,-0.031547993049999994,-0.5748462097,-9.789782562,-0.003223,0.058651,-1.8612,-5.263157896173709e-07,2.0000000000131024e-05,-2.0000000000020002e-05,0.00023580287594049398,-2.4360534922385213e-05,-4.6221929948714324e-05
149700000000.0,6,0.0038049802,-0.0030989013999999995,0.06461601685,0.001875,0.001587,0.000744,-0.03133224675,-0.575258089,-9.7896844955,-0.003201,0.058693,-1.8612,-5.263157893953263e-07,1.9999999999686935e-05,-9.99999999995449e-06,-0.0006436700836848497,-0.0005801585480287308,-2.6762457507850668e-05
149700000000.0,6,-0.0065704555,0.00228494945,0.05354430899999999,-0.002404,-0.000508,-0.000328,-0.0312832135,-0.57524828235,-9.7896844955,-0.003196,0.058692,-1.8612,-5.263157893953263e-07,2.0000000000131024e-05,-2.0000000000020002e-05,-0.000219357917114818,-7.137757845998571e-05,3.7671891612953146e-05
149700000000.0,6,-0.012062179499999999,0.0033538743,0.015700446649999998,-0.003471,-0.0005,-0.000329,-0.03148915315,-0.5749638895,-9.789782562,-0.003216,0.058664,-1.8612,-5.263157896173709e-07,2.0000000000131024e-05,-4.0000000000040004e-05,-0.0002418026378068483,-0.00029371078265261197,-0.0003879397417313468
149700000000.0,6,-0.0008237585999999999,-0.00326561445,0.0076295737,-0.00241,-0.00051,0.00074,-0.0314989598,-0.5747873697999999,-9.789782562,-0.003218,0.058646,-1.8612,-5.263157893953263e-07,-5.000000000032756e-05,2.0000000000020002e-05,0.00014318979726983538,-0.00012663000810286817,0.00020291868234446897
149700000000.0,6,0.012042566199999999,-0.0074138274,0.03874607415,0.001863,-0.000543,-0.00032,-0.0313420534,-0.5749835027999999,-9.789782562,-0.003202,0.058665,-1.8612,-5.263157896173709e-07,-4.999999999988347e-05,-2.0000000000020002e-05,-0.0003879482555182237,0.00025690897478169994,6.69941240985239e-05
149700000000.0,6,-0.0011964113,-0.0065508421999999995,0.057869041649999994,0.001872,0.000522,-0.000322,-0.031420506599999995,-0.57538557545,-9.7896844955,-0.003209,0.058707,-1.8612,-5.263157893953263e-07,6.2500000002074785e-06,2.0000000000020002e-05,0.0006162271917208653,0.00016546706430697888,-6.338872726852074e-05
149700000000.0,6,0.006423355749999999,0.010650021899999999,0.0471111466,-0.001334,0.000548,0.00074,-0.0312636002,-0.5752286690499999,-9.7896844955,-0.003193,0.058691,-1.8612,-5.263157893953263e-07,6.249999999763389e-06,6.666666666710341e-06,0.00017615587315804315,6.310261208453127e-05,0.0001370831345113982
149700000000.0,6,0.0018436501999999997,0.0033440676499999996,0.026330855249999997,-0.003463,0.000566,-0.000331,-0.031175340349999997,-0.5749540828499999,-9.789782562,-0.003185,0.058663,-1.8612,-5.263157896173709e-07,6.2500000002074785e-06,6.666666666599319e-06,-0.00039731912287156723,-4.881965592984372e-05,-0.00020266038399889552
149700000000.0,6,0.0018632635,-0.0037853669,0.022290515449999996,-0.001312,0.00268,-0.000331,-0.031038047249999996,-0.5748560163499999,-9.789782562,-0.003171,0.058653,-1.8612,-5.263157893953263e-07,6.249999999763389e-06,6.666666666710341e-06,-0.00035118099237133743,-0.00014016427252361296,-6.786716585971408e-05
149700000000.0,6,-0.00679600845,0.0056094038,0.038451874649999995,0.000791,-0.000535,0.000745,-0.031214566949999998,-0.5748265964,-9.789782562,-0.003188,0.05865,-1.8612,-5.263157893953263e-07,6.2500000002074785e-06,-3.3333333333551707e-06,7.088037207601816e-05,-1.4400143169446267e-05,0.0002564320026079425
149700000000.0,6,0.00440318585,-0.00220649625,0.05012178815,-0.001346,-0.001582,-0.000324,-0.031194953649999996,-0.5749442762,-9.789782562,-0.003186,0.058661,-1.8612,-5.263157896173709e-07,6.249999999763389e-06,-3.3333333333551707e-06,-0.00045797128756310673,4.696071327581208e-06,2.1330621769594105e-06
149700000000.0,6,0.00987529655,-0.0011571847,0.023643833149999998,-0.003476,-0.0005,0.000738,-0.0309694007,-0.57479717645,-9.789782562,-0.003164,0.058647,-1.8612,-5.263157893953263e-07,6.2500000002074785e-06,-3.3333333333551707e-06,0.0009110436076788173,-0.0001732637352191979,-0.000438569176123213
149700000000.0,6,0.00279489525,0.0031087080499999998,0.02605626905,-0.003468,0.000566,0.000736,-0.0309301741,-0.57442452375,-9.789782562,-0.003159,0.058609,-1.8612,-5.263157893953263e-07,6.249999999763389e-06,-9.99999999995449e-06,-0.0003200513942134206,0.00034711582898672155,0.00023174709074390287
149700000000.0,6,0.0007354987499999999,0.00685484835,0.04311984005,0.000794,0.00053,0.001811,-0.03082230095,-0.5744343304,-9.789782562,-0.003148,0.058609,-1.8612,-5.263157896173709e-07,6.2500000002074785e-06,2.0000000000020002e-05,-0.00013628912081705552,-6.611713596260671e-05,0.00018750846427385837
149700000000.0,6,-0.009669356899999999,0.010600988649999999,0.0477583855,0.001877,0.000524,-0.001389,-0.030881140849999995,-0.5744343304,-9.789782562,-0.003154,0.058609,-1.8612,-5.263157893953263e-07,6.2500000002074785e-06,-1.4999999999987246e-05,-0.00042064775831957,-0.0001623046091883129,7.788061364275012e-05
149700000000.0,6,-0.0063645158499999995,-0.0016475171999999999,0.0324992381,-0.001343,-0.000518,0.000742,-0.0310478539,-0.57430684395,-9.789782562,-0.003171,0.058597,-1.8612,-5.263157893953263e-07,6.249999999763389e-06,-1.4999999999987246e-05,0.0010209694713138456,-0.000172910712243457,-0.0005434625305302532
149700000000.0,6,-0.00228494945,-0.0031969679,0.025173670549999996,-0.001329,0.000549,-0.000327,-0.031077273849999996,-0.5742578106999999,-9.789782562,-0.003175,0.058591,-1.8612,-5.263157896173709e-07,6.2500000002074785e-06,2.999999999997449e-05,-0.00036398861369987823,-8.592348025460161e-05,-0.0001455362259018267
149700000000.0,6,-0.00328522775,0.0041776329,0.042090141799999994,-0.000254,0.001606,-0.000327,-0.031136113749999996,-0.5741401308999999,-9.789782562,-0.00318,0.05858,-1.8612,-5.263157893953263e-07,6.249999999763389e-06,-1.0000000000065512e-05,-0.0006540621074261552,0.00036804173789328765,0.0006283843069028877
149700000000.0,6,-0.006060509699999999,0.01248386545,0.048366397799999995,0.001854,-0.001608,-0.000318,-0.03135186005,-0.5742185841,-9.789782562,-0.003202,0.058588,-1.8612,-5.263157893953263e-07,6.2500000002074785e-06,1.0000000000065512e-05,0.00024299615428602372,-9.818967226005171e-05,0.00012216706738105154
149700000000.0,6,-0.00285373515,-0.00042168595,0.033989848899999994,-0.000279,-0.001591,-0.000322,-0.0315577997,-0.5743362638999999,-9.789782562,-0.003224,0.0586,-1.8612,-5.263157896173709e-07,6.249999999763389e-06,-2.999999999997449e-05,4.735514914084443e-05,0.0001422338745320495,-7.281678317584694e-05
149700000000.0,6,0.01064021525,-0.0076295737,0.0030400615,-0.005616,-0.000483,0.001802,-0.0314401199,-0.57401264445,-9.789782562,-0.003211,0.058567,-1.8612,-5.263157893953263e-07,6.2500000002074785e-06,1.999999999990898e-05,0.0005045335927124084,0.0002683756622487987,-8.754346396927515e-05
149700000000.0,6,0.0015298374,-0.0029027683999999997,0.01546508705,0.000788,-0.001599,-0.00032,-0.0314597332,-0.5739439979,-9.789782562,-0.003214,0.05856,-1.8612,-5.263157896173709e-07,-0.00010000000000021103,-3.999999999992898e-05,-0.0001929880566619302,-0.00029728539401929766,1.0612073513743825e-05
149700000000.0,6,-0.0035794272499999995,0.017151830849999997,0.0560155848,0.002933,0.000513,0.000747,-0.03158721965,-0.57395380455,-9.789782562,-0.003227,0.05856,-1.8611,-5.263157893953263e-07,0.00010000000000021103,2.0000000000020002e-05,-0.00010411190194294789,0.00010872376268489248,-9.209603618304252e-06
149700000000.0,6,-0.00208881645,0.0066096821,0.0627429467,0.000799,0.000531,0.000744,-0.031577413,-0.5740322577499999,-9.789782562,-0.003225,0.058569,-1.8611,-5.263157893953263e-07,-0.00010000000000021103,2.999999999997449e-05,-0.00040233484638659694,-3.160041750160936e-05,2.1028478922630045e-05
149700000000.0,6,0.0016671305000000001,-0.0068450417,0.03146953985,-0.002393,0.001623,0.000736,-0.0314401199,-0.57405187105,-9.789782562,-0.003212,0.05857,-1.8611,-5.263157896173709e-07,2.4999999999941735e-05,-1.0000000000065512e-05,0.00020983978147565835,-0.00010543392204498403,8.978638369742942e-05
149700000000.0,6,0.0037559469499999997,-0.0035696206,0.0157690932,-0.002401,0.000557,0.000738,-0.031430313249999994,-0.573885158,-9.789782562,-0.003211,0.058553,-1.8611,-5.263157893953263e-07,2.4999999999941735e-05,-9.99999999995449e-06,7.878891114726505e-06,-5.000604872540393e-05,-0.00020184274359544285
149700000000.0,6,-0.002157463,0.00342252085,0.0407564374,0.000813,0.001597,-0.000326,-0.0313616667,-0.5738361247499999,-9.789782562,-0.003204,0.058549,-1.8611,-5.263157893953263e-07,2.5000000000385825e-05,9.99999999995449e-06,0.0005129340605756344,0.0003300740414609038,-0.0002484135158260098
149700000000.0,6,-0.015553346899999999,0.0032263878499999995,0.06738149215,0.001871,0.000523,-0.000322,-0.031577413,-0.57409109765,-9.789782562,-0.003226,0.058575,-1.8611,-5.263157896173709e-07,2.4999999999941735e-05,-9.99999999995449e-06,0.0003767374814803437,-0.0005903994989837624,-0.00024373140141645266
149700000000.0,6,-0.000784532,-0.004020726499999999,0.046875787,-0.001329,0.000549,-0.000327,-0.0315381864,-0.5741793574999999,-9.789782562,-0.003222,0.058584,-1.8611,-5.263157893953263e-07,-0.00010000000000021103,2.999999999997449e-05,-5.201884513927196e-05,0.000347477648281469,0.00033997700390617225
149700000000.0,6,0.00795319315,-0.0081983594,0.0106696352,-0.003463,0.000567,-0.000331,-0.031302826799999996,-0.5740420643999999,-9.789782562,-0.003197,0.058569,-1.8611,-5.263157893953263e-07,7.142857143094261e-06,-2.0000000000020002e-05,-0.0010264518569986503,-0.00012740354289619837,0.00017475006580153218
149700000000.0,6,0.0111991943,-0.00014709975,0.0096301303,-0.000271,-0.000525,-0.000324,-0.031106693799999998,-0.5738655447,-9.789782562,-0.003177,0.058551,-1.8611,-5.263157896173709e-07,7.142857142650172e-06,4.0000000000040004e-05,0.0006076280633040831,9.279735865086458e-05,-0.0002600528151237569
149700000000.0,6,0.0037559469499999997,-0.0050798447,0.04074663075,0.000805,0.000532,-0.000324,-0.030989014,-0.5740224510999999,-9.789782562,-0.003166,0.058567,-1.8611,-5.263157893953263e-07,7.142857142650172e-06,-2.999999999997449e-05,-0.00027543993976022335,4.971992512814438e-06,0.000286255597483312
149700000000.0,6,-0.0015494506999999998,0.00099047165,0.06661657345,0.000796,-0.000533,-0.000322,-0.031077273849999996,-0.5742578106999999,-9.789782562,-0.003174,0.058591,-1.8611,-5.263157893953263e-07,7.142857143094261e-06,1.0000000000065512e-05,0.00010787588722412089,0.00016267624881183274,-0.0001860937482338204
149700000000.0,6,0.0052563644,0.00118660465,0.0422274349,-0.000267,0.00054,0.000742,-0.030989014,-0.5742970373,-9.789782562,-0.003166,0.058596,-1.8611,-5.263157896173709e-07,7.142857143094261e-06,9.99999999995449e-06,-0.00027574504014433315,-4.216001655565904e-05,0.00012331597379139358
149700000000.0,6,-0.00542307745,0.0008629851999999999,0.01813249585,-0.001329,0.00055,-0.000327,-0.0310870805,-0.5742774239999999,-9.789782562,-0.003175,0.058594,-1.8611,-5.263157893953263e-07,7.142857142650172e-06,-1.0000000000065512e-05,-9.52970350085458e-05,-5.1597463531560805e-05,0.00011100210622261297
149700000000.0,6,-0.00661948875,0.0072373077,0.028311798549999996,-0.000262,0.000541,-0.000325,-0.0310870805,-0.57420877745,-9.789782562,-0.003176,0.058587,-1.8611,-5.263157893953263e-07,7.142857142650172e-06,-9.99999999995449e-06,0.0008567581661746149,-0.0003641474178170956,-0.0002460113092485061
149700000000.0,6,-0.00169655045,0.00467777205,0.04058972435,0.000799,0.000531,0.000744,-0.031067467199999997,-0.5741989707999999,-9.789782562,-0.003174,0.058585,-1.8611,-5.263157896173709e-07,7.142857143094261e-06,-2.0000000000020002e-05,-0.0009086029892483374,0.0002762183832736298,0.00012128994330611043
149700000000.0,6,-0.00040207264999999996,0.0030792880999999995,0.03131263345,-0.000268,0.00054,0.000742,-0.0310282406,-0.5741009042999999,-9.789782562,-0.003169,0.058575,-1.8611,-5.263157893953263e-07,7.142857143094261e-06,2.999999999997449e-05,0.0007713984646719324,-0.00040494070449459407,-0.0005041798940002423
149700000000.0,6,-0.0025889556,0.00661948875,0.0332641568,-0.000268,0.00054,0.000742,-0.031077273849999996,-0.5740420643999999,-9.789782562,-0.003174,0.05857,-1.8611,-5.263157896173709e-07,7.142857142650172e-06,-9.99999999995449e-06,-0.0009562719195142719,0.00023672275831110312,0.0006294916109990112
149700000000.0,6,-0.007060788,0.00436395925,0.042394147949999995,0.000796,-0.000533,-0.000322,-0.03125379355,-0.5740420643999999,-9.789782562,-0.003192,0.058569,-1.8611,-5.263157893953263e-07,7.142857142650172e-06,-2.0000000000020002e-05,0.0006794114798068102,0.0003018137967840673,6.1033364091633846e-05
149700000000.0,6,0.0024320492,0.006472388999999999,0.041639035899999996,-0.000259,0.001606,0.00074,-0.031165533699999998,-0.57405187105,-9.789782562,-0.003183,0.05857,-1.8611,-5.263157893953263e-07,7.142857143094261e-06,9.99999999995449e-06,-8.195859096161301e-05,-0.0004819160110052234,-0.0004392029273665582
149700000000.0,6,-6.864654999999999e-05,-0.00045110589999999997,0.0337152627,-0.002393,0.001623,0.000736,-0.031057660549999998,-0.57401264445,-9.789782562,-0.003173,0.058566,-1.8611,-5.263157896173709e-07,7.142857143094261e-06,2.0000000000020002e-05,-0.00026384328074671726,0.0003783233877618919,0.00027991132249080564
149700000000.0,6,-0.0014317708999999998,0.0058839899999999995,0.02474217795,0.000787,-0.001599,-0.00032,-0.031185147,-0.5739047713,-9.789782562,-0.003186,0.058556,-1.8611,-5.263157893953263e-07,7.142857142650172e-06,-9.99999999995449e-06,0.00015520649749703463,-1.3223631990966211e-05,6.149197988672417e-05
149700000000.0,6,0.0007354987499999999,0.0029910282499999996,0.025046184099999997,-0.000246,0.002672,-0.000329,-0.03095959405,-0.57385573805,-9.789782562,-0.003163,0.058551,-1.8611,-5.263157893953263e-07,-5.000000000032756e-05,-1.0000000000065512e-05,0.00035023967524556304,0.00011067726361257968,-0.00019514106498179362
149700000000.0,6,0.00013729309999999998,-0.0028831550999999997,0.03550987965,0.000799,0.000531,0.000744,-0.0309694007,-0.5739734178499999,-9.789782562,-0.003163,0.058562,-1.8611,-5.263157896173709e-07,-4.999999999988347e-05,-9.99999999995449e-06,-0.0006165320298419028,-5.726676673956099e-05,0.0001488318476892403
149700000000.0,6,-0.00367749375,-0.0036088471999999997,0.03700049045,0.000782,-0.0016,0.000748,-0.031194953649999996,-0.5741401308999999,-9.789782562,-0.003186,0.05858,-1.8611,-5.263157893953263e-07,6.666666666710341e-06,-9.99999999995449e-06,0.0006043866479270715,-0.00015404744628089162,-4.146068513187495e-05
149700000000.0,6,-0.00057859235,-0.0084141057,0.025330576949999996,-0.003463,0.000568,-0.000331,-0.0311459204,-0.57413032425,-9.789782562,-0.003182,0.058578,-1.8611,-5.263157893953263e-07,6.666666666710341e-06,1.999999999990898e-05,0.0005561319493320865,0.0003947232226642061,-7.425759048981795e-06
149700000000.0,6,0.0060016698,0.0020103632499999997,0.01979962635,-0.001343,-0.000516,0.000742,-0.03099882065,-0.5739243846,-9.789782562,-0.003166,0.058558,-1.8611,-5.263157896173709e-07,6.666666666710341e-06,-9.99999999995449e-06,-0.0004899845254988516,-0.00033948080031498407,8.780826424704957e-05
149700000000.0,6,-0.004501252349999999,0.0007649187,0.03505877375,0.000821,0.002664,-0.000327,-0.0309694007,-0.5740322577499999,-9.789782562,-0.003163,0.058568,-1.8611,-5.263157893953263e-07,6.666666666710341e-06,9.99999999995449e-06,-9.29694643952289e-06,0.0001119945842227299,-3.059487734251298e-05
149700000000.0,6,-9.80665e-05,0.00059820565,0.05420135455,0.00293,-0.000551,-0.000318,-0.0310282406,-0.57430684395,-9.789782562,-0.003169,0.058597,-1.8611,-5.263157893953263e-07,6.666666666710341e-06,-1.999999999990898e-05,-0.0004167266154153429,5.1684401388696344e-05,0.00012791107033251203
149700000000.0,6,0.0033440676499999996,0.0038049802,0.04446335109999999,0.001863,-0.000542,-0.00032,-0.0310282406,-0.57436568385,-9.789782562,-0.003169,0.058603,-1.8611,-5.263157896173709e-07,6.666666666710341e-06,-2.0000000000020002e-05,0.00042516093684329126,-5.4727821563460566e-05,-0.00018677795445402878
149700000000.0,6,0.00055897905,-0.00718827445,0.00167693715,-0.002432,-0.00264,0.001811,-0.031234180249999997,-0.57430684395,-9.789782562,-0.003191,0.058596,-1.8611,-5.263157893953263e-07,6.666666666710341e-06,5.999999999994898e-05,0.0001823941885521485,-0.0002090865978374712,-0.0001360425207499738
149700000000.0,6,0.00681562175,-0.004344345949999999,0.010954028049999998,-0.000262,0.000542,-0.000325,-0.031057660549999998,-0.57430684395,-9.789782562,-0.003173,0.058597,-1.8611,-5.263157893953263e-07,6.666666666266252e-06,-2.0000000000020002e-05,-0.0011440331120637706,3.800819788457588e-06,0.0002699751000385109
149700000000.0,6,-0.0001176798,0.00442279915,0.03968751255,-0.000254,0.001607,-0.000327,-0.031008627299999997,-0.57424800405,-9.789782562,-0.003167,0.05859,-1.8611,-5.263157896173709e-07,6.666666666710341e-06,1.0000000000065512e-05,0.0003004214536249522,0.0001752147752582811,-0.00012955769994155153
149700000000.0,6,-0.0020790098,0.008306232549999999,0.05150452579999999,-0.000276,-0.000525,0.000744,-0.03099882065,-0.5742381973999999,-9.789782562,-0.003166,0.058589,-1.8611,-5.263157893953263e-07,6.666666666710341e-06,-5.000000000032756e-06,0.0002781139159823351,8.521914355608118e-05,1.0470030965020749e-05
149700000000.0,6,0.0115914603,0.01130706745,0.033117057049999996,-0.001326,0.001615,0.000738,-0.03074384775,-0.5739439979,-9.789782562,-0.003141,0.05856,-1.8611,-5.263157896173709e-07,6.666666666710341e-06,-5.000000000032756e-06,-0.0004702004472578944,-0.0002061384913376596,0.00014561034035912024
149700000000.0,6,0.0007158854499999999,-0.0012552511999999998,0.01726951065,-0.002392,-0.001575,0.000733,-0.030792880999999998,-0.57379689815,-9.789782562,-0.003145,0.058545,-1.8611,-5.263157893953263e-07,6.666666666710341e-06,1.0000000000065512e-05,0.0008321270421014909,-0.00020369123067287553,-0.000655903063697616
149700000000.0,6,0.0028635417999999997,0.0027752819499999998,0.0196721399,-0.001317,-0.000518,0.000733,-0.030851720899999997,-0.5736399917499999,-9.789782562,-0.003151,0.058528,-1.8611,-5.263157893953263e-07,6.666666666710341e-06,9.99999999995449e-06,-0.0005224817402515042,7.217599455344725e-05,0.0005544497022013928
149700000000.0,6,-0.00630567595,0.00281450855,0.04898421675,0.001898,0.000522,-0.00033,-0.03095959405,-0.5738263181,-9.789782562,-0.003162,0.058548,-1.8611,-5.263157896173709e-07,6.666666666710341e-06,-4.999999999999449e-05,0.0009441791594436075,0.0004840784728898928,-0.0001717471291949879
149700000000.0,6,-0.0101596894,-0.0010198916,0.05930081255,0.001889,-0.000544,-0.000328,-0.031136113749999996,-0.5740420643999999,-9.789782562,-0.003181,0.058569,-1.8611,-5.263157893953263e-07,6.666666666710341e-06,2.999999999997449e-05,-0.00111631453420509,-0.0005832020250688963,-0.00015249180572092513
149700000000.0,6,-0.0058251501,-0.0094928372,0.027272293649999998,-0.002378,-0.000508,-0.000336,-0.031293020149999996,-0.5741009042999999,-9.789782562,-0.003196,0.058575,-1.8611,-5.263157893953263e-07,-0.00010000000000021103,-9.99999999995449e-06,0.00011540947991337674,0.0003528931447667194,0.00042707422743316903
149700000000.0,6,0.0034029075499999997,0.0039422733,0.013366463949999999,-0.001308,0.000547,0.000732,-0.031234180249999997,-0.57391457795,-9.789782562,-0.003191,0.058556,-1.8611,-5.263157896173709e-07,1.6666666666775853e-05,2.999999999997449e-05,0.0007582937052130201,-9.964299048159653e-05,-9.175752275927818e-05
149700000000.0,6,0.00040207264999999996,0.011385520649999998,0.0235555733,0.000826,0.00053,0.000735,-0.031234180249999997,-0.5737184449499999,-9.789782562,-0.00319,0.058537,-1.8611,-5.263157893953263e-07,1.6666666666775853e-05,-9.99999999995449e-06,-0.0005183900083032614,6.742123372882602e-05,-8.554091618498405e-06
149700000000.0,6,-0.0027360553499999997,0.0012160246,0.043894565399999995,0.000826,0.00053,0.000735,-0.0312243736,-0.57387535135,-9.789782562,-0.00319,0.058553,-1.8611,-5.263157893953263e-07,1.6666666666331764e-05,-1.0000000000065512e-05,0.0008017526300612698,0.00033155191195377576,0.000129149247108995
149700000000.0,6,0.0097674234,-0.0039030467,0.03282285755,-0.00132,-0.001582,-0.000332,-0.031165533699999998,-0.5738459314,-9.789782562,-0.003184,0.058549,-1.8611,-5.263157896173709e-07,1.6666666666775853e-05,3.0000000000085514e-05,-0.0006935079295664059,-0.00024112744392690288,1.1767636170889606e-05
149700000000.0,6,0.0048444850999999995,-0.00734518085,0.01772061655,-0.002366,0.001622,0.000728,-0.0310282406,-0.5736988316499999,-9.789782562,-0.00317,0.058534,-1.8611,-5.263157893953263e-07,1.6666666666775853e-05,9.99999999995449e-06,0.000114169921002584,-0.00014830706839608077,-0.00033187077101794193
149700000000.0,6,-0.00469738535,-0.005933023249999999,0.02968472955,0.000817,-0.000535,0.000737,-0.031067467199999997,-0.57391457795,-9.789782562,-0.003173,0.058556,-1.8611,-5.263157893953263e-07,1.6666666666775853e-05,-7.00000000000145e-05,-4.9076912535687967e-05,-0.00011945888032705021,-7.69039748427236e-05
149700000000.0,6,-0.00344213415,0.00591340995,0.0399915187,0.001876,-0.00161,0.000741,-0.0311263071,-0.57409109765,-9.789782562,-0.003179,0.058575,-1.8611,-5.263157896173709e-07,-0.00010000000000021103,2.0000000000020002e-05,-0.0007515920007333116,-1.245884221345861e-06,0.00024764758630189954
149700000000.0,6,-0.00057859235,-0.00850236555,0.0334014499,-0.002386,-0.001574,-0.000334,-0.031293020149999996,-0.57418916415,-9.789782562,-0.003197,0.058585,-1.8611,-5.263157893953263e-07,7.142857143094261e-06,4.999999999921734e-06,0.0009603693212217879,0.0004398395567022373,-6.252483217927818e-05
149700000000.0,6,0.0008433719,-0.005540757249999999,0.0114149406,-0.002369,0.000558,-0.000338,-0.0312243736,-0.5740028377999999,-9.789782562,-0.003189,0.058566,-1.8611,-5.263157893953263e-07,7.142857142650172e-06,5.000000000032756e-06,-0.0006717486416437934,-0.0003707392691809641,0.00011416654414009297
149700000000.0,6,-0.006864655,0.00387362675,0.0251834772,0.000826,0.00053,0.000735,-0.031293020149999996,-0.57399303115,-9.789782562,-0.003196,0.058565,-1.8611,-5.263157896173709e-07,7.142857142650172e-06,1.0000000000065512e-05,-9.93975779184364e-07,-0.0001452783642605926,-6.705881187260565e-05
149700000000.0,6,-0.006060509699999999,0.011110934449999998,0.050916126799999996,0.001893,0.000521,0.000737,-0.0313420534,-0.5740420643999999,-9.789782562,-0.003202,0.05857,-1.8611,-5.263157893953263e-07,7.142857143094261e-06,-1.0000000000065512e-05,0.0004080329247466985,0.0004584773692404287,6.824823310008776e-05
149700000000.0,6,0.0041384062999999995,-0.0009708583499999999,0.0480721983,-0.000241,0.000539,0.000734,-0.0312243736,-0.5740812909999999,-9.789782562,-0.00319,0.058574,-1.8611,-5.263157896173709e-07,7.142857143094261e-06,-9.99999999995449e-06,-0.00021947132144003317,-0.00010633910404966862,2.0571223048618248e-05
149700000000.0,6,0.00293218835,-0.00352058735,0.02234935535,-0.003428,0.001632,-0.000341,-0.031067467199999997,-0.57393419125,-9.789782562,-0.003173,0.058558,-1.8611,-5.263157893953263e-07,7.142857142650172e-06,2.999999999997449e-05,0.0007557384174347384,0.0003048838100312423,-0.00011319746837676337
149700000000.0,6,-0.006678328649999999,-0.00057859235,0.0112776475,-0.002375,0.000557,0.00073,-0.031175340349999997,-0.57387535135,-9.789782562,-0.003185,0.058553,-1.8611,-5.263157893953263e-07,7.142857142650172e-06,-2.0000000000020002e-05,-0.00023535669142829563,-0.00026395978182569557,0.00010124270514799694
149700000000.0,6,-0.00189268345,0.009934136449999999,0.029988735699999998,0.000809,-0.001601,0.000739,-0.031322440099999994,-0.5737674782,-9.789782562,-0.0032,0.058541,-1.8611,-5.263157896173709e-07,7.142857143094261e-06,4.0000000000040004e-05,-6.728917789703553e-05,-0.0004393293284423727,-0.00021752838667368768
149700000000.0,6,0.005011198149999999,0.0063743225,0.0543680676,0.001901,0.001587,0.000735,-0.031194953649999996,-0.57395380455,-9.789782562,-0.003187,0.05856,-1.861,-5.263157893953263e-07,7.142857143094261e-06,-4.999999999999449e-05,-0.0006238041092528415,0.0003259564016253602,8.149375600531583e-05
149700000000.0,6,0.00552114395,-0.00218688295,0.047925098549999996,-0.000244,-0.000525,-0.000332,-0.031106693799999998,-0.5740616776999999,-9.789782562,-0.003177,0.058572,-1.861,-5.263157893953263e-07,7.142857142650172e-06,2.999999999997449e-05,0.0006413858631174676,0.00012460704410122148,0.0001145064511887256
149700000000.0,6,-0.00044129925,-0.0006472389,0.0156121868,-0.001328,-0.002648,-0.00033,-0.031430313249999994,-0.5739636112,-9.789782562,-0.003211,0.058561,-1.861,-5.263157896173709e-07,7.142857142650172e-06,-2.999999999997449e-05,-0.00015583504653361724,-5.398770034759082e-05,-0.00014488943123791564
149700000000.0,6,-0.0056290171,-0.00330484105,0.016661498349999998,-0.001308,0.000548,0.000732,-0.0314793465,-0.5738459314,-9.789782562,-0.003216,0.05855,-1.861,-5.263157893953263e-07,7.142857143094261e-06,9.99999999995449e-06,-2.620493400767171e-05,5.0088313952034724e-05,0.0001570386385461725
149700000000.0,6,-0.00306948145,0.00104931155,0.046885593649999995,0.001889,-0.000543,-0.000328,-0.031646059549999994,-0.57401264445,-9.789782562,-0.003232,0.058566,-1.861,-5.263157893953263e-07,7.142857143094261e-06,3.3333333333551707e-06,-0.00030652171770936126,-5.7830056660712614e-05,3.948138962685255e-05
149700000000.0,6,-0.005668243699999999,-0.00044129925,0.05524085945,0.001898,0.000523,-0.00033,-0.0317343194,-0.5743166505999999,-9.789782562,-0.003242,0.058597,-1.861,-5.263157896173709e-07,7.142857142650172e-06,3.3333333333551707e-06,0.0002181717267217137,0.00012932541051458024,-3.4983909558167214e-05
149700000000.0,6,-0.011944499699999998,-0.00012748645,0.03429385505,-0.001308,0.000548,0.000732,-0.03205793885,-0.57432645725,-9.789782562,-0.003274,0.058599,-1.861,-5.263157893953263e-07,-0.00010000000000021103,3.3333333333551707e-06,-0.0003915625753076052,-0.00020614835058996306,-8.205849902634399e-05
149700000000.0,6,0.004236472799999999,0.0044718324,0.023379053599999998,-0.001286,0.00268,-0.000339,-0.03176373935,-0.57414993755,-9.789782562,-0.003245,0.05858,-1.861,-5.263157893953263e-07,0.00010000000000021103,9.99999999995449e-06,0.0006474007547178778,0.00031153797072547285,0.00014130176876642198
149700000000.0,6,-0.0050013915,0.007502087249999999,0.03146953985,-0.000244,-0.000525,-0.000332,-0.03195987235,-0.5740224510999999,-9.789782562,-0.003264,0.058568,-1.861,-5.263157896173709e-07,-0.00010000000000021103,1.0000000000065512e-05,-0.0004045699353919588,-0.0002706402012553344,-1.990438818913476e-05
149700000000.0,6,-0.0042168595,0.0033832942499999997,0.046120674949999996,0.002942,-0.001618,0.000743,-0.032146198699999996,-0.5742578106999999,-9.789782562,-0.003283,0.058591,-1.861,-5.263157893953263e-07,4.999999999988347e-05,-3.0000000000085514e-05,0.0005731993261671384,0.00016855094199930143,-1.4123261836446188e-05
149700000000.0,6,0.0034029075499999997,0.0058055367999999994,0.0374417897,0.000839,0.001597,-0.000334,-0.03197948565,-0.5742774239999999,-9.789782562,-0.003267,0.058593,-1.861,-5.263157893953263e-07,5.000000000032756e-05,-1.999999999990898e-05,-0.0009000173675642667,-0.0008186373625369558,-0.00044774592136852254
149700000000.0,6,0.0060310897499999995,-0.0026379888499999996,0.026968287499999997,-0.002361,0.001623,-0.000339,-0.031773546,-0.5742185841,-9.789782562,-0.003245,0.058587,-1.861,-5.263157896173709e-07,-0.00010000000000021103,4.999999999999449e-05,0.0008318036287320238,0.0004469497701733438,0.0003368090983682376
149700000000.0,6,0.007453054,-0.00048052584999999995,0.019927112799999997,-0.000244,-0.000525,-0.000332,-0.0316950928,-0.5742774239999999,-9.789782562,-0.003238,0.058593,-1.861,-5.263157893953263e-07,2.4999999999941735e-05,-3.0000000000085514e-05,0.00016798487838176612,9.826611361729576e-05,-0.00011816364483840935
149700000000.0,6,0.0031185146999999996,0.0121994726,0.03564717275,0.000817,-0.000535,0.000737,-0.0316950928,-0.5742381973999999,-9.789782562,-0.003238,0.05859,-1.861,-5.263157893953263e-07,2.4999999999941735e-05,1.0000000000065512e-05,-0.0010928192342908247,-0.00014180099944649527,0.00020226781006095484
149700000000.0,6,-0.00199074995,0.007502087249999999,0.04162922925,-0.001298,0.00055,-0.001403,-0.0316754795,-0.5741793574999999,-9.789782562,-0.003235,0.058584,-1.861,-5.263157896173709e-07,2.5000000000385825e-05,2.0000000000020002e-05,0.0008540291440619421,-3.121818565876566e-07,-0.00019345987406126086
149700000000.0,6,-0.0027458619999999995,-0.0129840046,0.031008627299999997,-0.003433,0.001631,0.000726,-0.03166567285,-0.5741989707999999,-9.789782562,-0.003235,0.058585,-1.861,-5.263157893953263e-07,2.4999999999941735e-05,-3.0000000000085514e-05,-0.0006209874082535594,-5.756925923416922e-05,0.00016192765255959585
149700000000.0,6,-0.0103362091,-0.010061622899999999,0.0233594403,0.001872,-0.002674,-0.000324,-0.0320089056,-0.5744147171,-9.789782562,-0.003269,0.058608,-1.861,-5.263157896173709e-07,-0.00010000000000021103,-5.000000000032756e-06,-0.00012253953586296995,0.00022416151833049014,0.0001383892373321982
149700000000.0,6,-0.00128467115,0.0022555294999999998,0.047297472949999995,0.002951,-0.000552,0.000741,-0.0320873588,-0.5746108501,-9.789782562,-0.003278,0.058628,-1.861,-5.263157893953263e-07,1.6666666666775853e-05,-4.999999999921734e-06,0.00019062644987836996,-8.811735470337645e-05,-5.885450693102201e-05
149700000000.0,6,0.0067371685499999995,0.0023339827,0.0371083636,-0.001294,0.001615,-0.000337,-0.0320285189,-0.57469910995,-9.789782562,-0.003271,0.058636,-1.861,-5.263157893953263e-07,1.6666666666775853e-05,4.0000000000040004e-05,0.000475462762380037,-0.0001259669958761922,-0.00038157640203791143
149700000000.0,6,0.0135920169,-0.0032754210999999997,0.010944221399999999,-0.00345,-0.000499,0.00073,-0.031842192549999995,-0.5744735569999999,-9.789782562,-0.003253,0.058613,-1.861,-5.263157896173709e-07,1.6666666666331764e-05,-2.0000000000020002e-05,-0.0007388308952602854,0.00013559057972467592,0.00035127027009444756
149700000000.0,6,0.007374600799999999,0.0025105023999999997,0.01677917815,0.000817,-0.000534,0.000737,-0.031773546,-0.57442452375,-9.789782562,-0.003245,0.058608,-1.861,-5.263157893953263e-07,1.6666666666775853e-05,-2.0000000000575113e-06,0.0003507433801842805,0.00015626722806416637,-6.376311781686184e-06
149700000000.0,6,-0.00152003075,0.0095516771,0.045365562899999996,0.000826,0.000531,0.000736,-0.0316950928,-0.5742774239999999,-9.789782562,-0.003238,0.058594,-1.861,-5.263157893953263e-07,1.6666666666775853e-05,-1.999999999946489e-06,3.260613919926769e-05,-8.827693122048785e-06,3.931928102954285e-06
149700000000.0,6,0.0016867438,0.0020790098,0.05014140145,0.002965,0.000515,-0.000328,-0.031616639599999996,-0.5745912367999999,-9.789782562,-0.00323,0.058625,-1.861,-5.263157896173709e-07,1.6666666666775853e-05,-2.0000000000575113e-06,0.00012578772214554695,-0.0002934513677592676,-0.0003068195579652294
149700000000.0,6,0.006903881599999999,-0.00414821295,0.025458063399999998,-0.001308,0.000549,0.000732,-0.03144992655,-0.57450297695,-9.789782562,-0.003212,0.058617,-1.861,-5.263157893953263e-07,-0.00010000000000021103,-1.999999999946489e-06,0.0008149200432093703,0.0004925274489364639,0.00036856531886259036
149700000000.0,6,0.00463854545,-0.00342252085,0.0097478101,-0.002392,-0.001573,0.000734,-0.031420506599999995,-0.5743362638999999,-9.789782562,-0.003209,0.058599,-1.861,-5.263157893953263e-07,5.2631578948414415e-06,-2.0000000000575113e-06,-0.0006599015593695828,-6.454775385411615e-05,-1.9657354781030256e-05
149700000000.0,6,-0.0012748644999999999,0.0024320492,0.02262394155,0.000809,-0.001599,0.000739,-0.0314989598,-0.57434607055,-9.789782562,-0.003217,0.0586,-1.861,-5.263157896173709e-07,5.2631578948414415e-06,1.0000000000065512e-05,2.1132751799400606e-05,-0.000268498567060238,-0.00022990223243658792
149700000000.0,6,0.0027850886,0.007658993649999999,0.029792602699999997,0.001901,0.001588,0.000736,-0.031508766449999996,-0.57448336365,-9.789782562,-0.003219,0.058614,-1.861,-5.263157893953263e-07,5.263157894397352e-06,-5.000000000032756e-06,-0.00021524475749952476,-7.383633994106908e-05,0.0001620736859464511
149700000000.0,6,-0.005011198149999999,-0.00585457005,0.035470653049999995,-0.001317,-0.000516,0.000734,-0.0316558662,-0.5745912367999999,-9.789782562,-0.003233,0.058626,-1.861,-5.263157893953263e-07,5.2631578948414415e-06,-5.000000000032756e-06,0.00041445895079306877,0.0004535042382933785,7.832033556395834e-05
149700000000.0,6,0.00051975245,-0.00591340995,0.01721067075,-0.001308,0.000549,0.000732,-0.031646059549999994,-0.5746893033,-9.789782562,-0.003233,0.058635,-1.861,-5.263157896173709e-07,5.2631578948414415e-06,1.0000000000065512e-05,-0.00010991097990246251,-0.0005214962994040118,-0.0002793618952315613
149700000000.0,6,0.0017848103,0.0001176798,0.0191621941,-0.001289,0.001617,-0.001405,-0.0315577997,-0.5745716235,-9.789782562,-0.003224,0.058624,-1.861,-5.263157893953263e-07,5.2631578948414415e-06,-1.0000000000065512e-05,-0.0007363396850596365,0.00015192484393256045,0.00017749215627557713
149700000000.0,6,-0.01079712165,-0.00208881645,0.03307783045,-0.000253,-0.00159,-0.00033,-0.0318519992,-0.57462065675,-9.789782562,-0.003253,0.058628,-1.861,-5.263157893953263e-07,5.2631578948414415e-06,2.0000000000020002e-05,0.00034317337798642905,0.00010913394854883407,-0.0001101395138992517
149700000000.0,6,-0.00389324005,0.0022359162,0.0469934668,-0.000241,0.00054,0.000734,-0.03187161249999999,-0.57460104345,-9.789782562,-0.003255,0.058627,-1.861,-5.263157896173709e-07,5.263157894397352e-06,2.0000000000020002e-05,0.0001928439346622346,-0.00028081304641358606,-0.00020071827780732132
149700000000.0,6,-0.008090486249999999,0.0024124359,0.039510992849999996,0.000817,-0.000534,0.000738,-0.0320089056,-0.5746304634,-9.789782562,-0.00327,0.058629,-1.861,-5.263157893953263e-07,5.2631578948414415e-06,-4.0000000000040004e-05,-0.0006152257114147991,-2.110095952745361e-05,0.00036339196353905867
149700000000.0,6,0.0009708583499999999,-0.0070019481,0.02170211645,-0.00132,-0.001581,-0.000332,-0.03209716545,-0.57464027005,-9.789782562,-0.003278,0.05863,-1.861,-5.263157896173709e-07,5.2631578948414415e-06,2.0000000000020002e-05,0.0006720847189593052,4.901092722331413e-06,-0.00012624608532746384
149700000000.0,6,0.0046875787,0.0007158854499999999,0.015268954049999998,0.001876,-0.001608,0.000741,-0.032067745499999994,-0.57471872325,-9.789782562,-0.003276,0.058639,-1.861,-5.263157893953263e-07,5.2631578948414415e-06,-2.0000000000020002e-05,-6.294380728030097e-05,0.00039544979792460744,8.247716582608644e-05
149700000000.0,6,0.0073157609,0.00257914895,0.03292092405,0.001881,-0.001607,-0.000326,-0.03199909895,-0.57479717645,-9.789782562,-0.003269,0.058646,-1.861,-5.263157893953263e-07,5.263157894397352e-06,1.0000000000065512e-05,-6.78597197413533e-07,-6.124579077981807e-05,7.002462327625192e-05
149700000000.0,6,0.006903881599999999,-0.0060310897499999995,0.037392756449999995,-0.000246,0.00054,0.001801,-0.0318912258,-0.5750129227499999,-9.7896844955,-0.003258,0.058669,-1.861,-5.263157896173709e-07,5.2631578948414415e-06,-4.999999999999449e-05,0.0004629951134085056,0.00010750939802095516,-0.00020647411762268753
149700000000.0,6,-0.006060509699999999,-0.0016671305000000001,0.0245362383,-0.001299,0.001615,0.00073,-0.031940259049999996,-0.5748854363,-9.789782562,-0.003263,0.058655,-1.861,-5.263157893953263e-07,5.2631578948414415e-06,5.999999999994898e-05,-0.00036394521405319624,-0.0003817309623479481,-0.00010679673496943876
149700000000.0,6,-7.845319999999999e-05,0.0046875787,0.026036655749999995,0.000831,0.000533,-0.000332,-0.031950065699999995,-0.5748069831,-9.789782562,-0.003263,0.058647,-1.861,-5.263157893953263e-07,5.2631578948414415e-06,1.0000000000065512e-05,0.0002852017415967481,0.0003103275862852417,5.900354447056777e-05
149700000000.0,6,0.0018436501999999997,0.006325289249999999,0.031430313249999994,-0.001317,-0.000516,0.000734,-0.03192064575,-0.5746500766999999,-9.789782562,-0.003261,0.058632,-1.861,-5.263157896173709e-07,5.2631578948414415e-06,-4.0000000000040004e-05,-0.0004592721777983283,-6.100042466172795e-05,0.00017664195040406616
149700000000.0,6,0.00093163175,-0.00348136075,0.0311263071,-0.001314,-0.001579,-0.001399,-0.03190103245,-0.57471872325,-9.789782562,-0.003259,0.058638,-1.861,-5.263157893953263e-07,5.263157894397352e-06,4.0000000000040004e-05,-0.0004492448940412036,9.690365503134402e-06,-6.572349996569748e-05
149700000000.0,6,-0.00304986815,0.0034911673999999996,0.025889555999999998,-0.000244,-0.000524,-0.000332,-0.03211677875,-0.57465988335,-9.789782562,-0.00328,0.058633,-1.861,-5.263157893953263e-07,5.2631578948414415e-06,-4.0000000000040004e-05,0.0005914744683526152,4.35799959637162e-05,0.00015281892745186432
149700000000.0,6,0.008433719,-0.0010787315,0.029635696299999997,-0.000244,-0.000523,-0.000332,-0.03207755215,-0.5745716235,-9.789782562,-0.003276,0.058624,-1.861,-5.263157896173709e-07,5.2631578948414415e-06,2.0000000000020002e-05,5.23561723608304e-05,2.7636496381822084e-05,2.2416432957472754e-05
149700000000.0,6,0.00887501825,-0.00387362675,0.046983660149999995,0.000836,0.000535,-0.001399,-0.03192064575,-0.5747677565,-9.789782562,-0.00326,0.058644,-1.861,-5.263157893953263e-07,-0.00010000000000021103,9.99999999995449e-06,0.00013331309929711516,-8.639975289148616e-05,-0.00021171491210822402
149700000000.0,6,-0.00118660465,0.0087279185,0.0456401491,0.000826,0.000533,0.000736,-0.0318912258,-0.5748069831,-9.789782562,-0.003257,0.058647,-1.861,-5.263157893953263e-07,4.999999999810711e-06,-4.999999999921734e-06,-0.0006269551622334613,-4.332957449770802e-05,9.877918075901215e-05
149700000000.0,6,0.0014415775499999998,0.007698220249999999,0.027389973449999997,-0.00025,-0.000524,0.000736,-0.0318127726,-0.57467949665,-9.789782562,-0.00325,0.058634,-1.861,-5.263157896173709e-07,5.000000000254801e-06,-5.000000000032756e-06,-3.173425074368824e-05,-0.0001262033808788754,7.062093074163e-05
149700000000.0,6,0.0059624432,0.0018142302499999999,0.015278760699999998,-0.0013,0.001616,0.00073,-0.0315577997,-0.57448336365,-9.789782562,-0.003223,0.058614,-1.861,-5.263157893953263e-07,4.999999999810711e-06,-1.0000000000065512e-05,-0.00020791396896117226,5.847995282404206e-05,1.5935427589999773e-05
149700000000.0,6,0.005236751099999999,-0.00406975975,0.01587696635,-0.001325,-0.001581,0.000736,-0.03156760635,-0.5744343304,-9.789782562,-0.003225,0.058609,-1.861,-5.263157893953263e-07,5.000000000254801e-06,1.0000000000065512e-05,0.0004809115363332006,0.000281094463719489,-9.271098075322448e-05
149700000000.0,6,0.0012748644999999999,0.0024810824500000003,0.0311459204,0.000826,0.000533,0.000736,-0.0314989598,-0.5743951037999999,-9.789782562,-0.003218,0.058606,-1.861,-5.263157896173709e-07,4.999999999810711e-06,-2.0000000000020002e-05,-0.00012736057288114527,-0.0002109068691773519,9.349938100138011e-05
149700000000.0,6,-0.005766310199999999,0.00811009955,0.044767357249999994,-0.000228,0.001608,-0.000335,-0.0314989598,-0.5743362638999999,-9.789782562,-0.003217,0.058599,-1.861,-5.263157893953263e-07,5.000000000254801e-06,2.999999999997449e-05,0.0006627202602236051,-1.9927669713259988e-05,-0.0002701854404380116
149700000000.0,6,-0.0024320492,0.0036971070499999996,0.026075882349999996,-0.001317,-0.000515,0.000734,-0.0315381864,-0.57411071095,-9.789782562,-0.003222,0.058577,-1.861,-5.263157896173709e-07,4.999999999810711e-06,5.000000000032756e-06,8.522099567880026e-05,0.0001156802233861498,4.31574566533699e-05
149700000000.0,6,-0.0017946169499999999,-0.00644296905,0.0105127288,-0.001308,0.00055,0.000732,-0.03156760635,-0.5741597442,-9.789782562,-0.003225,0.058581,-1.861,-5.263157893953263e-07,5.000000000254801e-06,5.000000000032756e-06,-0.0002824138383321767,-0.00044349368423879376,9.399515999111707e-05
149700000000.0,6,-0.0008335652500000001,-0.006197802799999999,0.0171027976,-0.00132,-0.00158,-0.000332,-0.0316362529,-0.57409109765,-9.789782562,-0.003232,0.058575,-1.861,-5.263157893953263e-07,4.999999999810711e-06,-4.0000000000040004e-05,-0.0005803889864701775,0.0002505876105522997,-0.00013263982289164755
149700000000.0,6,-0.0013140911,0.00314793465,0.04298254694999999,0.000834,0.001598,0.000734,-0.03160683295,-0.57416955085,-9.789782562,-0.003229,0.058582,-1.861,-5.263157896173709e-07,4.999999999810711e-06,1.4999999999987246e-05,0.0007294254858784682,0.0002972182261911094,0.00018193874888668138
149700000000.0,6,-0.008012033049999999,0.010885381500000001,0.05480936685,-0.00025,-0.000524,0.000736,-0.031646059549999994,-0.5741205175999999,-9.789782562,-0.003232,0.058577,-1.861,-5.263157893953263e-07,5.000000000254801e-06,1.4999999999987246e-05,-0.0006395106035724241,-0.00033962714539348404,-3.553978158951643e-05
149700000000.0,6,-0.0037461403,-0.004393379199999999,0.030410421649999998,-0.000245,-0.000523,-0.000332,-0.03186180585,-0.57424800405,-9.789782562,-0.003255,0.058591,-1.861,-5.263157893953263e-07,4.999999999810711e-06,-2.0000000000020002e-05,-4.7245426343552055e-05,7.387633353350687e-05,1.4863502555167996e-05
149700000000.0,6,0.004903325,-0.0095516771,0.0108069283,-0.002383,-0.000506,0.000732,-0.0318323859,-0.57418916415,-9.789782562,-0.003252,0.058584,-1.861,-5.263157896173709e-07,5.000000000254801e-06,2.0000000000020002e-05,0.0010035034395741854,6.526891034819293e-05,-0.0002673620488864159
149700000000.0,6,-0.00877695175,0.00477583855,0.01664188505,-0.000227,0.001608,-0.000335,-0.0319304524,-0.57414993755,-9.789782562,-0.003261,0.058581,-1.861,-5.263157893953263e-07,4.999999999810711e-06,-2.999999999997449e-05,-0.0005189403267500184,-2.3218501441490957e-05,0.00046919536181427857
149700000000.0,6,-0.009502643849999999,0.012915358049999999,0.045375369549999996,0.000825,0.000533,0.000736,-0.03209716545,-0.5740616776999999,-9.789782562,-0.003278,0.058571,-1.861,-5.263157893953263e-07,5.000000000254801e-06,2.0000000000020002e-05,-0.0005978066082212366,-0.00019335848557711088,-0.00023871712761963648
149700000000.0,6,-0.006452775699999999,-0.0014415775499999998,0.047611285749999996,-0.000236,0.000542,-0.000333,-0.032156005349999996,-0.57420877745,-9.789782562,-0.003285,0.058587,-1.861,-5.263157896173709e-07,4.999999999810711e-06,-1.0000000000065512e-05,0.0002975000021752383,0.0002766045056465938,0.00011079067719158009
149700000000.0,6,0.0033636809499999996,-0.001569064,0.030116222149999997,-0.003442,0.000568,0.000728,-0.031940259049999996,-0.57409109765,-9.789782562,-0.003263,0.058574,-1.861,-5.263157893953263e-07,5.000000000254801e-06,-3.3333333333551707e-06,-0.00028419846699548335,-0.0003286783352689504,-0.00014577370190788086
149700000000.0,6,0.00324600115,-0.004648352099999999,0.023545766649999997,-0.00237,0.00056,-0.000337,-0.0318323859,-0.5738459314,-9.789782562,-0.003251,0.058549,-1.861,-5.263157893953263e-07,4.999999999810711e-06,-3.3333333332441484e-06,-0.00010184538451977337,2.7644086916245314e-05,0.00017286663196754148
149700000000.0,6,0.0019809433,-0.004059953099999999,0.03819690175,0.001872,-0.002671,-0.000324,-0.03190103245,-0.5741401308999999,-9.789782562,-0.003259,0.05858,-1.861,-5.263157896173709e-07,5.000000000254801e-06,-3.3333333333551707e-06,0.000454948105266903,0.00039504158306402637,-0.00028191950174898117
149700000000.0,6,-0.0051190713,-0.00328522775,0.036235571749999994,-0.000244,-0.000523,-0.000332,-0.0319892923,-0.5743166505999999,-9.789782562,-0.003268,0.058597,-1.861,-5.263157893953263e-07,4.999999999810711e-06,2.999999999997449e-05,-0.0002663935334244888,-7.662709183642313e-05,0.0003158384496313865
149700000000.0,6,-0.0008139519499999999,-0.006943108199999999,0.04027591155,-0.001299,0.001616,0.00073,-0.03195987235,-0.5743951037999999,-9.789782562,-0.003264,0.058606,-1.861,-5.263157893953263e-07,-0.00010000000000021103,-9.99999999995449e-06,-0.00030889435832135576,-1.4321053051880028e-05,-0.00024939401333408384
149700000000.0,6,0.0044522191,0.00210842975,0.029792602699999997,0.001893,0.000524,0.000738,-0.0318323859,-0.5744735569999999,-9.789782562,-0.003252,0.058613,-1.861,-5.263157896173709e-07,5.882352941188884e-06,-1.0000000000065512e-05,1.4080602135195519e-05,-0.00010543894236425544,0.00029753330037074477
149700000000.0,6,-0.00208881645,0.00630567595,0.030841914249999994,-0.00025,-0.000524,0.000736,-0.03188141915,-0.5744735569999999,-9.789782562,-0.003256,0.058614,-1.861,-5.263157893953263e-07,5.882352941188884e-06,1.0000000000065512e-05,3.527700097347153e-05,-9.757843256230636e-05,-0.0002757480391561984
149700000000.0,6,0.0044522191,-0.00012748645,0.035039160449999995,-0.003423,0.001636,-0.001408,-0.0316950928,-0.5743362638999999,-9.789782562,-0.003237,0.058599,-1.861,-5.263157896173709e-07,5.882352941188884e-06,-1.0000000000065512e-05,0.0003849856453342418,0.00011155039570720504,6.509885730437981e-05
149700000000.0,6,0.006246836049999999,-0.008816178349999999,0.02382035285,-0.001322,-0.000516,0.001801,-0.0315381864,-0.5743166505999999,-9.789782562,-0.003221,0.058598,-1.861,-5.263157893953263e-07,5.882352941188884e-06,2.0000000000020002e-05,5.233596920278111e-05,0.00017254231011221144,0.0002295129217954328
149700000000.0,6,-0.005717276949999999,0.0028439284999999996,0.0226337482,-0.000258,-0.001589,0.000738,-0.03168528615,-0.5741597442,-9.789782562,-0.003237,0.058582,-1.861,-5.263157893953263e-07,5.882352941188884e-06,-4.999999999921734e-06,-0.00028852464557518887,-0.0003336883981470695,-0.00018717430635645238
149700000000.0,6,-0.00267721545,0.004236472799999999,0.03474496095,0.000823,-0.000531,-0.00033,-0.0317343194,-0.57420877745,-9.789782562,-0.003242,0.058586,-1.861,-5.263157896173709e-07,5.882352941188884e-06,-5.000000000032756e-06,-0.0001290460048093342,-8.725399297171421e-05,0.00019035491702454332
149700000000.0,6,0.00383440015,0.0007649187,0.0482094914,0.000831,0.000534,-0.000331,-0.031518573099999996,-0.57432645725,-9.789782562,-0.003219,0.058599,-1.861,-5.263157893953263e-07,5.882352941188884e-06,-2.0000000000020002e-05,0.0006331445666076727,0.0004910747795896508,-0.00014270110406597314
