Time,placement_label,user_acc_x(m/s^2),user_acc_y(m/s^2),user_acc_z(m/s^2),rotation_rate_x(rad/s),rotation_rate_y(rad/s),rotation_rate_z(rad/s),gravity_x(m/s^2),gravity_y(m/s^2),gravity_z(m/s^2),attitude_roll(rad),attitude_pitch(rad),attitude_yaw(rad),target_delta_x,target_delta_y,target_delta_z,target_delta_roll,target_delta_pitch,target_delta_yaw
149920000000.0,6,-0.006501808949999999,0.013807763199999998,0.0816697812,-0.005844,0.001142,0.000309,-0.12518188724999998,-0.61235664595,-9.786742500499999,-0.01279,0.062484,-2.095,0.0,0.0,0.0,0.0,0.0,0.0
149920000000.0,6,-0.003138128,0.005668243699999999,0.0228887211,-0.002658,4.9e-05,0.001384,-0.1252505338,-0.61184670015,-9.786742500499999,-0.012797,0.062432,-2.095,2.6315789474207207e-06,9.999999999998899e-05,1.0000000000065512e-05,0.000864327604261042,0.0003469698295974766,-0.00016688616297516612
149920000000.0,6,0.00101008495,0.00771783355,0.04412992499999999,0.002668,-0.00106,0.001395,-0.12535840694999997,-0.6119545732999999,-9.786742500499999,-0.012809,0.062443,-2.095,2.6315789474207207e-06,-1.2658227848127979e-06,-2.0000000000020002e-05,-1.5238940012721192e-05,-0.00013576692236649812,-0.0004511239608264994
149920000000.0,6,0.01793636285,0.01116977435,0.06879364975,0.001593,-0.002117,0.001395,-0.12552512,-0.6122683861,-9.786742500499999,-0.012826,0.062474,-2.095,2.631578947198676e-06,-1.2658227848127979e-06,3.999999999992898e-05,7.201109904075159e-05,-0.00038172872686326187,5.305814840287498e-05
149920000000.0,6,0.01075789505,-0.00420705285,0.006727361899999999,-0.005867,-0.00099,0.00138,-0.12568202639999998,-0.61184670015,-9.786742500499999,-0.012841,0.062432,-2.095,2.6315789474207207e-06,-1.2658227848127979e-06,-9.99999999995449e-06,-2.4346649196725634e-05,0.0004407981842078357,0.00018601750537355216
149920000000.0,6,0.00269682875,-0.0017357770499999998,-0.05398560825,-0.004772,0.001135,-0.000757,-0.12555453995,-0.61117984795,-9.786742500499999,-0.012828,0.062363,-2.095,2.6315789474207207e-06,-1.2658227848127979e-06,-9.99999999995449e-06,0.00032388783750185446,8.267930254168832e-05,-0.0002701249496956798
149920000000.0,6,-0.006413549099999999,0.0029027683999999997,0.0126113519,0.000562,0.001091,-0.000747,-0.1255643466,-0.6110327482,-9.786742500499999,-0.012829,0.062349,-2.095,2.6315789474207207e-06,-1.2658227848127979e-06,1.4999999999987246e-05,-0.0002742105644956902,-2.4626716920383984e-05,0.00015916675429799437
149920000000.0,6,0.00120621795,0.0235751866,0.09297684865,0.001625,1.8e-05,-0.001811,-0.12555453995,-0.61090526175,-9.786840566999999,-0.012829,0.062336,-2.095,2.631578947198676e-06,-1.2658227848127979e-06,1.4999999999987246e-05,-7.154235466919762e-05,0.00017939325304361375,-4.9297164511234726e-05
149920000000.0,6,-0.0075707338,0.022525875049999998,0.0638216782,-0.001573,0.001108,-0.000751,-0.12560357319999998,-0.6104443491999999,-9.786840566999999,-0.012833,0.062289,-2.095,2.6315789474207207e-06,-1.2658227848127979e-06,-5.000000000032756e-06,0.0001964459163677143,-0.00014248705378316906,0.00031619843101631656
149920000000.0,6,0.0025889556,0.0038638200999999996,0.0144550021,0.001619,1.7e-05,-0.000744,-0.12543686015,-0.6103462827,-9.786840566999999,-0.012817,0.062278,-2.095,2.6315789474207207e-06,-1.2658227848127979e-06,-5.000000000032756e-06,-0.000380844658374839,3.7087061749430106e-05,-0.0003217747529799739
149920000000.0,6,0.013954862949999999,0.0014317708999999998,0.028664837949999997,0.000544,-0.00104,-0.000744,-0.12527995374999998,-0.6104639625,-9.786840566999999,-0.0128,0.06229,-2.095,2.6315789474207207e-06,-1.2658227848127979e-06,-9.99999999995449e-06,0.00036471704873020094,-0.00021702085603236831,2.8158390563637337e-05
149920000000.0,6,0.0128859381,0.005942829899999999,0.05138684599999999,0.003739,-0.001067,0.000329,-0.12526034044999998,-0.6107777752999999,-9.786840566999999,-0.012798,0.062323,-2.095,2.631578947198676e-06,-1.2658227848127979e-06,2.0000000000020002e-05,0.00029367465333835635,0.00018227840292905917,0.0001085272323665884
149920000000.0,6,-0.0015396440499999998,0.0053936575,0.0367160976,-0.000534,-0.001033,0.001389,-0.12535840694999997,-0.6108268085499999,-9.786840566999999,-0.012808,0.062327,-2.095,2.6315789474207207e-06,-1.2658227848127979e-06,-6.666666666710341e-06,-0.0004910764963432304,-0.00013628751841854303,-0.00029036934685518906
149920000000.0,6,-0.0093555441,0.005060231399999999,-0.021770763000000002,-0.002637,0.002182,0.000313,-0.1254662801,-0.61049338245,-9.786840566999999,-0.012819,0.062294,-2.095,2.6315789474207207e-06,-1.2658227848127979e-06,-6.666666666599319e-06,0.0003076113945077452,0.0003533327550808707,0.0003048557137591973
149920000000.0,6,-0.004981778199999999,0.00014709975,-0.01022833595,-0.002654,5.1e-05,0.000316,-0.1255055067,-0.61021879625,-9.786840566999999,-0.012823,0.062265,-2.095,2.6315789474207207e-06,-1.2658227848127979e-06,-6.666666666710341e-06,-0.00014300460265727344,-0.0003424956550168723,-0.00023323577078819546
149920000000.0,6,-0.0034715540999999996,0.00363826715,0.021045070899999997,-0.000498,0.002166,-0.000751,-0.12551531335,-0.61012072975,-9.786840566999999,-0.012824,0.062255,-2.095,2.631578947198676e-06,-1.2658227848127979e-06,-9.99999999995449e-06,0.00038758620074906547,2.2171934191073106e-05,0.00013225323430253455
149920000000.0,6,-0.0004707192,0.0059624432,0.03362700285,0.000566,0.001092,-0.001815,-0.12552512,-0.6100520831999999,-9.786840566999999,-0.012825,0.062248,-2.095,2.6315789474207207e-06,-1.2658227848127979e-06,3.999999999992898e-05,-0.0003307100962866155,-0.0001235163016646279,-6.279640024590971e-05
149920000000.0,6,-0.00436395925,-0.0011179581,0.0532108829,0.001627,0.001082,-0.000745,-0.1256624131,-0.61029724945,-9.786840566999999,-0.01284,0.062273,-2.095,2.6315789474207207e-06,-1.2658227848127979e-06,-3.999999999992898e-05,-9.277177461849972e-05,-0.00013167655147228174,-7.985444919307583e-05
149920000000.0,6,-0.019544653449999998,-0.0037069137,0.06230164745,0.00161,-0.001049,-0.000742,-0.12620177885,-0.6107091287499999,-9.786840566999999,-0.012894,0.062315,-2.095,2.6315789474207207e-06,-1.2658227848127979e-06,2.999999999997449e-05,-1.3741936330829985e-05,0.00013660134492354814,0.00019471895254892513
149920000000.0,6,-0.021682503149999997,0.0038245934999999996,0.0471699865,0.001605,-0.00105,0.000326,-0.12661365815,-0.61090526175,-9.786742500499999,-0.012936,0.062335,-2.095,2.6315789474207207e-06,-1.2658227848127979e-06,-2.0000000000020002e-05,9.477697909740512e-05,-3.526716769686189e-05,3.582016746046801e-05
149920000000.0,6,-0.00977723005,0.0028439284999999996,0.0223395487,-0.002632,0.002182,-0.000755,-0.12669211135,-0.6108268085499999,-9.786742500499999,-0.012944,0.062327,-2.095,2.631578947198676e-06,-1.2658227848127979e-06,-2.0000000000020002e-05,-7.930206100903447e-06,1.7192803405396972e-06,-0.0003203897099533781
149920000000.0,6,0.00267721545,-0.00330484105,-0.0122190859,-0.002649,5.1e-05,-0.000751,-0.12657443155,-0.6106600955,-9.786840566999999,-0.012933,0.06231,-2.095,2.6315789474207207e-06,-1.2658227848127979e-06,4.0000000000040004e-05,-9.161937292599676e-05,0.0003002762262118708,0.00014931065669045174
149920000000.0,6,0.0150630144,-0.0030106415499999996,-0.0128074849,0.000555,0.00109,0.00032,-0.12624100545,-0.61065028885,-9.786840566999999,-0.012899,0.062309,-2.095,2.6315789474207207e-06,-1.2658227848127979e-06,-2.0000000000020002e-05,0.00010111190992426883,-7.342946008415119e-05,-0.00020091887561032168
149920000000.0,6,0.0204370586,0.012621158549999999,0.02774301285,0.003739,-0.001067,0.00033,-0.12592719265,-0.6107189354,-9.786840566999999,-0.012867,0.062316,-2.095,2.6315789474207207e-06,-1.2658227848127979e-06,9.99999999995449e-06,-0.00011750737899220154,-4.8846939555646784e-05,0.00013001408933294156
149920000000.0,6,0.013131104349999999,0.01232695905,0.0635078654,0.001596,-0.002115,0.000328,-0.12580951285,-0.6107287420499999,-9.786840566999999,-0.012855,0.062317,-2.095,2.631578947198676e-06,-1.2658227848127979e-06,-1.999999999990898e-05,-0.00026713393403265256,0.00010142992656558825,-0.0002976940519600277
149920000000.0,6,0.00656064885,0.0081002929,0.05392676835,-0.000535,-0.001033,0.001389,-0.1258193195,-0.6106895154499999,-9.786840566999999,-0.012855,0.062313,-2.095,2.6315789474207207e-06,-1.2658227848127979e-06,9.99999999995449e-06,0.0003186278739608292,-0.00024870683341360333,0.0005282818624702326
149920000000.0,6,0.0021770762999999997,0.0010885381499999998,0.037167203499999996,0.000557,2.4e-05,-0.001807,-0.1257800929,-0.6107189354,-9.786840566999999,-0.012851,0.062316,-2.095,2.6315789474207207e-06,-1.2658227848127979e-06,2.0000000000020002e-05,-0.0003337379112863456,0.00037216583668309156,-0.0003939178979608035
149920000000.0,6,0.0011081514499999999,0.0075707338,0.02221206225,0.000552,2.3e-05,-0.00074,-0.1257604796,-0.6106012556,-9.786840566999999,-0.012849,0.062305,-2.095,2.6315789474207207e-06,-1.2658227848127979e-06,-2.999999999997449e-05,0.0003987706026210361,-0.0005370866840950228,7.659701794675983e-05
149920000000.0,6,-0.00018632635,0.01005181625,0.02491869765,-0.000507,0.001097,-0.000743,-0.1256624131,-0.6104051226,-9.786840566999999,-0.012839,0.062284,-2.095,2.631578947198676e-06,-1.2658227848127979e-06,9.99999999995449e-06,-0.0003052811249828549,0.00033746464217476735,-0.0001181101239045787
149920000000.0,6,0.00050013915,0.00577611685,0.0059232166000000004,-0.001577,4.1e-05,-0.001811,-0.1257408663,-0.6103070560999999,-9.786840566999999,-0.012848,0.062274,-2.0951,2.6315789474207207e-06,-1.2658227848127979e-06,2.0000000000020002e-05,0.0004552499988845493,-0.00016872007734547445,0.00035576278767354697
149920000000.0,6,-0.0018632635,0.0053348176,0.0039814999,-0.000538,-0.002101,0.00033,-0.12592719265,-0.6101697629999999,-9.786840566999999,-0.012867,0.06226,-2.0951,2.6315789474207207e-06,-1.2658227848127979e-06,-5.000000000032756e-06,-0.0005259217497281601,0.00041449169682361564,-0.00017114917836872495
149920000000.0,6,0.0040011132,0.004716998649999999,0.019848659600000002,-0.001583,4e-05,-0.000743,-0.1259566126,-0.61000304995,-9.786840566999999,-0.012869,0.062243,-2.0951,2.6315789474207207e-06,-1.2658227848127979e-06,-5.000000000032756e-06,0.0005868570674295165,-0.0004069637678285609,0.00026567243370581584
149920000000.0,6,-0.0049915848499999995,0.0083160392,0.04394359864999999,0.000573,0.002155,-0.001811,-0.1259369993,-0.6100128566,-9.786840566999999,-0.012868,0.062244,-2.0951,2.631578947198676e-06,-1.2658227848127979e-06,-1.999999999990898e-05,-3.118347481879946e-05,0.00018143832481487543,-0.0003192689117508113
149920000000.0,6,0.0034911673999999996,0.0047660318999999994,0.05650591729999999,0.001607,1.2e-05,0.001397,-0.1258977727,-0.61019918295,-9.786840566999999,-0.012863,0.062264,-2.0951,2.6315789474207207e-06,-1.2658227848127979e-06,9.99999999995449e-06,-8.876482200708552e-05,0.0001640499594337541,0.00021263276889926103
149920000000.0,6,0.0066685220000000005,0.0008629851999999999,0.04033475145,-0.000516,3.2e-05,-0.000741,-0.1257800929,-0.6103462827,-9.786840566999999,-0.012851,0.062278,-2.0951,2.6315789474207207e-06,-1.2658227848127979e-06,1.0000000000065512e-05,-1.7857881087983418e-05,-5.1480903860756655e-05,-0.0001125530476540973
149920000000.0,6,0.004981778199999999,-0.00442279915,0.0150434011,0.000551,2.3e-05,-0.00074,-0.1257408663,-0.61043454255,-9.786840566999999,-0.012847,0.062288,-2.0951,2.6315789474207207e-06,-1.2658227848127979e-06,9.99999999995449e-06,0.0006871415036687062,-0.00011062532864514196,0.0007572708771569348
149920000000.0,6,-0.0043737659,0.0044326057999999995,0.0023241760499999996,-0.000516,3.2e-05,-0.000741,-0.12580951285,-0.6103070560999999,-9.786840566999999,-0.012855,0.062275,-2.0951,2.631578947198676e-06,-1.2658227848127979e-06,-2.0000000000020002e-05,-0.0007488014573108839,-0.0001521674088627023,-0.0007495648423206172
149920000000.0,6,-0.00159848395,0.00014709975,0.010404855650000001,0.001604,-0.001052,0.000332,-0.1258977727,-0.61037570265,-9.786840566999999,-0.012863,0.062281,-2.0951,2.6315789474207207e-06,-1.2658227848127979e-06,-9.99999999995449e-06,-0.0002895561282502193,0.00019839710763602803,-1.4330218220150182e-05
149920000000.0,6,-0.01621039245,-0.0036971070499999996,0.02745862,0.000532,-0.001045,0.001397,-0.12624100545,-0.61041492925,-9.786840566999999,-0.012899,0.062285,-2.0951,2.6315789474207207e-06,-1.2658227848127979e-06,1.333333333330966e-05,0.000357376935914297,-0.0002407556429377955,-0.000273635827971061
149920000000.0,6,-0.014258869099999998,-0.009688970199999999,0.0271448072,0.000537,-0.001044,0.00033,-0.12655481824999998,-0.610562029,-9.786840566999999,-0.01293,0.0623,-2.0951,-9.999999999998899e-05,-1.2658227848127979e-06,1.333333333330966e-05,-3.159006126215308e-05,0.0001214045763062721,0.0003887235694374422
149920000000.0,6,-0.0058251501,-0.00365788045,0.02549729,0.001613,1.3e-05,0.00033,-0.12660385149999998,-0.6106012556,-9.786840566999999,-0.012936,0.062305,-2.0951,3.333333333332966e-05,-1.2658227848127979e-06,1.333333333330966e-05,-6.621079262303375e-05,-5.0366122969602856e-05,-5.382767188125137e-05
149920000000.0,6,0.0002549729,0.006060509699999999,0.035372586549999994,0.00056,0.001088,-0.000741,-0.1265450116,-0.61059144895,-9.786840566999999,-0.01293,0.062304,-2.0951,3.333333333332966e-05,-1.2658227845907533e-06,-2.4999999999941735e-05,0.00016511525613908257,0.00030934864209242185,1.829559869544889e-05
149920000000.0,6,0.005021004799999999,0.0008041452999999999,0.0362649917,0.001613,1.3e-05,0.00033,-0.1265253983,-0.6107287420499999,-9.786840566999999,-0.012928,0.062317,-2.0951,3.333333333332966e-05,-1.2658227848127979e-06,-2.5000000000052758e-05,-0.00020492603790329966,-0.0002690041608524041,-0.00028785668521451313
149920000000.0,6,0.0030792880999999995,-0.0014906108,0.02054493175,-0.000516,3.2e-05,-0.000741,-0.1265253983,-0.6108268085499999,-9.786742500499999,-0.012928,0.062328,-2.0951,-5.0000000000105516e-05,-1.2658227848127979e-06,4.0000000000040004e-05,0.00026157180632125493,0.00037698959829879364,0.00016771225431657516
149920000000.0,6,-0.0002549729,0.0053642375499999995,0.01830901555,0.000532,-0.001045,0.001397,-0.12648617169999998,-0.61065028885,-9.786840566999999,-0.012923,0.062309,-2.0951,-4.999999999988347e-05,-1.2658227848127979e-06,-5.000000000032756e-06,0.0005091634443265478,-0.0005200313324289496,0.0009917279066088205
149920000000.0,6,0.0015102241,0.0075511204999999994,0.0263995018,-0.002663,-0.001017,0.000324,-0.12646655839999998,-0.61043454255,-9.786840566999999,-0.012921,0.062288,-2.0951,6.666666666710341e-06,-1.2658227848127979e-06,-5.000000000032756e-06,-0.0006159138109534459,5.2498423906754965e-05,-0.0010553137309481306
149920000000.0,6,0.00610954295,0.0030792880999999995,0.0283608318,0.000537,-0.001043,0.00033,-0.12641752515,-0.6103070560999999,-9.786840566999999,-0.012916,0.062274,-2.0951,6.666666666710341e-06,-1.2658227848127979e-06,-1.999999999990898e-05,-0.00017118098433641094,9.57805205068496e-05,0.0003520158356895009
149920000000.0,6,-0.00114737805,0.0063645158499999995,0.0416782625,0.000546,2.2e-05,0.000328,-0.12649597835,-0.61029724945,-9.786840566999999,-0.012924,0.062273,-2.0951,6.666666666488297e-06,-1.2658227848127979e-06,9.99999999995449e-06,-4.876322256347487e-06,-0.00010970997391290815,-6.33272830637549e-05
149920000000.0,6,0.00942419065,0.010022396299999998,0.041384063,0.000542,-0.001042,-0.000738,-0.12643713845,-0.61021879625,-9.786840566999999,-0.012919,0.062266,-2.0951,6.666666666710341e-06,-1.2658227848127979e-06,1.0000000000065512e-05,0.0002154827869102205,1.7842339606000124e-05,-4.093131078866663e-06
149920000000.0,6,0.00220649625,0.0023830159499999997,0.022672974799999995,-0.000522,3.1e-05,0.000326,-0.1264077185,-0.6102089896,-9.786840566999999,-0.012915,0.062264,-2.0951,6.666666666710341e-06,-1.2658227848127979e-06,9.99999999995449e-06,0.00015962135809269307,0.0002412842648054081,9.550445466535717e-06
149920000000.0,6,-0.00818855275,0.0068842683,0.025369803549999997,0.000564,0.00109,-0.001809,-0.12648617169999998,-0.6102286028999999,-9.786840566999999,-0.012923,0.062266,-2.0951,6.666666666710341e-06,-1.2658227848127979e-06,-2.0000000000020002e-05,-0.00018828733247685386,-9.195853835031187e-05,-0.000333974259951679
149920000000.0,6,-0.005491723999999999,0.0072961475999999996,0.02656621485,0.000542,-0.001042,-0.000738,-0.12663327145,-0.61017956965,-9.786840566999999,-0.012939,0.062262,-2.0951,6.666666666710341e-06,-1.2658227848127979e-06,-1.0000000000065512e-05,-0.00025560937727035077,2.6225390393319614e-05,0.00026233387444512396
149920000000.0,6,-0.0045698989,0.0055701772,0.0178873296,0.000554,0.001088,0.000326,-0.1266626914,-0.6101109230999999,-9.786840566999999,-0.012941,0.062254,-2.0951,6.666666666488297e-06,-1.2658227848127979e-06,-9.99999999995449e-06,-2.0122977917390317e-05,-0.000206177172988653,-0.00014705488207725909
149920000000.0,6,-0.0009708583499999999,-0.00475622525,0.016994924449999997,-0.001583,4.1e-05,-0.000743,-0.12667249805,-0.61010111645,-9.786840566999999,-0.012942,0.062254,-2.0951,6.666666666710341e-06,-1.2658227848127979e-06,1.4999999999987246e-05,-0.0002507310101904983,8.616343272560556e-05,-0.0004393220571621628
149920000000.0,6,0.0079237732,-0.0074922806,0.02297698095,0.000542,-0.001042,-0.000737,-0.12658423819999998,-0.6102089896,-9.786840566999999,-0.012933,0.062264,-2.0951,6.666666666710341e-06,-1.2658227848127979e-06,1.4999999999987246e-05,0.00031865102363913544,7.720234664021497e-05,0.0001380418711434822
149920000000.0,6,0.005933023249999999,0.0010787315,0.04406127844999999,0.001609,-0.001051,-0.000736,-0.1265450116,-0.61039531595,-9.786840566999999,-0.012929,0.062284,-2.0951,6.666666666710341e-06,-1.2658227848127979e-06,1.0000000000065512e-05,8.758196121792794e-05,-4.872235146824444e-05,0.0005407454965575126
149920000000.0,6,0.01073828175,0.0079237732,0.0481114249,0.000548,0.001087,0.001394,-0.12626061875,-0.6103658959999999,-9.786840566999999,-0.0129,0.06228,-2.0951,6.666666666710341e-06,-1.2658227848127979e-06,-9.99999999995449e-06,0.0002466748958067366,-2.3463393090894513e-05,-0.00031076670010467267
149920000000.0,6,0.0039520799499999995,0.0066979419499999995,0.029253236949999997,0.000528,-0.002108,0.000332,-0.12635868525,-0.61033647605,-9.786840566999999,-0.01291,0.062277,-2.0951,6.666666666488297e-06,-1.2658227848127979e-06,-1.0000000000065512e-05,-0.00013862257165887792,-8.393389088534597e-05,0.00017649777598686966
149920000000.0,6,0.00020593964999999999,-0.0014906108,0.016082905999999998,-0.000516,3.3e-05,-0.000741,-0.1263488786,-0.6103855092999999,-9.786840566999999,-0.01291,0.062282,-2.0951,6.666666666710341e-06,-1.2658227848127979e-06,9.99999999995449e-06,-0.00017557886401999012,0.00023016778106166313,-0.00011008700487792622
149920000000.0,6,-0.00038245935,-0.0044326057999999995,0.01548470035,-0.001583,4.2e-05,-0.000743,-0.12635868525,-0.6104247359,-9.786840566999999,-0.01291,0.062286,-2.0951,6.666666666710341e-06,-1.2658227848127979e-06,-2.999999999997449e-05,0.00017615610610150628,2.3916507497556694e-05,-0.00012657431925052615
149920000000.0,6,0.0018828768,-0.0017553903499999998,0.012042566199999999,0.000545,2.3e-05,0.000328,-0.12637829855,-0.61041492925,-9.786840566999999,-0.012912,0.062285,-2.0951,-9.999999999998899e-05,-1.2658227848127979e-06,2.0000000000020002e-05,-0.00015983952848704075,-3.523231471991295e-05,0.0002991848925191082
149920000000.0,6,0.0063743225,0.00352058735,0.0340290755,0.002667,-0.002124,-0.000732,-0.12637829855,-0.6106012556,-9.786840566999999,-0.012912,0.062305,-2.0951,2.4999999999941735e-05,-1.2658227848127979e-06,-2.0000000000020002e-05,-0.00038118608103509394,-0.00015423388867397136,-0.00035641479426084394
149920000000.0,6,0.00038245935,0.0023732093,0.035980598849999997,-0.000513,0.001098,0.000324,-0.12637829855,-0.61049338245,-9.786840566999999,-0.012912,0.062294,-2.0951,2.4999999999941735e-05,-1.2658227848127979e-06,2.0000000000020002e-05,-0.0001551109488156649,0.00024044687989377422,0.000276068577256941
149920000000.0,6,-0.0023732093,-0.0003726527,0.03283266419999999,0.001612,1.4e-05,0.00033,-0.12631945865,-0.61059144895,-9.786840566999999,-0.012906,0.062303,-2.0951,2.500000000016378e-05,-1.2658227848127979e-06,2.0000000000020002e-05,0.0003114574387989011,-0.0002489433251984252,-9.39300663379411e-05
149920000000.0,6,0.0028243152,0.0026281822,0.045689182349999996,0.001612,1.5e-05,0.00033,-0.12628023205,-0.610758162,-9.786840566999999,-0.012902,0.06232,-2.0951,2.4999999999941735e-05,-1.2658227848127979e-06,-2.0000000000020002e-05,-8.622742937289957e-05,9.596819153689928e-05,0.0002126187288516504
149920000000.0,6,0.0008335652500000001,0.0040403398,0.022643554849999997,0.000545,2.3e-05,0.000328,-0.12637829855,-0.6108170019,-9.786742500499999,-0.012913,0.062326,-2.0951,-9.999999999998899e-05,-1.2658227848127979e-06,-2.999999999997449e-05,-8.66063685161303e-05,-4.054071642212165e-05,-3.5903047655071185e-05
149920000000.0,6,0.0026870221,-0.008227779349999999,0.020240925599999997,-0.001597,-0.001024,0.000326,-0.12643713845,-0.6108170019,-9.786742500499999,-0.012919,0.062327,-2.0951,2.4999999999941735e-05,-1.2658227848127979e-06,5.999999999994898e-05,0.0005509428617856554,0.00010584360122134484,7.364478981501665e-05
149920000000.0,6,0.00253992235,0.00167693715,0.02101565095,-0.002647,0.001115,0.000321,-0.1262900387,-0.61055222235,-9.786840566999999,-0.012904,0.062299,-2.0951,2.4999999999941735e-05,-1.2658227848127979e-06,-2.999999999997449e-05,-0.0003598444893309835,-0.00034395178366142254,-0.00013761397223960997
149920000000.0,6,0.0024026292499999997,0.003726527,0.0211627507,0.000545,2.4e-05,0.000328,-0.12629984535,-0.61051299575,-9.786840566999999,-0.012905,0.062295,-2.0951,2.500000000016378e-05,-1.2658227848127979e-06,-2.0000000000020002e-05,0.00018527232395902649,-0.0001397849492137393,0.0002001102149348094
149920000000.0,6,0.006501808949999999,0.00591340995,0.0398738389,0.000528,-0.002107,0.000332,-0.12635868525,-0.61045415585,-9.786840566999999,-0.01291,0.062289,-2.0951,2.4999999999941735e-05,-1.2658227848127979e-06,-9.99999999995449e-06,-0.0006283911948400736,7.223100620135092e-05,-0.00041141561506278373
149920000000.0,6,0.004236472799999999,0.00114737805,0.0377752158,-0.000517,3.4e-05,-0.000741,-0.12633907195,-0.61047376915,-9.786840566999999,-0.012908,0.062291,-2.0951,-9.999999999998899e-05,-1.2658227848127979e-06,9.99999999995449e-06,0.0008508636448767773,0.0005664122065034416,0.0005815437339746141
149920000000.0,6,0.0030008349,-0.0051190713,0.03074384775,-0.001597,-0.001024,0.000326,-0.12644694509999999,-0.61049338245,-9.786840566999999,-0.01292,0.062293,-2.0951,2.4999999999941735e-05,-1.2658227848127979e-06,5.000000000032756e-06,-0.0001260105217566962,-0.0004430455213535467,-0.00033621064106587745
149920000000.0,6,-0.0009708583499999999,0.00485429175,0.028047019,-0.000517,3.4e-05,-0.000741,-0.12651559164999998,-0.61043454255,-9.786840566999999,-0.012927,0.062288,-2.0951,2.4999999999941735e-05,-1.2658227848127979e-06,5.000000000032756e-06,1.681944266855584e-05,1.1523979734251455e-05,0.0002778727362445915
149920000000.0,6,0.0058643767,-0.0034617474499999998,0.0370102971,0.001609,-0.001049,-0.000736,-0.12646655839999998,-0.61065028885,-9.786840566999999,-0.012922,0.062309,-2.0951,2.500000000016378e-05,-1.2658227848127979e-06,9.99999999995449e-06,0.00026794945209437926,9.860367455027941e-05,-1.1573640503359517e-05
149920000000.0,6,0.00610954295,0.0009414384,0.027135000549999996,0.000537,-0.001041,0.00033,-0.12641752515,-0.6107189354,-9.786840566999999,-0.012917,0.062316,-2.0951,2.4999999999941735e-05,-1.2658227848127979e-06,-9.99999999995449e-06,-0.0003561667206213037,-1.202385902043801e-05,-0.0003759344435126377
149920000000.0,6,-0.0021770762999999997,0.0043345393,0.02309466075,0.000536,-0.001041,0.00033,-0.12651559164999998,-0.6106600955,-9.786840566999999,-0.012926,0.062311,-2.0951,-9.999999999998899e-05,-1.2658227848127979e-06,9.99999999995449e-06,0.0001173520651603921,-3.5118338182815734e-05,0.00019464433704718953
149920000000.0,6,0.00218688295,0.00285373515,0.01756371015,-0.001586,0.001106,0.00139,-0.12653520494999998,-0.61053260905,-9.786840566999999,-0.012928,0.062297,-2.0951,1.999999999990898e-05,-1.2658227848127979e-06,9.99999999995449e-06,-1.8072181064074377e-06,-1.3696541355745495e-05,1.0216455010793324e-05
149920000000.0,6,0.0075511204999999994,0.0044522191,0.03283266419999999,0.000553,0.00109,0.000326,-0.12635868525,-0.6104835758,-9.786840566999999,-0.012911,0.062293,-2.0951,2.0000000000131024e-05,-1.2658227848127979e-06,-1.999999999990898e-05,1.0189065377072537e-05,-0.00010053112342500725,4.859763225713298e-05
149920000000.0,6,-0.00022555294999999998,0.0070705946499999995,0.0398738389,-0.000522,3.3e-05,0.000326,-0.1263684919,-0.61041492925,-9.786840566999999,-0.012912,0.062285,-2.0951,1.999999999990898e-05,-1.2658227848127979e-06,2.999999999997449e-05,-0.00015488267860335608,0.00043388509863140357,9.294782389416417e-05
149920000000.0,6,-0.00246146915,0.00304986815,0.02221206225,0.000522,-0.002108,0.001399,-0.1265253983,-0.61043454255,-9.786840566999999,-0.012928,0.062287,-2.0951,2.0000000000131024e-05,-1.2658227848127979e-06,-4.0000000000040004e-05,0.0002652920045816548,-0.0004687752854335425,3.546569886773987e-05
149920000000.0,6,-0.0004609125499999999,-0.00481506515,0.029694536199999996,-0.000522,3.3e-05,0.000326,-0.1264273318,-0.61049338245,-9.786840566999999,-0.012918,0.062294,-2.0951,1.999999999990898e-05,-1.2658227848127979e-06,1.0000000000065512e-05,-0.00022185029465063288,8.906832704003165e-05,-0.0001948980798976152
149920000000.0,6,-0.00697252815,-0.00446202575,0.025046184099999997,0.000553,0.00109,0.000326,-0.12650578499999998,-0.61055222235,-9.786840566999999,-0.012925,0.062299,-2.0951,-9.999999999998899e-05,9.999999999998899e-05,2.999999999997449e-05,0.00025730621416262395,-7.569348031899459e-05,0.0005329506482487575
149920000000.0,6,0.00059820565,0.012434832199999999,0.03672590425,0.001598,-0.001051,0.001399,-0.12644694509999999,-0.61053260905,-9.786840566999999,-0.012919,0.062298,-2.0951,4.999999999988347e-05,-4.761904761840796e-06,-4.999999999999449e-05,-0.0001521595393786379,0.00022412006510275084,-0.00036162494878398677
149920000000.0,6,-0.0027458619999999995,0.0050013915,0.03672590425,-0.000514,0.001099,0.000324,-0.1263881052,-0.61043454255,-9.786840566999999,-0.012914,0.062288,-2.0951,5.0000000000105516e-05,-4.761904762062841e-06,2.0000000000020002e-05,-0.00011691121153859646,5.0042262245808544e-05,3.32906319109455e-06
149920000000.0,6,0.0014611908499999999,-0.0012552511999999998,0.0074138274,-0.000517,3.5e-05,-0.000741,-0.12626061875,-0.6103070560999999,-9.786840566999999,-0.0129,0.062274,-2.0951,-5.0000000000105516e-05,-4.761904761840796e-06,-1.0000000000065512e-05,0.0003034043917723925,-0.0003838497240504779,-0.00012275185746533218
149920000000.0,6,-0.0038638200999999996,0.00195152335,0.00561921045,0.000553,0.00109,0.000326,-0.1263292653,-0.6102286028999999,-9.786840566999999,-0.012907,0.062266,-2.0951,-4.999999999988347e-05,-4.761904761840796e-06,-9.99999999995449e-06,-0.00026998274677262485,0.00024276542330770035,0.0002127070222348662
149920000000.0,6,0.00028439285,0.0016671305000000001,0.026262208699999998,0.001611,1.6e-05,0.00033,-0.1264273318,-0.6103855092999999,-9.786840566999999,-0.012918,0.062283,-2.0951,9.090909090847532e-06,-4.761904761840796e-06,4.999999999999449e-05,0.0001463691240787407,4.550586959051195e-05,0.00011048011053031714
149920000000.0,6,0.0025497289999999997,0.00120621795,0.0466012008,0.000541,-0.00104,-0.000737,-0.12644694509999999,-0.6105228023999999,-9.786840566999999,-0.012919,0.062297,-2.0951,9.090909091069577e-06,-4.761904762062841e-06,-4.0000000000040004e-05,-0.00029347005221871947,-0.00015692328926353305,-0.00037342694495245965
149920000000.0,6,0.005452497399999999,0.00406975975,0.0344801814,0.000539,2.4e-05,0.001396,-0.12635868525,-0.6105424157,-9.786840566999999,-0.012911,0.062299,-2.0951,9.090909090847532e-06,-4.761904761840796e-06,1.0000000000065512e-05,0.00028079030963717305,0.00017778977946369956,-4.304738268450653e-05
149920000000.0,6,0.0021770762999999997,0.0048052584999999995,0.022221868899999997,-0.001584,4.4e-05,-0.000743,-0.12637829855,-0.6103855092999999,-9.786840566999999,-0.012912,0.062282,-2.0951,9.090909090847532e-06,-4.761904761840796e-06,-5.000000000032756e-06,0.00012822307678921757,-0.00016332633102988936,0.00048165333216704936
149920000000.0,6,0.0034029075499999997,-0.00036284604999999996,0.022672974799999995,-0.001564,0.003239,0.000319,-0.12610371235,-0.6103070560999999,-9.786840566999999,-0.012885,0.062275,-2.0951,9.090909090847532e-06,-4.761904762062841e-06,-5.000000000032756e-06,-3.817527546144672e-05,0.00010668916817291318,-0.00018533482187575723
149920000000.0,6,0.0033440676499999996,0.0012454445499999998,0.018475728599999998,0.001625,0.001083,-0.000739,-0.12604487244999998,-0.61041492925,-9.786840566999999,-0.012879,0.062286,-2.0951,9.090909091069577e-06,-4.761904761840796e-06,2.999999999997449e-05,-0.00028075532866435327,0.00026865219511673644,-0.000330332411005399
149920000000.0,6,0.00540346415,0.00169655045,0.02686041435,0.00055,2.6e-05,-0.000739,-0.12600564585,-0.61041492925,-9.786840566999999,-0.012874,0.062286,-2.0951,9.090909090847532e-06,-4.761904761840796e-06,1.0000000000065512e-05,0.0005050371265863593,-0.0006366348113027165,0.0005869398114673671
149920000000.0,6,-0.0040991797,-0.0016867438,0.035235293449999996,-0.000522,3.4e-05,0.000326,-0.12608409905,-0.6104835758,-9.786840566999999,-0.012883,0.062292,-2.0951,9.090909090847532e-06,-4.761904761840796e-06,-2.0000000000020002e-05,-0.0006626391693996397,0.00023566115562889678,-0.0006623916762137083
149920000000.0,6,-0.00132389775,0.006060509699999999,0.02013305245,-0.000517,3.5e-05,-0.000741,-0.12616255224999998,-0.61029724945,-9.786840566999999,-0.01289,0.062273,-2.0951,9.090909090847532e-06,-4.761904762062841e-06,-9.99999999995449e-06,0.00014358795226548232,0.00015216413761431902,5.353224012321495e-05
149920000000.0,6,0.00187307015,0.0093751574,0.0229867876,0.00055,2.6e-05,-0.000739,-0.12607429239999998,-0.6101697629999999,-9.786840566999999,-0.012881,0.06226,-2.0951,9.090909091069577e-06,-4.761904761840796e-06,9.99999999995449e-06,-0.0008390433427794691,-2.5495345882253773e-05,5.894114785613691e-05
149920000000.0,6,-0.007472667299999999,0.0025889556,0.03839303475,0.000549,2.6e-05,-0.000739,-0.1261527456,-0.6102678295,-9.786840566999999,-0.012889,0.062271,-2.0951,9.090909090847532e-06,-4.761904761840796e-06,-9.99999999995449e-06,0.0006983999466121799,2.91629328841303e-06,0.0001762757756223754
149920000000.0,6,0.0026477955,-5.88399e-05,0.0333033834,0.001616,1.8e-05,-0.000737,-0.12610371235,-0.6103070560999999,-9.786840566999999,-0.012884,0.062275,-2.0951,-9.999999999998899e-05,-4.761904762062841e-06,-5.000000000032756e-06,8.974829693478292e-05,-6.794776115892631e-05,-0.00013520444325765268
149920000000.0,6,-0.0016671305000000001,0.001176798,0.01609271265,-0.001584,4.4e-05,-0.000743,-0.12612332564999998,-0.6102089896,-9.786840566999999,-0.012887,0.062264,-2.0951,9.999999999998899e-05,-4.761904761840796e-06,-5.000000000032756e-06,-0.0001958232827245776,0.00014765109047298886,-0.0001100306189336514
149920000000.0,6,-0.0062566426999999996,0.0041580196,0.012513285399999999,-0.001576,0.001109,-0.000745,-0.1261723589,-0.61004227655,-9.786840566999999,-0.012891,0.062247,-2.0951,-3.333333333332966e-05,-4.761904761840796e-06,9.99999999995449e-06,0.0002621232888139688,6.139749361611102e-05,0.00010348654564774212
149920000000.0,6,-6.864654999999999e-05,0.0048052584999999995,0.032577691299999996,-0.001581,0.001108,0.000323,-0.12607429239999998,-0.60994421005,-9.786840566999999,-0.012882,0.062237,-2.0951,-3.333333333332966e-05,-4.761904761840796e-06,1.0000000000065512e-05,-0.00030920404612164165,-0.00017172783231678146,-0.00038712493206308207
149920000000.0,6,-0.00177500365,-7.845319999999999e-05,0.03554910625,0.002669,-0.001058,0.000334,-0.12616255224999998,-0.61014034305,-9.786840566999999,-0.012891,0.062258,-2.0951,-3.333333333332966e-05,-4.761904762062841e-06,5.000000000032756e-06,-1.4079484140852583e-06,0.00017493610178154206,0.0004976098663785969
149920000000.0,6,-0.010973641349999999,0.00043149259999999994,0.0314793465,0.006959,0.001039,-0.00073,-0.12609390569999998,-0.61065028885,-9.786840566999999,-0.012883,0.062309,-2.0951,9.999999999998899e-05,-4.761904761840796e-06,4.999999999921734e-06,0.00017078947151550478,8.047128693489114e-05,-0.00033215376828584636
149920000000.0,6,-0.008384685749999999,0.014288289049999998,0.07124531225,0.008026,0.00103,-0.000728,-0.12614293894999998,-0.6113367543499999,-9.786742500499999,-0.012889,0.06238,-2.0952,-5.0000000000105516e-05,9.999999999998899e-05,-3.999999999992898e-05,0.0005706002713370267,-0.0003815560987978639,0.00032445763948249495
149920000000.0,6,-0.0017063571,0.01691647125,0.0861808402,0.00375,0.0,-0.000733,-0.12608409905,-0.61172902035,-9.786742500499999,-0.012883,0.062419,-2.0952,-4.999999999988347e-05,-9.999999999998899e-05,4.999999999999449e-05,-0.0008327577683209103,0.0001439303112331647,2.2488873749629268e-05
149920000000.0,6,-0.0037853669,0.0016867438,0.0023830159499999997,-0.000518,3.5e-05,-0.000741,-0.12609390569999998,-0.6117584402999999,-9.786742500499999,-0.012884,0.062422,-2.0952,9.999999999998899e-05,9.999999999998899e-05,-6.0000000000060005e-05,-0.00011497607742424337,-0.00026768926778486524,-0.00036023929008192207
149920000000.0,6,0.00487390505,-0.0063350959,-0.0146707484,-0.001576,0.001109,-0.000745,-0.1257800929,-0.6118172801999999,-9.786742500499999,-0.012851,0.062428,-2.0952,-9.999999999998899e-05,-4.999999999988347e-05,3.0000000000085514e-05,0.0005497781536623683,0.00026747074783162184,0.0002135123257574409
149920000000.0,6,0.00491313165,-0.0066979419499999995,-0.0146511351,-0.004799,-0.000996,0.000321,-0.1258193195,-0.6114544341499999,-9.786742500499999,-0.012856,0.062391,-2.0952,9.999999999998899e-05,-5.0000000000105516e-05,9.99999999995449e-06,-0.00040957269177972766,-0.00010843550966921356,0.00025986771556416044
149920000000.0,6,0.0079629998,-0.007286340949999999,-0.0005295590999999999,-0.012253,0.000132,-0.000761,-0.12572125299999998,-0.610562029,-9.786840566999999,-0.012846,0.062301,-2.0952,-9.999999999998899e-05,9.999999999998899e-05,-9.99999999995449e-06,-0.0006818716803797462,-0.00011620828380443093,-0.00031109517159034344
149920000000.0,6,0.00093163175,-0.00985568325,-0.03639247815,-0.006924,8.7e-05,0.000315,-0.1255839599,-0.6097971103,-9.786840566999999,-0.012831,0.062222,-2.0952,9.999999999998899e-05,-1.999999999990898e-05,-1.0000000000065512e-05,0.0007890432966471753,0.00011982453986547625,6.815504249919196e-05
149920000000.0,6,-0.0037363336499999997,-0.0020201699,-0.00140235095,0.005873,-1.9e-05,0.001405,-0.12570163969999998,-0.6101501497,-9.786840566999999,-0.012843,0.062258,-2.0952,-9.999999999998899e-05,-2.0000000000131024e-05,5.000000000032756e-06,0.00030395318487422274,-0.00015884805730559393,0.0002319513276308055
149920000000.0,6,0.0008139519499999999,0.01362143685,0.125917386,0.002691,0.001075,-0.000737,-0.1257604796,-0.61053260905,-9.786840566999999,-0.012849,0.062297,-2.0952,3.333333333332966e-05,-1.999999999990898e-05,5.000000000032756e-06,-0.00015752549401646526,0.0003623464625803763,-4.751233111454506e-05
149920000000.0,6,0.0004707192,0.01307226445,0.11740521379999999,-0.001593,-0.001021,-0.000741,-0.12571144635,-0.61027763615,-9.786840566999999,-0.012844,0.062271,-2.0952,3.333333333332966e-05,-2.0000000000131024e-05,9.99999999995449e-06,-0.00044317491300757683,-5.872817500751637e-05,0.00012867420591787526
149920000000.0,6,0.00350097405,-0.0033931009,0.0057859235,-0.001587,0.001108,0.00139,-0.12560357319999998,-0.61012072975,-9.786840566999999,-0.012833,0.062256,-2.0952,3.333333333332966e-05,-1.999999999990898e-05,-2.0000000000020002e-05,0.0005565431818426447,1.4677965032516838e-05,-0.0001218867436954818
149920000000.0,6,0.001569064,-0.00363826715,-0.00858081875,0.000544,2.6e-05,0.000328,-0.1254662801,-0.61017956965,-9.786840566999999,-0.01282,0.062261,-2.0952,-5.0000000000105516e-05,9.999999999998899e-05,-2.0000000000020002e-05,4.978374724574908e-05,0.00020049814686284861,-0.00018300157291790964
149920000000.0,6,0.0022947561,0.00426589275,0.0431884866,-0.001599,-0.001022,0.000326,-0.12559376654999999,-0.6101501497,-9.786840566999999,-0.012833,0.062258,-2.0952,-4.999999999988347e-05,-6.249999999985434e-06,4.999999999999449e-05,-0.00033212339758234566,-0.00019790158877097674,9.435278816027903e-06
149920000000.0,6,0.00573689025,0.0081395195,0.03649054465,-0.004794,-0.000994,-0.000747,-0.1254466668,-0.6096794305,-9.786840566999999,-0.012817,0.06221,-2.0952,1.6666666666775853e-05,-6.249999999985434e-06,-1.999999999990898e-05,0.00017705497608515308,0.0002462098242070887,0.0001157963243789556
149920000000.0,6,-0.00446202575,-0.0042756994,-0.013337044000000001,-0.000515,0.0011,0.000325,-0.12557415325,-0.6096892371499999,-9.786840566999999,-0.01283,0.062211,-2.0952,1.666666666655381e-05,-6.249999999985434e-06,1.999999999990898e-05,0.0003048414413549111,-0.00018143945717907783,0.0001263306781140311
149920000000.0,6,-0.0034617474499999998,-0.00122583125,0.0210646842,0.001647,0.003216,-0.00181,-0.12552512,-0.6098951767999999,-9.786840566999999,-0.012825,0.062232,-2.0952,1.666666666655381e-05,-6.249999999985434e-06,-3.999999999992898e-05,-0.00044605657951413136,-0.00044474801193294944,-0.0004940399167246423
149920000000.0,6,0.007198081099999999,0.0005491723999999999,0.07102956595,0.000549,2.7e-05,-0.000739,-0.12541724685,-0.6101697629999999,-9.786840566999999,-0.012814,0.06226,-2.0952,1.6666666666775853e-05,-6.249999999985434e-06,-1.0000000000065512e-05,-0.00031448791573029933,0.00012922825404260152,-3.8732632618651563e-05
149920000000.0,6,0.0042953127,-0.0020986231,0.0557606119,-0.000545,-0.002097,0.001398,-0.12535840694999997,-0.61021879625,-9.786840566999999,-0.012808,0.062265,-2.0952,1.6666666666775853e-05,-6.249999999985434e-06,1.5000000000098268e-05,0.0005710670393184597,-0.0002164330173570761,0.0004423147061839161
149920000000.0,6,0.00848275225,0.0048444850999999995,0.0107480884,-0.00264,0.002184,0.000319,-0.12504459415,-0.6098265302499999,-9.786840566999999,-0.012776,0.062225,-2.0952,1.666666666655381e-05,-6.249999999985434e-06,1.4999999999987246e-05,-1.1825546040081236e-05,0.0006605270650352768,-0.0003016143558556422
149920000000.0,6,0.0107480884,0.00295180165,0.0104538889,-0.000529,3.4e-05,0.001394,-0.12491710769999999,-0.6097382704,-9.786840566999999,-0.012763,0.062216,-2.0952,-9.999999999998899e-05,-6.249999999985434e-06,-6.666666666710341e-06,-0.00019878182499212527,-4.1291303403134805e-05,1.6964570869290596e-05
149920000000.0,6,-0.0020790098,-0.0050013915,0.034087915399999995,0.001607,-0.001047,-0.000735,-0.12495633429999999,-0.6098559501999999,-9.786840566999999,-0.012767,0.062228,-2.0952,2.4999999999941735e-05,-6.2500000002074785e-06,-6.666666666599319e-06,0.00027281276466233073,-0.00012186809140635191,0.0002085030293042106
149920000000.0,6,-0.0005295590999999999,0.0053250109499999995,0.04876847045,-0.001576,0.001111,-0.000745,-0.12486807444999999,-0.60970885045,-9.786840566999999,-0.012758,0.062214,-2.0952,2.4999999999941735e-05,-6.249999999985434e-06,-6.666666666710341e-06,5.98907213128011e-05,-1.2462867554630108e-05,0.00016886986331824533
149920000000.0,6,0.0016377105499999999,-0.00015690639999999998,0.010924608099999998,-0.002654,0.001118,0.001388,-0.12478962125,-0.6094636842,-9.7869386335,-0.01275,0.062188,-2.0952,2.500000000016378e-05,-6.249999999985434e-06,-1.0000000000065512e-05,-0.0003822058779678686,-0.00017657044151531132,-0.0004540716894341282
149920000000.0,6,0.0006374322499999999,0.0057859235,0.0023928226,0.000515,-0.003168,0.000343,-0.12498575424999998,-0.6094244576,-9.7869386335,-0.01277,0.062184,-2.0952,2.4999999999941735e-05,-6.249999999985434e-06,6.0000000000060005e-05,0.0003953628179545268,0.0007559456914312257,0.0002531673064474285
149920000000.0,6,0.0006374322499999999,0.000784532,0.0475818658,0.000546,3e-05,-0.00073,-0.12498575424999998,-0.6095127174499999,-9.7869386335,-0.01277,0.062193,-2.0952,-9.999999999998899e-05,-6.249999999985434e-06,-4.0000000000040004e-05,-0.00014925616413721116,-0.0007016326037880827,-0.00017758479039097635
149920000000.0,6,-0.0020692031499999998,0.0070313680499999994,0.06238990729999999,0.001613,2.1e-05,-0.000728,-0.1249759476,-0.6096205906,-9.7869386335,-0.012769,0.062204,-2.0952,1.4285714285744433e-05,-6.249999999985434e-06,2.0000000000020002e-05,-0.00013284612825686937,0.0001468477416182168,-2.9228644044615448e-05
149920000000.0,6,-0.0061879961500000006,0.00805125965,0.028733484499999996,-0.002669,-0.00101,0.000333,-0.12519169389999998,-0.6092969711499999,-9.7869386335,-0.012791,0.062171,-2.0952,1.4285714285744433e-05,-6.249999999985434e-06,2.0000000000020002e-05,0.00033057971534977,-3.543402705030729e-05,0.00033685943875722685
149920000000.0,6,-0.00887501825,0.0036480737999999998,0.01034601575,-0.001585,0.001112,0.000331,-0.1253486003,-0.6090910315,-9.7869386335,-0.012807,0.06215,-2.0952,1.4285714285744433e-05,-6.249999999985434e-06,-1.0000000000065512e-05,-8.149445733374866e-05,0.00011112940567481466,0.0004061893969855082
149920000000.0,6,0.00563882375,0.0021378497,0.026811381099999997,-0.002652,0.001121,0.00033,-0.12520150055,-0.60892431845,-9.7869386335,-0.012792,0.062133,-2.0952,1.4285714285522388e-05,9.999999999998899e-05,-1.999999999990898e-05,0.00012231228989215137,-0.0001351072104198714,-0.0005173694328604317
149920000000.0,6,-0.0027360553499999997,0.0078845466,0.03774579585,0.00054,2.9e-05,0.000337,-0.12520150055,-0.60882625195,-9.7869386335,-0.012792,0.062123,-2.0951,1.4285714285744433e-05,-3.333333333332966e-05,-3.0000000000085514e-05,-0.0003951633256789461,-0.0005417011016590756,-0.0002486547725670807
149920000000.0,6,-0.00027458619999999996,0.00473661195,0.026370081849999998,0.000532,-0.001037,0.000339,-0.1252701471,-0.60882625195,-9.7869386335,-0.012799,0.062123,-2.0951,1.4285714285744433e-05,-3.333333333332966e-05,2.0000000000020002e-05,0.0002457679230651946,0.0003599030310197371,-1.8189561381921904e-05
149920000000.0,6,0.0028635417999999997,-0.00565843705,0.0260660757,-0.000518,0.001103,0.000333,-0.1251132407,-0.6088948985,-9.7869386335,-0.012783,0.06213,-2.0951,1.4285714285744433e-05,-3.333333333332966e-05,2.0000000000020002e-05,-0.0008720634666902066,5.900963550220517e-05,0.0004783506984369079
149920000000.0,6,-0.0017848103,-0.0055309506,0.0323423317,0.000537,-0.001036,-0.000728,-0.12526034044999998,-0.6090223849499999,-9.7869386335,-0.012798,0.062143,-2.0951,-9.999999999998899e-05,9.999999999998899e-05,-1.0000000000065512e-05,-0.0002597980361991603,-0.000251440912499179,-0.00033876171587704507
149920000000.0,6,0.0013729309999999998,0.0042560861,0.0348920607,0.000554,0.001096,-0.000732,-0.12512304735,-0.60894393175,-9.7869386335,-0.012784,0.062135,-2.0952,3.333333333332966e-05,-4.999999999988347e-05,-9.99999999995449e-06,0.0005583842187394036,0.0005309447382266796,-4.3231678419068664e-05
149920000000.0,6,-0.0072765343,-0.00318716125,0.03144992655,-0.001602,-0.001019,0.000335,-0.12530937369999998,-0.6089733517,-9.7869386335,-0.012803,0.062138,-2.0951,3.333333333332966e-05,-5.0000000000105516e-05,4.0000000000040004e-05,0.00040188776487128097,-0.00028421711697790286,0.0007304961018921863
149920000000.0,6,-0.0036676871,-0.0042756994,0.036225765099999994,0.000546,3e-05,-0.00073,-0.12531918035,-0.6090910315,-9.7869386335,-0.012804,0.06215,-2.0951,3.333333333332966e-05,5.0000000000105516e-05,-1.0000000000065512e-05,-0.0002479749289869618,0.00011757782359400615,-0.00047433531031945003
149920000000.0,6,-0.0009610516999999999,-0.00795319315,0.028439284999999995,-0.001593,4.6e-05,0.000333,-0.12533879365,-0.6091498714,-9.7869386335,-0.012806,0.062156,-2.0952,-5.0000000000105516e-05,4.999999999988347e-05,-4.999999999999449e-05,-0.0002135152896962922,-6.746989439321283e-05,-0.00044060264950897265
149920000000.0,6,0.0042560861,-0.00344213415,0.021711923099999995,0.000532,-0.001037,0.000339,-0.12531918035,-0.6091792913499999,-9.7869386335,-0.012804,0.062159,-2.0952,-4.999999999988347e-05,-1.999999999990898e-05,7.00000000000145e-05,0.0007430428951251886,0.00020735345643974057,0.00022934240872892614
149920000000.0,6,0.0083160392,0.005236751099999999,0.032038325549999996,0.000541,2.9e-05,0.000337,-0.12518188724999998,-0.6091792913499999,-9.7869386335,-0.01279,0.062159,-2.0952,1.6666666666775853e-05,-2.0000000000131024e-05,-2.0000000000020002e-05,-0.00046607919781217755,-3.625684489971803e-05,0.00015127884661221558
149920000000.0,6,-0.0015396440499999998,-0.00481506515,0.0368141641,0.000538,-0.001035,-0.000728,-0.12520150055,-0.6092969711499999,-9.7869386335,-0.012792,0.062171,-2.0952,1.666666666655381e-05,-1.999999999990898e-05,-9.99999999995449e-06,0.0001929651895856213,-0.000304014961072685,0.00026648808735455637
149920000000.0,6,0.0039814999,-0.0063645158499999995,0.0320285189,-0.000526,3.8e-05,0.000335,-0.1250347875,-0.609385231,-9.7869386335,-0.012775,0.06218,-2.0952,1.666666666655381e-05,-2.0000000000131024e-05,9.99999999995449e-06,-2.275558012283102e-05,8.910923558413941e-05,-0.0002568007043043455
149920000000.0,6,-0.0019024901,0.00093163175,0.03066539455,0.001616,0.001086,0.000337,-0.125132854,-0.6095127174499999,-9.7869386335,-0.012785,0.062193,-2.0951,1.6666666666775853e-05,-1.999999999990898e-05,-9.99999999995449e-06,-6.075911266986006e-05,0.00019329142356649953,8.414895008036077e-05
149920000000.0,6,-0.00324600115,0.0082964259,0.015710253299999997,-0.00161,-0.002084,0.000337,-0.12529956705,-0.609385231,-9.7869386335,-0.012802,0.06218,-2.0951,1.6666666666775853e-05,9.999999999998899e-05,-5.000000000032756e-06,-4.863002508246478e-05,-9.767763277479524e-05,-0.0005681034305710028
149920000000.0,6,-0.0028831550999999997,0.0004707192,0.01989769285,-0.000538,-0.002092,-0.000728,-0.1255055067,-0.6093460044,-9.7869386335,-0.012823,0.062176,-2.0951,1.666666666655381e-05,-8.333333333387927e-06,-4.999999999921734e-06,-0.0002691345819625379,0.0002897619490069836,0.0001754849747874626
149920000000.0,6,0.00281450855,-0.010600988649999999,0.02737036015,-0.000526,3.8e-05,0.000335,-0.12551531335,-0.6095029108,-9.7869386335,-0.012824,0.062192,-2.0951,-5.0000000000105516e-05,-8.333333333387927e-06,-2.0000000000020002e-05,-3.8490085984235756e-05,-0.0003489563957899122,-7.930308250848894e-05
149920000000.0,6,0.00879656505,0.0057466969,0.023928225999999997,0.000546,3.1e-05,-0.00073,-0.12535840694999997,-0.6095421374,-9.7869386335,-0.012808,0.062196,-2.0951,-4.999999999988347e-05,-8.333333333165882e-06,9.99999999995449e-06,7.842677563028172e-05,0.00010664245230840308,0.00020022092165685595
149920000000.0,6,0.0046581587499999995,0.0061193496,0.02693886755,-0.000512,0.001105,-0.000734,-0.1251132407,-0.6093067778,-9.7869386335,-0.012783,0.062172,-2.0952,1.999999999990898e-05,-8.333333333387927e-06,4.0000000000040004e-05,7.006028994741009e-05,-5.660680454888656e-05,8.435087497672689e-05
149920000000.0,6,0.00012748645,-0.0077374468499999995,0.024830437799999997,0.001585,-0.002111,0.00141,-0.12522111385,-0.6095225241,-9.7869386335,-0.012794,0.062194,-2.0952,2.0000000000131024e-05,-8.333333333387927e-06,-5.000000000032756e-06,0.00029811061266833694,-0.00013918885641639456,0.00013708446151249054
149920000000.0,6,-0.0013925443,0.0044914457,0.0273801668,-0.000526,3.8e-05,0.000335,-0.12519169389999998,-0.60947349085,-9.7869386335,-0.012792,0.062189,-2.0952,1.999999999990898e-05,-8.333333333165882e-06,-5.000000000032756e-06,-0.00048188621979072116,-7.222461805334035e-05,0.00046819756961272857
149920000000.0,6,0.00681562175,0.005668243699999999,0.028890390899999997,-0.001593,4.7e-05,0.000333,-0.12502498085,-0.6093067778,-9.7869386335,-0.012774,0.062172,-2.0952,2.0000000000131024e-05,-8.333333333387927e-06,1.0000000000065512e-05,0.0002489954658501034,0.00023878536252608384,-0.0006034565369830922
149920000000.0,6,-0.0023928226,0.000392266,0.02589936265,-0.000526,3.9e-05,0.000335,-0.1250936274,-0.6092675512,-9.7869386335,-0.012781,0.062169,-2.0952,1.999999999990898e-05,-8.333333333387927e-06,-3.0000000000085514e-05,0.00014921916406803598,0.00028687666005078327,-0.00014967577996976428
149920000000.0,6,-0.00244185585,0.00018632635,0.025909169299999996,-0.00159,0.001112,0.001399,-0.12504459415,-0.6090616115499999,-9.7869386335,-0.012776,0.062147,-2.0952,-5.0000000000105516e-05,-8.333333333387927e-06,-2.999999999997449e-05,-9.624713192560308e-05,-0.00045481149075521365,0.00012280738573849925
149920000000.0,6,-0.00661948875,0.011101127799999999,0.03115572705,0.000543,-0.001034,-0.001796,-0.12521130719999998,-0.60890470515,-9.7869386335,-0.012793,0.062131,-2.0952,-4.999999999988347e-05,-8.333333333387927e-06,3.0000000000085514e-05,0.0005094226118656162,0.00017794081485056346,-0.00012674846580314897
149920000000.0,6,-0.0022359162,0.00909076455,0.03190103245,0.00054,3e-05,0.000337,-0.12526034044999998,-0.6088360586,-9.7869386335,-0.012798,0.062124,-2.0952,1.4285714285744433e-05,-8.333333333165882e-06,-2.0000000000020002e-05,-4.4620103138472145e-05,-0.0002294146334733682,0.00013124363945955092
149920000000.0,6,0.0033538743,-0.0018632635,0.03144992655,0.000532,-0.001036,0.000339,-0.12530937369999998,-0.6089537384,-9.7869386335,-0.012803,0.062136,-2.0952,1.4285714285744433e-05,-8.333333333387927e-06,2.0000000000020002e-05,-0.0011155510805910401,7.102037013395623e-05,0.000341448486089177
149920000000.0,6,-0.00342252085,-0.00216726965,0.0311263071,0.006964,0.002109,-0.000723,-0.12526034044999998,-0.6094048443,-9.7869386335,-0.012798,0.062182,-2.0952,1.4285714285744433e-05,9.999999999998899e-05,-9.99999999995449e-06,0.0004916340079661394,1.2071658576084943e-05,-0.0005607068790397032
149920000000.0,6,-0.006629295399999999,0.01320955755,0.031626446249999995,0.018662,-0.003314,-0.00176,-0.12565260644999998,-0.6108562285,-9.786840566999999,-0.012838,0.062331,-2.0952,1.4285714285522388e-05,-4.347826086936735e-06,-1.0000000000065512e-05,0.0005911538441542574,-0.0001658613503781048,0.0005292693617677813
149920000000.0,6,0.005187717849999999,0.0302240953,0.1399605088,-0.000527,3.9e-05,0.000335,-0.1256427998,-0.61096410165,-9.786742500499999,-0.012838,0.062342,-2.0952,1.4285714285744433e-05,-4.347826086936735e-06,2.0000000000020002e-05,-0.00013511403959384077,-7.469935088333379e-05,-0.00017398762724824685
149920000000.0,6,-0.0017848103,-0.00573689025,0.0564078508,-0.021833,0.003412,-0.000775,-0.1255643466,-0.6094244576,-9.7869386335,-0.012829,0.062184,-2.0952,1.4285714285744433e-05,-4.347826086936735e-06,2.999999999997449e-05,-0.0009613741408221188,0.0001915415653304109,-0.00013419813088921817
149920000000.0,6,-0.0049621649000000006,-0.03696126385,-0.2023700294,-0.016504,0.003367,0.000302,-0.1253682136,-0.6079730734,-9.7869386335,-0.012809,0.062036,-2.0952,1.4285714285744433e-05,-4.347826086936735e-06,-2.999999999997449e-05,0.001043785268078419,6.384878402343475e-05,-0.0001751754820946208
149920000000.0,6,-0.0020692031499999998,-0.0135724036,-0.1293693268,0.004813,-4e-06,-0.000723,-0.1254270535,-0.60817901305,-9.7869386335,-0.012815,0.062057,-2.0952,-5.0000000000105516e-05,-4.347826086936735e-06,9.99999999995449e-06,-0.0009242285500811326,8.935309107060974e-06,0.0002069811876840022
149920000000.0,6,-0.0042462794499999994,0.0102969825,0.18377662099999997,0.004822,0.001061,-0.000725,-0.1254858934,-0.608992965,-9.7869386335,-0.012821,0.06214,-2.0952,-4.999999999988347e-05,-4.347826087158779e-06,9.99999999995449e-06,9.988071487191524e-05,-7.940615145551888e-05,3.3277970253701994e-05
149920000000.0,6,0.0008041452999999999,0.019819239649999997,0.13710677364999999,-0.002669,-0.001009,0.000334,-0.1254466668,-0.6086399256,-9.7869386335,-0.012817,0.062104,-2.0952,9.999999999998899e-05,-4.347826086936735e-06,-9.99999999995449e-06,0.0006709548174940391,0.000395843876918045,-0.00016862370163802515
149920000000.0,6,-0.006541035549999999,0.004354152599999999,-0.04061914429999999,-0.002652,0.001122,0.00033,-0.12543686015,-0.6079926867,-9.7869386335,-0.012816,0.062038,-2.0952,-5.0000000000105516e-05,-4.347826086936735e-06,-9.99999999995449e-06,-0.00011514898325949013,-0.000300347570207693,-0.00023554500602315093
149920000000.0,6,-0.0054426907500000005,-0.0010002783,0.022486648449999997,0.006952,-2.1e-05,-0.001786,-0.12563299314999998,-0.6086203122999999,-9.7869386335,-0.012836,0.062102,-2.0952,-4.999999999988347e-05,-4.347826086936735e-06,9.99999999995449e-06,-6.933239619858617e-05,-0.00015805942351176938,-2.6635917323596103e-05
149920000000.0,6,0.006982334799999999,0.00630567595,0.10132230779999998,0.001607,2.1e-05,0.000339,-0.1256427998,-0.6090518049,-9.7869386335,-0.012838,0.062146,-2.0952,9.999999999998899e-05,-4.347826086936735e-06,-2.0000000000020002e-05,0.00023664768376078366,0.0002431970344742851,0.0002645128908935687
149920000000.0,6,-0.0032558077999999997,-0.00018632635,0.0184561153,-0.007972,0.002232,-0.000749,-0.1254270535,-0.6085418590999999,-9.7869386335,-0.012815,0.062094,-2.0952,-9.999999999998899e-05,-4.347826086936735e-06,-9.99999999995449e-06,-0.00019361459166189476,-2.4831658746560237e-05,0.00033657643952149374
149920000000.0,6,0.01144436055,0.00216726965,-0.07068633319999999,-0.004791,0.001139,0.001394,-0.12516227394999999,-0.60790442685,-9.7869386335,-0.012788,0.062028,-2.0952,9.999999999998899e-05,-4.347826086936735e-06,2.999999999997449e-05,1.6523314420591184e-06,-5.5322412989333714e-05,-0.000601047536462701
149920000000.0,6,-0.0001176798,0.00122583125,0.01728912395,0.002657,-0.002118,0.000345,-0.12527995374999998,-0.6080024933499999,-9.7869386335,-0.0128,0.062039,-2.0952,-5.0000000000105516e-05,-4.347826086936735e-06,-9.99999999995449e-06,0.00011599725171897168,0.0001338779303698967,0.000378037428733477
149920000000.0,6,-0.0045502856,0.009002504699999999,0.1161695759,0.005871,-0.001078,-0.000719,-0.1254858934,-0.60845359925,-9.7869386335,-0.012821,0.062085,-2.0952,-4.999999999988347e-05,-4.347826086936735e-06,-2.0000000000020002e-05,-0.00029700644569218004,-0.00011216997777929727,-0.00010441280499810801
149920000000.0,6,-0.00510926465,0.005452497399999999,0.05484859345,-0.005847,0.001149,-0.000743,-0.12552512,-0.60804171995,-9.7869386335,-0.012825,0.062043,-2.0952,9.999999999998899e-05,-4.347826086936735e-06,2.0000000000020002e-05,0.00020271150577864244,0.00018141363358759044,-1.0307039950342711e-05
149920000000.0,6,0.0021770762999999997,-0.0052857843499999994,-0.0322246519,-0.003733,6.4e-05,0.001397,-0.1254858934,-0.6077769404,-9.7870367,-0.012821,0.062016,-2.0952,-9.999999999998899e-05,-4.347826086936735e-06,-3.0000000000085514e-05,0.0002478899428540876,-0.000286305696350464,5.431849377837694e-05
149920000000.0,6,0.0030890947499999997,-0.00846313895,-0.0002353596,0.003724,-0.002127,0.000347,-0.1256427998,-0.6081888196999999,-9.7869386335,-0.012837,0.062058,-2.0952,3.333333333332966e-05,-4.347826086936735e-06,-2.999999999997449e-05,-0.00047621619112370867,1.4216308504400033e-05,-0.00013214361427681814
149920000000.0,6,0.0036873003999999994,0.0067077486,0.0623114541,0.002651,-0.002119,0.001412,-0.1256427998,-0.6082476596,-9.7869386335,-0.012837,0.062064,-2.0952,3.333333333332966e-05,-4.347826087158779e-06,7.00000000000145e-05,0.00043272587295414833,0.00031878842068810975,0.0003511157197544773
149920000000.0,6,-0.006629295399999999,-0.0016082905999999998,0.0479545185,-0.002655,5.8e-05,-0.000736,-0.12565260644999998,-0.6081692063999999,-9.7869386335,-0.012838,0.062056,-2.0952,3.333333333332966e-05,-4.347826086936735e-06,-2.0000000000020002e-05,-0.00011183424644892886,-0.00018381431875957865,-0.00023094272435181945
149920000000.0,6,0.0072961475999999996,-0.011856239849999999,-0.00350097405,-0.004772,0.002207,-0.000743,-0.1253682136,-0.60794365345,-9.7869386335,-0.012809,0.062033,-2.0952,-9.999999999998899e-05,-4.347826086936735e-06,2.0000000000020002e-05,-0.0004822589528232224,-0.0001861138688150632,0.0001835857797930357
149920000000.0,6,-0.0058251501,-0.0047856452,0.008012033049999999,0.002652,-0.002119,0.001412,-0.1254074402,-0.6079828800499999,-9.7869386335,-0.012813,0.062036,-2.0952,2.4999999999941735e-05,-4.347826086936735e-06,9.99999999995449e-06,0.00044276077304765404,-2.537360811527556e-05,0.00018587761781252432
149920000000.0,6,0.0007747253499999999,0.00491313165,0.0373241099,0.000523,-0.002101,0.000341,-0.12572125299999998,-0.6082476596,-9.7869386335,-0.012845,0.062064,-2.0952,2.4999999999941735e-05,-4.347826086936735e-06,-1.999999999990898e-05,-5.505679724336632e-05,0.00033771182474118255,-0.0002197713349220698
149920000000.0,6,0.00734518085,0.00030400615,0.044218184849999995,-0.003727,6.6e-05,0.00033,-0.12571144635,-0.6081299797999999,-9.7869386335,-0.012844,0.062052,-2.0952,2.500000000016378e-05,-4.347826086936735e-06,1.999999999990898e-05,-0.0009896578307024909,-0.0003729068952678105,0.00018220281758144635
149920000000.0,6,0.007286340949999999,0.0037559469499999997,0.02566400305,-0.000552,-0.003157,0.000341,-0.1257997062,-0.6079926867,-9.7869386335,-0.012853,0.062038,-2.0952,2.4999999999941735e-05,9.999999999998899e-05,-2.999999999997449e-05,0.0010254795561160449,0.0002542583118929631,-0.0003847725781393682
149920000000.0,6,0.0008335652500000001,0.004167826249999999,0.023859579449999998,0.001618,2.4e-05,-0.001796,-0.1257800929,-0.6081103664999999,-9.7869386335,-0.012851,0.062049,-2.0952,-9.999999999998899e-05,-1.6666666666775853e-05,4.0000000000040004e-05,0.0007554428225672316,2.152872632876779e-05,0.0009549886389093876
149920000000.0,6,-0.006325289249999999,0.0031087080499999998,0.0353823932,0.000523,-0.0021,0.000341,-0.12594680595,-0.6080907532,-9.7869386335,-0.012868,0.062048,-2.0952,1.999999999990898e-05,-1.666666666655381e-05,-1.0000000000065512e-05,-0.0009836524863864396,-0.00032370399109482584,-0.0011057714872197769
149920000000.0,6,-0.00440318585,0.00279489525,0.034185981899999995,0.000537,-0.001034,-0.000728,-0.12608409905,-0.60808094655,-9.7869386335,-0.012882,0.062047,-2.0952,2.0000000000131024e-05,-1.666666666655381e-05,4.0000000000040004e-05,-0.00019106396733798575,0.00022166899599374013,0.0002680651589576713
149920000000.0,6,-0.00271644205,-0.00387362675,0.00591340995,-0.001588,4.9e-05,-0.000734,-0.12612332564999998,-0.6079926867,-9.7869386335,-0.012886,0.062038,-2.0952,1.999999999990898e-05,-1.6666666666775853e-05,-4.999999999999449e-05,0.0002840234239116987,-2.614518608434757e-05,-0.00020421977911082995
149920000000.0,6,-7.845319999999999e-05,0.0035500073,0.013552790299999999,-0.001602,-0.001017,0.000336,-0.12607429239999998,-0.6077867470499999,-9.7869386335,-0.012881,0.062017,-2.0952,2.0000000000131024e-05,-1.6666666666775853e-05,9.99999999995449e-06,-0.00046966368270450615,6.31007495193181e-05,0.00013498628493665427
149920000000.0,6,-0.0015886773,-0.00043149259999999994,0.0461697082,0.00054,3.1e-05,0.000337,-0.12604487244999998,-0.60784558695,-9.7869386335,-0.012879,0.062023,-2.0952,1.999999999990898e-05,-1.666666666655381e-05,1.0000000000065512e-05,0.00030117774472581543,-0.00011032925137643979,0.0004703452390028076
149920000000.0,6,-0.004393379199999999,-0.0020790098,0.055289892699999996,0.001598,-0.001044,0.000341,-0.12624100545,-0.6079926867,-9.7869386335,-0.012898,0.062038,-2.0952,-9.999999999998899e-05,9.999999999998899e-05,-2.999999999997449e-05,-0.000312755264186268,0.0002315612139389689,-0.0005738193051418317
149920000000.0,6,-0.00122583125,-0.00185345685,0.039422733,-0.000518,0.001105,0.000334,-0.1262704254,-0.6080711399,-9.7869386335,-0.012901,0.062045,-2.0952,1.4285714285744433e-05,-2.5641025640510406e-06,1.333333333330966e-05,0.0007369607627872796,0.0001265669257992652,0.00037395591028280967
149920000000.0,6,-0.0068450417,-0.0006276255999999999,0.02176095635,0.000549,0.001096,0.000336,-0.1263292653,-0.60810055985,-9.7869386335,-0.012907,0.062049,-2.0952,1.4285714285744433e-05,-2.5641025640510406e-06,1.333333333330966e-05,-0.00013369942572435262,-0.00031607195992178205,0.000246586803166228
149920000000.0,6,-0.0057074703,-0.00559959715,0.022359162,-0.002655,5.8e-05,-0.000736,-0.1264273318,-0.6080613332499999,-9.7869386335,-0.012917,0.062045,-2.0952,1.4285714285744433e-05,-2.5641025642730852e-06,1.333333333330966e-05,0.00045171797333695696,0.0003985651330020712,8.880031693903057e-05
149920000000.0,6,0.006952914849999999,0.00138273765,0.022810267899999997,-0.000535,-0.001026,0.000337,-0.1263684919,-0.6080123,-9.7869386335,-0.012911,0.062039,-2.0952,1.4285714285522388e-05,-2.5641025640510406e-06,-3.999999999992898e-05,-0.0008515171558742748,-0.00018647377359393147,-0.0005892214040349383
149920000000.0,6,0.006060509699999999,0.0065704555,0.0259680092,-0.001599,4.7e-05,0.001401,-0.12622139215,-0.607816167,-9.7869386335,-0.012896,0.06202,-2.0952,1.4285714285744433e-05,-2.5641025640510406e-06,-5.000000000032756e-06,-3.6733726312895842e-06,-0.0001951362682965918,-0.00011292060557013123
149920000000.0,6,0.0012944778,6.864654999999999e-05,0.0313616667,-0.001597,-0.001016,-0.000732,-0.1262508121,-0.60774752045,-9.7869386335,-0.012899,0.062013,-2.0952,1.4285714285744433e-05,-2.5641025640510406e-06,-5.000000000032756e-06,-0.00013751024284013036,-0.0001793053350558349,0.00027925642937171036
149920000000.0,6,0.0047660318999999994,-0.0015592573499999998,0.039295246549999996,-0.001585,0.001114,0.000332,-0.12612332564999998,-0.6077573271,-9.7869386335,-0.012886,0.062014,-2.0952,1.4285714285744433e-05,-2.5641025642730852e-06,1.0000000000065512e-05,0.0003352692178417993,0.00020080923541332396,-0.0002794534676206356
149920000000.0,6,-0.00487390505,-0.0034127142,0.031950065699999995,0.000554,0.001098,-0.000732,-0.12620177885,-0.6078553936,-9.7869386335,-0.012894,0.062024,-2.0952,-9.999999999998899e-05,-2.5641025640510406e-06,4.999999999921734e-06,8.313093077860767e-06,0.00024519827037439157,-0.00011624390743919522
149920000000.0,6,-0.004393379199999999,-0.001176798,0.0264191151,-0.001593,4.9e-05,0.000334,-0.1263881052,-0.60784558695,-9.7869386335,-0.012914,0.062023,-2.0952,1.1111111111183902e-05,-2.5641025640510406e-06,5.000000000032756e-06,0.00015074887383793867,-5.971973967699995e-05,0.00013936917724594045
149920000000.0,6,0.0122583125,-0.0029910282499999996,0.030910560799999997,-0.00158,0.001115,-0.000735,-0.1261331323,-0.60782597365,-9.7869386335,-0.012887,0.062021,-2.0952,1.1111111110961858e-05,-2.5641025640510406e-06,2.999999999997449e-05,0.00048654300128868344,5.9257551994651436e-05,0.0004862234191709419
149920000000.0,6,0.00754131385,0.007825706699999999,0.026428921749999997,0.00054,3.1e-05,0.000337,-0.1260546791,-0.6077181005,-9.7869386335,-0.012879,0.06201,-2.0952,1.1111111111183902e-05,-2.5641025642730852e-06,-2.4999999999941735e-05,-0.0010982243070454395,-0.00016496460184090012,-0.0003730774885672694
149920000000.0,6,0.011003061299999999,0.00414821295,0.03421540185,-0.000527,4.1e-05,0.000336,-0.12592719265,-0.60762984065,-9.7870367,-0.012866,0.062001,-2.0952,1.1111111111183902e-05,-2.5641025640510406e-06,-2.5000000000052758e-05,0.0008313927284557543,-0.00021483743169481428,-0.00012630656213635794
149920000000.0,6,0.0087671451,-0.00512887795,0.024193005549999997,-0.001594,4.9e-05,0.000334,-0.1257800929,-0.6076396473,-9.7870367,-0.012851,0.062002,-2.0952,1.1111111110961858e-05,-2.5641025640510406e-06,2.0000000000020002e-05,0.00046709026545440485,0.0003202830796784628,0.00045301655082497644
149920000000.0,6,0.00214765635,-0.0117287534,0.0228298812,0.000549,0.001098,0.000336,-0.12575067294999998,-0.6079142335,-9.7869386335,-0.012848,0.06203,-2.0952,1.1111111111183902e-05,-2.5641025640510406e-06,2.999999999997449e-05,-0.0011654340292185303,-7.623624120167705e-05,-5.753637794970318e-05
149920000000.0,6,0.0065312289,0.0005687857,0.0385401345,0.000537,-0.001032,-0.000728,-0.1256427998,-0.6079534601,-9.7869386335,-0.012837,0.062034,-2.0952,1.1111111111183902e-05,-2.5641025640510406e-06,-2.0000000000020002e-05,0.0002814896559442323,-8.988416651556363e-05,-0.00034465535482849224
149920000000.0,6,0.0077080269,0.0013533177,0.05394638164999999,-0.000538,-0.002089,-0.000728,-0.12562318649999998,-0.6079828800499999,-9.7869386335,-0.012835,0.062037,-2.0952,1.1111111110961858e-05,-2.5641025642730852e-06,2.0000000000020002e-05,-0.00025879583444547716,0.00014183765077979693,0.00016727664094427774
149920000000.0,6,-0.0029616083000000002,0.00279489525,0.03688281065,0.000546,3.3e-05,-0.00073,-0.12573105965,-0.60808094655,-9.7869386335,-0.012846,0.062047,-2.0952,1.1111111111183902e-05,-2.5641025640510406e-06,-2.999999999997449e-05,3.232155088458977e-05,0.00019309419048130216,-0.0005229234275636596
149920000000.0,6,-0.0016867438,0.0031185146999999996,0.026870220999999996,0.00054,3.2e-05,0.000337,-0.12565260644999998,-0.6079534601,-9.7869386335,-0.012838,0.062034,-2.0952,-9.999999999998899e-05,-2.5641025640510406e-06,-2.999999999997449e-05,0.0006137450812488468,-0.00013629142045501474,0.00041905452281417593
149920000000.0,6,0.00024516625,0.0018142302499999999,0.0216334699,-0.00158,0.001117,-0.000735,-0.1256427998,-0.60784558695,-9.7869386335,-0.012837,0.062022,-2.0952,7.1428571428722165e-06,-2.5641025640510406e-06,2.999999999997449e-05,-3.008239429692222e-05,-2.089689125783778e-05,-1.7987036942411494e-05
149920000000.0,6,0.0016573238499999997,0.0014611908499999999,0.02478140455,0.000554,0.001099,-0.000732,-0.1255643466,-0.6077965537,-9.7869386335,-0.012829,0.062017,-2.0952,7.1428571428722165e-06,-2.5641025642730852e-06,2.999999999997449e-05,-0.0008181379784227352,-0.00014190709494865672,-4.58355068518948e-05
149920000000.0,6,-0.0026379888499999996,0.0033832942499999997,0.027635139700000002,0.00161,0.001088,0.001405,-0.12545647345,-0.60776713375,-9.7870367,-0.012818,0.062015,-2.0952,7.1428571428722165e-06,-2.5641025640510406e-06,-2.0000000000020002e-05,0.0008411118189292355,0.0004630430917866857,-8.204457833584089e-05
149920000000.0,6,-0.00583495675,-0.0034617474499999998,0.02852754485,-0.000513,0.001108,-0.000734,-0.12539763355,-0.6078063603499999,-9.7870367,-0.012812,0.062018,-2.0952,7.1428571428722165e-06,-2.5641025640510406e-06,4.0000000000040004e-05,-0.0008618365755983654,-0.00033218958746816796,5.0366593024514517e-05
149920000000.0,6,0.00204958985,0.00045110589999999997,0.0331660903,0.000566,0.003229,0.000332,-0.12520150055,-0.6078357803,-9.7870367,-0.012792,0.062021,-2.0952,7.1428571428722165e-06,-2.5641025640510406e-06,-5.999999999994898e-05,0.0010659565474648441,-1.927190296169279e-05,-0.0002450069247819514
149920000000.0,6,-0.0023339827,0.010650021899999999,0.040050358599999995,0.002665,-0.001051,0.000343,-0.12529956705,-0.6078553936,-9.7869386335,-0.012802,0.062024,-2.0952,7.1428571428722165e-06,-2.5641025642730852e-06,4.999999999999449e-05,-8.579442170454643e-05,0.00018496692115443913,0.0009588416150399792
149920000000.0,6,-0.0020005566,0.00761976705,0.0348136075,0.001607,2.4e-05,0.000339,-0.1253486003,-0.607816167,-9.7870367,-0.012807,0.06202,-2.0952,7.142857142650172e-06,-2.5641025640510406e-06,-1.0000000000065512e-05,-0.0009086128474718042,-0.00030635335316531176,-0.00031887598831512043
149920000000.0,6,-0.0025497289999999997,0.00134351105,0.0306163613,-0.000518,0.001107,0.000334,-0.12539763355,-0.60782597365,-9.7869386335,-0.012811,0.062021,-2.0952,7.1428571428722165e-06,-2.5641025640510406e-06,-4.999999999999449e-05,0.0007671199831475808,-0.0002841249580998184,-0.000530015486461359
149920000000.0,6,-0.0038834333999999996,-0.006237029399999999,0.011022674599999999,-0.001594,5e-05,0.000334,-0.12539763355,-0.6077279071499999,-9.7870367,-0.012812,0.062011,-2.0952,7.1428571428722165e-06,-2.5641025640510406e-06,2.0000000000020002e-05,-8.219373604100716e-05,0.00046767317126339414,0.00019307748650879836
149920000000.0,6,0.0020593965,-0.00253992235,0.017906942899999997,-0.001585,0.001116,0.000332,-0.12521130719999998,-0.60768868055,-9.7870367,-0.012793,0.062007,-2.0952,7.1428571428722165e-06,-2.5641025640510406e-06,-5.000000000032756e-06,6.154704565556474e-05,0.00015739132884728946,-0.00014534443717206108
149920000000.0,6,0.00316754795,-0.001765197,0.0306163613,0.00054,3.3e-05,0.000338,-0.1252701471,-0.6078553936,-9.7869386335,-0.012799,0.062024,-2.0952,7.1428571428722165e-06,-2.5641025642730852e-06,-4.999999999921734e-06,0.00012464912068425177,-7.972854930016204e-05,-7.447258799956474e-05
149920000000.0,6,0.0055309506,0.0056094038,0.03690242395,0.001598,-0.001042,0.000341,-0.12524072714999998,-0.60790442685,-9.7869386335,-0.012796,0.062029,-2.0952,7.1428571428722165e-06,-2.5641025640510406e-06,3.999999999992898e-05,-0.0007671642718983449,-0.0004357576631801585,0.00024467911394879943
149920000000.0,6,-0.0007453054,0.00928689755,0.03182257925,-0.000513,0.001108,-0.000734,-0.1252505338,-0.6078357803,-9.7870367,-0.012797,0.062022,-2.0952,7.1428571428722165e-06,-2.5641025640510406e-06,-1.0000000000065512e-05,0.0005060156832029303,0.0003270104561534648,-8.709704763305848e-06
149920000000.0,6,0.0089828914,0.0029812216,0.026732927899999998,0.000531,-0.001033,0.000339,-0.12510343405,-0.607816167,-9.7870367,-0.012782,0.062019,-2.0952,7.1428571428722165e-06,-2.5641025640510406e-06,-9.99999999995449e-06,0.0002265823295349162,1.2257332618670347e-05,0.00024038649396583567
149920000000.0,6,0.005942829899999999,0.0036873003999999994,0.026585828149999997,0.00054,3.3e-05,0.000338,-0.1250544008,-0.6077769404,-9.7870367,-0.012777,0.062016,-2.0952,-9.999999999998899e-05,-2.5641025642730852e-06,2.0000000000020002e-05,-9.242793108389658e-05,3.935410327438049e-05,-0.0002804976249791147
149920000000.0,6,0.0027066354,-0.005021004799999999,0.0324207849,0.000548,0.001099,0.000336,-0.12495633429999999,-0.6078946202,-9.7869386335,-0.012767,0.062028,-2.0952,6.249999999985434e-06,-2.5641025640510406e-06,-2.0000000000020002e-05,0.00014181188419528507,0.00020074191874130953,-6.938332832993194e-05
149920000000.0,6,-0.00797280645,-0.0016180972499999998,0.026272015349999997,-0.001602,-0.001015,0.000336,-0.12520150055,-0.6080123,-9.7869386335,-0.012792,0.062039,-2.0952,6.249999999985434e-06,-2.5641025640510406e-06,1.0000000000065512e-05,0.00011336426633780372,7.38239698450105e-05,0.000383683504001725
149920000000.0,6,-0.005197524499999999,-0.00348136075,0.0292630436,-0.001588,5.2e-05,-0.000734,-0.12528976039999998,-0.60794365345,-9.7869386335,-0.012801,0.062032,-2.0952,6.249999999985434e-06,-2.5641025640510406e-06,4.999999999921734e-06,-0.00018697297594166135,-0.0001627714965524163,-0.00029439696517095243
149920000000.0,6,0.000196133,0.00093163175,0.032999377249999996,0.000531,-0.001032,0.000346,-0.12528976039999998,-0.6080123,-9.7869386335,-0.012801,0.06204,-2.0952,6.249999999985434e-06,-2.5641025642730852e-06,5.000000000032756e-06,-0.00010495631469454453,4.307442049777954e-05,-0.00019433179291224872
149920000000.0,6,-0.00348136075,0.0011081514499999999,0.04347287945,-0.00053,-0.001022,-0.000723,-0.1253486003,-0.60804171995,-9.7869386335,-0.012807,0.062043,-2.0952,6.249999999985434e-06,-2.5641025640510406e-06,2.999999999997449e-05,0.00013496797216718676,4.1732611440803424e-05,-2.7483443042451705e-05
149920000000.0,6,-0.0022947561,-0.0016082905999999998,0.0407760507,0.00054,3.4e-05,0.000344,-0.12533879365,-0.6081692063999999,-9.7869386335,-0.012806,0.062055,-2.0952,6.249999999985434e-06,-2.5641025640510406e-06,3.0000000000085514e-05,-0.0006093376639998288,-3.683042207680565e-05,0.0008541563073873326
149920000000.0,6,-0.0043345393,-0.010149882749999999,0.023869386099999997,-0.002638,0.002192,-0.000733,-0.12526034044999998,-0.6081495930999999,-9.7869386335,-0.012797,0.062054,-2.0952,6.249999999985434e-06,9.999999999998899e-05,-8.000000000008001e-05,0.0003048002701914673,-0.00037623801341890584,-0.0005188073657390116
149920000000.0,6,0.0027066354,0.0030890947499999997,0.02566400305,-0.000527,4.3e-05,0.000342,-0.12526034044999998,-0.6080711399,-9.7869386335,-0.012798,0.062046,-2.0952,6.249999999985434e-06,-4.999999999988347e-05,4.999999999999449e-05,-0.0003221496144694552,0.00032445783327395006,0.0003119843489201579
149920000000.0,6,-0.0013925443,0.009345737449999999,0.024320492,0.00054,3.4e-05,0.000344,-0.1253486003,-0.6080515266,-9.7869386335,-0.012807,0.062043,-2.0952,6.2500000002074785e-06,-5.0000000000105516e-05,-2.999999999997449e-05,0.0002570009851973476,-0.00013112323939590276,-0.0002936632174667664
149920000000.0,6,0.0046287388,0.0023045627499999996,0.03254827135,0.000531,-0.001031,0.000346,-0.1253878269,-0.60804171995,-9.7869386335,-0.012811,0.062043,-2.0952,6.249999999985434e-06,-5.0000000000105516e-05,1.0000000000065512e-05,-0.00035978611522806403,-0.0002473797935769184,-2.962385170970916e-05
149920000000.0,6,-0.0034911673999999996,-0.00069627215,0.02491869765,-0.000527,4.3e-05,0.000342,-0.12549570005,-0.60802210665,-9.7869386335,-0.012822,0.062041,-2.0951,6.249999999985434e-06,-4.999999999988347e-05,-3.0000000000085514e-05,0.0005526926614931801,0.00014954610100037513,-0.00040365567955761433
149920000000.0,6,-0.0015102241,-0.00050013915,0.0347939942,-0.001589,5.3e-05,-0.000727,-0.12552512,-0.6080711399,-9.7869386335,-0.012825,0.062046,-2.0951,6.249999999985434e-06,-4.999999999988347e-05,9.99999999995449e-06,0.0002504719196114308,-0.00030440421278976615,0.00043483938469515704
149920000000.0,6,-0.0043345393,0.00234378935,0.04108005685,0.000553,0.001101,-0.000725,-0.1255447333,-0.60808094655,-9.7869386335,-0.012827,0.062046,-2.0952,6.249999999985434e-06,-5.0000000000105516e-05,1.0000000000065512e-05,-0.00013334587940611042,0.0003898798033210582,-0.00015996068090805282
149920000000.0,6,-0.0055309506,-0.0018240368999999999,0.030145642099999998,0.001598,-0.00104,0.000348,-0.12570163969999998,-0.6082476596,-9.7869386335,-0.012843,0.062064,-2.0952,6.249999999985434e-06,-5.0000000000105516e-05,1.0000000000065512e-05,-8.144645456946431e-06,0.000111024607321486,-0.00025248433379235907
149920000000.0,6,-0.0058251501,-0.0045110589999999996,0.02309466075,-0.000527,4.3e-05,0.000342,-0.1258585461,-0.6084045659999999,-9.7869386335,-0.012859,0.062079,-2.0952,6.249999999985434e-06,-4.999999999988347e-05,9.99999999995449e-06,-0.00042014186759137956,6.502142474174022e-05,0.0001920465205963104
149920000000.0,6,-0.00152003075,-0.0014317708999999998,0.01921122735,-0.000527,4.3e-05,0.000342,-0.12582912615,-0.60833591945,-9.7869386335,-0.012856,0.062073,-2.0952,6.249999999985434e-06,-4.999999999988347e-05,-5.999999999994898e-05,0.0006840699097155553,-7.436803036653394e-05,-0.00016968885996027777
149920000000.0,6,0.0009218250999999998,0.0066685220000000005,0.028929617499999997,0.001598,-0.00104,0.000348,-0.12586835275,-0.6083653393999999,-9.7869386335,-0.01286,0.062076,-2.0952,9.999999999998899e-05,-5.0000000000105516e-05,0.00039000000000000146,0.004514350251420947,0.006473716288077469,0.005542072728034638
149920000000.0,6,0.00463854545,0.00330484105,0.03627479835,-0.001603,-0.001014,0.000342,-0.12584873945,-0.60829669285,-9.7869386335,-0.012858,0.062068,-2.0952,-5.499999999991623e-05,9.999999999998899e-05,-0.00034000000000000696,-0.00236881763525551,-0.004645553194402741,-0.0016173191276225747
149920000000.0,6,0.00069627215,0.0020201699,0.03327396345,0.000531,-0.001031,0.000346,-0.1259369993,-0.6083457260999999,-9.7869386335,-0.012868,0.062074,-2.0952,-5.500000000013827e-05,9.999999999998899e-05,-4.999999999999449e-05,-0.00016131422028586861,-0.0014875379327072835,-0.00016699039224321588
149920000000.0,6,-0.00255953565,0.005933023249999999,0.0313420534,-0.00051,0.002174,0.000339,-0.12582912615,-0.6082280462999999,-9.7869386335,-0.012856,0.062062,-2.0952,-5.499999999991623e-05,5.882352941188884e-06,-6.0000000000060005e-05,0.00023171442415025056,1.9890843772296662e-05,-0.00015986706793288952
149920000000.0,6,-0.0005099458,-0.0011964113,0.025203090499999997,-0.00051,0.002174,0.000339,-0.12578989955,-0.60827707955,-9.7869386335,-0.012852,0.062067,-2.0952,-5.500000000013827e-05,5.882352941188884e-06,-5.999999999994898e-05,-0.00037273686874479683,-0.0010059342788992787,-0.0004636012735808881
149920000000.0,6,-0.00138273765,0.00042168595,0.0332837701,-0.000531,-0.001021,-0.000723,-0.12580951285,-0.6082574662499999,-9.7869386335,-0.012854,0.062064,-2.0952,-5.499999999991623e-05,5.882352941188884e-06,2.0000000000020002e-05,-0.00011800848227695032,0.0002140826354233294,0.00031939509949261563
149920000000.0,6,-0.0014121576,0.0102185293,0.0322442652,0.000559,0.001102,-0.001792,-0.1257800929,-0.6081692063999999,-9.7869386335,-0.012851,0.062056,-2.0952,-5.499999999991623e-05,5.882352941188884e-06,3.999999999992898e-05,0.0001262111904495808,0.00038835682623461487,0.00040786368234996956
149920000000.0,6,-0.0041384062999999995,0.0017848103,0.024761791249999998,-0.000531,-0.001021,-0.000723,-0.1258977727,-0.6081103664999999,-9.7869386335,-0.012863,0.06205,-2.0952,-5.500000000013827e-05,5.882352941188884e-06,2.0000000000020002e-05,0.0001358010923571476,0.00022743643598155394,-3.6110918987232454e-05
149920000000.0,6,-0.00612915625,-0.0048837117,0.030890947499999998,-0.000514,0.00111,-0.000727,-0.12600564585,-0.60817901305,-9.7869386335,-0.012874,0.062057,-2.0952,-5.499999999991623e-05,5.882352941188884e-06,9.99999999995449e-06,-0.00013340337672793773,0.00024693370485073807,-0.0002837790814598992
149920000000.0,6,-0.00171616375,0.0024908890999999996,0.03313667035,0.000559,0.001102,-0.001792,-0.12592719265,-0.6082280462999999,-9.7869386335,-0.012866,0.062062,-2.0952,-5.500000000013827e-05,5.882352941188884e-06,1.0000000000065512e-05,-0.00015014205582132567,-0.00028414637050278024,-6.476568048209563e-05
149920000000.0,6,-0.0038442067999999996,0.0037657536,0.04361017255,0.000539,3.4e-05,0.000344,-0.1258977727,-0.60815939975,-9.7869386335,-0.012863,0.062054,-2.0952,-5.499999999991623e-05,5.882352941188884e-06,-1.0000000000065512e-05,-0.0005648773859980999,3.1488346039498794e-05,0.00011485514136076735
149920000000.0,6,-0.0016180972499999998,-0.008168939449999999,0.0376183094,-0.000527,4.3e-05,0.000342,-0.1258781594,-0.60833591945,-9.7869386335,-0.012861,0.062073,-2.0952,-5.499999999991623e-05,5.88235294096684e-06,5.000000000032756e-06,0.0010771261875361232,0.0001195820295791794,8.173584475824891e-05
149920000000.0,6,-0.0048640984,0.0026281822,0.025046184099999997,0.000522,-0.002097,0.000348,-0.12606448574999998,-0.6082084329999999,-9.7869386335,-0.012881,0.06206,-2.0952,-5.500000000013827e-05,5.882352941188884e-06,5.000000000032756e-06,-0.0009405530175915292,-0.00023279847973678436,0.00017658895226072696
149920000000.0,6,-0.00385401345,0.00573689025,0.0225160684,-0.000531,-0.001021,-0.000723,-0.12618216555,-0.6080319133,-9.7869386335,-0.012892,0.062042,-2.0952,-5.499999999991623e-05,5.882352941188884e-06,-1.0000000000065512e-05,0.0009902885264846117,4.107135454023414e-05,4.8753834347298186e-05
149920000000.0,6,0.0006374322499999999,0.00709020795,0.025212897149999997,0.000528,-0.002096,-0.000719,-0.1263292653,-0.60788481355,-9.7869386335,-0.012908,0.062027,-2.0952,-5.500000000013827e-05,5.882352941188884e-06,-9.99999999995449e-06,-0.0006933152309967425,7.275864390288156e-05,-0.0004922719985896509
149920000000.0,6,0.0022163028999999997,0.0074040207499999995,0.0343428883,0.000525,-0.001032,0.001414,-0.1264077185,-0.6078946202,-9.7869386335,-0.012916,0.062028,-2.0952,-5.499999999991623e-05,5.882352941188884e-06,-9.99999999995449e-06,-0.00014807416392428885,2.6852493985263237e-05,4.74941374330462e-05
149920000000.0,6,-0.00901231135,0.0085906254,0.0333033834,-0.000531,-0.001021,-0.000723,-0.1265646249,-0.6077377138,-9.7869386335,-0.012931,0.062012,-2.0952,-5.499999999991623e-05,5.882352941188884e-06,-1.0000000000065512e-05,-6.918152324530275e-05,-0.00015372769794486096,0.00021496761660572822
149920000000.0,6,-0.00675678185,0.005275977699999999,0.02403609915,-0.000514,0.00111,-0.000727,-0.12657443155,-0.60757100075,-9.7869386335,-0.012932,0.061994,-2.0952,-5.500000000013827e-05,5.882352941188884e-06,2.0000000000020002e-05,-0.00012262252344717728,1.2923424807631534e-05,-0.00036596275785374943
149920000000.0,6,0.00169655045,0.00399130655,0.027635139700000002,0.000539,3.4e-05,0.000344,-0.12649597835,-0.6074729342499999,-9.7870367,-0.012924,0.061985,-2.0952,-5.499999999991623e-05,5.882352941188884e-06,2.0000000000020002e-05,-0.0002941933936722804,-0.0002649264367471371,0.0003152387889413036
149920000000.0,6,0.00687446165,0.0038638200999999996,0.0348136075,0.000539,3.4e-05,0.000344,-0.12643713845,-0.6075023542,-9.7870367,-0.012918,0.061988,-2.0952,-5.500000000013827e-05,5.882352941188884e-06,-0.0001100000000000545,-0.0011133369585841005,-0.000743113863160838,-0.0004918100687595142
149920000000.0,6,0.00361865385,-0.0032754210999999997,0.037059330349999996,-0.001586,0.001118,0.000339,-0.12631945865,-0.6075415808,-9.7870367,-0.012906,0.061992,-2.0952,-5.499999999991623e-05,0.0020000000000000018,-0.0010700000000000154,0.020118210303487483,0.0010611116441796575,-0.012184377056964138
149920000000.0,6,0.0015886773,-9.806649999999999e-06,0.0204566719,-0.000519,0.001109,0.000341,-0.12624100545,-0.6075121608499999,-9.7870367,-0.012898,0.061989,-2.0952,4.761904761840796e-06,9.999999999998899e-05,-8.999999999992347e-05,2.9016175594545612e-05,-0.0010755693305306568,-0.00012285536969712518
149920000000.0,6,-0.0002941995,-0.0029419949999999998,0.0126701918,0.001597,-0.00104,0.000348,-0.12629984535,-0.6075808074,-9.7870367,-0.012904,0.061995,-2.0952,4.761904762062841e-06,4.166666666582941e-06,-2.0000000000020002e-05,-0.0003839328496829178,-0.0003990549246748465,-0.0002659636620459052
149920000000.0,6,0.0005099458,0.000980665,0.037794829099999996,0.001597,-0.00104,0.000348,-0.1263488786,-0.6077573271,-9.7869386335,-0.012909,0.062014,-2.0952,4.761904761840796e-06,4.166666666804986e-06,9.99999999995449e-06,3.745687017212007e-05,0.0001450782934573347,0.0002599937274067876
149920000000.0,6,0.00605070305,-0.00065704555,0.03898143375,-0.000525,0.001108,0.001408,-0.12620177885,-0.6079142335,-9.7869386335,-0.012895,0.06203,-2.0952,4.761904761840796e-06,4.166666666582941e-06,1.0000000000065512e-05,0.00031645524022891336,3.531525035649352e-05,-0.0002511784539076245
149920000000.0,6,0.0014906108,-0.0070019481,0.025212897149999997,-0.000531,-0.001021,-0.000723,-0.1262900387,-0.6080123,-9.7869386335,-0.012903,0.06204,-2.0952,4.761904761840796e-06,4.166666666804986e-06,9.99999999995449e-06,-0.0007899719802449828,0.00021879665866486597,0.00029573697715877534
149920000000.0,6,0.004707192,0.001569064,0.01817172245,-0.000533,4.3e-05,0.00141,-0.1262115855,-0.6080515266,-9.7869386335,-0.012895,0.062044,-2.0951,4.761904762062841e-06,4.166666666582941e-06,-2.0000000000020002e-05,0.000764536630790312,9.380629645083793e-05,-0.0003425653037062784
149920000000.0,6,0.006207609449999999,-0.004059953099999999,0.025350190249999998,0.000536,-0.001029,-0.000721,-0.1262115855,-0.6082574662499999,-9.7869386335,-0.012896,0.062065,-2.0952,4.761904761840796e-06,4.166666666582941e-06,-2.0000000000020002e-05,-0.00035845212189362236,-0.0004977304549809158,3.371853600980107e-05
149920000000.0,6,0.010022396299999998,-0.00457970555,0.0389520138,0.002687,0.001084,-0.000721,-0.1259958392,-0.6084830191999999,-9.7869386335,-0.012873,0.062088,-2.0952,4.761904761840796e-06,4.166666666804986e-06,-1.999999999990898e-05,-0.0003643378179315343,-0.00021795848850336697,-0.00010265819313280689
149920000000.0,6,0.00295180165,0.00367749375,0.04509097669999999,-0.001589,5.4e-05,-0.000727,-0.12594680595,-0.6083653393999999,-9.7869386335,-0.012868,0.062076,-2.0952,4.761904762062841e-06,4.166666666582941e-06,9.99999999995449e-06,-0.00030746534826495836,-5.401148187877958e-05,-5.844299102427536e-05
149920000000.0,6,-0.00583495675,-5.88399e-05,0.01772061655,-0.001586,0.001118,0.000339,-0.1259958392,-0.60821823965,-9.7869386335,-0.012874,0.062061,-2.0951,4.761904761840796e-06,4.166666666582941e-06,-2.0000000000020002e-05,2.0495482811924703e-05,-0.00020385351769536264,-1.6498299260286897e-05
149920000000.0,6,-0.004501252349999999,-0.0006276255999999999,0.01726951065,0.000545,3.6e-05,-0.000723,-0.1261331323,-0.6082476596,-9.7869386335,-0.012887,0.062064,-2.0951,4.761904761840796e-06,4.166666666804986e-06,-2.0000000000020002e-05,-6.730219261598391e-06,4.948583650632443e-06,-5.617627106999784e-05
149920000000.0,6,0.0017063571,-0.00257914895,0.030714427799999996,0.001598,-0.001039,0.000348,-0.1260546791,-0.6085418590999999,-9.7869386335,-0.012879,0.062094,-2.0951,4.761904761840796e-06,4.166666666582941e-06,1.4999999999987246e-05,-0.0001632763599365636,-0.00013407365080930767,0.0003504070687668573
149920000000.0,6,-0.006158576199999999,0.005462304049999999,0.044326057999999995,0.00162,0.001093,-0.000723,-0.12611351899999998,-0.60864973225,-9.7869386335,-0.012885,0.062105,-2.0951,4.761904762062841e-06,4.166666666582941e-06,1.5000000000098268e-05,2.6538774249046382e-05,0.00025310178430149044,-0.0003438543747167344
149920000000.0,6,-0.0058055367999999994,0.0035794272499999995,0.020986230999999998,-0.000531,-0.00102,-0.000723,-0.12631945865,-0.6085614723999999,-9.7869386335,-0.012906,0.062096,-2.0951,4.761904761840796e-06,4.166666666804986e-06,-5.000000000032756e-06,9.16676347766307e-05,-0.00014958104160633923,2.137911802856801e-05
149920000000.0,6,-0.00116699135,-0.0016573238499999997,0.0205351251,-0.000505,0.002176,-0.000729,-0.1261723589,-0.6085614723999999,-9.7869386335,-0.012892,0.062096,-2.0951,4.761904761840796e-06,4.166666666582941e-06,-5.000000000032756e-06,-5.350693712615623e-05,1.8240233656152682e-05,8.910242917586214e-05
149920000000.0,6,-0.0027752819499999998,-0.00252030905,0.0365395779,-0.0005,0.002177,-0.001796,-0.12606448574999998,-0.6087576053999999,-9.7869386335,-0.01288,0.062115,-2.0952,4.761904762062841e-06,4.166666666804986e-06,-9.99999999995449e-06,-9.942772515610099e-05,-0.00021393137810976626,-0.00021957104745563838
149920000000.0,6,-0.00189268345,0.00293218835,0.050298307849999994,-0.000514,0.001111,-0.000727,-0.12604487244999998,-0.6088164452999999,-9.7869386335,-0.012878,0.062122,-2.0952,4.761904761840796e-06,4.166666666582941e-06,9.99999999995449e-06,0.00013570926512402465,0.0002215460637406963,0.0002657713658484259
149920000000.0,6,0.00021574629999999997,0.0024124359,0.026360275199999998,-0.000545,-0.002087,0.000346,-0.1262115855,-0.60874779875,-9.7869386335,-0.012895,0.062115,-2.0951,4.761904761840796e-06,4.166666666582941e-06,1.0000000000065512e-05,-0.0002283161228546493,-0.0001579678832621667,0.00020212965042405717
149920000000.0,6,0.0013925443,0.00718827445,0.0136508568,-0.001595,5.3e-05,0.000341,-0.12618216555,-0.6085810857,-9.7869386335,-0.012893,0.062098,-2.0951,4.761904761840796e-06,4.166666666804986e-06,-5.000000000032756e-06,0.00022719670689047566,0.00036240756282901465,-0.00042551073499838554
149920000000.0,6,0.0024908890999999996,0.0053740442,0.021143137399999998,-0.000528,4.4e-05,0.000343,-0.12609390569999998,-0.6084045659999999,-9.7869386335,-0.012883,0.06208,-2.0951,4.761904762062841e-06,4.166666666582941e-06,-5.000000000032756e-06,-0.00035401395087608645,-0.000277633379296649,0.0001587423060368659
149920000000.0,6,0.00018632635,6.864654999999999e-05,0.041648842549999995,-0.000514,0.001111,-0.000727,-0.12603506579999998,-0.6083457260999999,-9.7869386335,-0.012877,0.062074,-2.0952,4.761904761840796e-06,4.166666666804986e-06,5.000000000032756e-06,-0.0003938450309525082,-0.00010204869951091489,0.0001815024549581823
149920000000.0,6,0.0026379888499999996,0.0026183755499999996,0.04539498285,0.000553,0.001102,-0.000725,-0.1259369993,-0.60835553275,-9.7869386335,-0.012867,0.062075,-2.0952,-9.999999999998899e-05,4.166666666582941e-06,5.000000000032756e-06,0.00028685160138917226,0.0003147178505431558,1.7909487683917535e-06
149920000000.0,6,-0.00352058735,0.0011375714,0.033568162949999994,-0.000533,4.3e-05,0.00141,-0.12606448574999998,-0.6083653393999999,-9.7869386335,-0.01288,0.062076,-2.0951,4.999999999988347e-05,4.166666666582941e-06,1.999999999990898e-05,0.0002469819928065872,0.00021457420175385877,0.0001730808722271368
149920000000.0,6,0.0009414384,-0.004707192,0.022359162,-0.002665,-0.001002,-0.000727,-0.12604487244999998,-0.6082084329999999,-9.7869386335,-0.012878,0.06206,-2.0952,5.0000000000105516e-05,4.166666666804986e-06,-6.999999999990347e-05,-0.0013975272761434093,-0.0011715937501561857,-0.0007810220768435239
149920000000.0,6,-0.0074138274,-0.00354020065,0.019368133750000002,-0.000514,0.001111,-0.000727,-0.12606448574999998,-0.60817901305,-9.7869386335,-0.01288,0.062057,-2.0952,-3.333333333332966e-05,4.166666666582941e-06,-9.00000000000345e-05,-0.001048865510987665,-0.0005310173112331729,-0.0002677766517775043
149920000000.0,6,-0.00350097405,-0.0012748644999999999,0.039854225599999994,-0.000536,-0.001021,0.000344,-0.1262311988,-0.60835553275,-9.7869386335,-0.012897,0.062075,-2.0951,-3.333333333332966e-05,-5.0000000000105516e-05,4.0000000000040004e-05,0.00047715575053271925,0.00011435667180159648,0.0005411717709979738
149920000000.0,6,-0.00485429175,0.00010787314999999999,0.03505877375,0.000544,3.7e-05,-0.000723,-0.12637829855,-0.6083849527,-9.7869386335,-0.012912,0.062078,-2.0951,-3.333333333332966e-05,-4.999999999988347e-05,-7.500000000049134e-06,0.0008421977822598917,0.00012386731896985026,-9.784495191903636e-05
149920000000.0,6,0.0040011132,0.0067077486,0.023251567149999996,-0.000523,4.5e-05,-0.000725,-0.1262508121,-0.6082476596,-9.7869386335,-0.012899,0.062064,-2.0952,4.999999999988347e-05,9.999999999998899e-05,-7.500000000049134e-06,-0.0003854113757362221,-9.32378171480952e-05,-0.0001384148741972041
149920000000.0,6,0.0030106415499999996,-0.0025987622499999996,0.023388860249999997,-0.000522,4.6e-05,-0.000725,-0.126309652,-0.6083653393999999,-9.7869386335,-0.012905,0.062076,-2.0951,5.0000000000105516e-05,1.1111111111183902e-05,-7.499999999938112e-06,-0.0006717892145934254,-0.0001425833870007942,-0.0002883552083438948
149920000000.0,6,-0.00189268345,-0.0011375714,0.0387951074,0.000556,0.002167,0.000341,-0.12619197219999997,-0.6084830191999999,-9.7869386335,-0.012893,0.062088,-2.0951,-9.999999999998899e-05,1.1111111110961858e-05,-7.500000000049134e-06,0.00032507742000806306,-6.720590075071087e-05,0.00031482772810316473
149920000000.0,6,-0.00220649625,0.0034911673999999996,0.05122013295,-0.000519,0.00111,0.000341,-0.12618216555,-0.60847321255,-9.7869386335,-0.012893,0.062087,-2.0951,9.999999999998899e-05,1.1111111111183902e-05,2.0000000000020002e-05,0.00022665613081496172,-6.960611491790836e-05,-0.00028677350361244747
149920000000.0,6,-0.0042756994,-0.0008139519499999999,0.027135000549999996,-0.001586,0.001119,0.000339,-0.12620177885,-0.6083653393999999,-9.7869386335,-0.012895,0.062075,-2.0951,0.00011249999999995985,1.1111111111183902e-05,-2.999999999997449e-05,-0.00035135490504031863,-0.0003317362451347172,-8.792373771306095e-05
149920000000.0,6,-0.0009708583499999999,-0.00279489525,0.02383996615,-0.000536,-0.001021,0.000345,-0.12622139215,-0.6083261127999999,-9.7869386335,-0.012896,0.062072,-2.0951,0.0001125000000001819,1.1111111110961858e-05,-9.99999999995449e-06,0.00043009008863730686,0.00010355985126730971,0.00021483583832981185
149920000000.0,6,0.0041580196,0.005717276949999999,0.02474217795,0.000522,-0.002095,0.000348,-0.12626061875,-0.6083064994999999,-9.7869386335,-0.0129,0.06207,-2.0951,0.00011249999999995985,1.1111111111183902e-05,9.99999999995449e-06,-0.00010587170357084785,0.00028526182011945345,8.990038817682788e-05
149920000000.0,6,0.0107677017,-0.00385401345,0.03056732805,0.000536,-0.001028,-0.000721,-0.1261331323,-0.6084634058999999,-9.7869386335,-0.012887,0.062086,-2.0951,0.00011249999999995985,1.1111111111183902e-05,-4.500000000007276e-05,-1.684295636081301e-05,-0.00024882327096475976,-0.00025601890069368305
149920000000.0,6,0.001765197,-0.0021378497,0.02982202265,0.000544,3.7e-05,-0.000723,-0.12611351899999998,-0.60853205245,-9.7869386335,-0.012885,0.062093,-2.0951,0.00011249999999995985,1.1111111110961858e-05,-4.499999999996174e-05,-0.000735835074291924,-0.001470743889902204,-0.00020945404449979055
149920000000.0,6,0.00134351105,0.00871811185,0.0325188514,0.000544,3.7e-05,-0.000723,-0.12614293894999998,-0.60847321255,-9.7869386335,-0.012888,0.062086,-2.0951,0.00011249999999995985,1.1111111111183902e-05,-8.999999999992347e-05,-0.0002340817435931633,-0.0010100802437567058,-0.0007677459785553828
149920000000.0,6,-0.0007354987499999999,0.006207609449999999,0.035362779899999995,-0.000528,4.5e-05,0.000343,-0.12616255224999998,-0.6083457260999999,-9.7869386335,-0.01289,0.062074,-2.0951,0.0001125000000001819,-0.0009999999999998899,-8.000000000008001e-05,-0.000465595858493012,-0.0009976517074874458,0.00024034626506425072
149920000000.0,6,0.00399130655,-4.903325e-05,0.0320873588,-0.001586,0.001119,0.000339,-0.12609390569999998,-0.6082280462999999,-9.7869386335,-0.012883,0.062061,-2.0951,0.00011249999999995985,-0.001000000000000112,0.0015800000000000258,-0.01773465004139025,0.0035977947956320477,0.010295219741295193
149920000000.0,6,-0.0019221033999999998,0.007384407449999999,0.022810267899999997,-0.000497,0.003243,-0.00073,-0.12601545249999999,-0.60817901305,-9.7869386335,-0.012875,0.062057,-2.0951,-9.999999999998899e-05,-9.999999999998899e-05,0.00019000000000002348,0.0020316817257275688,0.00331646779361372,0.0006009313145968476
149920000000.0,6,-0.0013533177,0.00516810455,0.020721451449999997,-0.000531,-0.001019,-0.000723,-0.12614293894999998,-0.6080613332499999,-9.7869386335,-0.012888,0.062045,-2.0952,3.333333333332966e-05,-0.00023333333333330764,-5.000000000032756e-06,0.00012570790831205325,2.63249763527984e-05,0.0003211982438536959
149920000000.0,6,-0.00354020065,0.0022555294999999998,0.01832862885,-0.000531,-0.001019,-0.000723,-0.12619197219999997,-0.6079926867,-9.7869386335,-0.012894,0.062038,-2.0952,3.333333333332966e-05,-0.00023333333333330764,-5.000000000032756e-06,0.00023898143089636642,-3.671232256841073e-05,-0.00012252200364148286
149920000000.0,6,-0.0022359162,0.0009610516999999999,0.0190837409,-0.001604,-0.001012,0.000343,-0.12644694509999999,-0.60788481355,-9.7869386335,-0.012919,0.062027,-2.0951,3.333333333332966e-05,-0.00023333333333330764,1.0000000000065512e-05,-0.00011438013553891763,0.00029650405951486825,-6.511405507702434e-05
149920000000.0,6,-0.00067665885,0.0035892338999999997,0.0365788045,0.00053,-0.001029,0.000346,-0.12651559164999998,-0.6079730734,-9.7869386335,-0.012927,0.062036,-2.0951,-9.999999999998899e-05,-0.00023333333333330764,2.999999999997449e-05,-9.99084529611019e-05,0.00023860701499600623,0.0003331402083463428
149920000000.0,6,0.005972249849999999,0.006943108199999999,0.0326953711,-0.00052,0.001111,0.000341,-0.1264273318,-0.60788481355,-9.7869386335,-0.012917,0.062027,-2.0951,0.00019999999999997797,-0.00023333333333330764,2.999999999997449e-05,-0.00038554650790353223,-2.0220947361426767e-05,-3.965588190261299e-05
149920000000.0,6,-0.00021574629999999997,0.0010002783,0.01774022985,-0.001578,0.002185,0.000337,-0.12637829855,-0.6077867470499999,-9.7869386335,-0.012912,0.062016,-2.0951,0.00019999999999997797,-0.00023333333333330764,0.0016599999999999948,0.01790846158779525,0.02701594534820506,0.012430346571149324
149920000000.0,6,7.845319999999999e-05,0.0044326057999999995,0.015808319799999998,-0.002645,0.002194,0.000335,-0.12637829855,-0.607620034,-9.7869386335,-0.012912,0.062,-2.0951,-0.00029999999999996696,0.0013999999999998458,-0.0016800000000000148,-0.018244105072837552,-0.027271538937781337,-0.012666742183229593
149920000000.0,6,0.0040991797,0.00512887795,0.030469261549999998,0.00054,-0.001027,-0.001788,-0.12635868525,-0.60757100075,-9.7870367,-0.01291,0.061994,-2.0951,-9.999999999998899e-05,3.333333333332966e-05,-4.999999999999449e-05,0.00028609660741791415,-0.000491700199306333,6.043799791546206e-05
149920000000.0,6,0.00556037055,-0.00973800345,0.0264191151,-0.000532,-0.001019,-0.000723,-0.12631945865,-0.607816167,-9.7869386335,-0.012906,0.062019,-2.0951,-4.999999999988347e-05,3.333333333332966e-05,-7.999999999996898e-05,-0.0010731361822549565,-0.001228045221529861,-0.00046415527818199215
149920000000.0,6,0.0019417166999999998,-0.00234378935,0.021780569649999998,-0.000528,4.6e-05,0.000343,-0.1262900387,-0.6078750069,-9.7869386335,-0.012903,0.062026,-2.0951,-5.0000000000105516e-05,3.333333333332966e-05,-0.00012999999999996348,-0.002460564130905639,-0.002268001075379722,-0.00030277790293888746
149920000000.0,6,0.0015592573499999998,0.008629852,0.015367020549999999,-0.002654,0.001129,0.000337,-0.12620177885,-0.6074827409,-9.7870367,-0.012894,0.061985,-2.0951,-0.00045000000000006146,9.999999999998899e-05,-9.999999999998899e-05,-0.0001351753610989298,-0.0013985268103722248,-0.0008098860843948064
149920000000.0,6,0.0015592573499999998,0.008629852,0.015367020549999999,-0.002654,0.001129,0.000337,-0.12620177885,-0.6074827409,-9.7870367,-0.012894,0.061985,-2.0951,-0.00045000000000006146,0.0017000000000000348,-0.001040000000000041,0.02425357886075384,0.003830608856826734,-0.008647263762176033
149920000000.0,6,-0.00489351835,0.0020299765499999997,0.020309572149999996,0.00053,-0.001029,0.000346,-0.12633907195,-0.6074631276,-9.7870367,-0.012908,0.061984,-2.0951,1.999999999990898e-05,-0.00028333333333341315,9.99999999995449e-06,0.00019289919845043302,-1.456810274746978e-05,0.0002047561944152898
149920000000.0,6,4.903325e-05,-0.0029616083000000002,0.04169787579999999,0.000544,3.8e-05,-0.000723,-0.12633907195,-0.6075611941,-9.7870367,-0.012908,0.061994,-2.0951,2.0000000000131024e-05,-0.0002833333333331911,-9.99999999995449e-06,-5.504112845344453e-05,0.0002715683945815339,-0.0002232640848818801
149920000000.0,6,-0.00220649625,-0.0033146476999999994,0.0298710559,-0.000534,4.5e-05,0.00141,-0.1263292653,-0.6076494539499999,-9.7869386335,-0.012907,0.062003,-2.0951,1.999999999990898e-05,-0.00028333333333341315,2.0000000000020002e-05,-0.0014919462867259807,-9.759173341450378e-06,4.136255883385037e-05
149920000000.0,6,0.0037167203499999996,2.941995e-05,0.012817291549999998,-0.001587,0.00112,0.000339,-0.1262704254,-0.6075611941,-9.7870367,-0.012901,0.061993,-2.0951,2.0000000000131024e-05,-0.00028333333333341315,-2.0000000000020002e-05,0.0015347089058569477,3.8039508947207423e-06,0.000169640611990228
149920000000.0,6,-0.0008041452999999999,0.0029419949999999998,0.017151830849999997,0.000555,0.002168,0.000341,-0.1262311988,-0.60762984065,-9.7870367,-0.012898,0.062001,-2.0951,1.999999999990898e-05,-0.0002833333333331911,2.999999999997449e-05,-0.00108085066188221,1.7358181245263893e-05,7.432072302332449e-06
149920000000.0,6,-0.00634490255,-0.00157887065,0.02762533305,0.000547,0.001103,0.000343,-0.1262311988,-0.60774752045,-9.7869386335,-0.012898,0.062012,-2.0951,0.0008000000000001339,-0.00028333333333341315,0.0010200000000000209,-0.0242569532535803,-0.004467937391257726,0.008672587244078704
149920000000.0,6,-0.0012748644999999999,5.88399e-05,0.033744682649999996,0.00053,-0.001028,0.000347,-0.1263684919,-0.60788481355,-9.7869386335,-0.012911,0.062027,-2.0951,-0.0009000000000001229,0.0017000000000000348,-0.0010099999999999554,0.024912016415207273,0.004790056670793907,-0.008998462556229568
149920000000.0,6,-0.0001176798,-0.0039520799499999995,0.02311427405,-0.001609,-0.001012,0.00141,-0.12647636504999998,-0.6079240401499999,-9.7869386335,-0.012923,0.06203,-2.0951,3.333333333332966e-05,1.063829787240067e-05,-4.999999999999449e-05,6.777219315021871e-05,-0.0003543505688174964,-0.00023749899920855883
149920000000.0,6,0.00626644935,0.00222610955,0.0213196571,0.000547,0.001103,0.000343,-0.1264273318,-0.60796326675,-9.7869386335,-0.012917,0.062034,-2.0951,3.333333333332966e-05,1.0638297872178626e-05,-1.0000000000065512e-05,-0.00014773360933562768,-0.000421180698332968,3.119048433281729e-05
149920000000.0,6,0.00159848395,0.006197802799999999,0.0328522775,0.00053,-0.001028,0.000347,-0.12639791185,-0.60788481355,-9.7869386335,-0.012914,0.062027,-2.0951,3.333333333332966e-05,1.063829787240067e-05,-7.999999999996898e-05,1.5171180279750784e-05,-0.0010117214510165784,0.0005282448253779784
149920000000.0,6,-0.00656064885,-0.00456009225,0.034185981899999995,0.000535,-0.001027,-0.000721,-0.1266234648,-0.6080515266,-9.7869386335,-0.012937,0.062044,-2.0951,9.999999999998899e-05,1.063829787240067e-05,9.99999999995449e-06,-0.0004847066847108658,-0.0006203239783182379,0.00031485189702750577
149920000000.0,6,0.00134351105,0.00043149259999999994,0.016985117799999998,-0.001592,0.001119,0.001406,-0.12644694509999999,-0.60796326675,-9.7869386335,-0.012919,0.062035,-2.0951,-2.4999999999941735e-05,1.063829787240067e-05,1.0000000000065512e-05,-0.00012271334796917083,0.0006404712341854246,-0.00018562407978869183
149920000000.0,6,-0.006717555249999999,-0.00118660465,0.01473939495,-0.001598,-0.00101,-0.000725,-0.12660385149999998,-0.6078357803,-9.7869386335,-0.012936,0.062022,-2.0951,-2.500000000016378e-05,1.0638297872178626e-05,-2.999999999997449e-05,-0.00022797512434669098,-0.00048741205870572735,0.0004914187280312399
149920000000.0,6,-0.0024516625,-0.004726805299999999,0.01923084065,-0.000511,0.002177,0.000339,-0.12653520494999998,-0.60788481355,-9.7869386335,-0.012928,0.062027,-2.0951,-2.4999999999941735e-05,1.063829787240067e-05,4.999999999999449e-05,8.328733192449617e-05,0.000813896937645886,-0.0003924134740449156
149920000000.0,6,-0.0011277647499999999,-0.0042560861,0.03401926885,0.001606,2.8e-05,0.000347,-0.1266626914,-0.6082084329999999,-9.7869386335,-0.012941,0.06206,-2.0951,-2.4999999999941735e-05,1.063829787240067e-05,3.999999999992898e-05,-0.0004477140231519197,0.00038973086085403175,0.00011906413377724828
149920000000.0,6,-0.0025301156999999997,-0.004344345949999999,0.0302633219,0.000554,3.4e-05,-0.000722,-0.1267607579,-0.6084241792999999,-9.7869386335,-0.012951,0.062082,-2.0951,9.999999999998899e-05,1.063829787240067e-05,-2.0000000000020002e-05,0.0003941650053276985,-0.00010775777342098003,-4.396422186604687e-05
149920000000.0,6,0.0022163028999999997,-0.00469738535,0.017995202749999998,-0.000521,-0.001023,-0.000722,-0.1267215313,-0.6083653393999999,-9.7869386335,-0.012947,0.062076,-2.0951,-9.999999999998899e-05,1.0638297872178626e-05,-9.99999999995449e-06,-0.0003593324297943429,-7.280263053144331e-05,9.351358946575739e-05
149920000000.0,6,-0.00140235095,-0.00648219565,0.012013146249999999,-0.000501,0.002173,0.00034,-0.12669211135,-0.6083849527,-9.7869386335,-0.012944,0.062077,-2.0951,4.999999999988347e-05,1.063829787240067e-05,2.0000000000020002e-05,-3.362405185940165e-05,-0.0004008285820484847,0.0004962948100935977
149920000000.0,6,0.00226533615,-0.00099047165,0.0283216052,0.001607,-0.001041,0.000349,-0.1267607579,-0.6084830191999999,-9.7869386335,-0.012951,0.062088,-2.0951,5.0000000000105516e-05,1.063829787240067e-05,-1.0000000000065512e-05,0.00020291683940767968,0.00037310230948861545,-0.0006043998696300262
149920000000.0,6,0.0015396440499999998,0.0006864654999999999,0.04073682409999999,0.000554,3.4e-05,-0.000722,-0.12663327145,-0.60851243915,-9.7869386335,-0.012938,0.062091,-2.0951,-9.999999999998899e-05,1.063829787240067e-05,-9.99999999995449e-06,3.159813535368039e-05,-0.00020971951438975012,0.00023618208603799762
149920000000.0,6,0.0024320492,-0.00116699135,0.026526988249999998,-0.001576,0.001116,0.00034,-0.12648617169999998,-0.6084634058999999,-9.7869386335,-0.012923,0.062086,-2.0951,-2.4691358024853116e-06,1.0638297872178626e-05,5.000000000032756e-06,0.00022125803121209736,0.00026154466659633613,-0.00023636873869708336
149920000000.0,6,0.00138273765,0.012121019399999999,0.014258869099999998,0.00266,-0.002116,0.00142,-0.1266234648,-0.6084241792999999,-9.7869386335,-0.012938,0.062082,-2.0951,-2.4691358024853116e-06,1.063829787240067e-05,4.999999999921734e-06,-0.00024478666955164013,-0.00022577005712220988,-7.818931436961996e-07
149920000000.0,6,6.864654999999999e-05,0.00408937305,0.01860321505,0.000563,0.0011,-0.000724,-0.12635868525,-0.6083261127999999,-9.7869386335,-0.01291,0.062072,-2.0951,-2.4691358024853116e-06,1.063829787240067e-05,2.0000000000020002e-05,1.174459604338235e-05,0.00028575761401272715,0.000211568854069831
149920000000.0,6,-0.0012160246,0.0030792880999999995,0.024291072049999998,-0.00051,0.001108,0.000342,-0.1262704254,-0.60835553275,-9.7869386335,-0.012902,0.062075,-2.0951,-2.4691358024853116e-06,1.0638297872178626e-05,-9.99999999995449e-06,0.0003286405433012077,8.92717031053536e-05,-0.00013785090415423945
149920000000.0,6,0.0010591181999999998,-0.00210842975,0.02893942415,-0.00158,5.2e-05,-0.000726,-0.126309652,-0.6082672728999999,-9.7869386335,-0.012905,0.062066,-2.0951,-2.4691358024853116e-06,1.063829787240067e-05,2.0000000000020002e-05,2.487164507027073e-05,-0.00015677806916669645,-7.70921947198383e-05
149920000000.0,6,0.0055897905,-0.0019221033999999998,0.017730423199999998,-0.001571,0.001118,-0.000727,-0.12604487244999998,-0.6080024933499999,-9.7869386335,-0.012879,0.062039,-2.0952,-2.4691358024853116e-06,1.063829787240067e-05,-2.0000000000020002e-05,-0.0002471007340343265,0.0001723513054656678,-0.0002618298369690339
149920000000.0,6,0.001176798,0.0023143694,0.024761791249999998,0.000563,0.0011,-0.000724,-0.1259762259,-0.60804171995,-9.7869386335,-0.012871,0.062043,-2.0952,-2.469135802263267e-06,1.063829787240067e-05,3.3333333333551707e-06,-0.0003104042955906286,-4.508920044177245e-05,0.00024939974798552506
149920000000.0,6,-0.0041384062999999995,0.0015298374,0.0340290755,-0.000513,4.4e-05,-0.000724,-0.12604487244999998,-0.6081692063999999,-9.7869386335,-0.012878,0.062055,-2.0952,-2.4691358024853116e-06,1.0638297872178626e-05,3.3333333332441484e-06,0.0005452805661696689,0.0002044665566185433,-9.562028550159918e-06
149920000000.0,6,-0.0018044235999999999,-0.00487390505,0.0370102971,0.000532,-0.002097,0.000349,-0.1261331323,-0.60833591945,-9.7869386335,-0.012888,0.062073,-2.0952,-2.4691358024853116e-06,1.063829787240067e-05,3.3333333333551707e-06,-0.0007420598692308433,-0.0004919621140777597,7.615019847674598e-05
149920000000.0,6,-0.00324600115,-0.0020299765499999997,0.020848937899999996,-0.000518,4.2e-05,0.000344,-0.12619197219999997,-0.6083457260999999,-9.7869386335,-0.012893,0.062074,-2.0952,-2.4691358024853116e-06,1.063829787240067e-05,-9.99999999995449e-06,0.0003127181445344851,0.0002250365996558923,-1.4444475026534342e-05
149920000000.0,6,-0.009561483749999999,0.00797280645,0.01368027675,0.000562,0.0011,-0.000724,-0.126309652,-0.6081692063999999,-9.7869386335,-0.012905,0.062056,-2.0951,-2.4691358024853116e-06,1.063829787240067e-05,9.99999999995449e-06,9.51466811212262e-05,0.00012632435317172508,4.913822908104992e-06
149920000000.0,6,-0.00106892485,-0.0050308114499999996,0.0283412185,-0.000513,4.3e-05,-0.000724,-0.1262704254,-0.60817901305,-9.7869386335,-0.012901,0.062057,-2.0951,-2.4691358024853116e-06,1.0638297872178626e-05,5.000000000032756e-06,0.000276737203595237,-0.00021721766993598735,-0.00021757866582254592
149920000000.0,6,0.0008139519499999999,-0.0135920169,0.0344605681,-0.000518,4.2e-05,0.000344,-0.1262115855,-0.60845359925,-9.7869386335,-0.012895,0.062085,-2.0951,-2.4691358024853116e-06,1.063829787240067e-05,5.000000000032756e-06,3.79717073699104e-05,0.000442327143963972,-0.00016875181192509137
149920000000.0,6,-0.0035598139499999995,-0.007207887749999999,0.031008627299999997,-0.001579,5.2e-05,-0.000725,-0.12631945865,-0.60855166575,-9.7869386335,-0.012907,0.062095,-2.0951,-2.4691358024853116e-06,1.063829787240067e-05,-2.0000000000020002e-05,-2.130534823792385e-05,-0.00022008284751606766,0.00015327776516692315
149920000000.0,6,-0.0036971070499999996,-0.00392266,0.022329742049999997,-0.000509,0.001108,0.000342,-0.12633907195,-0.6085418590999999,-9.7869386335,-0.012908,0.062094,-2.0951,-2.4691358024853116e-06,1.063829787240067e-05,4.999999999921734e-06,-0.00023326139604103874,-5.917136284905311e-05,0.00013644587159265115
149920000000.0,6,-0.00053936575,-0.006913688249999999,0.038638201,-0.000518,4.2e-05,0.000344,-0.1263488786,-0.6086987655,-9.7869386335,-0.01291,0.06211,-2.0951,-2.4691358024853116e-06,1.0638297872178626e-05,5.000000000032756e-06,-0.00023464384009493078,-3.441247200597353e-05,6.004534046211152e-05
149920000000.0,6,0.0033931009,0.0020593965,0.024124358999999998,0.001611,2.4e-05,0.001415,-0.12624100545,-0.60868895885,-9.7869386335,-0.012898,0.062109,-2.0951,-2.4691358024853116e-06,1.063829787240067e-05,-9.99999999995449e-06,0.0001324835815285294,0.00015628882506946162,0.00019480745285686135
149920000000.0,6,-0.00583495675,0.0027850886,0.020976424349999998,-0.000507,4.5e-05,-0.001791,-0.12644694509999999,-0.60866934555,-9.7869386335,-0.012919,0.062107,-2.0951,-2.4691358024853116e-06,1.063829787240067e-05,9.99999999995449e-06,6.451836047420556e-05,-0.0002080284247685249,-0.00021195021295640493
149920000000.0,6,-0.006433162399999999,0.0020692031499999998,0.019338713799999997,-0.001579,5.2e-05,-0.000725,-0.12644694509999999,-0.60855166575,-9.7869386335,-0.012919,0.062095,-2.0951,-2.4691358024853116e-06,1.0638297872178626e-05,2.0000000000020002e-05,0.0002249048896079478,0.00013936502939149165,8.084513818708283e-06
149920000000.0,6,-0.0081983594,0.0009610516999999999,0.0135135637,-0.002643,0.001125,0.000338,-0.12647636504999998,-0.60833591945,-9.7869386335,-0.012922,0.062073,-2.0952,-2.4691358024853116e-06,1.063829787240067e-05,-4.999999999999449e-05,-0.0011869937610956352,5.353513091055362e-05,4.648441903414707e-05
149920000000.0,6,0.0012552511999999998,0.0016573238499999997,0.02474217795,-0.000509,0.001108,0.000342,-0.1263488786,-0.6082868861999999,-9.7869386335,-0.012909,0.062068,-2.0951,-2.469135802263267e-06,1.063829787240067e-05,2.999999999997449e-05,0.0005708519855735852,-0.0002098131191330399,-3.8020896405345506e-05
149920000000.0,6,0.013258590799999997,0.000392266,0.037461403,0.000541,-0.001032,0.000348,-0.1262311988,-0.60837514605,-9.7869386335,-0.012897,0.062077,-2.0952,-2.4691358024853116e-06,1.063829787240067e-05,3.3333333333551707e-06,9.95596485926023e-05,-0.00010392710237905334,0.00011073564880862558
149920000000.0,6,0.0034715540999999996,0.00122583125,0.041943042050000004,0.001607,-0.00104,0.000349,-0.12618216555,-0.60845359925,-9.7869386335,-0.012892,0.062085,-2.0952,-2.4691358024853116e-06,1.0638297872178626e-05,3.3333333333551707e-06,0.00023432141875844026,0.00030849599298243824,-6.057849510274216e-05
149920000000.0,6,-0.0033538743,-0.00397169325,0.02413416565,-0.000512,4.4e-05,-0.000724,-0.1262311988,-0.60849282585,-9.7869386335,-0.012898,0.062089,-2.0952,-2.4691358024853116e-06,1.063829787240067e-05,3.3333333333551707e-06,-5.147163628691637e-05,-8.331315620191404e-05,-0.00012918823253827566
149920000000.0,6,-0.0023634026499999997,-0.0011081514499999999,0.0043737659,0.000555,3.5e-05,-0.000722,-0.1263292653,-0.60851243915,-9.7869386335,-0.012907,0.062091,-2.0952,-2.4691358024853116e-06,1.063829787240067e-05,-1.0000000000065512e-05,0.00016111371549833164,-0.00019336676992098845,6.0830932993971576e-05
149920000000.0,6,-0.005060231399999999,-0.0014121576,0.007658993649999999,0.000537,-0.002096,-0.000718,-0.1266234648,-0.6086595389,-9.7869386335,-0.012937,0.062106,-2.0952,-2.4691358024853116e-06,1.063829787240067e-05,2.999999999997449e-05,-1.7956528324175602e-05,0.00016320300635874752,-0.00039682046259829906
149920000000.0,6,0.0024810824500000003,0.0027556686499999998,0.0284588983,0.000541,-0.001032,0.000348,-0.1265253983,-0.6086399256,-9.7869386335,-0.012928,0.062104,-2.0952,-2.4691358024853116e-06,1.0638297872178626e-05,-2.999999999997449e-05,-6.6771364125362e-05,6.055159923645803e-05,0.00025027958561994745
149920000000.0,6,-0.00556037055,-0.00016671305,0.0188876079,-0.001576,0.001117,0.00034,-0.1265646249,-0.6085614723999999,-9.7869386335,-0.012932,0.062096,-2.0952,-2.4691358024853116e-06,1.063829787240067e-05,-9.99999999995449e-06,5.047954292602269e-05,1.4413546670644095e-05,7.628533275543664e-05
149920000000.0,6,-0.0080610663,0.0043345393,0.026811381099999997,0.001602,-0.001042,0.001417,-0.12677056455,-0.60857127905,-9.7869386335,-0.012952,0.062097,-2.0951,-2.4691358024853116e-06,1.063829787240067e-05,4.999999999921734e-06,0.00023329589302888837,0.00026034034112187854,-6.97321421598493e-05
149920000000.0,6,-0.00104931155,0.0029714149499999996,0.0322050386,0.001624,0.001091,0.000346,-0.1267411446,-0.60855166575,-9.7869386335,-0.012949,0.062095,-2.0951,-2.4691358024853116e-06,1.063829787240067e-05,5.000000000032756e-06,-0.00029869837952447437,-0.00046815847835746105,5.440463480504282e-05
149920000000.0,6,-0.0027850886,0.0068450417,0.0363826715,0.002683,1.6e-05,0.00035,-0.1267999845,-0.60868895885,-9.7869386335,-0.012955,0.062109,-2.0951,-2.4691358024853116e-06,1.0638297872178626e-05,-5.000000000032756e-06,-0.0002968791367037246,8.198701403649977e-05,0.000291505022338788
149920000000.0,6,0.0025105023999999997,0.0025497289999999997,0.027556686499999997,-0.001585,5.1e-05,0.000342,-0.126701918,-0.60872818545,-9.7869386335,-0.012946,0.062113,-2.0951,-2.4691358024853116e-06,1.063829787240067e-05,-4.999999999921734e-06,0.0005959853522790604,6.665068332201152e-05,-0.00043477209623160595
149920000000.0,6,0.0023143694,0.00255953565,0.007658993649999999,-0.000513,4.4e-05,-0.000723,-0.1266626914,-0.60859089235,-9.7869386335,-0.012941,0.062099,-2.0951,-2.4691358024853116e-06,1.063829787240067e-05,9.99999999995449e-06,-0.0002876174151604585,-0.00014385030542007904,0.0002972694610977947
149920000000.0,6,0.00016671305,-0.0034127142,0.0058643767,-0.001585,5.2e-05,0.000342,-0.12660385149999998,-0.6086006989999999,-9.7869386335,-0.012936,0.0621,-2.0951,-2.469135802263267e-06,1.063829787240067e-05,1.0000000000065512e-05,0.0002447125542169512,0.0001528974272926309,-0.00017189837013534964
149920000000.0,6,0.00099047165,-0.0013631243499999997,0.0292042037,0.000563,0.001101,-0.000723,-0.12653520494999998,-0.60870857215,-9.7869386335,-0.012928,0.062111,-2.0951,-2.4691358024853116e-06,1.0638297872178626e-05,-4.0000000000040004e-05,-0.0007274697193442314,-0.0004168198915550647,0.0004891485233882165
149920000000.0,6,-0.0017553903499999998,0.0020986231,0.0477583855,-0.000509,0.001108,0.000342,-0.12663327145,-0.60872818545,-9.7869386335,-0.012938,0.062113,-2.0951,-2.4691358024853116e-06,1.063829787240067e-05,2.999999999997449e-05,0.0005160160220141416,0.0003993347204425124,-0.0002811354294070603
149920000000.0,6,0.0097085835,0.0018828768,0.025909169299999996,-0.000532,-0.001023,0.001413,-0.12658423819999998,-0.60866934555,-9.7869386335,-0.012933,0.062107,-2.0951,-2.4691358024853116e-06,1.063829787240067e-05,1.0000000000065512e-05,-0.0002387080058847621,-5.8595393916061056e-05,-0.000189560870058135
149920000000.0,6,0.0010591181999999998,0.005060231399999999,0.014396162199999998,0.00054,-0.001031,0.000348,-0.12661365815,-0.6085418590999999,-9.7869386335,-0.012936,0.062094,-2.0951,-2.4691358024853116e-06,1.0638297872178626e-05,-1.0000000000065512e-05,0.0002287351883678776,-1.713049425422497e-06,6.242527361553091e-05
149920000000.0,6,0.0030204482,-0.00067665885,0.03474496095,0.00161,2.5e-05,0.001415,-0.1266234648,-0.60864973225,-9.7869386335,-0.012937,0.062105,-2.0951,-2.4691358024853116e-06,1.063829787240067e-05,-1.4999999999987246e-05,1.4506502518857323e-05,0.00010264233539447609,-0.00010651903035227561
149920000000.0,6,0.00352058735,0.0075707338,0.0341467553,0.001612,-0.001039,-0.000718,-0.12667249805,-0.6086595389,-9.7869386335,-0.012942,0.062106,-2.0951,-2.4691358024853116e-06,1.063829787240067e-05,-1.4999999999987246e-05,-0.00010803009059351387,-4.822105879220828e-05,-0.00010536010218038794
149920000000.0,6,0.0012944778,-0.0010198916,0.024722564649999997,-0.002626,0.003258,0.000335,-0.1263881052,-0.6086006989999999,-9.7869386335,-0.012913,0.0621,-2.0951,-2.4691358024853116e-06,1.063829787240067e-05,2.0000000000020002e-05,0.00024183080865599477,0.00012258283498089995,5.855649403330859e-05
149920000000.0,6,-0.0003530394,-0.00718827445,0.0072176943999999995,-0.001585,5.2e-05,0.000342,-0.12639791185,-0.60857127905,-9.7869386335,-0.012914,0.062097,-2.0951,-2.4691358024853116e-06,1.0638297872178626e-05,2.0000000000020002e-05,-9.3517143985547e-05,-9.061289677769757e-05,-0.00014952154621340752
149920000000.0,6,-0.00505042475,-0.001765197,0.01560238015,-0.001576,0.001118,0.00034,-0.12647636504999998,-0.6084634058999999,-9.7869386335,-0.012922,0.062086,-2.0951,-2.4691358024853116e-06,1.063829787240067e-05,-5.000000000032756e-06,0.00010218582591711711,0.00012814706663633046,0.00010698900738237427
149920000000.0,6,-0.00534462425,0.00463854545,0.0399915187,0.000537,-0.002095,-0.000718,-0.1267803712,-0.6084241792999999,-9.7869386335,-0.012954,0.062082,-2.0951,-2.4691358024853116e-06,1.063829787240067e-05,-5.000000000032756e-06,-0.0002574359404483653,-0.00031069287441831683,0.0003282973137547704
149920000000.0,6,0.0019024901,-0.0014808041500000001,0.035048967099999995,0.000549,3.5e-05,0.000346,-0.126701918,-0.60859089235,-9.7869386335,-0.012946,0.062099,-2.0951,-2.4691358024853116e-06,1.063829787240067e-05,1.0000000000065512e-05,0.0002740070446812376,0.00015147425470796172,-5.358246092558583e-05
149920000000.0,6,-0.010198915999999999,0.00736479415,0.0292042037,0.001626,2.8e-05,-0.001787,-0.12687843769999999,-0.60861050565,-9.7869386335,-0.012963,0.062101,-2.0951,-2.4691358024853116e-06,1.0638297872178626e-05,-1.5000000000098268e-05,-0.0006802199882951984,0.0001049387652103384,3.1064226510800486e-05
149920000000.0,6,-0.00552114395,0.00491313165,0.0175342902,-0.000521,-0.001021,-0.000721,-0.12691766429999998,-0.60855166575,-9.7869386335,-0.012967,0.062095,-2.0951,-2.4691358024853116e-06,1.063829787240067e-05,-1.4999999999987246e-05,0.0010522152448123323,3.9528839504088253e-05,-0.000289446053085049
149920000000.0,6,-0.0035107806999999996,-0.00048052584999999995,0.024408751849999997,0.000549,3.4e-05,0.000346,-0.12697650419999998,-0.60868895885,-9.7869386335,-0.012973,0.062109,-2.0951,-2.469135802263267e-06,1.063829787240067e-05,1.0000000000065512e-05,-0.0008037324722948019,-0.00017073747919993387,0.00023622090219507785
149920000000.0,6,0.0039128533499999995,0.0002941995,0.039834612299999995,-0.000527,-0.001022,0.000346,-0.12691766429999998,-0.60857127905,-9.7869386335,-0.012967,0.062097,-2.0951,-2.4691358024853116e-06,1.063829787240067e-05,9.99999999995449e-06,0.0003275499526903189,0.0001448304148967683,7.709166273697082e-05
149920000000.0,6,0.0072765343,0.0013925443,0.02487947105,-0.002652,6.1e-05,0.00034,-0.1268392111,-0.6084634058999999,-9.7869386335,-0.01296,0.062086,-2.0951,-2.4691358024853116e-06,1.0638297872178626e-05,1.0000000000065512e-05,-7.798732090104343e-05,-0.00036557165237049993,-0.0002248747279393476
149920000000.0,6,0.004795451849999999,-0.00361865385,0.01424906245,0.000554,3.6e-05,-0.000721,-0.12675095125,-0.60855166575,-9.7869386335,-0.012951,0.062094,-2.0951,-2.4691358024853116e-06,1.063829787240067e-05,-1.0000000000065512e-05,-0.0001279873490733774,8.417718078490566e-05,0.00018926547391412418
149920000000.0,6,0.0053544309,-0.0026085689,0.0253207703,-0.00051,0.001109,0.000342,-0.1265646249,-0.60851243915,-9.7869386335,-0.012931,0.062091,-2.0951,-2.4691358024853116e-06,1.063829787240067e-05,1.0000000000065512e-05,-0.0003247792792915524,9.371126882862235e-05,-5.295939790420784e-05
149920000000.0,6,0.00393246665,-0.0075315072,0.03474496095,-0.001576,0.001118,0.00034,-0.12633907195,-0.6086791521999999,-9.7869386335,-0.012908,0.062108,-2.0951,-2.4691358024853116e-06,1.0638297872178626e-05,9.99999999995449e-06,0.00034361240514696467,1.3697908191945274e-05,-1.2612715212939607e-05
149920000000.0,6,0.00563882375,0.0008237585999999999,0.0365395779,-0.001579,5.4e-05,-0.000725,-0.12624100545,-0.60864973225,-9.7869386335,-0.012898,0.062105,-2.0951,-2.4691358024853116e-06,1.063829787240067e-05,-9.99999999995449e-06,-8.175941883237225e-08,0.00012831606360053094,-0.0001060993059250892
149920000000.0,6,0.0046581587499999995,4.903325e-05,0.021584436649999997,-0.001579,5.4e-05,-0.000725,-0.12616255224999998,-0.6086203122999999,-9.7869386335,-0.01289,0.062102,-2.0951,-2.4691358024853116e-06,1.063829787240067e-05,-2.0000000000020002e-05,0.00019704172521733954,1.8753083681932736e-05,0.00013576691685047992
149920000000.0,6,-0.0035598139499999995,-0.0032754210999999997,0.01754409685,-0.000518,4.4e-05,0.000344,-0.1261723589,-0.60859089235,-9.7869386335,-0.012891,0.062099,-2.0951,-2.4691358024853116e-06,1.063829787240067e-05,-1.0000000000065512e-05,-0.0004512409890182062,-0.00014075651916400922,0.0003434962722727586
149920000000.0,6,0.00120621795,0.006021283099999999,0.0194956202,-0.000518,4.4e-05,0.000344,-0.1261527456,-0.6084634058999999,-9.7869386335,-0.012889,0.062086,-2.0951,-2.4691358024853116e-06,1.0638297872178626e-05,3.0000000000085514e-05,0.00017745583892685157,0.0001409214739085396,-0.00031642689225719334
