Time,placement_label,user_acc_x(m/s^2),user_acc_y(m/s^2),user_acc_z(m/s^2),rotation_rate_x(rad/s),rotation_rate_y(rad/s),rotation_rate_z(rad/s),gravity_x(m/s^2),gravity_y(m/s^2),gravity_z(m/s^2),attitude_roll(rad),attitude_pitch(rad),attitude_yaw(rad),target_delta_x,target_delta_y,target_delta_z,target_delta_roll,target_delta_pitch,target_delta_yaw
150000000000.0,6,0.0011964113,0.006148769549999999,0.05973230515,0.008428,-0.000132,-0.000803,-0.1687920598,-0.6008142189,-9.786742500499999,-0.017245,0.061304,-2.8534,0.0,0.0,0.0,0.0,0.0,0.0
150000000000.0,6,-0.00140235095,0.0088848249,0.044316251349999995,-0.000112,-6.3e-05,0.00025,-0.1688901263,-0.6008534455,-9.786742500499999,-0.017255,0.061308,-2.8533,1.2345679012426558e-06,3.846153846076561e-06,1.0000000000065512e-05,0.0003227263578867712,-0.00011842989993438024,2.2360158995482493e-05
150000000000.0,6,-0.00257914895,0.0070411747,0.04088392385,-0.001185,-5.5e-05,0.001315,-0.16889993294999997,-0.6006573125,-9.786742500499999,-0.017256,0.061288,-2.8533,1.2345679012426558e-06,3.8461538462986056e-06,-1.0000000000065512e-05,-0.0003252440220771896,8.038183865211046e-05,-1.2661072446185084e-05
150000000000.0,6,0.0047464186,0.0072176943999999995,0.05629997764999999,0.000954,-7.1e-05,0.000252,-0.16889993294999997,-0.6005298260499999,-9.786742500499999,-0.017256,0.061275,-2.8533,1.2345679012426558e-06,3.846153846076561e-06,1.5000000000098268e-05,-0.00011192226167217045,-0.00016894608492434848,-4.2562642852156385e-05
150000000000.0,6,0.0070019481,0.00442279915,0.0712551189,0.003091,0.000976,0.001321,-0.1687528332,-0.6007259590499999,-9.786742500499999,-0.017242,0.061295,-2.8533,1.2345679012426558e-06,3.846153846076561e-06,1.4999999999987246e-05,0.0004337484378616474,0.00017980669211503653,-5.0283459818945e-05
150000000000.0,6,0.00185345685,0.0020397832,0.0660379811,-0.001183,-0.001118,-0.000818,-0.1688508997,-0.6004415661999999,-9.786742500499999,-0.017251,0.061266,-2.8533,1.2345679012426558e-06,3.8461538462986056e-06,-1.0000000000065512e-05,-0.0011228826210854803,-0.00023091589690404923,-2.3576076828152326e-05
150000000000.0,6,0.0060703163499999995,0.00363826715,0.05598616484999999,0.000943,-0.002201,-0.000812,-0.16887051299999997,-0.6008436388499999,-9.786742500499999,-0.017253,0.061307,-2.8533,1.2345679012426558e-06,3.846153846076561e-06,-5.999999999994898e-05,0.0007513401968776284,0.00028623416582718164,9.358305772894093e-05
150000000000.0,6,0.00348136075,0.0098458766,0.058251501,-0.000113,-6.2e-05,0.00025,-0.16883128639999997,-0.6004611795,-9.786742500499999,-0.017249,0.061269,-2.8534,1.2345679012426558e-06,3.846153846076561e-06,4.999999999999449e-05,0.00040044173969208674,-0.00022662048902888365,0.00011423165418184
150000000000.0,6,-0.0023830159499999997,-0.014974754549999999,0.0680973776,-0.001188,-0.001119,0.00025,-0.1689489662,-0.6009318987,-9.786742500499999,-0.017262,0.061317,-2.8534,1.2345679012426558e-06,3.8461538462986056e-06,-1.0000000000065512e-05,-0.00019691074949040877,-0.00010652338436534237,-4.157864983977966e-06
150000000000.0,6,-0.006992141449999999,0.0086690786,0.05374044199999999,-0.000107,-6.1e-05,-0.000818,-0.16897838615,-0.6007847989499999,-9.786742500499999,-0.017265,0.061301,-2.8534,1.2345679012426558e-06,3.846153846076561e-06,-1.999999999990898e-05,0.00020398142223423954,0.00015749669761233598,3.637284576307742e-07
150000000000.0,6,-0.0026477955,0.010904994799999998,0.046581587499999993,-0.002241,-4.3e-05,-0.000821,-0.1689881928,-0.6004807928,-9.786742500499999,-0.017265,0.06127,-2.8534,1.2345679012426558e-06,3.846153846076561e-06,2.999999999997449e-05,-0.0008757744089185754,9.369977449025235e-05,-0.000304814614916632
150000000000.0,6,-0.00271644205,0.00591340995,0.049415709349999996,0.005213,-0.001172,0.000261,-0.1692235524,-0.6005788593,-9.786742500499999,-0.017289,0.06128,-2.8534,1.2345679012426558e-06,3.8461538462986056e-06,-4.0000000000040004e-05,0.0005803402295945365,4.601731866982206e-05,0.00019067501148570254
150000000000.0,6,0.00053936575,0.0130624578,0.055417379149999994,-0.002233,0.001022,-0.000823,-0.16917451914999998,-0.6002454331999999,-9.786840566999999,-0.017285,0.061246,-2.8534,1.2345679012426558e-06,3.846153846076561e-06,4.0000000000040004e-05,0.00029505715684802203,-0.00014989261239262142,2.1527272514088036e-05
150000000000.0,6,0.0057466969,0.0213981103,0.05826130765,-0.000113,-6.2e-05,0.00025,-0.16915490584999998,-0.60019639995,-9.786840566999999,-0.017282,0.061241,-2.8534,1.2345679012426558e-06,3.8461538462986056e-06,9.99999999995449e-06,-0.0019802569463774206,0.0005473023901907403,-0.0007988622337834483
150000000000.0,6,0.0137096967,0.0108265416,0.03731430324999999,-0.00118,-5.3e-05,0.000248,-0.1688901263,-0.6002454331999999,-9.786840566999999,-0.017255,0.061246,-2.8534,1.2345679010206112e-06,3.846153846076561e-06,-9.99999999995449e-06,0.0015741564561260885,-0.0001566360191849192,0.0005522554524982071
150000000000.0,6,0.007021561399999999,0.01513166095,0.045581309199999996,-0.000117,-0.001126,-0.000816,-0.16878225315,-0.59976490735,-9.786840566999999,-0.017244,0.061197,-2.8534,1.2345679012426558e-06,3.846153846076561e-06,2.0000000000020002e-05,-0.00028265139710460796,-0.0003550589493444001,7.269300412918178e-05
150000000000.0,6,0.00326561445,0.011856239849999999,0.06638121385,0.003073,-0.001154,0.001325,-0.16876263984999998,-0.59978452065,-9.786840566999999,-0.017242,0.061199,-2.8534,1.2345679012426558e-06,3.8461538462986056e-06,-4.999999999999449e-05,3.519121904503597e-05,0.0002905625878737439,0.00014400653607918312
150000000000.0,6,-0.0018240368999999999,0.011934693049999999,0.08522959515,-0.001162,0.001015,-0.001889,-0.16876263984999998,-0.59986297385,-9.786840566999999,-0.017243,0.061207,-2.8534,1.2345679012426558e-06,3.846153846076561e-06,9.99999999995449e-06,0.0006151235497894036,7.397362899475013e-05,0.00010034870615660552
150000000000.0,6,0.007502087249999999,-0.0013533177,0.06067374354999999,-0.001181,-5.2e-05,0.000248,-0.16866457334999999,-0.60003949355,-9.786840566999999,-0.017232,0.061226,-2.8534,1.2345679012426558e-06,3.846153846076561e-06,4.0000000000040004e-05,-0.0007275815421692727,-0.00021946257637139865,-0.0002196225674263308
150000000000.0,6,0.011571847,-0.0035696206,0.038245934999999995,-0.002253,-4.5e-05,0.001314,-0.1685370869,-0.59992181375,-9.786840566999999,-0.017219,0.061213,-2.8534,1.2345679012426558e-06,3.8461538462986056e-06,-4.999999999999449e-05,0.0005236583708686932,0.00012139888339190996,0.00012118745660602559
150000000000.0,6,0.009080957899999999,0.0006472389,0.03794192885,0.002022,-0.001142,-0.001879,-0.16844882705,-0.59994142705,-9.786840566999999,-0.01721,0.061215,-2.8534,1.2345679012426558e-06,3.846153846076561e-06,9.99999999995449e-06,-0.0007705328941542688,-0.0001199478755808947,-0.00017138648956344094
150000000000.0,6,0.00512887795,-0.005011198149999999,0.05394638164999999,-0.000108,-6e-05,-0.000818,-0.1683801805,-0.6001277534,-9.786840566999999,-0.017203,0.061234,-2.8534,1.2345679012426558e-06,3.846153846076561e-06,9.99999999995449e-06,0.0004997772898805292,-0.00036561485703567875,0.00011731543549009515
150000000000.0,6,-0.00701175475,-0.00114737805,0.06501808949999999,-0.000102,0.002069,0.001314,-0.16836056719999998,-0.60009833345,-9.786840566999999,-0.017202,0.061231,-2.8534,1.2345679012426558e-06,3.8461538462986056e-06,-9.99999999995449e-06,0.00022001670908064486,0.0002549073015889469,-3.2775038521504207e-06
150000000000.0,6,-0.0074040207499999995,0.009051537949999999,0.07563869145,0.000962,0.000996,0.00025,-0.16841940709999997,-0.60011794675,-9.786840566999999,-0.017207,0.061233,-2.8534,1.2345679012426558e-06,3.846153846076561e-06,1.666666666666483e-05,-4.237227735476301e-05,4.264984161062024e-05,0.00015774550794978026
150000000000.0,6,-0.005579983849999999,0.0025497289999999997,0.06632237395,0.000953,-7e-05,0.000252,-0.1685959268,-0.6006573125,-9.786742500499999,-0.017225,0.061288,-2.8534,1.2345679012426558e-06,3.846153846076561e-06,1.666666666666483e-05,-0.00046725544330170066,-0.00020368235366929888,-0.00012463254683189873
150000000000.0,6,-0.0045306723,-0.0080806796,0.06632237395,-0.001177,0.001012,0.001314,-0.1685959268,-0.6007946056,-9.786742500499999,-0.017225,0.061302,-2.8534,1.2345679012426558e-06,3.8461538462986056e-06,1.666666666666483e-05,-0.0005482350162256122,8.734704138557703e-05,-0.0005078205112758749
150000000000.0,6,0.0072765343,-0.00114737805,0.033538742999999996,-0.001186,-5.3e-05,0.001315,-0.1684390204,-0.6009907386,-9.786742500499999,-0.017209,0.061323,-2.8534,1.2345679012426558e-06,3.846153846076561e-06,-2.999999999997449e-05,4.752442102713694e-05,0.00047357597930774986,0.00012536687184555584
150000000000.0,6,0.0097674234,0.00361865385,0.02474217795,-0.003314,-3.4e-05,0.000244,-0.16823308074999999,-0.6005298260499999,-9.786840566999999,-0.017188,0.061275,-2.8534,1.2345679012426558e-06,-9.999999999998899e-05,-1.0000000000065512e-05,0.0009146739183379798,-0.0003305729062235141,0.0003836793654509729
150000000000.0,6,0.00350097405,0.00102969825,0.047209213099999994,-0.005456,-0.001082,0.000242,-0.16825269404999998,-0.60017678665,-9.786840566999999,-0.01719,0.061239,-2.8534,1.2345679012426558e-06,8.333333333387927e-06,-2.999999999997449e-05,-2.794879690025398e-05,0.00012442520883060304,-2.3051376920102395e-05
150000000000.0,6,-0.00389324005,0.0034519407999999995,0.07786480099999998,0.003101,0.00098,-0.000814,-0.16819385415,-0.6005004060999999,-9.786840566999999,-0.017184,0.061273,-2.8534,1.2345679012426558e-06,8.333333333165882e-06,2.0000000000020002e-05,-0.00037317515717598393,-0.00012164398785752262,1.6315020834212213e-05
150000000000.0,6,-0.00383440015,0.01213082605,0.0877106776,0.002025,-7.7e-05,-0.000814,-0.16839979379999997,-0.600951512,-9.786742500499999,-0.017205,0.061319,-2.8534,1.2345679012426558e-06,8.333333333387927e-06,2.0000000000020002e-05,0.00038261630524305534,-0.00028864858024046924,3.100964155672292e-05
150000000000.0,6,0.0112580342,0.000980665,0.06392955134999999,-0.000136,-0.002193,0.001321,-0.16823308074999999,-0.6007259590499999,-9.786742500499999,-0.017188,0.061296,-2.8534,1.2345679012426558e-06,8.333333333387927e-06,-2.0000000000020002e-05,0.0001330275125818875,0.0002782356407282638,-3.5254331611223044e-06
150000000000.0,6,0.01207198615,-0.0020593965,0.037167203499999996,-0.002256,-0.001108,0.000248,-0.1681448209,-0.6005298260499999,-9.786840566999999,-0.017179,0.061275,-2.8534,1.2345679012426558e-06,8.333333333387927e-06,9.99999999995449e-06,2.011057672766936e-05,-0.0004808873913826339,0.00011522731657132024
150000000000.0,6,0.0033636809499999996,-0.0054328841,0.0373044966,0.000962,0.000997,0.00025,-0.16811540094999997,-0.600755379,-9.786742500499999,-0.017176,0.061298,-2.8533,1.2345679012426558e-06,8.333333333387927e-06,-9.99999999995449e-06,0.00018176108734062335,0.00041895900448341017,2.5775398058092147e-05
150000000000.0,6,-0.0033931009,0.0111403544,0.04912150985,0.00309,0.000978,0.001321,-0.16809578765,-0.6007063457499999,-9.786742500499999,-0.017174,0.061294,-2.8533,1.2345679012426558e-06,8.333333333165882e-06,9.99999999995449e-06,-8.571156441361527e-05,0.00015840936256505955,-0.00016979040906278664
150000000000.0,6,-0.007286340949999999,0.00601147645,0.0777078946,-0.00223,0.002088,0.000243,-0.16808598099999997,-0.6006769258,-9.786742500499999,-0.017173,0.06129,-2.8533,1.2345679012426558e-06,8.333333333387927e-06,-9.99999999995449e-06,0.00011682038619036106,-0.00048173859107580874,0.00012485135377221512
150000000000.0,6,-0.00354020065,0.005756503549999999,0.08711247194999999,0.002008,-0.002208,-0.00081,-0.16838998714999998,-0.6008632521499999,-9.786742500499999,-0.017204,0.06131,-2.8533,1.2345679012426558e-06,8.333333333387927e-06,9.99999999995449e-06,-0.0017068110493066863,0.00045138153870882824,-0.0006501705133433733
150000000000.0,6,0.0067469752,0.0079433865,0.07289282945,0.002025,-7.7e-05,-0.000814,-0.16835076055,-0.60096131865,-9.786742500499999,-0.0172,0.061319,-2.8533,1.2345679012426558e-06,8.333333333165882e-06,-9.99999999995449e-06,0.0005029420976666171,0.00012287261986587694,-9.366163707114072e-07
150000000000.0,6,-0.0035500073,-0.0003334261,0.056888376649999996,-0.001178,-0.001115,-0.001885,-0.16852728024999997,-0.60090247875,-9.786742500499999,-0.017219,0.061314,-2.8534,1.2345679012426558e-06,8.333333333387927e-06,9.99999999995449e-06,0.0007658042462277415,8.008663606129396e-05,0.00043106909207982214
150000000000.0,6,-0.0010787315,-0.00220649625,0.0507592204,-0.002239,0.001023,0.000244,-0.16845863369999997,-0.6008338322,-9.786742500499999,-0.017211,0.061306,-2.8534,1.2345679012426558e-06,8.333333333387927e-06,3.0000000000085514e-05,-0.0010059843859545337,-0.00013911286708623294,-0.0006311395252991125
150000000000.0,6,-0.00962032365,0.00095124505,0.05420135455,0.000945,-0.001135,0.000254,-0.1685959268,-0.6007063457499999,-9.786742500499999,-0.017225,0.061293,-2.8534,1.2345679012426558e-06,-9.999999999998899e-05,-3.0000000000085514e-05,0.002064822428679128,-0.0007133866369075648,0.0010027087515539213
150000000000.0,6,-0.012336765699999998,0.0034127142,0.07199061765,0.002037,0.002053,0.00025,-0.16872341325,-0.6009220920499999,-9.786742500499999,-0.017239,0.061315,-2.8534,1.2345679010206112e-06,7.1428571428722165e-06,1.0000000000065512e-05,-0.0021541373421806592,0.000375337955143884,-0.0008239082587143398
150000000000.0,6,-0.008168939449999999,0.01738719045,0.0761584439,0.002028,0.000987,0.000252,-0.1688508997,-0.6012653248,-9.786742500499999,-0.017251,0.061351,-2.8534,1.2345679012426558e-06,7.1428571428722165e-06,-2.0000000000020002e-05,0.00022496268779644002,0.00034768640737481427,4.512554724031559e-05
150000000000.0,6,-0.0015494506999999998,0.0042462794499999994,0.0627037201,0.002037,0.002053,0.00025,-0.16874302654999998,-0.601147645,-9.786742500499999,-0.01724,0.061339,-2.8533,1.2345679012426558e-06,7.1428571428722165e-06,2.0000000000020002e-05,3.098625649161635e-05,-3.752015874702863e-05,0.00025500729089139584
150000000000.0,6,-0.0025301156999999997,-0.00538385085,0.0574473557,-0.001181,-5.2e-05,0.000248,-0.1688116731,-0.60139281125,-9.786742500499999,-0.017247,0.061363,-2.8533,1.2345679012426558e-06,7.1428571428722165e-06,-4.0000000000040004e-05,0.0008243061876872654,-4.909903139616034e-05,0.00035891095950565943
150000000000.0,6,2.941995e-05,-0.00679600845,0.04129580315,-0.002239,0.001023,0.000244,-0.16867437999999998,-0.6013241646999999,-9.786742500499999,-0.017233,0.061357,-2.8533,1.2345679012426558e-06,7.1428571428722165e-06,3.3333333333551707e-06,4.562109232263134e-05,0.0001959716194306349,-0.00023989772471080806
150000000000.0,6,0.004795451849999999,-0.00061781895,0.04923918965,-0.001167,0.001015,-0.000821,-0.1684978603,-0.6012260982,-9.786742500499999,-0.017215,0.061346,-2.8533,1.2345679012426558e-06,7.1428571428722165e-06,3.3333333333551707e-06,-7.113334668451543e-05,-0.00025589704123807344,0.0002499875027840437
150000000000.0,6,-0.0029616083000000002,0.0090613446,0.0640570378,0.005224,0.00096,0.001325,-0.16837037385,-0.60117706495,-9.786742500499999,-0.017203,0.061342,-2.8533,1.2345679012426558e-06,7.1428571428722165e-06,3.3333333333551707e-06,0.000561554945313833,-0.000731553047672362,0.00022079764358512444
150000000000.0,6,-0.0022947561,0.0108461549,0.09191773044999998,-0.004373,0.00104,0.000241,-0.16829192064999998,-0.6007161524,-9.786742500499999,-0.017194,0.061294,-2.8533,1.2345679012426558e-06,7.142857142650172e-06,4.999999999999449e-05,0.00034613611384144705,0.0006715967325785499,-0.00019703925508407494
150000000000.0,6,0.010954028049999998,0.001765197,0.08337613829999999,0.002025,-7.7e-05,-0.000814,-0.16807617435,-0.6009220920499999,-9.786742500499999,-0.017172,0.061315,-2.8533,1.2345679012426558e-06,7.1428571428722165e-06,-1.0000000000065512e-05,-0.0008628184520167032,0.000116039682138247,-0.0002065104254037331
150000000000.0,6,0.0136900834,0.005197524499999999,0.04778780544999999,-0.002265,-0.002174,0.00025,-0.1679683012,-0.6006082792499999,-9.786840566999999,-0.017161,0.061283,-2.8533,1.2345679012426558e-06,7.1428571428722165e-06,1.0000000000065512e-05,-0.0008030088123449214,-5.7688633650965215e-05,-0.00032212346110846446
150000000000.0,6,0.013366463949999999,0.0016377105499999999,0.025507096649999998,-0.002239,0.001023,0.000244,-0.16764468174999997,-0.6004905994499999,-9.786840566999999,-0.017128,0.061271,-2.8533,1.2345679012426558e-06,7.1428571428722165e-06,-4.0000000000040004e-05,0.0012247434782104716,-0.00019065873512702503,0.0005187265003199215
150000000000.0,6,0.00732556755,0.0003726527,0.03792231555,0.003092,-8.5e-05,-0.000812,-0.16758584185,-0.6005690526499999,-9.786840566999999,-0.017122,0.061279,-2.8533,1.2345679012426558e-06,7.1428571428722165e-06,2.999999999997449e-05,-0.00016918916140937212,-0.0003195533475692791,-5.857960018174069e-05
150000000000.0,6,-0.0006276255999999999,0.007727640199999999,0.06500828285,-0.0001,0.001007,-0.000819,-0.16756622855,-0.6004415661999999,-9.786840566999999,-0.01712,0.061266,-2.8534,1.2345679012426558e-06,7.1428571428722165e-06,-5.999999999994898e-05,-0.0006112360579553222,0.0010003296071328105,-0.00018428138410803152
150000000000.0,6,0.0031773546,0.0185541818,0.07220636394999999,-0.000114,-5.9e-05,0.00025,-0.16747796869999998,-0.60019639995,-9.786840566999999,-0.017111,0.061241,-2.8534,1.2345679012426558e-06,7.1428571428722165e-06,7.00000000000145e-05,-0.001495125550505072,-0.00037179997710623525,-0.0006314465080466403
150000000000.0,6,0.00177500365,0.0056094038,0.07026464725,-0.0001,0.001007,-0.000819,-0.16741912879999998,-0.6002650465,-9.786840566999999,-0.017105,0.061248,-2.8534,1.2345679012426558e-06,-9.999999999998899e-05,-4.999999999999449e-05,0.0019790527397192392,0.00013549125501288728,0.0007259545278424095
150000000000.0,6,0.00132389775,-0.0023241760499999996,0.06232126075,-0.001181,-5.1e-05,0.000248,-0.16741912879999998,-0.60041214625,-9.786840566999999,-0.017105,0.061263,-2.8534,1.2345679012426558e-06,7.1428571428722165e-06,4.999999999999449e-05,-0.00012110226256947798,-0.00010068772033644535,-0.00015842746386723894
150000000000.0,6,0.0011179581,0.004540478949999999,0.05842802069999999,0.003092,-8.5e-05,-0.000812,-0.16736028890000001,-0.6005494393499999,-9.786840566999999,-0.017099,0.061277,-2.8534,1.2345679012426558e-06,7.1428571428722165e-06,-6.0000000000060005e-05,-0.0003479651634935438,-5.826070379577608e-05,0.00015444423093635695
150000000000.0,6,-0.00730595425,0.0041776329,0.0628998531,0.000944,-0.001134,0.000254,-0.1676152618,-0.6006376992,-9.786840566999999,-0.017125,0.061286,-2.8534,1.2345679012426558e-06,7.1428571428722165e-06,2.999999999997449e-05,9.980301348065657e-05,-0.00030467886637453034,-0.00011672038387050554
150000000000.0,6,-0.01197391965,0.0053348176,0.0671167126,-8.3e-05,0.003138,-0.000823,-0.1677329416,-0.60029446645,-9.786840566999999,-0.017137,0.061251,-2.8534,1.2345679012426558e-06,7.1428571428722165e-06,-1.999999999990898e-05,0.0003421380632078891,0.00041342181857095817,0.00015008463598847888
150000000000.0,6,-0.0161613592,0.0040403398,0.07577598455,-0.002253,-4.3e-05,0.001314,-0.16804675439999997,-0.6005004060999999,-9.786840566999999,-0.017169,0.061272,-2.8534,1.2345679012426558e-06,7.1428571428722165e-06,4.999999999999449e-05,0.00031092313227348845,-0.0004555007341933148,4.330210035552451e-05
150000000000.0,6,-0.0168282114,0.0122386992,0.08085582925,0.000944,-0.001134,0.000254,-0.16841940709999997,-0.6004611795,-9.786840566999999,-0.017207,0.061269,-2.8534,1.2345679012426558e-06,7.1428571428722165e-06,9.99999999995449e-06,-0.0014629460005352452,0.00033728286585255063,-0.0007270313639827219
150000000000.0,6,-0.012140632699999999,0.0069627215,0.07860029974999999,-0.000114,-6e-05,0.00025,-0.16876263984999998,-0.6005690526499999,-9.786742500499999,-0.017243,0.06128,-2.8534,1.2345679012426558e-06,7.1428571428722165e-06,-4.0000000000040004e-05,0.001590321635685732,1.0620574621977852e-05,0.0007522176856589735
150000000000.0,6,-0.008688691899999998,-0.0006080123,0.05629997764999999,0.000961,0.000996,0.00025,-0.16878225315,-0.60062789255,-9.786742500499999,-0.017244,0.061286,-2.8534,1.2345679012426558e-06,7.142857142650172e-06,-1.999999999990898e-05,-0.00016513407813198433,-0.00024674384989764597,-6.267168450879712e-05
150000000000.0,6,-0.0007747253499999999,0.0009414384,0.047934905199999996,-0.002245,0.001022,0.001312,-0.16876263984999998,-0.60039253295,-9.786840566999999,-0.017242,0.061261,-2.8534,1.2345679012426558e-06,7.1428571428722165e-06,3.999999999992898e-05,-0.0011058545324691,-2.8442572928222276e-05,-0.0006215716125813342
150000000000.0,6,-0.006629295399999999,0.0073157609,0.05555467224999999,0.003098,0.002043,0.00132,-0.16874302654999998,-0.60062789255,-9.786742500499999,-0.01724,0.061285,-2.8534,1.2345679012426558e-06,7.1428571428722165e-06,-3.999999999992898e-05,0.0008632579407006902,0.0006364321893328473,0.0006977381198021992
150000000000.0,6,-0.00630567595,0.00718827445,0.06979392805,-0.003307,0.001031,0.000243,-0.16877244649999998,-0.60019639995,-9.786840566999999,-0.017243,0.061242,-2.8534,1.2345679012426558e-06,7.1428571428722165e-06,5.999999999994898e-05,3.1008682746802574e-05,-0.00027067017532700355,-4.5568720717675815e-05
150000000000.0,6,0.0026085689,0.0046189321499999995,0.0884755963,0.003103,0.002044,0.000252,-0.16855670019999996,-0.60062789255,-9.786742500499999,-0.017221,0.061285,-2.8533,1.2345679012426558e-06,7.1428571428722165e-06,-2.999999999997449e-05,-0.0007501095705821498,-0.00018983689694795913,-6.987632986574233e-05
150000000000.0,6,0.007698220249999999,0.0056486304,0.08128732185,0.002011,-0.001144,0.000256,-0.16855670019999996,-0.60076518565,-9.786742500499999,-0.017221,0.061299,-2.8534,1.2345679010206112e-06,7.1428571428722165e-06,-2.999999999997449e-05,0.0007156920374555842,0.00023126138973550425,7.161713868936159e-05
150000000000.0,6,0.012434832199999999,0.0023732093,0.06708729264999999,-0.002231,0.002088,0.000243,-0.16821346745000001,-0.6006180859,-9.786742500499999,-0.017186,0.061285,-2.8534,1.2345679012426558e-06,7.1428571428722165e-06,5.999999999994898e-05,-0.002173545614482325,0.00011040633794401344,-0.0010400265760502903
150000000000.0,6,0.015396440499999999,-0.00244185585,0.0712551189,0.00415,-0.001159,-0.000808,-0.1680271411,-0.6010495785,-9.786742500499999,-0.017167,0.061328,-2.8534,1.2345679012426558e-06,-9.999999999998899e-05,-9.00000000000345e-05,0.0017125192011305246,-0.0004684647289185939,0.001101186483118577
150000000000.0,6,0.0103558224,0.0047464186,0.06647928035,-0.006516,-7e-06,0.000239,-0.16791926794999998,-0.600755379,-9.786742500499999,-0.017156,0.061298,-2.8534,1.2345679012426558e-06,1.0000000000065512e-05,3.0000000000085514e-05,0.0005127578729443305,0.00013919853580324215,-8.26653076497208e-05
150000000000.0,6,0.0056976636499999995,-0.0034127142,0.061379822349999995,0.00415,-0.001159,-0.000808,-0.16789965465,-0.6009711253,-9.786742500499999,-0.017154,0.061321,-2.8534,1.2345679012426558e-06,9.999999999843467e-06,1.999999999990898e-05,0.00018566107572254298,0.0001012305125627222,-7.997860421510294e-05
150000000000.0,6,0.00204958985,0.0048052584999999995,0.07918869875,-0.000109,-5.8e-05,-0.000817,-0.16799772115,-0.60096131865,-9.786742500499999,-0.017164,0.06132,-2.8534,1.2345679012426558e-06,1.0000000000065512e-05,2.0000000000020002e-05,-0.0001292056252255036,4.541664311963345e-06,-1.475263820083228e-05
150000000000.0,6,0.0030302548499999997,0.0150630144,0.07812958055,0.004153,-9.5e-05,0.000258,-0.16807617435,-0.60103977185,-9.786742500499999,-0.017172,0.061328,-2.8534,1.2345679012426558e-06,1.0000000000065512e-05,2.0000000000020002e-05,-0.0013232844573852764,-0.0004125353631285744,-0.0003017836633641413
150000000000.0,6,-0.0016082905999999998,0.004971971549999999,0.07483454614999999,0.000952,-6.8e-05,0.000252,-0.16808598099999997,-0.6011280317,-9.786742500499999,-0.017173,0.061337,-2.8534,1.2345679012426558e-06,1.0000000000065512e-05,-2.999999999997449e-05,0.0003500202338600905,0.00034787785644563307,0.00017171447584851673
150000000000.0,6,-0.011562040349999999,0.005197524499999999,0.0652534491,-0.002248,-4.2e-05,0.000247,-0.16830172729999998,-0.6012064849,-9.786742500499999,-0.017195,0.061344,-2.8534,1.2345679012426558e-06,9.999999999843467e-06,-2.999999999997449e-05,0.0013774970888515842,-0.0002358373092714583,0.0005098299125176342
150000000000.0,6,-0.0038442067999999996,0.0007649187,0.069431082,0.003112,0.003111,0.00025,-0.1682428874,-0.60141242455,-9.786742500499999,-0.017189,0.061366,-2.8534,1.2345679012426558e-06,1.0000000000065512e-05,3.999999999992898e-05,-0.0009706468290242298,0.00019292442884077943,-0.0003626866480847535
150000000000.0,6,-0.01062060195,0.0048052584999999995,0.07899256575,-0.00224,0.001023,0.000245,-0.16835076055,-0.6015595242999999,-9.786742500499999,-0.0172,0.06138,-2.8534,1.2345679012426558e-06,1.0000000000065512e-05,-9.99999999995449e-06,0.0003627526935349873,7.472121339646698e-05,3.700087901992166e-05
150000000000.0,6,-0.013023231199999999,0.010914801449999999,0.07241230359999999,-0.000113,-0.001123,-0.001883,-0.16864496005,-0.6013830045999999,-9.786742500499999,-0.01723,0.061363,-2.8534,1.2345679012426558e-06,9.999999999843467e-06,-2.0000000000020002e-05,-0.0008896617269530394,0.0001480201489363342,-0.0002054078260100567
150000000000.0,6,-0.0030106415499999996,0.0114933938,0.0840822171,-0.001196,-0.001118,0.001318,-0.16878225315,-0.60137319795,-9.786742500499999,-0.017244,0.061361,-2.8534,1.2345679012426558e-06,1.0000000000065512e-05,-2.0000000000020002e-05,-0.002054123975957181,-0.0007471321934395814,-0.0007205949496446873
150000000000.0,6,-0.014307902349999999,0.0045110589999999996,0.07824726035,0.000943,-0.001135,0.000254,-0.16899799944999996,-0.60141242455,-9.786742500499999,-0.017267,0.061366,-2.8534,1.2345679012426558e-06,-9.999999999998899e-05,-5.999999999994898e-05,-0.0002895101373731751,0.0006996765355098411,-0.00011181476129590306
150000000000.0,6,-0.004314926,0.009267284249999999,0.08138538835,0.000943,-0.001135,0.000254,-0.16911567924999998,-0.6013830045999999,-9.786742500499999,-0.017278,0.061363,-2.8534,-9.999999999998899e-05,9.090909090847532e-06,3.999999999992898e-05,0.0023507726140403473,-0.00028188990818511783,0.0009708695728908034
150000000000.0,6,-0.0008825985,0.0080610663,0.08542572814999999,-0.000101,0.001006,-0.000819,-0.16910587259999998,-0.60137319795,-9.786742500499999,-0.017277,0.061362,-2.8534,1.2499999999970868e-05,9.090909091069577e-06,3.0000000000085514e-05,0.0012090392093804386,0.0002574587304247089,0.0003307642644434228
150000000000.0,6,0.005972249849999999,-0.00848275225,0.07389310774999999,-0.000112,0.001004,0.001316,-0.1689293529,-0.60158894425,-9.786742500499999,-0.01726,0.061383,-2.8534,1.2499999999970868e-05,9.090909090847532e-06,1.999999999990898e-05,-5.367224321635444e-05,-0.00033794149835997267,-0.00016489334558020263
150000000000.0,6,0.0103165958,-0.00406975975,0.06581242814999999,-0.000129,-0.001127,0.00132,-0.16878225315,-0.6016575907999999,-9.786742500499999,-0.017244,0.061391,-2.8534,1.2499999999970868e-05,9.090909090847532e-06,-9.99999999995449e-06,-0.00019263096460091222,0.0002837176366099481,-8.103703002190765e-05
150000000000.0,6,0.0095712904,0.01130706745,0.0680777643,-0.000109,0.000997,-0.000811,-0.16848805364999997,-0.6014810710999999,-9.786742500499999,-0.017214,0.061372,-2.8534,1.2499999999970868e-05,9.090909090847532e-06,-2.0000000000020002e-05,0.000500185496871447,-0.00028803029993196283,0.0002554390439303833
150000000000.0,6,0.007825706699999999,0.01020872265,0.07825706699999999,0.000952,0.000987,0.000259,-0.1683801805,-0.6014222311999999,-9.786742500499999,-0.017204,0.061367,-2.8534,1.2500000000192912e-05,9.090909091069577e-06,4.0000000000040004e-05,-0.0011485562482490413,-0.00044197037505577796,-0.000591129864023987
150000000000.0,6,0.016504591949999998,0.0079629998,0.0903780864,-0.000109,0.000997,-0.000811,-0.1682428874,-0.6014222311999999,-9.786742500499999,-0.017189,0.061367,-2.8534,1.2499999999970868e-05,9.090909090847532e-06,-2.0000000000020002e-05,0.00048785291086532456,0.0005595340051161024,0.0002858706028164848
150000000000.0,6,0.014700168349999997,0.0167889848,0.0867888525,0.002002,-0.001152,0.000264,-0.16807617435,-0.60143203785,-9.786742500499999,-0.017172,0.061367,-2.8534,1.2499999999970868e-05,9.090909090847532e-06,-2.999999999997449e-05,0.0004406877009115878,-0.00021648721082390132,0.00014109704815495894
150000000000.0,6,0.0160044528,0.00348136075,0.07122569895,-0.000132,-0.001134,0.00026,-0.16788004134999998,-0.60143203785,-9.786742500499999,-0.017152,0.061367,-2.8534,1.2499999999970868e-05,9.090909090847532e-06,-2.999999999997449e-05,-0.0015194218622319872,0.0007991678638237243,-0.000443274823482831
150000000000.0,6,0.0,0.0024516625,0.0625468137,-0.000109,0.000998,-0.000811,-0.16789965465,-0.6014418445,-9.786742500499999,-0.017154,0.061369,-2.8534,-9.999999999998899e-05,9.090909091069577e-06,8.999999999992347e-05,-0.0005940814742243505,-0.0003495264222432848,-0.0003355814690461645
150000000000.0,6,-0.0031577413,0.018112882549999997,0.0722946238,-0.00118,-5.8e-05,-0.001878,-0.1680271411,-0.60109861175,-9.786742500499999,-0.017167,0.061333,-2.8534,-5.2631578948414415e-06,9.090909090847532e-06,2.0000000000020002e-05,0.0010105192998265955,-5.596292875531539e-05,0.0005173562649655739
150000000000.0,6,-0.0112776475,0.0034127142,0.08740667145,-0.001182,0.001006,0.000255,-0.1681448209,-0.6010691918,-9.786742500499999,-0.017179,0.06133,-2.8534,-5.263157894619397e-06,-9.999999999998899e-05,-2.999999999997449e-05,0.0012191975494132562,-0.0003660586927163312,0.00047638396691440654
150000000000.0,6,-0.01797558945,0.01173856005,0.09862547904999999,0.000957,0.000989,-0.000809,-0.168478247,-0.6010103519,-9.786742500499999,-0.017213,0.061325,-2.8534,-5.2631578948414415e-06,3.333333333332966e-05,9.99999999995449e-06,-0.000493205767401958,0.00038066359210198186,-0.0003261989912906049
150000000000.0,6,-0.023379053599999998,0.019917306149999998,0.08921109504999998,-0.000115,0.000996,0.000257,-0.1689097396,-0.6008044122499999,-9.786742500499999,-0.017257,0.061304,-2.8534,-5.263157894619397e-06,3.333333333332966e-05,1.333333333330966e-05,-0.0017131195713204206,-0.0004446625482164013,-0.0004457982295530405
150000000000.0,6,-0.024771597899999998,0.018593408399999997,0.08306232549999999,0.002018,0.000978,0.000261,-0.16931181224999997,-0.6008338322,-9.786742500499999,-0.017298,0.061306,-2.8534,-5.2631578948414415e-06,3.333333333332966e-05,1.3333333333420683e-05,0.0007093495408358047,0.00022517464602911375,0.0002947709569345036
150000000000.0,6,-0.023928225999999997,-0.0035107806999999996,0.08183649424999999,0.003085,0.000969,0.000263,-0.1696942716,-0.60117706495,-9.786742500499999,-0.017338,0.061341,-2.8534,-5.263157894619397e-06,-4.999999999988347e-05,1.333333333330966e-05,0.00033331260920781147,-4.0923814049742546e-05,6.130387029315565e-05
150000000000.0,6,-0.015504313649999999,0.008492558899999999,0.07674684289999999,0.000955,0.002051,0.001324,-0.1698904046,-0.6012064849,-9.786742500499999,-0.017358,0.061344,-2.8534,-5.2631578948414415e-06,-5.0000000000105516e-05,-4.0000000000040004e-05,-0.00010868576209729919,9.888452679240878e-05,-0.0003706583827284837
150000000000.0,6,-0.0167889848,0.017092990949999998,0.07420692055,0.000937,-8.1e-05,0.001328,-0.1701061509,-0.6009809319499999,-9.786742500499999,-0.01738,0.061321,-2.8534,-5.263157894619397e-06,3.333333333332966e-05,1.0000000000065512e-05,0.0005789527458244792,-3.325389801611678e-05,0.0005379866163044977
150000000000.0,6,-0.006168382849999999,0.01034601575,0.08485694244999999,-0.001205,-0.001129,0.001326,-0.17025325065,-0.6006671191499999,-9.786742500499999,-0.017394,0.061289,-2.8534,-5.2631578948414415e-06,3.333333333332966e-05,-3.0000000000085514e-05,0.0003844056109217203,-4.492872620387445e-06,9.430003988822322e-05
150000000000.0,6,9.806649999999999e-06,-0.0029616083000000002,0.0975369409,0.003071,-9.8e-05,0.001332,-0.1703022839,-0.60127513145,-9.786742500499999,-0.017399,0.061352,-2.8534,-5.263157894619397e-06,3.333333333332966e-05,1.0000000000065512e-05,-0.002008191935697151,-2.0490176015242056e-05,-0.000804921004158049
150000000000.0,6,0.009169217749999998,-0.0017946169499999999,0.0906330593,0.000946,0.000985,0.001326,-0.1701846041,-0.60154971765,-9.786742500499999,-0.017387,0.061379,-2.8534,-5.2631578948414415e-06,-4.999999999988347e-05,2.0000000000020002e-05,0.0014793951458258597,-0.00017695466435974083,0.0006202506952999731
150000000000.0,6,0.01866205495,0.0017357770499999998,0.0765703232,-0.000129,-7.1e-05,0.001326,-0.1697923381,-0.6016379775,-9.786742500499999,-0.017348,0.061388,-2.8533,-5.263157894619397e-06,-5.0000000000105516e-05,-6.0000000000060005e-05,0.000572423871121247,-0.0001507098554547337,0.00023416808677806378
150000000000.0,6,0.02427145875,-0.00911037785,0.0800026507,-0.001208,-0.002192,0.000261,-0.16956678515,-0.60186353045,-9.786644434,-0.017324,0.061411,-2.8533,-5.2631578948414415e-06,5.0000000000105516e-05,2.999999999997449e-05,-0.0011264136344173725,0.00033592591987829934,-0.00058761062597118
150000000000.0,6,0.025556129899999995,0.00246146915,0.090025047,0.000957,0.000988,-0.000809,-0.16905683935,-0.60205966345,-9.786644434,-0.017272,0.061432,-2.8534,-5.263157894619397e-06,4.999999999988347e-05,2.0000000000020002e-05,0.0002145408555440792,0.0002830773037953982,8.152546711742703e-05
150000000000.0,6,0.02246703515,0.0046287388,0.10154786075,0.000929,-0.001144,0.00133,-0.1688116731,-0.60212831,-9.786644434,-0.017248,0.061439,-2.8534,-5.2631578948414415e-06,-9.999999999998899e-05,-2.0000000000020002e-05,0.00046418902975713106,-0.0005076331096318665,0.00019517091504522854
150000000000.0,6,0.00579573015,0.0032263878499999995,0.1013811477,0.003077,-9.5e-05,0.000264,-0.1687528332,-0.6023832829,-9.786644434,-0.017241,0.061464,-2.8534,-5.263157894619397e-06,5.0000000000105516e-05,1.0000000000065512e-05,0.0005888047527045637,0.00010868999091218079,0.0001821901836723261
150000000000.0,6,0.00169655045,0.0093555441,0.07537391189999999,-0.004383,0.001032,0.000249,-0.16869399329999998,-0.60192237035,-9.786742500499999,-0.017235,0.061417,-2.8534,-5.2631578948414415e-06,4.999999999988347e-05,9.99999999995449e-06,0.00019673314577797751,8.504622022553754e-05,9.15417961994125e-06
150000000000.0,6,0.004648352099999999,0.024281265399999998,0.06504750945,0.000922,-0.003273,-0.000801,-0.1687920598,-0.60188314375,-9.786742500499999,-0.017246,0.061413,-2.8534,-5.263157894619397e-06,-4.999999999988347e-05,-2.0000000000020002e-05,-0.0009803437237369539,0.0006580935276867539,-0.00024216463970500035
150000000000.0,6,-0.011159967699999999,0.03243059155,0.07614863725,-0.000106,0.000999,-0.001878,-0.1690078061,-0.6015006843999999,-9.786742500499999,-0.017267,0.061375,-2.8534,-5.2631578948414415e-06,-5.0000000000105516e-05,4.999999999999449e-05,0.0016415095796064316,-0.0016990382297747963,0.0008365428253468976
150000000000.0,6,-0.029674922899999998,0.0316362529,0.09127049154999999,0.000952,-7.6e-05,-0.001874,-0.16948833195,-0.60115745165,-9.786742500499999,-0.017317,0.061339,-2.8534,9.999999999998899e-05,5.0000000000105516e-05,-3.999999999992898e-05,-0.0010826353379699005,0.0008832678832257912,-0.0006047519018874681
150000000000.0,6,-0.024193005549999997,0.0432277132,0.10205780654999999,0.003077,-0.001159,-0.001868,-0.17003750434999998,-0.6007749923,-9.786742500499999,-0.017373,0.061301,-2.8534,-9.999999999998899e-05,4.999999999988347e-05,2.999999999997449e-05,-0.0004772588757167573,-0.0004954229830609336,-0.00011876937251770192
150000000000.0,6,0.00061781895,0.0499943017,0.08504326879999999,0.000937,-0.001143,-0.000805,-0.17016499079999997,-0.60005910685,-9.786742500499999,-0.017385,0.061227,-2.8534,9.999999999998899e-05,1.4285714285744433e-05,2.0000000000020002e-05,0.0003517115572179985,0.0003654463472191338,9.484385356756109e-05
150000000000.0,6,0.00456009225,0.0395011862,0.0701175475,-0.000127,-7e-05,0.000259,-0.17021402405,-0.59945109455,-9.786840566999999,-0.01739,0.061165,-2.8534,-4.999999999988347e-05,1.4285714285744433e-05,-6.0000000000060005e-05,0.00026813226322192074,0.00010406376608806944,0.00025152748723100693
150000000000.0,6,-0.01770100325,0.0395404128,0.07344200185,-0.000131,-0.001134,-0.000807,-0.17054745015,-0.5987352090999999,-9.786840566999999,-0.017424,0.061092,-2.8534,-5.0000000000105516e-05,1.4285714285744433e-05,4.0000000000040004e-05,-0.000895420307325645,-0.0006308217295514229,-0.00022630202922191422
150000000000.0,6,-0.0108069283,0.03773598919999999,0.09247670949999999,0.003092,0.003099,0.001326,-0.1705572568,-0.5982841031999999,-9.7869386335,-0.017425,0.061046,-2.8534,9.999999999998899e-05,1.4285714285522388e-05,-2.999999999997449e-05,0.00042712936934435897,0.00031235872659340913,7.159116147359423e-05
150000000000.0,6,0.0056486304,0.0244577851,0.10566665374999999,0.000936,0.000985,0.002394,-0.17040035039999998,-0.5980095169999999,-9.7869386335,-0.017409,0.061018,-2.8534,-4.999999999988347e-05,1.4285714285744433e-05,2.0000000000020002e-05,0.0012346313566295453,-0.0002525697222717227,0.0005189909489363709
150000000000.0,6,0.019858466249999998,0.0202605389,0.09355544099999999,0.000938,-7.8e-05,0.000261,-0.17009634424999998,-0.59786241725,-9.7869386335,-0.017378,0.061002,-2.8534,-5.0000000000105516e-05,1.4285714285744433e-05,-5.000000000032756e-06,-0.001175039880746756,0.00029268419086880826,-0.0005936250901333318
150000000000.0,6,0.025634583099999997,0.022927947699999996,0.0730791558,-0.001191,-5.9e-05,-0.00081,-0.16974330485,-0.5975289911499999,-9.7869386335,-0.017342,0.060969,-2.8534,9.999999999998899e-05,1.4285714285744433e-05,-5.000000000032756e-06,-0.000357585813274372,-0.00012823650192395064,6.240563678877598e-05
150000000000.0,6,0.0007158854499999999,0.013327237349999998,0.07624670374999999,-0.001196,-6e-05,0.000257,-0.16980214475,-0.5972151783499999,-9.7869386335,-0.017348,0.060937,-2.8534,-9.999999999998899e-05,1.999999999990898e-05,2.999999999997449e-05,0.0004990218512912897,-5.010671847993642e-05,-8.626208550716052e-05
150000000000.0,6,0.00102969825,0.019113160849999998,0.08569050769999999,-0.000124,-6.8e-05,-0.000808,-0.16982175805,-0.59686213895,-9.7870367,-0.01735,0.060901,-2.8534,-1.2499999999970868e-05,2.0000000000131024e-05,4.0000000000040004e-05,0.0010513927764529696,-8.497704732879363e-05,0.0003487314155720955
150000000000.0,6,-0.001765197,0.020201699,0.09947865759999999,-9.9e-05,0.003129,-0.000814,-0.16972369154999997,-0.59660716605,-9.7870367,-0.01734,0.060875,-2.8534,-1.2499999999970868e-05,1.999999999990898e-05,-9.99999999995449e-06,-0.00010493188638754924,-0.0004132702830970114,0.00046962261928193416
150000000000.0,6,-0.005579983849999999,0.0195348468,0.11699333449999999,-0.001183,0.001006,-0.000812,-0.1697923381,-0.59639141975,-9.7870367,-0.017347,0.060852,-2.8534,-1.2499999999970868e-05,2.0000000000131024e-05,-1.0000000000065512e-05,-5.7953022969153833e-05,0.000365189435540314,-0.00047794592474678654
150000000000.0,6,0.008090486249999999,0.01226811915,0.10305808484999998,0.007343,-0.000129,-0.000795,-0.1696942716,-0.5967542658,-9.7870367,-0.017337,0.060889,-2.8534,-1.2500000000192912e-05,1.999999999990898e-05,1.0000000000065512e-05,7.715891094681182e-05,-7.105737435120218e-05,-7.03750427876737e-05
150000000000.0,6,0.020819517949999998,-0.00342252085,0.0663910205,0.00095,0.000989,-0.000808,-0.16925297235,-0.59692097885,-9.7870367,-0.017292,0.060907,-2.8535,-1.2499999999970868e-05,3.333333333332966e-05,9.99999999995449e-06,9.477194587091675e-05,0.0002461512229894325,5.482259219782848e-05
150000000000.0,6,0.023330020349999998,-0.0033244543499999996,0.056378430849999994,-0.002262,-0.001114,-0.001878,-0.1689293529,-0.5968719456,-9.7870367,-0.017258,0.060901,-2.8535,-1.2499999999970868e-05,3.333333333332966e-05,-2.999999999997449e-05,0.00014357857743041436,7.239718638452075e-05,-0.0002739867989350886
150000000000.0,6,0.0132389775,0.01511204765,0.0546034272,-0.001175,0.002073,-0.000814,-0.16855670019999996,-0.59660716605,-9.7870367,-0.017221,0.060874,-2.8535,-1.2499999999970868e-05,3.333333333332966e-05,2.999999999997449e-05,-0.0005029501864575597,0.000211903670078728,-0.00024934515824476255
150000000000.0,6,-0.00196133,0.00924767095,0.0833369117,0.000945,0.000989,0.000259,-0.16862534675,-0.5965777460999999,-9.7870367,-0.017228,0.060871,-2.8535,-1.2499999999970868e-05,5.0000000000105516e-05,4.0000000000040004e-05,0.0008319035897107335,-0.0007818828769459163,0.0002253643618136958
150000000000.0,6,0.0088063717,0.017142024199999998,0.10982467335,0.001997,-0.002214,-0.001868,-0.1686155401,-0.5965385195,-9.7870367,-0.017227,0.060868,-2.8535,4.999999999988347e-05,4.999999999988347e-05,-3.0000000000085514e-05,-3.114500193250602e-05,5.521854270718052e-06,-6.587074516076208e-05
150000000000.0,6,0.025026570799999998,0.022849494499999998,0.10983448,0.000933,-0.001141,-0.000805,-0.1683801805,-0.59641103305,-9.7870367,-0.017203,0.060855,-2.8535,5.0000000000105516e-05,-9.999999999998899e-05,-2.999999999997449e-05,-0.0007669464211443738,0.0006818134301402878,-0.0005500250839265697
150000000000.0,6,0.0216923098,0.005942829899999999,0.0716866115,-0.006535,-0.001079,-0.000818,-0.1681840475,-0.5962639332999999,-9.7870367,-0.017183,0.06084,-2.8535,7.1428571428722165e-06,9.999999999998899e-05,4.999999999999449e-05,0.0003487396398711984,0.00018337269018608993,-6.073340536322247e-05
150000000000.0,6,0.004609125499999999,0.0090417313,0.04759167245,0.005202,-0.002239,-0.00293,-0.1681644342,-0.59637180645,-9.7870367,-0.017181,0.06085,-2.8535,7.1428571428722165e-06,9.999999999998899e-05,-4.499999999996174e-05,0.00013555445605419048,-9.385951787055369e-05,6.971556547913371e-05
150000000000.0,6,-0.0049229383,0.0232025339,0.0597421118,-0.001188,-5.6e-05,-0.001878,-0.16821346745000001,-0.5958716673,-9.7871347665,-0.017185,0.060799,-2.8536,7.1428571428722165e-06,3.333333333332966e-05,-4.499999999996174e-05,-0.0008381777600003915,-0.000674335845195273,0.00011791669126157145
150000000000.0,6,-0.0024810824500000003,0.03254827135,0.079237732,-0.00223,0.003149,-0.001885,-0.1681055943,-0.5951852018,-9.7871347665,-0.017175,0.060729,-2.8536,7.1428571428722165e-06,3.333333333332966e-05,1.4999999999987246e-05,-0.00023565046167380033,0.00022246081931842632,-7.734679867085759e-05
150000000000.0,6,8.825985e-05,0.0245558516,0.10273446539999999,0.00202,0.000983,-0.001874,-0.16813501425,-0.5951263618999999,-9.7871347665,-0.017177,0.060723,-2.8536,7.1428571428722165e-06,3.333333333332966e-05,1.4999999999987246e-05,0.0002984524828946733,-0.0003740517615131722,0.00012464414250695777
150000000000.0,6,-0.0050406181,0.02199631595,0.10888323494999999,0.00095,-7.2e-05,-0.002941,-0.1682428874,-0.59495964885,-9.7871347665,-0.017188,0.060706,-2.8536,7.1428571428722165e-06,4.999999999988347e-05,-2.999999999997449e-05,0.00016632424404229573,5.95461074601733e-05,0.00011323982641978092
150000000000.0,6,-0.0022751428,0.0233202137,0.0740205942,0.000927,-0.002205,-0.00187,-0.16845863369999997,-0.59478312915,-9.7871347665,-0.017211,0.060688,-2.8536,7.1428571428722165e-06,5.0000000000105516e-05,-6.0000000000060005e-05,-0.0010467757847454073,-0.0007285961573364474,-0.0004363091749705894
150000000000.0,6,-0.0094732239,0.021790376299999997,0.05504472645,-0.002279,-0.002179,-0.000808,-0.16874302654999998,-0.5943026033,-9.7871347665,-0.017239,0.060639,-2.8537,7.142857142650172e-06,5.0000000000105516e-05,4.0000000000040004e-05,0.0006527435082835098,-0.0005655951929677272,0.0002448019612743546
150000000000.0,6,-0.021711923099999995,0.010875574849999998,0.06134059575,-0.000123,-6.5e-05,-0.001876,-0.16907645265,-0.59401821045,-9.7871347665,-0.017273,0.06061,-2.8537,7.1428571428722165e-06,4.999999999988347e-05,-1.0000000000065512e-05,0.00015095860913903747,1.8205423814920962e-05,0.00015535296422175549
150000000000.0,6,-0.0368141641,0.012336765699999998,0.08946606794999999,0.002003,0.000979,0.001328,-0.16968446494999997,-0.5938318841,-9.7871347665,-0.017336,0.060591,-2.8537,7.1428571428722165e-06,9.999999999998899e-05,-6.999999999990347e-05,-0.00013570193649339868,0.00041518817242836015,-3.140239043047943e-05
150000000000.0,6,-0.0382067084,0.0131212977,0.10321499124999998,0.001995,-8.7e-05,0.00133,-0.17038073709999998,-0.59401821045,-9.7871347665,-0.017407,0.06061,-2.8536,7.1428571428722165e-06,9.999999999998899e-05,6.999999999990347e-05,-7.810329979349162e-05,3.805325333949838e-05,-0.0002883754863441945
150000000000.0,6,-0.0208685512,0.0067077486,0.0898877539,-0.00012,0.000998,-0.00081,-0.1706749366,-0.5940280171,-9.7871347665,-0.017436,0.060612,-2.8536,7.1428571428722165e-06,0.00019999999999997797,4.0000000000040004e-05,-0.0009003441326965178,6.244773357910738e-05,-0.00019835449027727492
150000000000.0,6,-0.011944499699999998,-0.0027458619999999995,0.08059104969999999,0.001995,-8.8e-05,0.00133,-0.17091029619999998,-0.5943026033,-9.7871347665,-0.017461,0.060639,-2.8536,7.1428571428722165e-06,9.999999999998899e-05,-4.0000000000040004e-05,-0.0004243330419679836,0.0004563454835933012,1.0299136867231162e-06
150000000000.0,6,-0.00577611685,-0.0072569209999999995,0.07414808064999999,-0.000147,-0.001136,0.001329,-0.17109662255,-0.5944398964,-9.7871347665,-0.01748,0.060653,-2.8536,7.1428571428722165e-06,9.999999999998899e-05,1.0000000000065512e-05,-0.0004918377129565776,0.0005219201128501272,-0.00035806670270815966
150000000000.0,6,-0.0038442067999999996,-0.011689526799999999,0.0703921337,-0.000133,-6.9e-05,0.000259,-0.1710868159,-0.59464583605,-9.7871347665,-0.017479,0.060674,-2.8536,-3.333333333332966e-05,9.999999999998899e-05,-6.0000000000060005e-05,-0.00078020019964746,-0.00045068179276408493,-0.0002193873598161089
150000000000.0,6,-0.00016671305,-0.0109638347,0.08952490784999999,0.002015,0.00098,-0.000806,-0.17101816935,-0.5950675219999999,-9.7871347665,-0.017472,0.060718,-2.8536,-3.333333333332966e-05,9.999999999998899e-05,3.0000000000085514e-05,-0.0002457722841636423,0.0004954690954137586,-4.853683449407287e-06
150000000000.0,6,0.02164327655,0.0010787315,0.09744868104999999,-0.001214,-0.001127,0.001327,-0.17068474325,-0.59513616855,-9.7871347665,-0.017438,0.060725,-2.8536,-3.333333333332966e-05,9.999999999998899e-05,-1.0000000000065512e-05,-0.0002520602054232879,-0.0006432625492494015,-7.041994996265233e-05
150000000000.0,6,0.03138128,-0.0162005858,0.08334671834999999,0.008385,-0.00227,0.000278,-0.17039054375,-0.5959697338,-9.7870367,-0.017408,0.060809,-2.8536,-1.666666666655381e-05,5.0000000000105516e-05,-7.999999999996898e-05,-6.579798523605185e-05,-0.0004356103975435843,5.421940287403393e-05
150000000000.0,6,0.028037212349999997,-0.010071429549999998,0.08243469989999999,0.00094,-7.6e-05,-0.000806,-0.1698904046,-0.5962639332999999,-9.7870367,-0.017357,0.06084,-2.8536,-1.6666666666775853e-05,5.0000000000105516e-05,-2.0000000000020002e-05,0.0007057213686600394,-0.0001833542532212462,-0.000542075664120123
150000000000.0,6,0.018524761849999998,-0.0040011132,0.06671463995,-0.000141,-0.001133,0.000261,-0.16965504499999998,-0.59648948625,-9.7870367,-0.017333,0.060863,-2.8536,-1.6666666666775853e-05,9.999999999998899e-05,4.999999999999449e-05,-0.00012438351735490072,0.0006987589143232498,0.00016670651370678802
150000000000.0,6,0.0157298666,-0.0036873003999999994,0.06642044044999999,-0.002261,-4.9e-05,-0.000812,-0.16940987874999996,-0.59650909955,-9.7870367,-0.017308,0.060864,-2.8536,-1.666666666655381e-05,9.999999999998899e-05,2.0000000000020002e-05,-0.00010568645102262963,-0.00011525567073533693,-0.0007062238037805202
150000000000.0,6,0.011817013249999998,-0.010169496049999999,0.08150306815,0.003062,-0.002222,-0.001866,-0.16939026545,-0.5969111721999999,-9.7870367,-0.017306,0.060906,-2.8537,-1.666666666655381e-05,5.0000000000105516e-05,-5.999999999994898e-05,0.0005229399335549417,0.0002664033699668611,-0.0003800584911993754
150000000000.0,6,0.0049229383,-0.0023339827,0.10184206024999999,0.00308,-9.1e-05,-0.00187,-0.1692235524,-0.5972642116,-9.7869386335,-0.017289,0.060941,-2.8537,-1.6666666666775853e-05,4.999999999988347e-05,4.999999999999449e-05,0.0009849239823231243,0.0006843545938226558,-0.0001520699588402341
150000000000.0,6,0.0007060788,0.00220649625,0.0874557047,0.001996,-0.002213,-0.001868,-0.16934123219999997,-0.5974603446,-9.7869386335,-0.017301,0.060962,-2.8537,-1.6666666666775853e-05,9.999999999998899e-05,-0.000160000000000049,-0.0020318220922026786,-0.002117257395097605,-0.0009475563030568457
150000000000.0,6,-0.00032361945,0.0034715540999999996,0.06918591575,0.003093,0.000976,-0.002939,-0.1693608455,-0.5976760909,-9.7869386335,-0.017303,0.060984,-2.8537,-1.666666666655381e-05,0.00019999999999997797,-7.999999999996898e-05,0.0006495867088004426,-0.00043205339236096485,-0.0008233780617435404
150000000000.0,6,0.0028243152,0.0004903325,0.07157873834999999,-0.002255,-4.7e-05,-0.001879,-0.1692235524,-0.59784280395,-9.7869386335,-0.017289,0.061001,-2.8537,-1.666666666655381e-05,0.00019999999999997797,-0.00012000000000000899,-0.0019758026947116897,-0.0011812565506643669,-0.0012124670514765956
150000000000.0,6,0.015886773,-0.008227779349999999,0.08354285135,-0.000102,0.001003,-0.004012,-0.16896857949999997,-0.59796048375,-9.7869386335,-0.017263,0.061013,-2.8538,-1.6666666666775853e-05,5.0000000000105516e-05,-7.00000000000145e-05,-0.0006457704882226467,-0.0005221355926210425,0.0004107530375599411
150000000000.0,6,0.0213392704,-0.006060509699999999,0.07216713735,0.001991,-0.002214,-0.000801,-0.16872341325,-0.59817623005,-9.7869386335,-0.017238,0.061035,-2.8538,-1.6666666666775853e-05,4.999999999988347e-05,9.999999999998899e-05,0.0012663454937809487,0.00010047602409946066,2.926822400869944e-05
150000000000.0,6,0.027605719749999997,-0.01399408955,0.0615269221,-0.001165,0.002078,-0.002949,-0.16826250069999998,-0.59847042955,-9.7869386335,-0.017191,0.061065,-2.8538,-1.666666666655381e-05,9.999999999998899e-05,-9.00000000000345e-05,0.0010876876132973196,-0.0010494611401041798,0.0005505749570084706
150000000000.0,6,0.0159259996,-0.00218688295,0.0628802398,-0.001187,-5.4e-05,-0.001878,-0.1681055943,-0.5984606228999999,-9.7869386335,-0.017175,0.061064,-2.8538,9.999999999998899e-05,9.999999999998899e-05,8.000000000008001e-05,0.00018123678130409215,0.00173027633160161,-6.099758868982619e-05
150000000000.0,6,0.0008237585999999999,0.004795451849999999,0.08817159015,-0.000126,-6.4e-05,-0.000808,-0.16811540094999997,-0.59841158965,-9.7869386335,-0.017176,0.061059,-2.8539,1.999999999990898e-05,6.666666666665932e-05,-9.999999999998899e-05,0.0002015896318812438,-0.001477895816464292,0.0003780759842502146
150000000000.0,6,-0.001176798,0.0026085689,0.0927905223,0.00093,-0.002203,-0.00187,-0.16821346745000001,-0.59860772265,-9.7869386335,-0.017186,0.061079,-2.8539,2.0000000000131024e-05,6.666666666665932e-05,0.00010999999999994348,0.0007055095860530741,0.001274762879708291,-0.00026887187205648644
150000000000.0,6,0.0006374322499999999,-0.007658993649999999,0.07930637855,0.000938,-0.001137,-0.001872,-0.1683801805,-0.5989705687,-9.7869386335,-0.017203,0.061116,-2.8539,1.999999999990898e-05,6.666666666665932e-05,-4.0000000000040004e-05,-0.0002534264659331681,-5.443363285628777e-05,-7.758455901188399e-05
150000000000.0,6,-0.00803164635,-0.012836904849999999,0.06283120655,-0.001195,-0.00112,-0.001876,-0.16868418665,-0.5990392152499999,-9.786840566999999,-0.017234,0.061123,-2.8539,2.0000000000131024e-05,4.0000000000040004e-05,2.0000000000020002e-05,0.0005588700821768794,-0.00022031482061835028,0.00043504135161129276
150000000000.0,6,-0.0079826131,-0.0095124505,0.06161518195,0.000947,-7.2e-05,-0.001874,-0.16888031965,-0.5993628347,-9.786840566999999,-0.017255,0.061156,-2.8539,1.999999999990898e-05,4.0000000000040004e-05,1.0000000000065512e-05,-0.00014533847168411718,0.0005927235043909906,-0.00026046338859506135
150000000000.0,6,-0.0162005858,-0.01420983585,0.0557606119,-8.8e-05,0.003134,-0.002949,-0.16889993294999997,-0.5995981942999999,-9.786840566999999,-0.017256,0.06118,-2.854,-9.999999999998899e-05,3.999999999981796e-05,-4.0000000000040004e-05,0.0004535844386543697,-0.00025725621306094126,-5.0836613029153765e-05
150000000000.0,6,-0.012434832199999999,-0.02121178395,0.0790808256,-0.001186,-5.5e-05,-0.001877,-0.16907645265,-0.5999316204,-9.786840566999999,-0.017274,0.061214,-2.854,9.999999999998899e-05,4.0000000000040004e-05,-2.999999999997449e-05,-0.0008242775711280875,-0.000525633143069637,0.0004390976423225834
150000000000.0,6,-0.00960071035,-0.028027405699999997,0.08846578964999999,-0.000127,-0.001129,-0.001874,-0.16921374574999998,-0.6005984726,-9.786742500499999,-0.017288,0.061282,-2.854,1.666666666655381e-05,4.0000000000040004e-05,9.999999999998899e-05,0.00014587747137249918,0.001424300821370128,-0.0007881829965422082
150000000000.0,6,-0.012944777999999999,-0.030753654399999997,0.09365350749999998,0.000944,-7.4e-05,-0.000806,-0.169458912,-0.60131435805,-9.786742500499999,-0.017314,0.061355,-2.854,1.6666666666775853e-05,3.333333333332966e-05,-2.999999999997449e-05,0.00021987289402175536,-0.0008438545053153224,0.0004497420157803522
150000000000.0,6,-0.0058839899999999995,-0.0327738243,0.0720592642,-0.000136,-0.001132,0.000261,-0.16964523834999998,-0.60198121025,-9.786644434,-0.017332,0.061424,-2.854,1.6666666666775853e-05,3.333333333332966e-05,-4.0000000000040004e-05,-0.00015277678432819297,-0.0004938215345577923,0.00037067862809320173
150000000000.0,6,-0.0039814999,-0.017514676899999998,0.05976172509999999,0.00199,-0.002215,0.000267,-0.1698904046,-0.6024323161499999,-9.786644434,-0.017358,0.06147,-2.854,1.666666666655381e-05,3.333333333332966e-05,4.999999999999449e-05,-0.00019662019000699082,0.0011790013991659354,-0.00017603031149937554
150000000000.0,6,-0.00041187929999999997,-0.01132668075,0.06407665109999999,-0.001185,0.001008,0.000256,-0.1698707913,-0.60278535555,-9.786644434,-0.017356,0.061506,-2.854,1.666666666655381e-05,9.999999999998899e-05,-4.0000000000040004e-05,0.0005390900509151114,0.0004105802622649257,-0.000628490269492965
150000000000.0,6,-0.014405968849999999,-0.027066353999999997,0.07811977390000001,-0.001199,-5.9e-05,0.001325,-0.1701061509,-0.6030501350999999,-9.786644434,-0.017379,0.061533,-2.854,1.6666666666775853e-05,4.999999999988347e-05,4.999999999999449e-05,-0.0005501292021481696,-0.0007799814762858848,0.0006739667834785301
150000000000.0,6,-0.01118938765,-0.015367020549999999,0.07960057804999998,-0.001201,-0.001123,0.000259,-0.17032189720000002,-0.6033835611999999,-9.7865463675,-0.017402,0.061567,-2.854,-9.999999999998899e-05,5.0000000000105516e-05,-0.00012999999999996348,0.0003900748250871139,-0.0011949407197078266,0.0001605889872464128
150000000000.0,6,0.00314793465,0.0052857843499999994,0.05865357365,-0.001179,0.001009,-0.000812,-0.17029247724999996,-0.60323646145,-9.786644434,-0.017399,0.061552,-2.854,9.999999999998899e-05,9.999999999998899e-05,7.999999999996898e-05,-0.000463188101994097,0.0017140459695972332,-0.0005011505139923544
150000000000.0,6,-0.0015886773,0.0036284604999999998,0.05745716234999999,-0.000121,-6.6e-05,-0.000808,-0.1703415105,-0.6032266547999999,-9.786644434,-0.017404,0.061551,-2.854,-2.4999999999941735e-05,-4.999999999988347e-05,3.0000000000085514e-05,0.0005577387313956406,0.00013323700663470106,-1.5213602904157186e-05
150000000000.0,6,0.009590903699999999,-0.0055897905,0.06447872375,0.000941,-7.5e-05,0.000261,-0.1701453775,-0.60343259445,-9.7865463675,-0.017384,0.061572,-2.854,-2.4999999999941735e-05,-5.0000000000105516e-05,-0.000140000000000029,0.0010309776157810951,-0.0017407857570828078,0.0011848250773187352
150000000000.0,6,0.01587696635,0.0051582979,0.0716669982,-0.000136,-0.003259,-0.002937,-0.16999827774999998,-0.60341298115,-9.786644434,-0.017369,0.06157,-2.854,-2.500000000016378e-05,9.999999999998899e-05,7.999999999996898e-05,-0.0007830360278648224,0.000694775792356106,-0.0005435876771339443
150000000000.0,6,0.0203782187,0.00734518085,0.05910467955,0.003075,-9.2e-05,0.000265,-0.16956678515,-0.6035012409999999,-9.786644434,-0.017325,0.061578,-2.854,-2.4999999999941735e-05,3.333333333332966e-05,-3.999999999992898e-05,0.000834706591876011,-0.0012150358402118755,0.0007143075658646025
150000000000.0,6,0.01450403535,0.008384685749999999,0.06377264495,-0.002241,0.00102,-0.001881,-0.16907645265,-0.6030501350999999,-9.786644434,-0.017274,0.061532,-2.854,9.999999999998899e-05,3.333333333355171e-05,4.999999999921734e-06,-0.00030801752886498723,0.001044511224461253,-0.00044185125718440577
150000000000.0,6,0.010502922149999998,0.0077374468499999995,0.07783538104999999,0.000943,-0.001137,-0.001872,-0.16896857949999997,-0.6031482016,-9.786644434,-0.017264,0.061542,-2.8541,-3.333333333332966e-05,3.333333333332966e-05,5.000000000032756e-06,-0.0005107719449302245,-2.9675257884775874e-05,-0.00015455956658413927
150000000000.0,6,0.017465643649999998,0.0053348176,0.079629998,0.002004,-0.001147,-0.000803,-0.1687528332,-0.6032854947,-9.786644434,-0.017241,0.061557,-2.8541,-3.333333333332966e-05,3.333333333332966e-05,-2.999999999997449e-05,-0.0006625536741776822,-9.69918288387106e-05,-0.0003137365341105147
150000000000.0,6,0.02048609185,0.00436395925,0.05778078179999999,0.000943,-0.001137,-0.001872,-0.168478247,-0.6033639478999999,-9.786644434,-0.017213,0.061565,-2.8541,-3.333333333332966e-05,3.333333333332966e-05,2.0000000000020002e-05,0.0012977939437265745,-0.0008734528562830413,0.0006701716810505465
150000000000.0,6,0.0023045627499999996,-0.00022555294999999998,0.0552506661,-0.002255,-4.6e-05,-0.000812,-0.16839979379999997,-0.60325607475,-9.786644434,-0.017205,0.061554,-2.8541,9.999999999998899e-05,3.333333333332966e-05,3.999999999992898e-05,-0.00027119207117419497,0.0016142150513867026,-0.0005361519034660089
150000000000.0,6,-0.0126701918,0.00118660465,0.07947309159999999,0.004152,-9.8e-05,-0.001868,-0.16868418665,-0.60347182105,-9.786644434,-0.017235,0.061576,-2.8541,-4.999999999988347e-05,-9.999999999998899e-05,-0.00010999999999994348,0.0003145839100564263,-0.00048250644777603213,-5.688359424615985e-05
150000000000.0,6,-0.0159063863,0.0121014061,0.09786056035,0.001983,-8.7e-05,-0.000771,-0.1690470327,-0.6036189208,-9.786644434,-0.017271,0.061591,-2.8541,-5.0000000000105516e-05,4.999999999988347e-05,2.999999999997449e-05,3.620583577405856e-05,-0.0009774899651135982,0.0003299431561414323
150000000000.0,6,-0.02644853505,0.0033931009,0.08093428244999999,-0.000151,-7e-05,-0.000775,-0.16957659179999998,-0.6037366006,-9.7865463675,-0.017326,0.061603,-2.8541,5.0000000000105516e-05,5.0000000000105516e-05,-2.0000000000020002e-05,-0.0006526530605669573,0.0004933086915765994,-0.0006367972262334987
150000000000.0,6,-0.020407638649999997,-0.0024222425499999998,0.04935686945,-0.002259,0.003144,-0.000784,-0.16978253144999997,-0.60376602055,-9.7865463675,-0.017347,0.061606,-2.8541,4.999999999988347e-05,2.4999999999941735e-05,-2.999999999997449e-05,0.00042917886384848114,0.00019166334070908064,0.00010782678253934419
150000000000.0,6,-0.004834678449999999,-0.01077750835,0.0410898635,0.001961,-0.00222,0.0003,-0.17009634424999998,-0.60423673975,-9.7865463675,-0.017379,0.061654,-2.8541,-2.4999999999941735e-05,2.500000000016378e-05,2.0000000000020002e-05,-0.0003095810221237366,0.0002713201208710547,-4.0722135757176314e-05
150000000000.0,6,0.0065900687999999995,-0.013562596949999998,0.06131117579999999,-0.004426,-0.001101,-0.00078,-0.16999827774999998,-0.6039915735,-9.7865463675,-0.017369,0.061629,-2.8541,-2.4999999999941735e-05,2.4999999999941735e-05,3.999999999992898e-05,0.0010549775455482163,0.0005983357520735755,0.00014768369578410656
150000000000.0,6,0.016082905999999998,-0.0224768418,0.0727849563,0.003028,-0.002228,0.000302,-0.1699100179,-0.60480552545,-9.7865463675,-0.01736,0.061712,-2.8541,-2.500000000016378e-05,2.4999999999941735e-05,-5.999999999994898e-05,-0.001432380520583143,-0.0014263569400296827,1.013856465678642e-05
150000000000.0,6,0.024977537549999998,-0.0293218835,0.08844617634999999,0.001967,-0.002218,-0.000767,-0.1696746583,-0.6055900574499999,-9.786448301,-0.017336,0.061792,-2.8541,-2.4999999999941735e-05,-9.999999999998899e-05,-4.999999999999449e-05,0.0013754944791546375,-0.0003142472028649923,0.0005819996145831063
150000000000.0,6,0.024389138549999998,-0.022359162,0.06284101319999999,-0.001221,-6.1e-05,0.000291,-0.16939026545,-0.6059627101499999,-9.786448301,-0.017307,0.061831,-2.8541,9.999999999998899e-05,9.999999999998899e-05,2.999999999997449e-05,-8.477519000558986e-05,0.00018142505831719724,0.00017211604877440112
150000000000.0,6,0.026713314599999996,-0.0188483813,0.06477292324999999,-0.000162,-0.001135,0.000294,-0.16901761275,-0.60633536285,-9.786448301,-0.017269,0.061869,-2.8541,-3.846153846076561e-06,1.0000000000065512e-05,-2.0000000000020002e-05,-0.0009475204973314194,0.0006998707365222234,-0.0008445822755003274
150000000000.0,6,0.018005009399999997,-0.020142859099999997,0.0750797124,-0.002282,-5.1e-05,-0.000779,-0.16883128639999997,-0.60668840225,-9.786448301,-0.01725,0.061905,-2.8541,-3.8461538462986056e-06,9.999999999843467e-06,7.999999999996898e-05,0.00015320794310701158,0.0017436929545302515,-0.00014320653271049366
150000000000.0,6,-0.00410898635,-0.009914523149999998,0.07534449195,0.000924,-7.6e-05,-0.001841,-0.16888031965,-0.6071885414,-9.786350234499999,-0.017255,0.061956,-2.8542,-3.846153846076561e-06,1.0000000000065512e-05,-9.99999999995449e-06,0.00012744427351495113,-0.0007499094672931417,9.25143377435711e-05
150000000000.0,6,-0.019564266749999996,-0.0087475318,0.0739813676,-0.000125,0.002063,-0.001846,-0.1691254859,-0.6074533209499999,-9.786350234499999,-0.01728,0.061983,-2.8542,-3.846153846076561e-06,1.0000000000065512e-05,-4.999999999999449e-05,1.9119777218787326e-05,-0.0006711028191475066,0.0001717969579898837
150000000000.0,6,-0.02157463,0.00012748645,0.0615465354,0.001969,-0.002218,-0.000767,-0.16951775189999999,-0.6075121608499999,-9.786350234499999,-0.01732,0.061988,-2.8542,-3.8461538462986056e-06,9.999999999843467e-06,9.99999999995449e-06,0.0007304473655318083,-0.00011095882133660417,0.00031635164491594647
150000000000.0,6,-0.013778343249999998,-0.0012552511999999998,0.04896460345,-0.000153,-7e-05,0.000292,-0.16982175805,-0.607620034,-9.786350234499999,-0.017352,0.061999,-2.8542,-3.846153846076561e-06,1.0000000000065512e-05,-3.999999999992898e-05,-0.000254892235667048,-0.0004557631517436711,5.5490150394188476e-05
150000000000.0,6,-0.025252123749999997,-0.012160246,0.042521634399999994,-0.002286,-5.3e-05,0.000289,-0.17033170385,-0.6076396473,-9.786350234499999,-0.017403,0.062002,-2.8542,-3.846153846076561e-06,1.0000000000065512e-05,3.999999999992898e-05,-0.0003391153521341561,0.0011621667557941695,-0.0001804424863804388
150000000000.0,6,-0.024016485849999998,-0.008737725149999999,0.052083118149999996,-0.000143,0.003122,0.003489,-0.1705180302,-0.60776713375,-9.786350234499999,-0.017422,0.062015,-2.8541,-3.8461538462986056e-06,1.0000000000065512e-05,-4.999999999999449e-05,5.127215250205763e-05,-0.0009633734250593662,0.00018497698436129029
150000000000.0,6,-0.0214177236,0.0020593965,0.06989199454999999,-0.000155,0.000992,0.002425,-0.17086126295,-0.6077867470499999,-9.786252167999999,-0.017458,0.062017,-2.8541,-3.846153846076561e-06,9.999999999843467e-06,6.0000000000060005e-05,0.0006474479112605208,0.000826901667705604,-4.322001039994139e-05
150000000000.0,6,-0.01322917085,0.0034323275,0.0727457297,-0.005489,0.001036,0.002416,-0.17097894274999997,-0.6075219675,-9.786350234499999,-0.017469,0.06199,-2.8541,-3.846153846076561e-06,1.0000000000065512e-05,9.99999999995449e-06,-0.0006159250520088172,-0.0003279093476247219,-0.00031510088703951
150000000000.0,6,-0.0041384062999999995,-0.011101127799999999,0.0791396655,0.007314,0.00093,0.002439,-0.1709299095,-0.60810055985,-9.786252167999999,-0.017465,0.062048,-2.8541,-3.8461538462986056e-06,-5.0000000000105516e-05,4.0000000000040004e-05,8.319055252863083e-05,0.001166589416005337,-0.00013291079905836112
150000000000.0,6,0.007374600799999999,-0.01832862885,0.06566532839999999,-0.00121,0.001003,0.000289,-0.17062590335,-0.60835553275,-9.786252167999999,-0.017434,0.062075,-2.854,-3.846153846076561e-06,-4.999999999988347e-05,-7.999999999996898e-05,0.00034664526476622937,-0.001107715327188341,0.0004511219356219398
150000000000.0,6,0.0219865093,-0.0120033396,0.0411094768,-0.000157,-7.2e-05,0.00136,-0.17027286395,-0.60868895885,-9.786252167999999,-0.017398,0.062109,-2.854,-3.846153846076561e-06,3.333333333332966e-05,1.999999999990898e-05,-0.0004311371049170176,-0.00023066093874679616,-0.0002014033238967039
150000000000.0,6,0.022672974799999995,-0.0049621649000000006,0.03601982545,0.00091,-8e-05,0.001362,-0.16991982455,-0.6088556719,-9.786252167999999,-0.017361,0.062126,-2.854,-3.8461538462986056e-06,3.333333333332966e-05,3.500000000000725e-05,0.00023906875372647907,7.224829391838661e-05,0.0002518024396426788
150000000000.0,6,0.027164420499999998,-0.0066685220000000005,0.06134059575,-0.00441,0.001031,0.000283,-0.1693216189,-0.60849282585,-9.786252167999999,-0.0173,0.062089,-2.854,-3.846153846076561e-06,3.333333333332966e-05,3.500000000000725e-05,-0.0007681778518357635,0.0007004548780293884,-0.00048182175580685493
150000000000.0,6,0.0288511643,0.0037853669,0.08107157555,0.001984,-0.001151,-0.001837,-0.1689097396,-0.6089145118,-9.786252167999999,-0.017258,0.062132,-2.854,-3.8461538462986056e-06,-9.999999999998899e-05,-5.999999999994898e-05,0.0009062678556915477,-0.0005323155033305493,0.0003711569656736635
150000000000.0,6,0.03702010375,0.010022396299999998,0.0734518085,0.001982,-8.7e-05,0.000296,-0.16825269404999998,-0.6090223849499999,-9.786252167999999,-0.017191,0.062143,-2.8541,-3.846153846076561e-06,9.999999999998899e-05,7.999999999996898e-05,-0.0003898107746909685,0.0016522688812690145,-0.0004191075954236012
150000000000.0,6,0.014494228699999999,-0.00255953565,0.0481506515,-0.00016,-0.001134,0.000294,-0.1680271411,-0.6091596780499999,-9.786252167999999,-0.017168,0.062157,-2.8541,-3.846153846076561e-06,-5.0000000000105516e-05,-2.999999999997449e-05,0.00024699408368261677,-0.0014317334474036603,0.0002772221855043
150000000000.0,6,0.014307902349999999,-0.004707192,0.037686955949999996,-0.001204,0.001007,-0.000779,-0.16768390835,-0.6091106448,-9.786252167999999,-0.017133,0.062152,-2.8541,-3.8461538462986056e-06,-4.999999999988347e-05,9.99999999995449e-06,-7.998508189049902e-05,0.0011334229536972273,-0.00025026662128774246
150000000000.0,6,0.006325289249999999,0.0121014061,0.053711022049999994,-0.000141,-6.6e-05,-0.001842,-0.16748777535,-0.60900277165,-9.786252167999999,-0.017112,0.062141,-2.8541,-3.846153846076561e-06,-3.333333333332966e-05,-8.999999999992347e-05,-0.00029150202106097145,-0.0013764706686218986,0.0001755311437383611
150000000000.0,6,-0.0074922806,0.021623663249999998,0.06883287635,0.00197,-0.002216,-0.000767,-0.16774274825,-0.608796832,-9.786252167999999,-0.017138,0.06212,-2.8541,-3.846153846076561e-06,-3.333333333332966e-05,1.999999999990898e-05,-0.0005156932042012785,-0.0002761773788082511,-3.411144062487326e-05
150000000000.0,6,-0.01823056235,0.0110422879,0.0722553972,0.001992,-8.4e-05,-0.001839,-0.1680663677,-0.608992965,-9.786252167999999,-0.017172,0.06214,-2.8541,-3.8461538462986056e-06,-3.333333333332966e-05,3.0000000000085514e-05,0.0013265845079409172,0.0007557443949017806,-1.3683618197479763e-05
150000000000.0,6,-0.02079990465,0.017906942899999997,0.0538581218,-0.001222,-0.001125,-0.000775,-0.16848805364999997,-0.6086791521999999,-9.786252167999999,-0.017215,0.062108,-2.8541,-3.846153846076561e-06,9.999999999998899e-05,-2.0000000000020002e-05,-0.0012537905616114287,-0.001113805160092296,0.00040924872312742
150000000000.0,6,-0.0137096967,0.01144436055,0.039206986699999995,-0.002291,-5.3e-05,0.001356,-0.1688508997,-0.6083457260999999,-9.786252167999999,-0.017252,0.062074,-2.8541,-3.846153846076561e-06,-1.6666666666775853e-05,7.00000000000145e-05,0.00043481818709867337,0.0011015529773041877,-5.3365866324789346e-05
150000000000.0,6,-0.01301342455,0.002353596,0.048042778349999996,-0.000152,-6.9e-05,0.000293,-0.16909606595,-0.60823785295,-9.786350234499999,-0.017277,0.062063,-2.8541,-3.8461538462986056e-06,-1.666666666655381e-05,7.999999999996898e-05,0.0006629407906466045,0.0016082920265907408,-0.0005435963921094078
150000000000.0,6,-0.0014808041500000001,0.01218966595,0.05181833859999999,-0.004431,-3.6e-05,0.00242,-0.16910587259999998,-0.60774752045,-9.786350234499999,-0.017278,0.062013,-2.8541,-3.846153846076561e-06,-1.666666666655381e-05,-0.000140000000000029,0.0004219148753961399,-0.001862896819992077,0.00012243415053900253
150000000000.0,6,0.0028439284999999996,0.016720338249999998,0.0678227914,0.006252,0.000942,0.001369,-0.16909606595,-0.6077867470499999,-9.786350234499999,-0.017277,0.062017,-2.8541,9.999999999998899e-05,-1.6666666666775853e-05,4.999999999999449e-05,-0.0011325805024080954,-0.0009509494022565956,0.0001487148163963059
150000000000.0,6,-0.0169655045,0.01728912395,0.0705098135,0.00197,-8.9e-05,0.002431,-0.1694785253,-0.6077573271,-9.786350234499999,-0.017316,0.062014,-2.854,-2.4999999999941735e-05,-1.6666666666775853e-05,-4.999999999999449e-05,-0.00011976763860938044,-0.00034932131538800704,-0.00011298658294789377
150000000000.0,6,-0.01032640245,0.02378112625,0.06587126805,0.001989,0.000978,0.000294,-0.16968446494999997,-0.6076690672499999,-9.786350234499999,-0.017337,0.062005,-2.854,-2.4999999999941735e-05,-1.666666666655381e-05,1.0000000000065512e-05,0.000972971974060377,0.0010044959947672627,6.416676770337748e-05
150000000000.0,6,-0.00150041745,0.021908056099999997,0.055417379149999994,-0.000145,0.000996,0.000291,-0.1696942716,-0.6074435143,-9.786350234499999,-0.017338,0.061982,-2.854,-2.500000000016378e-05,-1.4285714285744433e-05,9.99999999995449e-06,-0.00043166438107188065,-0.0001529871251475523,2.1894340001882284e-05
150000000000.0,6,0.0015886773,0.01897586775,0.04735631285,-0.002288,-5.2e-05,0.000289,-0.1696354317,-0.6070512482999999,-9.786350234499999,-0.017332,0.061941,-2.854,-2.4999999999941735e-05,-1.4285714285744433e-05,-9.00000000000345e-05,1.301501111203307e-05,-0.0019793099932940983,0.000578335103451455
150000000000.0,6,0.0043737659,0.025369803549999997,0.051122066449999996,0.000921,0.000987,0.000293,-0.16957659179999998,-0.60670801555,-9.786448301,-0.017326,0.061907,-2.854,9.999999999998899e-05,-1.4285714285744433e-05,3.0000000000085514e-05,-0.0008356197996988862,0.0010369295096710474,-0.0003920297635033321
150000000000.0,6,-0.0019024901,0.03529413335,0.05324030285,0.000917,-7.7e-05,-0.000773,-0.1697334982,-0.60631574955,-9.786448301,-0.017342,0.061866,-2.854,-2.4999999999941735e-05,-1.4285714285522388e-05,0.00012000000000000899,0.0002873066114134487,0.0020925815458667785,-0.0006382838802878321
150000000000.0,6,-0.0027262486999999995,0.0273605535,0.05953617215,0.00305,-9.5e-05,-0.000769,-0.16980214475,-0.6061588431499999,-9.786448301,-0.017349,0.061851,-2.854,-2.4999999999941735e-05,-1.4285714285744433e-05,-9.99999999995449e-06,3.628747331523019e-05,0.00017209141978979936,0.00010738387531580851
150000000000.0,6,-0.0008629851999999999,0.027007514099999998,0.05566254539999999,-0.0012,0.002071,-0.00078,-0.16957659179999998,-0.6059529035,-9.786448301,-0.017326,0.06183,-2.8541,-2.500000000016378e-05,-1.4285714285744433e-05,-1.0000000000065512e-05,0.0008604706058198824,-0.0004541309799630522,3.453178607840113e-05
150000000000.0,6,0.01099325465,0.02560516315,0.045816668799999995,-0.000165,-0.001135,0.000295,-0.169458912,-0.60545276435,-9.786448301,-0.017314,0.061778,-2.854,-2.4999999999941735e-05,-1.4285714285744433e-05,-8.000000000008001e-05,-0.0004473611394533311,-0.0015087097739814315,0.0004485339037428038
150000000000.0,6,0.024771597899999998,0.0048444850999999995,0.0419332354,-0.001223,-6e-05,0.000291,-0.1691647125,-0.6053448911999999,-9.786448301,-0.017284,0.061767,-2.854,9.999999999998899e-05,9.999999999998899e-05,-1.999999999990898e-05,-0.0007992443432886936,-8.792979957328306e-05,-0.00018607227249220482
150000000000.0,6,0.0206920315,0.0129840046,0.045404789499999994,-0.000145,0.002062,0.001356,-0.16868418665,-0.60509972495,-9.7865463675,-0.017235,0.061742,-2.854,-4.999999999988347e-05,-5.0000000000105516e-05,7.999999999996898e-05,0.0005085791206265733,0.0015955510328540257,-0.00043906183514766384
150000000000.0,6,0.00027458619999999996,0.0152591474,0.06097774969999999,-0.001246,-0.002192,0.001362,-0.16876263984999998,-0.6048349453999999,-9.7865463675,-0.017243,0.061715,-2.854,-5.0000000000105516e-05,-4.999999999988347e-05,-4.999999999999449e-05,-8.662093997664766e-05,-0.001673911750816659,0.0006849423299933322
150000000000.0,6,-0.0028341218499999994,0.00752170055,0.07128453885,0.004102,-0.001169,0.000302,-0.1689489662,-0.6050310783999999,-9.7865463675,-0.017262,0.061735,-2.854,9.999999999998899e-05,9.999999999998899e-05,9.99999999995449e-06,-0.0007548005991958456,0.0005659399963697798,-0.0003469452521396854
150000000000.0,6,-0.0024712758,0.015553346899999999,0.0647042767,0.001974,-0.00115,-0.000769,-0.16901761275,-0.6049722385,-9.7865463675,-0.017269,0.06173,-2.854,-9.999999999998899e-05,-1.2499999999970868e-05,2.0000000000020002e-05,0.0013856416402990845,5.222628587331357e-05,-3.493117090927478e-05
150000000000.0,6,-0.00318716125,0.007384407449999999,0.053053976499999995,-0.002291,-5.1e-05,0.000289,-0.1690470327,-0.6047368788999999,-9.7865463675,-0.017271,0.061705,-2.854,9.999999999998899e-05,-1.2499999999970868e-05,-9.99999999995449e-06,-0.00021869348069485095,0.00028981366405766984,-4.142542862392573e-05
150000000000.0,6,0.0001765197,-0.00118660465,0.051249552899999995,0.001982,-8.5e-05,-0.000771,-0.16911567924999998,-0.60484475205,-9.7865463675,-0.017278,0.061716,-2.854,-2.4999999999941735e-05,-1.2499999999970868e-05,2.999999999997449e-05,-0.0003651275867722348,0.000224337353943449,0.0003518206878675989
150000000000.0,6,0.0013140911,-0.0002941995,0.04839581775,0.000927,0.002054,0.000291,-0.16905683935,-0.6049918517999999,-9.7865463675,-0.017273,0.061731,-2.854,-2.4999999999941735e-05,-1.2500000000192912e-05,-1.0000000000065512e-05,0.00012330239174099256,-0.00012227527573172026,-0.00037144711201120284
150000000000.0,6,-0.006197802799999999,0.00793357985,0.044218184849999995,-0.00014,0.002063,0.000289,-0.1690274194,-0.6048349453999999,-9.7865463675,-0.017269,0.061715,-2.854,-2.500000000016378e-05,-1.2499999999970868e-05,-1.4999999999987246e-05,-0.00066815417659144,-0.0002941185513427591,-0.0001205396110516288
150000000000.0,6,-0.0065704555,0.009296704199999999,0.04093295709999999,-0.000149,0.000997,0.000291,-0.16910587259999998,-0.60470745895,-9.7865463675,-0.017277,0.061702,-2.854,-2.4999999999941735e-05,-1.2499999999970868e-05,-1.4999999999987246e-05,0.0010421805487375174,-0.0007013860079254641,0.0005135443894597747
150000000000.0,6,-0.0032165811999999997,0.0062958693,0.050062948249999996,0.000932,0.002055,-0.000776,-0.16901761275,-0.6046976522999999,-9.7865463675,-0.017269,0.061701,-2.854,9.999999999998899e-05,-1.2499999999970868e-05,2.999999999997449e-05,-0.0009040180486057786,0.0012745092547059578,-0.0006402318547255037
150000000000.0,6,-0.005187717849999999,-0.0003726527,0.0677051116,0.00091,-7.7e-05,0.000295,-0.16913529254999998,-0.6049133986,-9.7865463675,-0.017281,0.061723,-2.854,-9.999999999998899e-05,-1.2499999999970868e-05,-6.999999999990347e-05,0.0007802231021803718,-0.0011318453482678237,0.0003503227800714104
150000000000.0,6,-0.00281450855,0.0104342756,0.06814641085,0.000901,-0.001143,0.000297,-0.169262779,-0.6049526251999999,-9.7865463675,-0.017294,0.061727,-2.854,9.999999999998899e-05,4.999999999988347e-05,1.999999999990898e-05,-3.647747038250382e-05,-0.0001223392854923233,0.00032524302419381645
150000000000.0,6,0.0122190859,0.00985568325,0.0470523067,0.000901,-0.001143,0.000297,-0.16918432579999998,-0.6048153320999999,-9.7865463675,-0.017286,0.061713,-2.854,-1.6666666666775853e-05,5.0000000000105516e-05,8.000000000008001e-05,-0.0011184968893018232,0.0012795879986966519,-0.0007095319295803981
150000000000.0,6,0.010071429549999998,0.00979684335,0.053181462949999994,-0.001225,-5.9e-05,0.000291,-0.1689881928,-0.6050506917,-9.7865463675,-0.017265,0.061738,-2.854,-1.666666666655381e-05,-9.999999999998899e-05,-4.999999999999449e-05,0.0008426460768825028,-0.0003209959033469989,0.00029635798982624584
150000000000.0,6,0.0052563644,0.00865927195,0.04213917504999999,-0.001216,0.001006,0.000289,-0.1688116731,-0.6045211326,-9.7865463675,-0.017247,0.061683,-2.854,-1.666666666655381e-05,4.999999999988347e-05,-4.999999999999449e-05,-0.0009877784869130046,-0.0011577703546785667,-1.422343938878301e-05
150000000000.0,6,0.012729031699999999,0.0046875787,0.06026186425,-0.000156,-0.001131,-0.00184,-0.16865476670000001,-0.6044426794,-9.7865463675,-0.017232,0.061675,-2.854,-1.6666666666775853e-05,5.0000000000105516e-05,6.999999999990347e-05,0.00017389559694727663,0.0008478865092469423,-0.0001781646061204123
150000000000.0,6,0.02676234785,0.011385520649999998,0.06236048735,0.00199,0.000982,-0.000773,-0.16817424085,-0.6044034528,-9.7865463675,-0.017182,0.061671,-2.8541,-1.6666666666775853e-05,-5.0000000000105516e-05,7.00000000000145e-05,0.0008200283408639347,0.0011233751370709477,-5.7861239946832566e-06
150000000000.0,6,0.010198915999999999,0.0083944924,0.057731748549999996,-0.002287,-4.8e-05,-0.000778,-0.1682232741,-0.6042563530499999,-9.7865463675,-0.017187,0.061656,-2.8541,-1.666666666655381e-05,-4.999999999988347e-05,-0.00017999999999995797,-0.00020672152764478202,-0.0027748502690367882,0.00039254814313616215
150000000000.0,6,-0.0038834333999999996,0.0051582979,0.06478272989999999,-0.002298,-0.002178,-0.001842,-0.16835076055,-0.6040111868,-9.7865463675,-0.017201,0.061631,-2.8541,9.999999999998899e-05,9.999999999998899e-05,7.999999999996898e-05,-0.001133386123241778,0.00216313519750444,-0.0006920997513913119
150000000000.0,6,0.00842391235,0.0010002783,0.0557998385,-0.000156,-0.00113,-0.00184,-0.16838998714999998,-0.6040406067499999,-9.7865463675,-0.017204,0.061634,-2.8541,-9.999999999998899e-05,-9.999999999998899e-05,-9.99999999995449e-06,0.0017819478278644219,-0.001497599979566111,0.000530122184627585
150000000000.0,6,0.0037461403,0.005501530649999999,0.0512887795,0.006243,-0.00012,0.000304,-0.1683409539,-0.60435441955,-9.7865463675,-0.0172,0.061666,-2.8541,9.999999999998899e-05,9.999999999998899e-05,9.99999999995449e-06,-0.0017647816386090753,0.0011539893884442431,-0.0005243597153021806
150000000000.0,6,-0.013180137599999999,0.00057859235,0.048464464299999996,-0.002278,0.001017,-0.00078,-0.168478247,-0.6040700267,-9.7865463675,-0.017213,0.061637,-2.8541,7.692307692375167e-06,-5.0000000000105516e-05,-2.999999999997449e-05,0.000770862771116515,-0.00048059066685568474,0.0003086936088176062
150000000000.0,6,-0.01883857465,-0.00392266,0.0414232896,-0.004403,0.0021,-0.000786,-0.16865476670000001,-0.6040504134,-9.7865463675,-0.017232,0.061635,-2.8541,7.692307692153122e-06,-4.999999999988347e-05,-9.99999999995449e-06,7.294121209283633e-06,-0.0003116614416074359,4.137218884731064e-06
150000000000.0,6,-0.01369989005,-0.0010787315,0.0475622525,-0.000163,-6.9e-05,0.00136,-0.16886070635,-0.6040504134,-9.7865463675,-0.017252,0.061635,-2.8541,7.692307692375167e-06,9.999999999998899e-05,9.999999999998899e-05,4.193086695244985e-05,0.002330343487083386,-0.0006176144367992797
150000000000.0,6,-0.002157463,0.00457970555,0.0634097989,0.000903,-7.7e-05,0.001362,-0.16888031965,-0.6041778998499999,-9.7865463675,-0.017254,0.061648,-2.8541,7.692307692375167e-06,-9.999999999998899e-05,-0.00014999999999998348,-0.00017955573348511777,-0.002944110768253516,0.000980716306423851
150000000000.0,6,0.019348520449999997,0.008816178349999999,0.0568393434,-0.000178,-0.003263,-0.000769,-0.16883128639999997,-0.6040700267,-9.7865463675,-0.01725,0.061637,-2.8541,7.692307692153122e-06,9.999999999998899e-05,9.999999999998899e-05,0.0003130330195560693,0.0010453016753344535,-0.0006324599119907348
150000000000.0,6,0.016465365349999997,0.0076295737,0.05099458,0.000886,-0.002208,0.001366,-0.1687920598,-0.60408964,-9.7865463675,-0.017246,0.061639,-2.8541,7.692307692375167e-06,-9.999999999998899e-05,-3.0000000000085514e-05,0.00040381888898387286,-7.716774085841926e-05,0.0002935505382783421
150000000000.0,6,-0.03617673185,-0.009669356899999999,0.06924475564999999,-0.002269,0.002082,-0.000782,-0.16927258564999997,-0.6041484799,-9.7865463675,-0.017295,0.061645,-2.8541,7.692307692375167e-06,-1.1111111111183902e-05,4.999999999999449e-05,-0.0008111875744630376,0.0008038199228277421,-0.0003822029574055974
150000000000.0,6,-0.019946726099999996,0.0275959131,0.0690976559,0.003039,-0.001159,-0.000767,-0.16964523834999998,-0.6040013801499999,-9.7865463675,-0.017333,0.06163,-2.8541,7.692307692375167e-06,-1.1111111111183902e-05,-4.999999999999449e-05,0.0001237348704256902,-0.0008591731409244296,1.9869764784463673e-05
150000000000.0,6,0.0041972462,0.01726951065,0.05953617215,-0.002301,-0.001116,0.000291,-0.16954717184999998,-0.6036973739999999,-9.7865463675,-0.017322,0.061599,-2.8541,7.692307692153122e-06,-1.1111111110961858e-05,-9.99999999995449e-06,0.0006552667676509305,0.00045631526491796137,0.00017003055971703818
150000000000.0,6,0.01405292945,-0.0026183755499999996,0.04893518349999999,-0.002301,-0.001115,0.000291,-0.16937065215,-0.60341298115,-9.786644434,-0.017305,0.06157,-2.8541,7.692307692375167e-06,-1.1111111111183902e-05,-9.99999999995449e-06,-0.0002575651603660134,-0.0005357531017371464,-5.7571237663700536e-05
150000000000.0,6,0.017416610399999997,0.0060997363,0.046248161399999994,0.00091,-0.001139,-0.001838,-0.16914509919999998,-0.60345220775,-9.786644434,-0.017282,0.061574,-2.8541,7.692307692375167e-06,-1.1111111111183902e-05,1.999999999990898e-05,0.0006015442441035662,0.00014274587858031929,0.0003238042153423104
150000000000.0,6,-0.0057074703,0.01317033095,0.04162922925,-0.00231,-0.002181,0.000293,-0.16937065215,-0.60304032845,-9.786644434,-0.017304,0.061532,-2.8541,7.692307692153122e-06,-1.1111111111183902e-05,7.00000000000145e-05,-0.0006538609933921247,0.0012739679541380333,-0.000535315094142369
150000000000.0,6,-0.0188876079,0.0058643767,0.04327674645,-0.000151,0.000998,0.000291,-0.16965504499999998,-0.60292264865,-9.786644434,-0.017334,0.06152,-2.8541,7.692307692375167e-06,-1.1111111110961858e-05,-3.999999999992898e-05,-0.0007430395319981131,-0.0005635109823802775,2.1209053570336867e-05
150000000000.0,6,-0.0150630144,0.0162986523,0.08427835009999998,0.003041,-9.4e-05,0.000299,-0.1698904046,-0.6028736154,-9.786644434,-0.017358,0.061515,-2.8541,-5.0000000000105516e-05,-1.1111111111183902e-05,-1.0000000000065512e-05,-0.00013119875253575497,2.3123092206311924e-05,-0.00011470519683728919
150000000000.0,6,-0.0009022117999999999,0.0151610809,0.0742559538,-0.000159,-6.8e-05,0.000293,-0.1698315647,-0.60278535555,-9.786644434,-0.017352,0.061506,-2.8541,-4.999999999988347e-05,-1.1111111111183902e-05,-0.00017999999999995797,-4.134833387757497e-05,-0.003840481750538194,0.0009170385344370036
150000000000.0,6,0.01787752295,0.010728475099999999,0.035490266349999994,0.005163,-0.002241,-0.000761,-0.16976291815,-0.6029912951999999,-9.786644434,-0.017344,0.061527,-2.8541,9.999999999998899e-05,0.00010000000000021103,0.00019000000000002348,0.0011063845795653698,0.004373988364014814,-0.0007526740128328269
150000000000.0,6,0.014445195449999998,0.0036971070499999996,0.00889463155,-0.00548,0.001043,-0.000786,-0.16946871865,-0.6024028962,-9.786644434,-0.017314,0.061466,-2.8541,-9.999999999998899e-05,-3.333333333332966e-05,-3.3333333333551707e-06,-0.0004382514566166479,-0.0005855769278901857,-8.326800177224647e-05
150000000000.0,6,0.004354152599999999,0.0038049802,0.02654660155,-0.000151,0.000999,0.000291,-0.16940987874999996,-0.6025009627,-9.786644434,-0.017308,0.061477,-2.8541,9.999999999998899e-05,-3.333333333355171e-05,-3.3333333333551707e-06,-0.0003705000394636643,3.187137263993556e-05,-2.234200044140544e-05
150000000000.0,6,-0.008649465299999999,0.0108069283,0.059016419699999996,0.001996,0.002047,-0.000774,-0.1694196854,-0.6024715427499999,-9.786644434,-0.017309,0.061474,-2.8541,-5.0000000000105516e-05,-3.333333333332966e-05,-3.3333333333551707e-06,-7.025692615962587e-05,-6.132178778761599e-06,0.00011229666579157249
150000000000.0,6,-0.015455280399999998,0.02378112625,0.0744520868,-0.001215,0.002071,0.001355,-0.1694981386,-0.60212831,-9.786644434,-0.017318,0.061439,-2.8541,-4.999999999988347e-05,0.00010000000000021103,8.000000000008001e-05,0.0003578363040702831,0.0004369556153349663,-0.0003502358812029205
150000000000.0,6,0.0008629851999999999,0.013484143749999998,0.06263507355,-0.000164,-0.001132,-0.000773,-0.16950794525,-0.6020106301999999,-9.786644434,-0.017319,0.061426,-2.8541,9.999999999998899e-05,-3.333333333332966e-05,2.666666666661932e-05,-0.00031240436357538037,0.0004328309669754393,9.898638892136269e-05
150000000000.0,6,0.0246146915,0.01118938765,0.045287109699999994,0.001959,-0.001151,0.001366,-0.1691647125,-0.6019517902999999,-9.786644434,-0.017284,0.061421,-2.8541,-2.4999999999941735e-05,-3.333333333355171e-05,2.6666666666730343e-05,-6.780506574713407e-05,0.0004089661847117565,-0.00033580445281053417
150000000000.0,6,0.0190837409,0.005275977699999999,0.03571581929999999,-0.000178,-0.002197,0.000297,-0.16901761275,-0.60188314375,-9.786742500499999,-0.017269,0.061414,-2.8541,-2.500000000016378e-05,-3.333333333332966e-05,2.666666666661932e-05,0.0011780436258198856,0.0005702734050552216,0.0011045909844511204
150000000000.0,6,0.0055897905,0.01011065615,0.0405210778,-0.003361,-4e-05,0.000287,-0.16899799944999996,-0.60162817085,-9.786742500499999,-0.017266,0.061388,-2.8541,-2.4999999999941735e-05,-9.999999999998899e-05,0.00012000000000000899,-0.0002523412911831918,0.0013469677999793372,0.0007280214503916915
150000000000.0,6,0.00183384355,0.0081983594,0.04233530804999999,-0.000173,-0.002196,-0.000771,-0.16897838615,-0.6013633912999999,-9.786742500499999,-0.017265,0.061361,-2.8541,-2.4999999999941735e-05,-3.333333333332966e-05,-4.999999999999449e-05,0.0008622604430126302,-0.0018277638200714375,0.00012810190427420265
150000000000.0,6,9.806649999999999e-06,0.004020726499999999,0.043541526000000004,-0.001233,-5.8e-05,0.001359,-0.1689489662,-0.60121629155,-9.786742500499999,-0.017262,0.061346,-2.8541,9.999999999998899e-05,-3.333333333332966e-05,7.999999999996898e-05,-0.0005575097719501265,0.0009952843725404836,-0.00024274574373639446
150000000000.0,6,0.0007158854499999999,0.01424906245,0.055819451799999996,0.000914,0.000991,0.000293,-0.1689097396,-0.6011280317,-9.786742500499999,-0.017258,0.061336,-2.8541,5.0000000000105516e-05,-3.333333333332966e-05,7.999999999996898e-05,0.001709006626766152,0.0026066804523401377,0.0014661085766567994
150000000000.0,6,0.008237586,0.0177500365,0.05910467955,0.003034,-9.3e-05,0.001366,-0.16880186644999998,-0.6011868716,-9.786742500499999,-0.017246,0.061342,-2.8541,5.0000000000105516e-05,-3.333333333332966e-05,4.999999999999449e-05,-0.0007654784265676839,0.0003017937225955336,-4.578277946126752e-05
150000000000.0,6,0.0066096821,0.007825706699999999,0.04923918965,0.000905,-7.5e-05,0.000295,-0.16882147975,-0.60113783835,-9.786742500499999,-0.017248,0.061338,-2.8541,-0.00010000000000021103,-3.333333333332966e-05,-2.0000000000020002e-05,1.041019060635251e-06,-0.0007068887499304122,0.00018487039055162247
150000000000.0,6,-0.00018632635,-0.00267721545,0.03994248545,-0.000179,-0.002197,0.000297,-0.1690470327,-0.6012653248,-9.786742500499999,-0.017272,0.06135,-2.8541,0.00010000000000021103,-3.333333333332966e-05,1.5000000000098268e-05,-0.0005032769653412345,-0.00047883892875533185,0.00045782878915703873
150000000000.0,6,-0.0105127288,-0.00418743955,0.0372456567,-0.003364,0.001024,0.00242,-0.16919413245,-0.6012457115,-9.786742500499999,-0.017287,0.061349,-2.8541,-5.000000000032756e-06,-5.0000000000105516e-05,1.4999999999987246e-05,-0.0005676711555290398,0.0011403538950962577,-0.0003508361969077889
150000000000.0,6,-0.00914960445,-0.0042855060499999995,0.04786625864999999,-0.000148,0.001001,-0.000776,-0.16937065215,-0.6013045513999999,-9.786742500499999,-0.017304,0.061354,-2.8541,-5.000000000032756e-06,-4.999999999988347e-05,-6.0000000000060005e-05,0.0008997052525699101,-0.0006935366127100995,0.0007644921729669518
150000000000.0,6,-0.00204958985,-0.0014709974999999999,0.06357651195,-0.002307,-0.002178,-0.000774,-0.16958639844999998,-0.60127513145,-9.786742500499999,-0.017326,0.061351,-2.8541,-5.000000000032756e-06,9.999999999998899e-05,2.0000000000020002e-05,-0.0006048263933231685,-0.0004965471811630984,-0.00011397169038793176
150000000000.0,6,0.006060509699999999,0.006246836049999999,0.0556429321,-0.001237,-0.001123,0.000293,-0.16961581839999998,-0.6013633912999999,-9.786742500499999,-0.017329,0.06136,-2.8541,-5.000000000032756e-06,-7.692307692375167e-06,2.999999999997449e-05,0.0004927000920646324,0.0010998332483407314,-0.00044852981702919736
150000000000.0,6,0.0027458619999999995,0.00795319315,0.046660040699999995,0.000881,-7.6e-05,0.000323,-0.16959620509999998,-0.60141242455,-9.786742500499999,-0.017327,0.061366,-2.8541,-5.000000000032756e-06,-7.692307692153122e-06,-9.99999999995449e-06,1.4650785284786583e-05,-0.0003336021099282771,0.0005822702656668455
150000000000.0,6,-0.0040011132,0.0033832942499999997,0.04830755789999999,-0.000175,0.002063,0.001385,-0.16957659179999998,-0.60133397135,-9.786742500499999,-0.017326,0.061358,-2.8541,-4.999999999810711e-06,-7.692307692375167e-06,9.99999999995449e-06,0.00014149981755796903,0.00016321822072162817,-4.424094446758842e-06
150000000000.0,6,-0.0030302548499999997,0.0031185146999999996,0.05055328075,-0.000178,0.000998,0.00032,-0.16965504499999998,-0.60137319795,-9.786742500499999,-0.017333,0.061361,-2.8541,-5.000000000032756e-06,-7.692307692375167e-06,-4.999999999999449e-05,-0.0006162491673663006,-0.0004310138605130298,4.471833136732162e-06
150000000000.0,6,0.004393379199999999,0.00250069575,0.0391873734,-0.001243,-5.6e-05,-0.001815,-0.16958639844999998,-0.60135358465,-9.786742500499999,-0.017327,0.061359,-2.8541,-5.000000000032756e-06,-7.692307692153122e-06,2.999999999997449e-05,0.0007061808461938379,-0.0005903601303069994,0.0004137035707764136
150000000000.0,6,0.0131605243,0.0032165811999999997,0.04008958519999999,-0.000183,0.000998,0.001387,-0.16939026545,-0.60131435805,-9.786742500499999,-0.017306,0.061356,-2.8541,-5.000000000032756e-06,-7.692307692375167e-06,1.0000000000065512e-05,-0.0005856360342071654,0.0005495750557842349,-0.00036930616360830726
150000000000.0,6,0.00526617105,0.008816178349999999,0.045493049349999995,-0.004462,-0.001097,0.000316,-0.1694196854,-0.6009318987,-9.786742500499999,-0.01731,0.061316,-2.8541,-5.000000000032756e-06,-7.692307692375167e-06,2.999999999997449e-05,0.0002460690382788955,0.0010943857837590887,-0.0003737023213969959
150000000000.0,6,0.00024516625,0.0091594111,0.0505827007,0.005148,-0.000111,0.000331,-0.16934123219999997,-0.6009711253,-9.786742500499999,-0.017301,0.06132,-2.8541,-5.000000000032756e-06,-7.692307692375167e-06,-5.999999999994898e-05,4.138906471130854e-05,-0.0005558614714398225,0.00031851224885501295
150000000000.0,6,-0.0024810824500000003,0.0118072066,0.05790826824999999,0.000885,-7.4e-05,-0.000744,-0.169458912,-0.60107899845,-9.786742500499999,-0.017313,0.061331,-2.8541,-5.000000000032756e-06,-7.692307692153122e-06,1.999999999990898e-05,-2.781302597375246e-05,-4.045193995660945e-05,-1.1359326124033009e-05
150000000000.0,6,0.004167826249999999,0.005462304049999999,0.047728965549999995,0.000871,-0.001141,0.000325,-0.16951775189999999,-0.6011672583,-9.786742500499999,-0.017319,0.061341,-2.8541,-5.000000000032756e-06,-7.692307692375167e-06,4.0000000000040004e-05,0.0014074184564302622,0.0004460065921754186,0.0001158782852493101
150000000000.0,6,3.9226599999999995e-05,0.01116977435,0.030685007849999998,-0.000184,0.000998,0.001387,-0.16942949205,-0.6008926721,-9.786742500499999,-0.01731,0.061312,-2.8541,-5.000000000032756e-06,-7.692307692375167e-06,2.0000000000020002e-05,-0.00029917254113681624,-0.0008978643641457396,0.0003862798892597663
150000000000.0,6,0.0035892338999999997,0.0034029075499999997,0.03637286485,0.000874,-7.6e-05,0.001391,-0.1693804588,-0.60090247875,-9.786742500499999,-0.017306,0.061314,-2.8541,-4.999999999810711e-06,-7.692307692153122e-06,2.999999999997449e-05,0.0002690334048741222,0.0012849831118484367,-0.0003915712154689277
150000000000.0,6,0.006688135299999999,-0.0018240368999999999,0.044296638049999996,0.00088,-7.5e-05,0.000323,-0.16934123219999997,-0.6010691918,-9.786742500499999,-0.017302,0.06133,-2.8541,-5.000000000032756e-06,-7.692307692375167e-06,-3.999999999992898e-05,0.0002691461033370729,-0.0008372885706913191,0.00021233146683380388
150000000000.0,6,0.0094928372,0.008688691899999998,0.0430904201,0.001947,-8.4e-05,0.000325,-0.1693020056,-0.6011084184,-9.786742500499999,-0.017298,0.061334,-2.8541,-5.000000000032756e-06,9.999999999998899e-05,3.999999999992898e-05,-0.0008340585869483497,0.000568526700624572,-0.00020686567345590268
150000000000.0,6,0.0022947561,0.00979684335,0.0441495383,-0.001237,0.002074,0.000316,-0.16928239229999997,-0.60102015855,-9.786742500499999,-0.017296,0.061325,-2.8541,-5.000000000032756e-06,-5.0000000000105516e-05,-2.0000000000020002e-05,0.000472503518517145,-0.0007210109667175058,0.0002755173113130893
150000000000.0,6,0.0037951735499999993,0.0018828768,0.054309227700000004,0.000885,-7.4e-05,-0.000744,-0.16914509919999998,-0.6011868716,-9.786742500499999,-0.017281,0.061342,-2.8541,-5.000000000032756e-06,-4.999999999988347e-05,-1.999999999990898e-05,0.0018256862135982571,3.64773892185255e-05,0.00033038856987466225
150000000000.0,6,0.0029714149499999996,-0.0047660318999999994,0.05579003184999999,0.003013,-9.2e-05,0.000327,-0.169066646,-0.60156933095,-9.786742500499999,-0.017273,0.061381,-2.8541,-5.000000000032756e-06,4.999999999988347e-05,-3.0000000000085514e-05,-0.00029018190539518984,-0.0011194548234534363,0.0005006456038094131
150000000000.0,6,0.0065704555,-0.006472388999999999,0.04276680065,-0.000196,-0.001131,0.000323,-0.16907645265,-0.60164778415,-9.786742500499999,-0.017275,0.06139,-2.8541,0.00010000000000021103,5.0000000000105516e-05,8.000000000008001e-05,-0.0017469227468097925,0.0011197257202391064,-0.0008031905829755104
150000000000.0,6,0.00456009225,-0.0015102241,0.0236144132,-0.000192,-6.7e-05,0.001389,-0.16901761275,-0.6016772040999999,-9.786742500499999,-0.017268,0.061393,-2.8541,-2.7027027027504147e-06,-9.999999999998899e-05,-4.0000000000040004e-05,0.0005852800847644668,1.2384447522606479e-05,0.00018934056573993718
150000000000.0,6,-0.00020593964999999999,0.0057466969,0.0376771493,0.00088,-7.4e-05,0.000323,-0.16903722605,-0.60160855755,-9.786742500499999,-0.017271,0.061385,-2.8541,-2.7027027027504147e-06,4.999999999988347e-05,-4.0000000000040004e-05,0.0010634655306383106,0.0001917362245065224,0.00016854063212104475
150000000000.0,6,-0.0053740442,0.0016279038999999999,0.05563312545,0.001938,-0.001149,0.000327,-0.16925297235,-0.60166739745,-9.786742500499999,-0.017293,0.061392,-2.8541,-2.70270270252837e-06,5.0000000000105516e-05,0.0001100000000000545,-0.0009607082943592637,0.00034954665294706366,-0.0004180332682559018
150000000000.0,6,-0.0072176943999999995,0.0062958693,0.05427980775,-0.000187,-6.6e-05,0.000321,-0.16935103885,-0.60170662405,-9.786742500499999,-0.017303,0.061396,-2.854,-2.7027027027504147e-06,-9.999999999998899e-05,-7.00000000000145e-05,0.0001764302239772031,-0.0004473476496733575,0.00014397376781355442
150000000000.0,6,0.0031577413,0.007198081099999999,0.041119283449999995,-0.001232,0.002075,-0.000752,-0.169262779,-0.6015595242999999,-9.786742500499999,-0.017293,0.06138,-2.8541,-2.7027027027504147e-06,3.333333333332966e-05,4.0000000000040004e-05,0.00026125520869293983,9.584602320700242e-06,1.582182942211352e-05
150000000000.0,6,0.0041972462,0.005933023249999999,0.0324403982,0.004085,-0.0001,-0.000738,-0.16909606595,-0.6016379775,-9.786742500499999,-0.017276,0.061388,-2.8541,-2.7027027027504147e-06,3.333333333332966e-05,-1.0000000000065512e-05,-0.00045862753150983926,0.00017599673067159038,-0.00010414589313437195
150000000000.0,6,0.00444241245,-0.0114737805,0.02509521735,-0.000204,-0.002196,0.000325,-0.1690470327,-0.60188314375,-9.786742500499999,-0.017271,0.061414,-2.8541,-2.7027027027504147e-06,3.333333333332966e-05,4.0000000000040004e-05,0.00013842874999722699,-0.0003305134505611207,6.252533884948397e-05
150000000000.0,6,0.00522694445,0.0088455983,0.0375202429,-0.001254,-5.6e-05,0.00032,-0.16907645265,-0.60170662405,-9.786742500499999,-0.017274,0.061395,-2.8541,-2.70270270252837e-06,-9.999999999998899e-05,-2.999999999997449e-05,-0.00044880902467808736,-0.00010150526280927608,-4.177647003367202e-05
150000000000.0,6,0.00522694445,0.0088455983,0.0375202429,-0.001254,-5.6e-05,0.00032,-0.16907645265,-0.60170662405,-9.786742500499999,-0.017274,0.061395,-2.8541,-2.7027027027504147e-06,9.999999999998899e-05,9.99999999995449e-06,-9.30856855597545e-05,0.00016253093488116654,-0.00014341067211603997
150000000000.0,6,-0.0012160246,0.012944777999999999,0.0517398854,0.000874,-7.5e-05,0.001391,-0.16907645265,-0.60162817085,-9.786742500499999,-0.017274,0.061387,-2.854,-2.7027027027504147e-06,-5.0000000000105516e-05,9.99999999995449e-06,0.0007232766856499623,0.0001584974804207384,0.00010385799112638816
150000000000.0,6,0.0040795664,-0.00120621795,0.0520340849,0.001946,-8.3e-05,0.000325,-0.16897838615,-0.6018341105,-9.786742500499999,-0.017265,0.061409,-2.854,-2.7027027027504147e-06,-4.999999999988347e-05,-2.999999999997449e-05,7.940591230339022e-05,0.00024794055013832583,-5.3952387171235516e-05
150000000000.0,6,0.0102185293,0.00250069575,0.0536619888,0.004077,-0.001165,-0.000737,-0.16883128639999997,-0.60209889005,-9.786644434,-0.01725,0.061436,-2.854,-2.7027027027504147e-06,2.4999999999941735e-05,-2.0000000000020002e-05,-0.00019735441731036363,-0.00016473900660707308,0.00028954496709765465
150000000000.0,6,0.0111403544,0.008688691899999998,0.03139108665,-0.004446,0.001036,0.000312,-0.16871360659999998,-0.6016968174,-9.786742500499999,-0.017237,0.061395,-2.854,-2.7027027027504147e-06,2.4999999999941735e-05,-1.999999999990898e-05,0.0007653970676867877,-0.00044386897148340765,0.00016827502455354915
150000000000.0,6,0.00244185585,-0.00042168595,0.0270467407,-0.000191,-0.001129,-0.000744,-0.16884109304999997,-0.6018733370999999,-9.786742500499999,-0.01725,0.061412,-2.854,-2.70270270252837e-06,2.500000000016378e-05,9.99999999995449e-06,-0.0008187387789021505,-0.0004656730768000106,-7.599494421256514e-05
150000000000.0,6,-0.00234378935,0.0019122967499999998,0.03617673185,-0.001237,0.002075,0.000316,-0.16884109304999997,-0.60180469055,-9.786742500499999,-0.017251,0.061406,-2.854,-2.7027027027504147e-06,2.4999999999941735e-05,2.0000000000020002e-05,-0.0002570753798935149,0.0008759752124078979,-0.0004521487666533097
150000000000.0,6,-0.0075315072,0.00952225715,0.05398560825,0.001949,0.000982,0.001391,-0.16889993294999997,-0.60178507725,-9.786742500499999,-0.017256,0.061404,-2.854,-2.7027027027504147e-06,-5.0000000000105516e-05,1.0000000000065512e-05,-0.0008485835073364784,0.00027557557557700285,-0.00010287714082854449
150000000000.0,6,0.0046875787,0.0028439284999999996,0.05920274605,0.001951,-8.1e-05,-0.000742,-0.16884109304999997,-0.6019910169,-9.786742500499999,-0.017251,0.061425,-2.854,-2.7027027027504147e-06,-4.999999999988347e-05,9.99999999995449e-06,0.0013308757068209581,0.0005716784720979362,5.952540632170322e-05
150000000000.0,6,-0.00104931155,0.00116699135,0.051122066449999996,0.000871,-0.001139,0.000325,-0.16893915955,-0.6021086967,-9.786644434,-0.01726,0.061437,-2.854,-2.7027027027504147e-06,2.4999999999941735e-05,-2.0000000000020002e-05,-4.209841635849365e-06,-0.0011948051609376176,0.0003908285256989663
150000000000.0,6,-0.0024908890999999996,0.00954187045,0.033931009,-0.001255,-5.6e-05,0.00032,-0.16899799944999996,-0.60180469055,-9.786742500499999,-0.017266,0.061406,-2.854,-2.70270270252837e-06,2.4999999999941735e-05,-2.999999999997449e-05,0.0006142652036189439,3.42755939319872e-05,7.699177577250027e-05
150000000000.0,6,-0.00477583855,0.00640374245,0.0328915041,-0.000202,-0.001131,0.001391,-0.16910587259999998,-0.6016575907999999,-9.786742500499999,-0.017277,0.061391,-2.854,-2.7027027027504147e-06,2.500000000016378e-05,2.999999999997449e-05,-0.00012351697893690783,0.0008137096414480016,-0.0002155252613995906
150000000000.0,6,-0.01065982855,0.006766588499999999,0.04635603455,0.000887,0.000992,0.000322,-0.16920393909999998,-0.6015791376,-9.786742500499999,-0.017287,0.061382,-2.854,-2.7027027027504147e-06,2.4999999999941735e-05,9.99999999995449e-06,-0.0011271161980323519,-0.00020615198872175888,-8.930559205153066e-05
150000000000.0,6,-0.00824739265,0.00556037055,0.047405346099999995,0.00194,-8.4e-05,0.001393,-0.16937065215,-0.60156933095,-9.786742500499999,-0.017304,0.061381,-2.854,-2.7027027027504147e-06,-5.0000000000105516e-05,-9.99999999995449e-06,-0.00042645698953980293,8.561563658138205e-05,-0.00015680596456119078
150000000000.0,6,-0.00197113665,0.01109132115,0.0525048041,-0.000166,0.002067,-0.00075,-0.16921374574999998,-0.60141242455,-9.786742500499999,-0.017288,0.061366,-2.854,-2.7027027027504147e-06,-4.999999999988347e-05,-1.0000000000065512e-05,0.0015881295432000203,-0.0006445100722591857,0.00039132227689131494
150000000000.0,6,-0.00128467115,0.006286062649999999,0.05310300974999999,-0.000166,0.002067,-0.00075,-0.16915490584999998,-0.6014026178999999,-9.786742500499999,-0.017282,0.061364,-2.854,-2.70270270252837e-06,9.999999999998899e-05,4.999999999999449e-05,-0.0004912927264764666,0.0008692943009727117,-0.0004849919802311642
150000000000.0,6,-0.0080610663,0.0070019481,0.0444241245,-0.000194,-6.6e-05,0.001389,-0.169262779,-0.60135358465,-9.786742500499999,-0.017293,0.06136,-2.854,-2.7027027027504147e-06,-9.999999999998899e-05,-4.999999999999449e-05,-0.0006585842783635026,-0.000832687664038767,0.0003410703851894903
150000000000.0,6,-0.007766866799999999,0.013082071099999999,0.037853669,0.000892,0.000993,-0.000746,-0.16925297235,-0.60115745165,-9.786742500499999,-0.017292,0.06134,-2.854,-2.7027027027504147e-06,4.999999999988347e-05,-1.999999999990898e-05,0.00023046756800462753,-7.703494494992746e-05,1.5201831377043007e-08
150000000000.0,6,-0.012729031699999999,0.012552512,0.040697597499999995,0.00089,0.002056,0.001387,-0.16923335905,-0.60107899845,-9.786742500499999,-0.01729,0.061331,-2.854,-2.7027027027504147e-06,5.0000000000105516e-05,4.999999999999449e-05,-0.00029679877132908483,0.0004173877445343699,-0.00023894715972225256
150000000000.0,6,-0.02195708935,-0.0025105023999999997,0.0601343778,0.004091,0.002029,0.001393,-0.16942949205,-0.6014222311999999,-9.786742500499999,-0.017311,0.061367,-2.8539,-2.7027027027504147e-06,-9.999999999998899e-05,-1.0000000000065512e-05,0.00023823537358701186,-0.0003992453366818971,0.00031031063773720446
150000000000.0,6,0.021300043799999998,-0.00709020795,0.04574802225,0.000873,-7.5e-05,0.001391,-0.16899799944999996,-0.60178507725,-9.786742500499999,-0.017266,0.061403,-2.8539,-2.7027027027504147e-06,9.999999999998899e-05,-9.99999999995449e-06,0.00026722292558263583,0.0005124644886320695,-0.00011263012077963874
150000000000.0,6,0.0115914603,-0.0019417166999999998,0.0060997363,-0.003398,-0.001104,0.000318,-0.16886070635,-0.6016968174,-9.786742500499999,-0.017252,0.061395,-2.8539,-2.70270270252837e-06,-5.0000000000105516e-05,2.999999999997449e-05,-0.0002064962945897142,0.00026046760835085614,-9.6911586178694e-05
150000000000.0,6,0.0065508421999999995,-0.0244185585,-0.0009218250999999998,-0.005528,-2.2e-05,0.00138,-0.1687528332,-0.60166739745,-9.786742500499999,-0.017242,0.061391,-2.8539,-2.7027027027504147e-06,-4.999999999988347e-05,-4.999999999999449e-05,0.0006807870686759837,-0.0004293745835604046,0.00021600410435718143
150000000000.0,6,0.01717144415,-0.025722842949999998,0.0349705139,-0.000221,-0.002199,0.003528,-0.16860573345,-0.6020106301999999,-9.786742500499999,-0.017226,0.061426,-2.8539,-2.7027027027504147e-06,9.999999999998899e-05,2.999999999997449e-05,-0.0013845632388569395,0.0003464505721384459,-0.0003739168169625551
150000000000.0,6,0.0155925735,0.004834678449999999,0.06489060305,0.001958,0.002048,0.001389,-0.16837037385,-0.6021871499,-9.786644434,-0.017202,0.061444,-2.8539,-2.7027027027504147e-06,-5.0000000000105516e-05,-1.4999999999987246e-05,0.0005724864161122667,-0.0011106838917920303,0.0008873544478044393
150000000000.0,6,0.011885659799999998,0.0117287534,0.07282418289999999,0.000893,0.000994,-0.000746,-0.16825269404999998,-0.60219695655,-9.786644434,-0.01719,0.061446,-2.8539,-2.7027027027504147e-06,-4.999999999988347e-05,-1.4999999999987246e-05,0.0006061675462818855,0.0007308099066323237,-0.0005348187780579439
150000000000.0,6,0.00067665885,0.0008629851999999999,0.07070594649999999,0.003018,-8.9e-05,-0.00074,-0.16827230734999998,-0.6025499959499999,-9.786644434,-0.017192,0.061482,-2.8539,-2.70270270252837e-06,9.999999999998899e-05,9.00000000000345e-05,-7.481766217076746e-05,0.0002572071126147879,0.000299292258155448
150000000000.0,6,0.007109821249999999,-0.0023830159499999997,0.059467525599999994,0.001951,-8e-05,-0.000742,-0.16811540094999997,-0.60290303535,-9.786644434,-0.017177,0.061518,-2.8539,-2.7027027027504147e-06,-9.999999999998899e-05,-8.000000000008001e-05,-0.0002953424989513981,-0.0006769336793590597,-0.00022267706467773984
150000000000.0,6,-0.0005099458,-0.0012454445499999998,0.031626446249999995,-0.001252,-0.001118,-0.001813,-0.16813501425,-0.6029912951999999,-9.786644434,-0.017178,0.061527,-2.8539,-2.7027027027504147e-06,4.999999999988347e-05,2.999999999997449e-05,0.0010203321451926206,-0.00028612681849748967,0.00028855748682940496
150000000000.0,6,0.008757338449999999,-0.01787752295,-0.0020397832,-0.003383,-3.6e-05,-0.000751,-0.1679683012,-0.6029618752499999,-9.786644434,-0.017162,0.061524,-2.8539,0.00010000000000021103,5.0000000000105516e-05,3.0000000000085514e-05,-0.0005490379040198751,0.0002327391410319457,0.00035504041417389054
150000000000.0,6,0.007286340949999999,-0.0079826131,0.01322917085,-0.00231,-4.4e-05,-0.001817,-0.16785062139999998,-0.6028343888,-9.786644434,-0.017149,0.061511,-2.8539,-3.333333333332966e-05,-9.999999999998899e-05,-2.999999999997449e-05,0.00026067426010172035,0.0003984927715410258,-0.0005560616654659567
150000000000.0,6,-0.00463854545,0.012542705349999999,0.05378947525,0.000902,0.00206,-0.000748,-0.16788984799999998,-0.602716709,-9.786644434,-0.017153,0.061499,-2.854,-3.333333333355171e-05,9.999999999998899e-05,9.99999999995449e-06,-0.0010549822755981791,-0.00011374975333899862,-0.00030614410840063
150000000000.0,6,-0.01634768555,-0.00381478685,0.08339575159999998,0.003019,-8.9e-05,-0.00074,-0.16815462755,-0.6031089749999999,-9.786644434,-0.01718,0.061539,-2.8539,-3.333333333332966e-05,-9.999999999998899e-05,-2.999999999997449e-05,0.0008956245811658908,-0.0004930910339215888,0.00036397060000392667
150000000000.0,6,-0.01834824215,-0.00508965135,0.0866515594,0.003008,-9.1e-05,0.001395,-0.16839979379999997,-0.6036385340999999,-9.786644434,-0.017206,0.061593,-2.8539,0.00010000000000021103,3.333333333332966e-05,-5.000000000032756e-06,-0.0009707032370414037,0.00030137515095929324,-0.0002824236186831086
150000000000.0,6,-0.01791674955,-0.022741621349999998,0.0328915041,-0.000189,0.000999,0.002455,-0.16868418665,-0.60408964,-9.7865463675,-0.017234,0.061639,-2.8539,-2.0000000000131024e-05,3.333333333332966e-05,-5.000000000032756e-06,0.000966360131920127,-0.0009913220280608481,0.0009859507361981434
150000000000.0,6,-0.01844630865,-0.031626446249999995,-0.0096301303,-0.002314,0.002082,0.002449,-0.16889993294999997,-0.604481906,-9.7865463675,-0.017257,0.061679,-2.8539,-1.999999999990898e-05,3.333333333332966e-05,3.0000000000085514e-05,-0.0008910289333529803,0.0005288950060451381,-0.00023419734107824053
150000000000.0,6,-0.01081673495,-0.01783829635,-0.0014121576,-0.00125,0.001009,0.001385,-0.1690470327,-0.6046584257,-9.7865463675,-0.017272,0.061697,-2.8539,-2.0000000000131024e-05,-3.333333333332966e-05,4.999999999999449e-05,0.0009595469390868971,0.0007394814803556304,-0.00014412903418056788
150000000000.0,6,-0.022418001899999998,-0.00863965865,0.0491509298,-0.001246,0.002073,0.002451,-0.1694196854,-0.6047270722499999,-9.7865463675,-0.017309,0.061704,-2.8538,-1.999999999990898e-05,-3.333333333332966e-05,-3.0000000000085514e-05,-0.0007564856951546572,-0.0006631620546087014,-0.0002107841593549653
150000000000.0,6,-0.04206072185,-0.017063571,0.07979671105,0.000883,0.002053,0.003522,-0.16996885779999998,-0.6051291448999999,-9.786448301,-0.017366,0.061745,-2.8538,-2.0000000000131024e-05,-3.333333333332966e-05,-4.999999999921734e-06,0.0006501903390376124,-0.00010231603698285241,0.0002942484700473036
150000000000.0,6,-0.0326953711,-0.0151218543,0.09022118,0.003022,0.002036,0.002458,-0.17037093044999999,-0.6057175439,-9.786448301,-0.017407,0.061806,-2.8538,0.00010000000000021103,-1.999999999990898e-05,-5.000000000032756e-06,-0.0009054820349762016,0.00020913897978425133,-0.00016071141056600569
150000000000.0,6,-0.019662333249999997,-0.021045070899999997,0.06489060305,0.003022,0.002036,0.002458,-0.17052783685,-0.60639420275,-9.786448301,-0.017424,0.061874,-2.8538,-5.0000000000105516e-05,-2.0000000000131024e-05,7.999999999996898e-05,-0.00019420350970536515,0.0007714108446628121,-0.0003600484854509034
150000000000.0,6,0.009610516999999999,-0.039932678799999996,0.014288289049999998,-0.001239,0.002072,0.001384,-0.17017479745,-0.6069531818,-9.786350234499999,-0.017387,0.061932,-2.8537,-5.0000000000105516e-05,-1.999999999990898e-05,-4.999999999999449e-05,0.00036696624394680355,-0.0008464029848900267,0.00013880695413831523
150000000000.0,6,0.02260432825,-0.046973853499999996,-0.016553625199999998,-0.003372,0.00209,0.00138,-0.1696942716,-0.6073944810499999,-9.786350234499999,-0.017338,0.061977,-2.8537,-3.333333333332966e-05,-2.0000000000131024e-05,2.999999999997449e-05,-0.0001674248869304451,0.0007502257398528389,-0.0004929804696613971
150000000000.0,6,0.010424468949999998,-0.04182536225,0.023212340550000002,0.000882,0.000989,0.002457,-0.16948833195,-0.6080515266,-9.786350234499999,-0.017317,0.062044,-2.8537,-3.333333333332966e-05,-1.999999999990898e-05,-2.999999999997449e-05,-0.00020397141160777288,-0.0005636077705744036,0.00015023898001820246
150000000000.0,6,0.01411176935,-0.048160458149999995,0.08330749175,0.000875,-7.6e-05,0.002458,-0.16929219895,-0.6090419982499999,-9.786252167999999,-0.017297,0.062145,-2.8537,-3.333333333332966e-05,-9.999999999998899e-05,4.0000000000040004e-05,-0.0003145044451524637,-0.0009215952821792772,0.000271234187320446
150000000000.0,6,0.0132389775,-0.048994023399999996,0.08802449039999999,0.001951,0.000981,0.002458,-0.1690078061,-0.61015995635,-9.7861541015,-0.017268,0.062259,-2.8537,9.999999999998899e-05,-9.999999999998899e-05,-6.0000000000060005e-05,-0.00041440852558909114,1.6764783830280905e-05,-0.00014912795046906346
150000000000.0,6,0.010885381500000001,-0.0568393434,0.037392756449999995,0.000871,-7.7e-05,0.003526,-0.1687528332,-0.6111406213499999,-9.7861541015,-0.017243,0.062359,-2.8536,-5.0000000000105516e-05,-5.0000000000105516e-05,3.0000000000085514e-05,-0.0003214052374775622,0.0006917077094215074,-0.0005506354318583484
150000000000.0,6,0.0037755602499999997,-0.0694703086,0.0008237585999999999,-0.002337,-0.001116,0.003522,-0.16883128639999997,-0.61212128635,-9.786056035,-0.01725,0.06246,-2.8536,-4.999999999988347e-05,-4.999999999988347e-05,1.999999999990898e-05,0.0008063822990064806,0.0004863790088396325,-0.0001012473091776267
150000000000.0,6,-0.00051975245,-0.08585722075,0.0098654899,-0.000198,-6.9e-05,0.004591,-0.16887051299999997,-0.6134059574999999,-9.7859579685,-0.017254,0.062591,-2.8536,-1.6666666666775853e-05,-4.999999999988347e-05,-3.999999999992898e-05,-0.00024024695979116273,-0.00125130824717945,0.00032431265893337335
150000000000.0,6,-0.004128599649999999,-0.0668225131,0.0569177966,0.001928,-0.001152,0.004597,-0.16914509919999998,-0.6146219820999999,-9.7859579685,-0.017283,0.062715,-2.8535,-1.666666666655381e-05,-5.0000000000105516e-05,7.999999999996898e-05,-0.00012115591479955334,0.0011185405400893078,-0.0005151001941521294
150000000000.0,6,-0.00134351105,-0.05579003184999999,0.0699998677,0.001924,-0.001153,0.005664,-0.16939026545,-0.6159262665499999,-9.785859901999999,-0.017308,0.062849,-2.8535,-1.666666666655381e-05,-5.0000000000105516e-05,-2.0000000000020002e-05,-0.0006805864320865163,-0.0002308239757702335,-0.0002368546370998259
150000000000.0,6,0.01005181625,-0.1134629405,0.04923918965,-0.002331,-0.001116,0.003522,-0.1694196854,-0.6176718502499999,-9.785761835499999,-0.017311,0.063026,-2.8534,-1.6666666666775853e-05,-4.999999999988347e-05,-9.99999999995449e-06,0.00039454500879038124,-0.000503528378771323,0.0003635265090192463
150000000000.0,6,0.03092036745,-0.11685604139999999,0.0335583563,0.000874,-0.002205,0.001394,-0.16918432579999998,-0.6196626001999999,-9.7855657025,-0.017287,0.06323,-2.8534,-1.6666666666775853e-05,-9.999999999998899e-05,-2.0000000000020002e-05,-0.00047767135237442027,0.0005818438283993199,-0.00033379235441358124
150000000000.0,6,0.03066539455,-0.07414808064999999,0.018210949049999998,-0.000174,-6.5e-05,0.001389,-0.16878225315,-0.6210649511499999,-9.785467635999998,-0.017247,0.063374,-2.8534,-1.666666666655381e-05,-9.999999999998899e-05,-4.0000000000040004e-05,-0.0003097788692320719,-0.0012298526275524857,0.000583010415977081
150000000000.0,6,0.010728475099999999,-0.08622987345,0.022045349199999998,-0.006552,0.002121,0.000306,-0.16844882705,-0.62200638955,-9.785467635999998,-0.017213,0.06347,-2.8534,1.1111111111183902e-05,-9.999999999998899e-05,1.0000000000065512e-05,-0.0022354734958582867,0.00022404136803211294,-0.0008757133339707401
150000000000.0,6,0.0211235241,-0.10868710195,0.05021985464999999,0.000893,-0.001137,0.000325,-0.1680663677,-0.6237813931999999,-9.7853695695,-0.017173,0.063651,-2.8534,1.1111111110961858e-05,-0.00019999999999997797,-3.3333333333551707e-06,0.00017134211999655924,0.0003151008186708104,-0.0002731250139834107
150000000000.0,6,0.0255169033,-0.09205502354999999,0.09199618365,0.005153,-0.002237,0.000334,-0.16782120144999998,-0.6259094362500001,-9.7851734365,-0.017149,0.063868,-2.8534,1.1111111111183902e-05,-0.00019999999999997797,-3.3333333333551707e-06,0.0006293904418156332,-0.00044081503865212035,0.000419272643711166
150000000000.0,6,0.020809711300000002,-0.1126587952,0.0746482198,0.000897,-0.001136,0.000325,-0.16760545514999997,-0.62804728595,-9.78507537,-0.017127,0.064087,-2.8534,1.1111111111183902e-05,-9.999999999998899e-05,-3.3333333333551707e-06,-0.00048328887418656874,-0.0005595696400588768,0.0004373608256358352
150000000000.0,6,-0.0254188368,-0.1471193633,0.0095516771,-0.003387,-0.002169,0.002454,-0.1682036608,-0.6302537822000001,-9.7849773035,-0.017189,0.064312,-2.8534,1.1111111110961858e-05,-0.00020000000000020002,9.99999999995449e-06,0.00010346412510452152,-0.0007515423973118995,0.0005684683135306623
150000000000.0,6,-0.053044169849999996,-0.1419414521,-0.010630408599999999,-0.004449,-0.001097,0.003518,-0.16917451914999998,-0.632136659,-9.7847811705,-0.017287,0.064504,-2.8533,1.1111111111183902e-05,-0.00029999999999996696,1.0000000000065512e-05,0.0006063012265618145,-0.00033537439473962927,0.0003493984829957275
150000000000.0,6,-0.068450417,-0.13791091895,0.02990047585,-0.000184,-0.001134,0.004593,-0.17037093044999999,-0.63436276855,-9.7845850375,-0.017411,0.064733,-2.8533,1.1111111111183902e-05,-0.00029999999999996696,-5.999999999994898e-05,0.00028933748963898276,0.00023175235192640642,-3.22183121402031e-05
150000000000.0,6,-0.0714512519,-0.147295883,0.0892601283,0.00302,0.000966,0.007797,-0.17156734175,-0.6370988238999999,-9.7843889045,-0.017533,0.065012,-2.8532,1.1111111110961858e-05,-0.00039999999999995595,1.666666666666483e-05,-0.00020784941394993983,9.400431110306862e-05,-0.00011279880740888704
150000000000.0,6,-0.07247114349999999,-0.15333677939999998,0.09188831049999999,0.001939,-0.001158,0.007799,-0.17293046609999999,-0.6400408189,-9.784192771499999,-0.017673,0.065313,-2.8531,1.1111111111183902e-05,-0.00019999999999997797,1.666666666666483e-05,-0.0017040272992810135,0.0006894916813453555,-0.00036101607797342505
150000000000.0,6,-0.0631940526,-0.16225102425,0.045296916349999994,-0.001243,0.002062,0.009923,-0.17397977765,-0.6428062941999999,-9.7839966385,-0.01778,0.065595,-2.853,3.333333333332966e-05,-0.00019999999999997797,1.666666666666483e-05,-0.0014745689797827921,0.0015982268737162464,-0.0005756941942809679
150000000000.0,6,-0.04865079065,-0.1694981386,0.0112972608,-0.002299,0.003136,0.009919,-0.1746172099,-0.6454246697499999,-9.783800505499999,-0.017845,0.065863,-2.8529,3.333333333332966e-05,-0.00019999999999997797,-2.5000000000052758e-05,0.0019103768201836485,3.0175132936127724e-05,0.0005324271539645931
150000000000.0,6,-0.028635417999999996,-0.18827787334999999,0.026046462399999998,-0.001242,0.00206,0.01099,-0.17501928254999996,-0.6484941512,-9.7836043725,-0.017887,0.066176,-2.8528,3.333333333332966e-05,-0.00029999999999996696,-2.4999999999941735e-05,0.0001619880430537013,0.00035165560276850805,0.0005248003787166611
150000000000.0,6,-0.007374600799999999,-0.19792761695,0.0562117178,-0.001261,-7.2e-05,0.012061,-0.1751859956,-0.6517205390499999,-9.7834082395,-0.017905,0.066506,-2.8527,-2.4999999999941735e-05,-0.000300000000000189,-0.0001300000000000745,-0.002195877627507961,0.0025292821963369683,-0.001700974123433785
150000000000.0,6,0.010551955399999998,-0.1815799314,0.0697645081,-0.000174,0.00205,0.012059,-0.17499966925,-0.654888087,-9.783212106499999,-0.017886,0.06683,-2.8526,-2.500000000016378e-05,-0.00039999999999995595,-3.999999999992898e-05,0.0010753024489065233,0.0002754725214373366,0.0003176378435167382
150000000000.0,6,0.0312047603,-0.18176625775,0.05715315619999999,-0.000179,0.000985,0.012061,-0.17441127024999997,-0.65799679505,-9.7830159735,-0.017826,0.067148,-2.8525,-2.4999999999941735e-05,-9.999999999998899e-05,-5.000000000032756e-06,-0.0008286363852969547,0.0013177930584402642,-8.5796508973085e-05
150000000000.0,6,0.0452478831,-0.1911708351,0.0526028706,-0.000184,-8e-05,0.012062,-0.17378364464999999,-0.6613114427499999,-9.782819840499998,-0.017763,0.067486,-2.8524,-2.4999999999941735e-05,-0.0004999999999999449,-5.000000000032756e-06,0.002589560121620524,-1.2276291352586455e-05,0.0004509078312922299
150000000000.0,6,0.04123696325,-0.19529943474999997,0.03217561865,-0.001245,-0.001133,0.009927,-0.1732246656,-0.66466531705,-9.782525641,-0.017705,0.067829,-2.8523,-4.999999999988347e-05,-0.00039999999999995595,2.0000000000020002e-05,-0.0027623584366848752,6.271815472924658e-05,-0.0011516371466762654
150000000000.0,6,0.0236144132,-0.19049417625,0.026732927899999998,-0.001228,-6.6e-05,0.008858,-0.17295007939999998,-0.66782305835,-9.782329507999998,-0.017678,0.068152,-2.8522,-5.0000000000105516e-05,-0.00039999999999995595,4.0000000000040004e-05,0.0002642960758688917,-0.000264368573313023,8.954731472404776e-05
150000000000.0,6,0.0194563936,-0.21610914605,0.037716375899999995,-0.001233,-0.001131,0.00886,-0.17268529984999997,-0.6713828722999999,-9.782133375,-0.017651,0.068516,-2.8521,-9.999999999998899e-05,-0.000600000000000156,-4.999999999999449e-05,0.002478380441745809,-0.002049554681284649,0.0016271363935045358
150000000000.0,6,0.0252227038,-0.207508714,0.036000212149999995,-0.001217,0.000999,0.009923,-0.17217535404999998,-0.67474655325,-9.781937242,-0.017599,0.06886,-2.852,-0.00019999999999997797,-0.0004999999999999449,0.00012999999999996348,0.00013265670228056192,-0.0012901928110198302,-2.0929892252441462e-05
150000000000.0,6,0.013954862949999999,-0.21173538014999999,0.05266171049999999,-0.001239,-0.002197,0.009929,-0.17211651414999998,-0.6783063671999999,-9.781643042499999,-0.017594,0.069224,-2.8519,-9.999999999998899e-05,-0.0004999999999999449,0.00012000000000000899,0.0008557722849624194,-0.002002253617965577,0.0017637027150022577
150000000000.0,6,0.00581534345,-0.22278747469999996,0.0567216636,0.000916,-8.4e-05,0.009929,-0.17221458065,-0.68221922055,-9.781348843,-0.017604,0.069624,-2.8518,5.0000000000105516e-05,-0.000600000000000156,9.99999999995449e-06,-0.000919541160501483,-0.000819530125831136,0.0006259827579476185
150000000000.0,6,0.0020397832,-0.2346142946,0.049866815249999995,-0.00126,-0.00114,0.012058,-0.1723224538,-0.6861026539499999,-9.781152709999999,-0.017616,0.07002,-2.8517,4.999999999988347e-05,-0.0006999999999999229,-3.999999999992898e-05,0.0007759330235613537,0.003924016948602782,-0.000881953393640944
