Time,placement_label,user_acc_x(m/s^2),user_acc_y(m/s^2),user_acc_z(m/s^2),rotation_rate_x(rad/s),rotation_rate_y(rad/s),rotation_rate_z(rad/s),gravity_x(m/s^2),gravity_y(m/s^2),gravity_z(m/s^2),attitude_roll(rad),attitude_pitch(rad),attitude_yaw(rad),target_delta_x,target_delta_y,target_delta_z,target_delta_roll,target_delta_pitch,target_delta_yaw
149700000000.0,6,0.0033832942499999997,-0.0041580196,-0.1504732376,-0.015559,-0.02242,0.009922,0.0024516625,-0.45507759324999997,-9.796058818,0.00025,0.046421,1.6044,0.0,0.0,0.0,0.0,0.0,0.0
149700000000.0,6,-0.00234378935,0.04031513815,0.12441696854999999,0.002564,-0.023636,0.011023,0.00024516625,-0.4549599134499999,-9.796058818,2.5e-05,0.04641,1.6045,-5.0000000000105516e-05,3.333333333332966e-05,4.999999999999449e-05,-0.00022160854487592203,0.00031323095499491416,0.0001915782135740486
149700000000.0,6,0.0071000146,0.0214765635,0.19606435344999998,0.003642,-0.023643,0.00889,-0.0020103632499999997,-0.455420826,-9.796058818,-0.000205,0.046457,1.6046,-4.999999999988347e-05,3.333333333332966e-05,9.99999999995449e-06,-0.0007732229931287828,-9.829606013589398e-07,-1.5159063117674981e-05
149700000000.0,6,0.0076688003,-0.006452775699999999,0.09195695705,-0.011232,-0.014997,0.009917,-0.0036284604999999998,-0.45458726075,-9.796058818,-0.000371,0.046371,1.6047,-1.999999999990898e-05,3.333333333332966e-05,7.00000000000145e-05,4.9200149649616595e-05,-0.0002210051857554074,0.00013350178946773192
149700000000.0,6,-0.01144436055,-0.0274390067,0.05398560825,-0.012267,-0.01179,0.008842,-0.005011198149999999,-0.4537929221,-9.796156884499998,-0.000512,0.046291,1.6048,-2.0000000000131024e-05,4.999999999988347e-05,2.5000000000052758e-05,-0.0002946793057165345,0.00021038464070133323,0.00020646095075398108
149700000000.0,6,-0.0257718762,-0.0083552658,0.09246690284999999,-0.002623,-0.006542,0.008849,-0.00579573015,-0.45327316965,-9.796156884499998,-0.000592,0.046238,1.6049,-1.999999999990898e-05,5.0000000000105516e-05,2.4999999999941735e-05,-0.00012271754033645055,-0.0005062945342144687,-0.0001865740268910121
149700000000.0,6,-0.0126113519,-0.0025105023999999997,0.1433339964,0.002715,-0.005521,0.009924,-0.006541035549999999,-0.45343988269999996,-9.796156884499998,-0.000668,0.046254,1.605,-2.0000000000131024e-05,5.0000000000105516e-05,2.0000000000020002e-05,0.0003489736111789588,-0.00020335491516187965,-6.952420976027648e-05
149700000000.0,6,-0.0081002929,-0.019858466249999998,0.13824434505,0.001679,-0.002315,0.008849,-0.006864655,-0.4535967891,-9.796156884499998,-0.000701,0.046271,1.6051,-1.999999999990898e-05,4.999999999988347e-05,-4.0000000000040004e-05,-6.067501200652213e-05,0.00029998874455117175,0.00032821413847731323
149700000000.0,6,0.001569064,-0.01203275955,0.08883844234999999,0.001688,-0.001249,0.008847,-0.007109821249999999,-0.45409692825,-9.796156884499998,-0.000725,0.046321,1.6051,-3.333333333332966e-05,3.333333333332966e-05,9.99999999995449e-06,0.00029556699074743606,0.00022785259589230833,-6.756463335397603e-05
149700000000.0,6,0.0097281968,-0.014258869099999998,0.05021985464999999,0.001674,-0.002316,0.009917,-0.00748247395,-0.45425383464999997,-9.796156884499998,-0.000764,0.046338,1.6052,-3.333333333332966e-05,3.333333333332966e-05,1.0000000000065512e-05,0.00011833291394255235,-0.000922855201798134,-0.00018958334689929413
149700000000.0,6,0.009894909849999998,-0.024251845449999997,0.019417167,-0.005783,-0.002252,0.007769,-0.00779628675,-0.45384195535,-9.796156884499998,-0.000796,0.046296,1.6053,-3.333333333332966e-05,3.333333333332966e-05,1.0000000000065512e-05,-0.00028649311978622485,-8.235433131265069e-05,-0.00010847170533708275
149700000000.0,6,-0.008571012099999999,-0.039285439899999997,0.0195936867,-0.007875,0.003093,0.007756,-0.0077374468499999995,-0.45317510315,-9.796156884499998,-0.00079,0.046227,1.6054,9.999999999998899e-05,2.4999999999941735e-05,-2.0000000000020002e-05,0.00034398747891321683,-0.0005574737715359213,-0.00010686933648688945
149700000000.0,6,-0.0097674234,-0.02260432825,0.0830230989,0.001711,0.000883,0.007776,-0.0078845466,-0.45369485559999995,-9.796156884499998,-0.000805,0.04628,1.6055,-9.999999999998899e-05,2.500000000016378e-05,2.999999999997449e-05,-0.0002488361870657176,-5.9907693582550436e-05,-0.00014987827718213054
149700000000.0,6,-0.013964669599999998,-0.0016867438,0.11548311039999999,0.003858,0.001932,0.006711,-0.007727640199999999,-0.45395963515,-9.796156884499998,-0.000789,0.046308,1.6056,-2.4999999999941735e-05,2.4999999999941735e-05,1.0000000000065512e-05,-0.0001634037582665393,-0.00017601794753563382,0.00010784320382065116
149700000000.0,6,0.00150041745,-0.009532063799999999,0.062340874049999995,0.000653,0.001957,0.007773,-0.00748247395,-0.4543420945,-9.796156884499998,-0.000764,0.046347,1.6056,-2.4999999999941735e-05,2.4999999999941735e-05,9.99999999995449e-06,0.0003066111561585167,-0.00036188622040111973,-8.612813013917503e-05
149700000000.0,6,0.01309187775,-0.0327934376,-0.0020299765499999997,-0.002556,0.000919,0.007769,-0.0071000146,-0.45488146025,-9.796058818,-0.000725,0.046401,1.6057,-2.500000000016378e-05,3.333333333332966e-05,1.0000000000065512e-05,2.5807497015825284e-05,0.00019616264288235818,-7.609468627962912e-05
149700000000.0,6,0.0187699281,-0.02878251775,-0.017298930599999998,-0.004686,-0.000127,0.005632,-0.006805815099999999,-0.4549893334,-9.796058818,-0.000695,0.046413,1.6057,-2.4999999999941735e-05,3.333333333332966e-05,9.99999999995449e-06,0.001164810974452311,0.00012885716117816415,0.00016040413525201386
149700000000.0,6,0.03388197575,-0.018867994599999997,0.0159259996,-0.002549,0.000921,0.006701,-0.006197802799999999,-0.45503836664999997,-9.796058818,-0.000633,0.046418,1.6058,-1.1111111111183902e-05,3.333333333332966e-05,4.999999999921734e-06,-6.940616070968963e-05,-1.100063888426206e-05,-9.091919360035283e-06
149700000000.0,6,0.0304398416,-0.012866324799999999,0.07575637125,0.002805,0.001946,0.004574,-0.005452497399999999,-0.4554992792,-9.796058818,-0.000556,0.046464,1.6059,-1.1111111110961858e-05,1.999999999990898e-05,5.000000000032756e-06,0.0003332232027770596,-9.540850346900775e-05,-6.246616360512658e-05
149700000000.0,6,0.0233594403,-0.027997985749999996,0.08199340064999999,0.003864,0.000872,0.004578,-0.0048052584999999995,-0.45652897744999993,-9.796058818,-0.00049,0.04657,1.6059,-1.1111111111183902e-05,2.0000000000131024e-05,1.0000000000065512e-05,7.175310933284565e-05,-3.320592789135546e-05,-0.00012079090817919413
149700000000.0,6,0.02291814105,-0.0336171962,0.036333638249999994,-0.003603,0.000934,0.004565,-0.0042168595,-0.4570487299,-9.7959607515,-0.00043,0.046623,1.6059,-1.1111111111183902e-05,1.999999999990898e-05,2.999999999997449e-05,7.221478051419247e-05,2.4839820214506148e-05,-0.00010288906563547806
149700000000.0,6,0.02837063845,-0.026468148349999998,-0.00587418335,-0.003611,-0.000131,0.004566,-0.00367749375,-0.45716640969999994,-9.7959607515,-0.000375,0.046634,1.606,-1.1111111110961858e-05,2.0000000000131024e-05,-1.0000000000065512e-05,0.0002669185932266827,-0.00017805225111477974,8.257559577196094e-05
149700000000.0,6,0.01203275955,-0.02801759905,-0.0010885381499999998,-0.003591,0.000937,0.00243,-0.0033538743,-0.4572644762,-9.7959607515,-0.000343,0.046644,1.606,-1.1111111111183902e-05,1.999999999990898e-05,1.0000000000065512e-05,0.00011196402661178134,0.00028554388414292475,-2.46715136532627e-05
149700000000.0,6,-0.00392266,-0.028243152,0.04631680795,-0.000382,0.001976,0.002434,-0.0034029075499999997,-0.45777442199999996,-9.7959607515,-0.000348,0.046697,1.606,-1.1111111111183902e-05,1.4285714285744433e-05,-1.0000000000065512e-05,-0.00018684391226126036,-0.00045476736580152277,-6.823335720856916e-05
149700000000.0,6,-0.0121798593,-0.02374189965,0.06948011525,0.002801,0.000882,0.004576,-0.003530394,-0.45853934069999996,-9.7959607515,-0.00036,0.046775,1.6061,-1.1111111110961858e-05,1.4285714285744433e-05,2.0000000000020002e-05,0.00030863898175319086,0.00026252432403595094,8.24916092570481e-05
149700000000.0,6,-0.017200864099999998,-0.024506818349999997,0.04102121695,-0.000372,0.003041,0.002432,-0.0037461403,-0.4591277397,-9.795862685,-0.000382,0.046835,1.6061,-1.1111111111183902e-05,1.4285714285744433e-05,-2.999999999997449e-05,0.00011630495417067413,-0.0002603995354619748,-3.975495788887881e-05
149700000000.0,6,-0.013425303849999999,-0.020309572149999996,0.00540346415,-0.002527,0.000926,0.003499,-0.00393246665,-0.45927483944999997,-9.795862685,-0.000401,0.04685,1.6061,5.555555555591951e-06,1.4285714285522388e-05,9.99999999995449e-06,0.00010471213595545162,-0.00018078602290705348,-0.0001960849956795345
149700000000.0,6,-0.00116699135,-0.0364415114,0.027831272699999996,-0.003588,0.000936,0.00243,-0.00392266,-0.45960826554999995,-9.795862685,-0.0004,0.046884,1.6062,5.555555555591951e-06,1.4285714285744433e-05,1.0000000000065512e-05,-0.0003548008741509224,-0.00021680699281212412,0.00017676334467784174
149700000000.0,6,0.013552790299999999,-0.03362700285,0.0524851908,0.002823,0.001949,0.002439,-0.003530394,-0.460324151,-9.795862685,-0.00036,0.046958,1.6062,5.555555555591951e-06,1.4285714285744433e-05,-5.000000000032756e-06,0.0008866886342826126,0.0007447999418233042,0.00014701728678486597
149700000000.0,6,0.00548191735,-0.027733206199999996,0.056045004749999995,0.001756,0.001958,0.002437,-0.0032361944999999997,-0.46098119654999997,-9.795764618499998,-0.000331,0.047025,1.6062,5.5555555553699065e-06,1.4285714285744433e-05,-5.000000000032756e-06,-6.717302486334426e-05,-0.0004112642163591751,-0.0002665893102289929
149700000000.0,6,0.015425860449999999,-0.01836785545,0.0346370878,-0.003586,0.000937,0.00243,-0.00285373515,-0.46122636279999996,-9.795764618499998,-0.000292,0.047049,1.6062,5.555555555591951e-06,-9.999999999998899e-05,3.0000000000085514e-05,-2.5302124218782446e-05,0.0004557968863807549,0.00014305458448024555
149700000000.0,6,0.01779906975,-0.021721729749999998,0.011581653649999999,-0.001469,-0.001211,0.002437,-0.00253992235,-0.46145191574999994,-9.795764618499998,-0.000259,0.047073,1.6063,5.555555555591951e-06,9.999999999998899e-05,9.99999999995449e-06,9.23134497338371e-05,1.944223919569943e-05,0.00011146360558353385
149700000000.0,6,0.0163574922,-0.02221206225,0.0223395487,0.001751,-0.000169,0.000306,-0.0021378497,-0.46186379504999997,-9.795764618499998,-0.000218,0.047114,1.6063,5.555555555591951e-06,-1.2499999999970868e-05,-9.99999999995449e-06,-0.00047517780165442884,-0.0005351755599660724,-0.0003148854953321338
149700000000.0,6,0.0179657828,-0.00034323274999999994,0.0459735752,0.001755,0.000896,0.001372,-0.0016573238499999997,-0.4620305081,-9.795764618499998,-0.000169,0.047132,1.6063,5.555555555591951e-06,-1.2499999999970868e-05,9.99999999995449e-06,0.00030422628031704854,0.0004407658925038582,0.00033026325257974956
149700000000.0,6,0.00159848395,-0.0010591181999999998,0.046257968049999994,0.000679,-0.000161,0.001372,-0.00159848395,-0.46221683445,-9.795764618499998,-0.000163,0.04715,1.6063,5.5555555553699065e-06,-1.2499999999970868e-05,2.999999999997449e-05,5.2559088712407845e-05,0.00014888648548749828,0.00012066493390504307
149700000000.0,6,-0.0158475464,-0.0203586054,0.0283019919,-0.003579,0.000939,0.001362,-0.0018142302499999999,-0.46237374085,-9.795764618499998,-0.000185,0.047167,1.6063,5.555555555591951e-06,-1.2500000000192912e-05,-2.999999999997449e-05,2.1458581018592854e-05,-0.0003361659896028435,-0.00039325614628096806
149700000000.0,6,0.0037461403,-0.03890298055,0.0293218835,-0.003573,0.00094,0.000295,-0.0016475171999999999,-0.4628346534,-9.795764618499998,-0.000169,0.047213,1.6063,5.555555555591951e-06,-1.2499999999970868e-05,-9.99999999995449e-06,-0.0004894924824487296,-0.00013086207800161453,0.00010240528672485552
149700000000.0,6,0.01005181625,-0.025948395899999997,0.046660040699999995,0.00068,-0.002289,-0.001827,-0.00152003075,-0.46321711274999994,-9.795666552,-0.000156,0.047253,1.6063,5.555555555591951e-06,-1.2499999999970868e-05,9.99999999995449e-06,0.00015867083660141626,0.0004064611095777604,0.00015196129355717417
149700000000.0,6,0.02250626175,-0.00226533615,0.03603943875,-0.001439,-0.001204,-0.0029,-0.0011081514499999999,-0.46325633935,-9.795666552,-0.000113,0.047257,1.6062,5.555555555591951e-06,-1.2499999999970868e-05,-2.0000000000020002e-05,-0.00024370704503159403,-0.0005918718560018466,-0.00028303021325152417
149700000000.0,6,0.008041452999999999,-0.0171224109,0.024506818349999997,-0.001444,-0.001205,-0.001832,-0.00101008495,-0.46351131225,-9.795666552,-0.000103,0.047282,1.6062,5.555555555591951e-06,-1.2499999999970868e-05,-1.4999999999987246e-05,0.00016608584853179675,6.839839236216783e-05,1.452243193059144e-05
149700000000.0,6,-0.0214961768,-0.0166516917,0.019564266749999996,-0.00461,0.003083,-0.001845,-0.0010983447999999999,-0.46354073219999997,-9.795666552,-0.000112,0.047285,1.6062,5.555555555591951e-06,-5.102040816495901e-07,-1.4999999999987246e-05,8.64327307121826e-05,-4.864815869387584e-05,8.343555236620809e-05
149700000000.0,6,-0.019064127599999998,-0.0020986231,0.04201168859999999,-0.000343,0.003047,-0.001838,-0.0011375714,-0.4634230524,-9.795666552,-0.000117,0.047273,1.6062,5.5555555553699065e-06,-5.102040816495901e-07,4.0000000000040004e-05,-2.4242363107430248e-05,7.481828116384648e-06,-0.0001223933244361014
149700000000.0,6,-0.0162594257,0.0011964113,0.05832014755,0.00071,0.001972,-0.000767,-0.0012454445499999998,-0.46357015214999997,-9.795666552,-0.000127,0.047289,1.6062,5.555555555591951e-06,-5.102040816495901e-07,-1.0000000000065512e-05,1.673339908751098e-06,8.090711081987223e-06,5.00184064478465e-05
149700000000.0,6,0.0069627215,-0.0059232166000000004,0.0469346269,-0.000365,0.000915,-0.000767,-0.0011277647499999999,-0.46378589845,-9.795666552,-0.000115,0.047311,1.6062,5.555555555591951e-06,-5.102040816495901e-07,-3.999999999992898e-05,0.00019234560420310597,-0.00018134965861027474,-8.273242445591342e-05
149700000000.0,6,0.0212412039,-0.01372931,0.02493831095,-0.003569,-0.000122,-0.001838,-0.0007453054,-0.46376628514999996,-9.795666552,-7.6e-05,0.047308,1.6062,-9.999999999998899e-05,-5.102040816495901e-07,4.999999999999449e-05,-0.000520996346514908,0.0006691477962368353,0.0004208062978308773
149700000000.0,6,0.0079826131,-0.00826700595,0.0204566719,-0.000368,-0.000149,-0.001832,-0.00050013915,-0.46368783194999996,-9.795666552,-5.1e-05,0.047301,1.6061,3.333333333332966e-05,-5.102040816495901e-07,-1.333333333330966e-05,5.5931224905580654e-05,-0.00021180446648982887,-0.00039479004060237813
149700000000.0,6,-0.01997614605,0.0057859235,0.03886375395,0.000685,-0.001224,-0.000761,-0.0008237585999999999,-0.46353092555000003,-9.795666552,-8.4e-05,0.047284,1.6061,3.333333333332966e-05,-5.102040814275455e-07,-1.3333333333420683e-05,-0.00017587561737858123,-0.0001882116003986134,0.00019351070905603354
149700000000.0,6,-0.04066817755,0.0020201699,0.05008256155,0.00069,-0.001224,-0.001828,-0.00167693715,-0.463658412,-9.795666552,-0.000172,0.047297,1.6061,3.333333333332966e-05,-5.102040816495901e-07,-1.333333333330966e-05,-7.402220032891142e-05,-0.0001010604873248333,-3.002647413603843e-06
149700000000.0,6,-0.03870684755,-0.0022555294999999998,0.029890669199999997,-0.003565,0.00094,-0.000772,-0.00228494945,-0.4634230524,-9.795666552,-0.000234,0.047273,1.6061,-1.8518518518639837e-06,-5.102040816495901e-07,9.99999999995449e-06,8.287457362509895e-05,0.00041330525755323144,8.464829687997166e-05
149700000000.0,6,-0.019407360349999996,-0.0003726527,0.0273605535,-0.002485,0.001998,-0.00184,-0.0024320492,-0.46320730609999994,-9.795666552,-0.000249,0.047251,1.6061,-1.8518518518639837e-06,-5.102040816495901e-07,1.0000000000065512e-05,-6.077591498011327e-05,1.922616942673372e-05,5.700133833838952e-05
149700000000.0,6,-0.00685484835,0.008816178349999999,0.04486542375,0.003894,-0.000187,-0.000757,-0.0025693423,-0.46325633935,-9.795666552,-0.000263,0.047257,1.6061,-1.8518518518639837e-06,-5.102040816495901e-07,-2.0000000000020002e-05,8.647963524929629e-05,-0.00021272574575337266,2.7723285835400818e-05
149700000000.0,6,-0.0037363336499999997,0.0168478247,0.0489155702,0.000705,0.001969,0.000301,-0.0025497289999999997,-0.46307001299999995,-9.795666552,-0.00026,0.047237,1.6061,-1.8518518518639837e-06,-5.102040816495901e-07,-9.99999999995449e-06,-0.0003485248880390514,1.142913121920941e-06,4.8467930051442065e-05
149700000000.0,6,-0.015376827199999998,0.0036480737999999998,0.0357550459,-0.003561,0.000941,-0.001839,-0.0027262486999999995,-0.46288368664999996,-9.795764618499998,-0.000278,0.047219,1.6061,-1.8518518518639837e-06,-5.102040816495901e-07,-1.0000000000065512e-05,0.00015754690476261005,-7.23363134038646e-05,-0.0003353829925220597
149700000000.0,6,-0.02509521735,-0.01075789505,0.023643833149999998,-0.004629,0.002012,0.000292,-0.0030302548499999997,-0.46269736029999997,-9.795764618499998,-0.00031,0.047199,1.6061,-1.8518518518639837e-06,-5.102040816495901e-07,2.0000000000020002e-05,-9.8780763687141e-05,9.89803275823764e-05,0.00023027110478285318
149700000000.0,6,-0.01020872265,-0.00705098135,0.030979207349999996,-0.000342,0.003045,-0.001838,-0.0029616083000000002,-0.4626581337,-9.795764618499998,-0.000302,0.047195,1.6061,-1.8518518518639837e-06,-5.102040816495901e-07,-9.99999999995449e-06,0.0005123352429350601,0.0002151649326176397,-7.017660930697805e-05
149700000000.0,6,0.01679879145,0.008276812599999999,0.04743476605,0.002822,-0.00018,0.000308,-0.0027262486999999995,-0.46272678024999997,-9.795764618499998,-0.000279,0.047202,1.6061,-1.8518518518639837e-06,-5.102040816495901e-07,9.99999999995449e-06,-0.0003391190111671719,-9.660274446754435e-05,0.00013673952007963244
149700000000.0,6,0.0051582979,0.0014219642499999998,0.05192621175,-0.000396,-0.002285,0.000307,-0.0027654753,-0.46275620019999997,-9.795764618499998,-0.000282,0.047205,1.6061,-1.8518518516419391e-06,-5.102040816495901e-07,2.0000000000020002e-05,3.4300721014294405e-05,0.00014431060363873094,-0.0001036889569884826
149700000000.0,6,-0.00516810455,0.0005295590999999999,0.020662611549999998,-0.003566,0.000939,-0.000772,-0.0027556686499999998,-0.46246200069999993,-9.795764618499998,-0.000282,0.047176,1.6061,-1.8518518518639837e-06,-5.102040816495901e-07,-2.0000000000020002e-05,0.00025415551150454255,3.7689242314398186e-05,5.2018780129853975e-05
149700000000.0,6,-0.01501398115,0.005452497399999999,0.03235213835,-0.001437,0.00092,0.000299,-0.0029419949999999998,-0.4621481879,-9.795764618499998,-0.0003,0.047143,1.6061,-1.8518518518639837e-06,-5.102040816495901e-07,-4.999999999921734e-06,-0.0004544197967668289,4.549475758097721e-05,-2.9366780276911947e-05
149700000000.0,6,-0.02199631595,0.017573516799999998,0.0561528779,0.001768,0.000895,-0.000763,-0.0032950343999999998,-0.46200108814999996,-9.795764618499998,-0.000336,0.047128,1.6061,-1.8518518518639837e-06,-5.102040814275455e-07,-5.000000000032756e-06,-9.047951723539609e-05,-0.00034738996239291886,-6.28357033367194e-05
149700000000.0,6,-0.0163967188,0.006276256,0.06002650464999999,0.002821,-0.000181,0.000309,-0.00350097405,-0.46221683445,-9.795764618499998,-0.000358,0.047151,1.6061,-1.8518518518639837e-06,-5.102040816495901e-07,2.999999999997449e-05,0.00010877233181557158,0.0002697963765747602,0.000149269538790648
149700000000.0,6,-0.01581812645,-0.00891424485,0.028311798549999996,-0.005694,0.000957,-0.001843,-0.00363826715,-0.46199128149999996,-9.795764618499998,-0.000371,0.047128,1.6061,-1.8518518518639837e-06,-5.102040816495901e-07,-1.0000000000065512e-05,-0.000132302260465237,-0.00019799225089189854,-6.776571039176713e-05
149700000000.0,6,-0.00867888525,-0.0071490478500000005,0.0033440676499999996,-0.004624,0.002012,-0.000776,-0.0035892338999999997,-0.46166766205,-9.795764618499998,-0.000366,0.047094,1.6061,-1.8518518518639837e-06,-5.102040816495901e-07,1.0000000000065512e-05,0.0007723313742101709,0.0002408520376890877,-7.603752333880387e-05
149700000000.0,6,-0.0145334553,0.01595541955,0.026997707449999995,0.001751,-0.001237,-0.000759,-0.004020726499999999,-0.46142249579999994,-9.795764618499998,-0.00041,0.047069,1.6061,-1.8518518518639837e-06,-5.102040816495901e-07,2.0000000000020002e-05,-0.000261897934156775,5.433692551148894e-05,4.5717364336554656e-05
149700000000.0,6,-0.016671304999999997,0.014435388799999999,0.0573689025,0.003893,-0.00019,-0.000757,-0.0042756994,-0.46154998225,-9.795764618499998,-0.000437,0.047082,1.6061,-1.8518518518639837e-06,-5.102040816495901e-07,-9.99999999995449e-06,-0.00019709576033779576,-7.262756197268239e-05,0.00010695527628705459
149700000000.0,6,-0.013827376499999999,-0.0058251501,0.03880491404999999,-0.001433,0.00092,-0.000768,-0.0044326057999999995,-0.46164804875,-9.795764618499998,-0.000452,0.047092,1.6061,-1.8518518518639837e-06,-5.102040816495901e-07,-1.0000000000065512e-05,4.1247451730525714e-05,-0.00012961587107507277,-0.00012513077471315928
149700000000.0,6,-0.00893385815,-0.01022833595,0.0093359308,-0.003558,0.002002,-0.000774,-0.00438357255,-0.46143230244999994,-9.795764618499998,-0.000448,0.04707,1.606,-1.8518518518639837e-06,-5.102040816495901e-07,-1.0000000000065512e-05,0.00014596920663174917,6.598339047769741e-05,-5.77693410382385e-05
149700000000.0,6,-0.0034715540999999996,-0.00405014645,0.01232695905,-0.000365,0.000911,-0.000766,-0.00446202575,-0.46147152905,-9.795764618499998,-0.000455,0.047075,1.606,-1.8518518518639837e-06,-5.102040816495901e-07,3.0000000000085514e-05,4.508188076755848e-05,1.2550074379946707e-05,-5.929676371833198e-05
149700000000.0,6,0.00306948145,-0.00505042475,0.04598338184999999,0.000699,0.001965,0.001369,-0.00426589275,-0.46166766205,-9.795764618499998,-0.000436,0.047095,1.6061,-1.8518518518639837e-06,-5.102040816495901e-07,-2.0000000000020002e-05,6.894459334748013e-05,-3.073068476644458e-05,0.000193156089357948
149700000000.0,6,0.006894074949999999,-0.008433719,0.04672868725,0.00071,0.001968,-0.000766,-0.0039030467,-0.46187360169999997,-9.795764618499998,-0.000398,0.047116,1.606,-1.8518518518639837e-06,-5.102040816495901e-07,-1.0000000000065512e-05,-0.000368340780951883,-0.000165558977975655,-0.0002016190720500327
149700000000.0,6,0.00140235095,-0.009051537949999999,0.019642719949999998,-0.002521,-0.001204,0.000301,-0.0039422733,-0.46185398839999997,-9.795764618499998,-0.000402,0.047113,1.6061,-1.8518518518639837e-06,-5.102040816495901e-07,-9.99999999995449e-06,0.0005827739150439225,2.656698564140747e-05,0.00017724366564794009
149700000000.0,6,-0.0033734876,-0.0024222425499999998,0.012170052649999999,-0.003579,-0.000129,0.000298,-0.0039618866,-0.46160882215,-9.795764618499998,-0.000404,0.047088,1.606,-1.8518518518639837e-06,-5.102040816495901e-07,2.0000000000020002e-05,-0.00033608406028818455,0.00022130897572858466,5.8309529401518595e-05
149700000000.0,6,-0.00791396655,0.004834678449999999,0.04584608875,0.001777,0.001959,-0.000764,-0.0039030467,-0.4615205623,-9.795764618499998,-0.000399,0.04708,1.606,-1.8518518518639837e-06,-5.102040814275455e-07,-1.0000000000065512e-05,4.460428010607392e-06,-9.808357380136634e-05,-9.577774902741129e-05
149700000000.0,6,-0.017426417049999997,-0.009296704199999999,0.0642335575,0.001769,0.000893,-0.000762,-0.004118793,-0.46191282829999997,-9.795764618499998,-0.000421,0.04712,1.606,-1.8518518518639837e-06,-5.102040816495901e-07,1.0000000000065512e-05,-2.3807963903390086e-05,0.0001397113800893912,3.64054974907671e-05
149700000000.0,6,-0.013533176999999999,-0.00771783355,0.04058972435,-0.001445,-0.000148,0.000301,-0.0042756994,-0.46199128149999996,-9.795764618499998,-0.000436,0.047128,1.6061,-1.8518518518639837e-06,-5.102040816495901e-07,2.0000000000020002e-05,0.0002793908857582454,6.602124594135006e-05,4.139637829594228e-05
149700000000.0,6,-0.017955976149999997,0.0019417166999999998,0.017259704,-0.002495,0.001992,0.000296,-0.0043345393,-0.46162843544999993,-9.795764618499998,-0.000443,0.04709,1.6061,-1.8518518516419391e-06,-5.102040816495901e-07,-4.0000000000040004e-05,-0.0003947837084999663,-9.564229479952502e-05,-2.819727907531211e-05
149700000000.0,6,0.0026477955,-0.00522694445,0.02848831825,-0.001423,0.001984,-0.00077,-0.00414821295,-0.46149114234999994,-9.795764618499998,-0.000423,0.047077,1.6061,-1.8518518518639837e-06,-5.102040816495901e-07,-9.99999999995449e-06,-0.0001150459737856973,-0.00014169691514820393,-3.9608434326987574e-05
149700000000.0,6,0.0011964113,-0.0089436648,0.053465855799999996,0.001756,-0.000174,0.000307,-0.0040403398,-0.4618147618,-9.795764618499998,-0.000412,0.047109,1.6061,-1.8518518518639837e-06,-5.102040816495901e-07,3.999999999992898e-05,0.00022354577313499387,7.30693390327275e-05,-6.654252520182924e-05
149700000000.0,6,-0.000196133,-0.00834545915,0.03893240049999999,0.000711,0.001967,-0.000766,-0.0038442067999999996,-0.46211876794999995,-9.795764618499998,-0.000392,0.04714,1.606,-1.8518518518639837e-06,-5.102040816495901e-07,-9.99999999995449e-06,-0.0001241433657629392,-0.00010779328035570579,-1.581139703907622e-05
149700000000.0,6,-0.004795451849999999,-0.009610516999999999,0.018583601749999998,-0.001444,-0.000148,0.000301,-0.0038834333999999996,-0.46205012139999996,-9.795764618499998,-0.000396,0.047134,1.606,-1.8518518518639837e-06,-5.102040816495901e-07,-5.000000000032756e-06,0.00024087784725737062,0.0003236474955121693,0.0001513644562547746
149700000000.0,6,-0.009992976349999998,-0.00487390505,0.013366463949999999,-0.004535,0.001912,0.000293,-0.00392266,-0.4616970819999999,-9.795764618499998,-0.0004,0.047098,1.606,-1.8518518518639837e-06,-5.102040816495901e-07,-5.000000000032756e-06,-8.324333580772558e-05,6.652107189308865e-06,-0.00010735236961045835
149700000000.0,6,-0.000784532,0.004981778199999999,0.046434487749999996,0.001858,0.000794,0.000306,-0.00385401345,-0.4616774687,-9.795764618499998,-0.000394,0.047095,1.606,-1.8518518518639837e-06,-5.102040816495901e-07,6.666666666710341e-06,0.00022548897765713172,-0.00020282654342640427,-2.8074447803054514e-05
149700000000.0,6,-0.006433162399999999,0.009453610599999999,0.06887210295,0.001858,0.000794,0.000306,-0.00389324005,-0.46180495515,-9.795764618499998,-0.000397,0.047108,1.606,-1.8518518518639837e-06,-5.102040816495901e-07,6.666666666599319e-06,-0.0007076714778726043,-0.00011402918858194333,2.8869464841010245e-05
149700000000.0,6,-0.00444241245,6.864654999999999e-05,0.04045243125,-0.002418,-0.000237,0.0003,-0.0039422733,-0.4617068886499999,-9.795764618499998,-0.000402,0.047098,1.606,-1.8518518518639837e-06,-5.102040816495901e-07,6.666666666710341e-06,0.0006151376903342082,0.0001787784237639034,2.155820398991315e-05
149700000000.0,6,-0.006943108199999999,-0.0089828914,0.015023787799999999,-0.003485,-0.000228,0.000298,-0.00397169325,-0.46147152905,-9.795764618499998,-0.000406,0.047075,1.606,-1.8518518518639837e-06,-5.102040816495901e-07,1.0000000000065512e-05,-6.562143232613678e-05,4.115470358523332e-05,6.088824716090138e-05
149700000000.0,6,-0.010973641349999999,-0.00748247395,0.0195152335,-0.002404,0.00083,-0.000769,-0.0041384062999999995,-0.4613244293,-9.795764618499998,-0.000422,0.04706,1.606,-1.8518518518639837e-06,-5.102040814275455e-07,9.99999999995449e-06,-0.00017027847255588445,0.0001335625700435994,-8.947209694566e-06
149700000000.0,6,-0.013180137599999999,0.0043345393,0.05408367475,0.000808,0.002933,0.0003,-0.0041776329,-0.4613244293,-9.795764618499998,-0.000426,0.047059,1.606,-1.8518518518639837e-06,-5.102040816495901e-07,-4.0000000000040004e-05,0.0002048893982174605,-4.9152618876613374e-05,-4.061912936866377e-05
149700000000.0,6,-0.01632807225,0.006541035549999999,0.051985051649999996,0.000802,0.000804,-0.001831,-0.0043247326499999995,-0.46144210909999994,-9.795764618499998,-0.000441,0.047071,1.606,-1.8518518518639837e-06,-5.102040816495901e-07,1.0000000000065512e-05,-0.00027798840688566216,-0.00026577321069987114,0.00010595729315828611
149700000000.0,6,-0.007207887749999999,0.0009708583499999999,0.019966339399999998,-0.002404,0.000829,-0.000769,-0.004314926,-0.46125578274999995,-9.795764618499998,-0.00044,0.047052,1.606,-1.8518518518639837e-06,-5.102040816495901e-07,9.99999999995449e-06,1.7122926242920528e-06,4.006939350120753e-05,2.996501682801106e-05
149700000000.0,6,-0.00075511205,0.0015494506999999998,0.009218250999999998,-0.005596,0.001921,-0.000776,-0.00418743955,-0.46078506355,-9.795764618499998,-0.000427,0.047004,1.606,-1.8518518518639837e-06,-5.102040816495901e-07,-9.99999999995449e-06,0.00027719677398836684,0.00037774872551521455,-0.00010612669992213913
149700000000.0,6,-0.0029812216,0.00406975975,0.03571581929999999,-0.000245,0.004008,-0.000771,-0.00405014645,-0.46060854384999994,-9.795862685,-0.000413,0.046987,1.606,-1.8518518518639837e-06,-5.102040816495901e-07,-1.0000000000065512e-05,-0.00025022693740699153,-0.00041565022102152405,-6.73806272306482e-05
149700000000.0,6,-0.007472667299999999,0.0041776329,0.060095151199999995,0.001846,-0.001337,-0.000758,-0.0041972462,-0.460716417,-9.795862685,-0.000429,0.046998,1.606,-1.8518518518639837e-06,-5.102040816495901e-07,2.0000000000020002e-05,0.00012030285997105192,0.00010171895407151688,7.767091764393497e-06
149700000000.0,6,-0.011640493549999999,-0.004716998649999999,0.042286274799999995,0.000791,0.000802,0.000304,-0.0043737659,-0.46080467685,-9.795764618499998,-0.000446,0.047007,1.606,-1.8518518516419391e-06,-5.102040816495901e-07,-9.99999999995449e-06,-0.0005118914421129283,-0.00022313860424616472,7.820000708464239e-05
149700000000.0,6,-0.004059953099999999,-0.01083634825,0.02852754485,-0.004552,-0.00022,0.000297,-0.00446202575,-0.46067719039999994,-9.795862685,-0.000456,0.046993,1.606,-1.8518518518639837e-06,-5.102040816495901e-07,-1.0000000000065512e-05,0.00045717175500582623,-6.159266215055581e-05,-5.0622929239806796e-05
149700000000.0,6,-0.006913688249999999,-0.01713221755,0.0270271274,-0.001342,0.000819,0.0003,-0.0044522191,-0.46080467685,-9.795764618499998,-0.000455,0.047006,1.606,-1.8518518518639837e-06,-5.102040816495901e-07,-9.99999999995449e-06,-0.00015799404342378524,0.00013555749046090249,-0.00011473587564829815
149700000000.0,6,-0.0072176943999999995,-0.0034323275,0.053348176000000004,0.001855,-0.000272,-0.000759,-0.004609125499999999,-0.46104003644999997,-9.795764618499998,-0.00047,0.04703,1.606,-1.8518518518639837e-06,-5.102040816495901e-07,4.999999999999449e-05,0.00046342647134679955,0.0002246525674780564,3.307792560064762e-05
149700000000.0,6,-0.0160436794,-0.0046875787,0.04061914429999999,0.001855,-0.000272,-0.000759,-0.004903325,-0.4612852027,-9.795764618499998,-0.000501,0.047055,1.606,-1.8518518518639837e-06,-5.102040816495901e-07,-2.999999999997449e-05,-0.00040746136707226627,-9.774385342842251e-05,3.9613971508346835e-05
149700000000.0,6,-0.01517088755,-0.0051190713,0.017730423199999998,-0.003476,0.000836,0.000297,-0.0050308114499999996,-0.4611479096,-9.795764618499998,-0.000514,0.047041,1.606,-1.8518518518639837e-06,-5.102040816495901e-07,9.99999999995449e-06,-0.00018591872776546094,-7.072092673099384e-05,-4.285578677009835e-05
149700000000.0,6,-0.014700168349999997,-0.018161915799999998,0.0117483667,-0.003481,0.000835,0.001364,-0.005197524499999999,-0.46112829629999996,-9.795764618499998,-0.000531,0.047039,1.606,-1.8518518518639837e-06,-5.102040814275455e-07,1.0000000000065512e-05,0.0004721462500785478,0.00019086832098613726,9.726837788783665e-05
149700000000.0,6,-0.0051582979,-0.00848275225,0.040923150449999994,-0.000288,-0.000257,0.001372,-0.0051582979,-0.46122636279999996,-9.795764618499998,-0.000527,0.047049,1.606,-1.8518518518639837e-06,-5.102040816495901e-07,-4.0000000000040004e-05,-0.00018109443245917928,-0.00035873848845091594,-0.0001103467026878982
149700000000.0,6,-0.0006472389,0.0020299765499999997,0.0521321514,0.002931,0.000784,-0.000759,-0.0050406181,-0.46142249579999994,-9.795764618499998,-0.000514,0.047069,1.606,-1.8518518518639837e-06,-5.102040816495901e-07,2.0000000000020002e-05,-0.00010892357679566714,0.00018065046739956792,0.00012997782072518907
149700000000.0,6,-0.0008041452999999999,-0.006148769549999999,0.030734041099999998,-0.002408,0.000827,0.000299,-0.0050308114499999996,-0.46147152905,-9.795764618499998,-0.000513,0.047074,1.606,-1.8518518518639837e-06,-5.102040816495901e-07,-2.500000000016378e-06,-0.00015641959071772613,-9.425543162810968e-05,-2.033881205507418e-05
149700000000.0,6,-0.00701175475,-0.005011198149999999,0.0081591328,-0.0056,0.001919,0.000291,-0.0049621649000000006,-0.46110868299999996,-9.795764618499998,-0.000506,0.047038,1.606,9.999999999998899e-05,-5.102040816495901e-07,-2.500000000016378e-06,7.123290175010781e-05,0.0003768912012471759,-6.349466683519198e-05
149700000000.0,6,-0.01134629405,-0.00204958985,0.0264191151,-0.000269,0.00081,-0.000765,-0.0049621649000000006,-0.4609321633,-9.795764618499998,-0.000507,0.047019,1.606,-1.3698630136893541e-06,-5.102040816495901e-07,-2.500000000016378e-06,4.821662662262728e-05,-0.0002432723510084056,2.1182033447631615e-05
149700000000.0,6,-0.0027066354,0.00116699135,0.05543699245,0.004007,0.001841,-0.000759,-0.00477583855,-0.46130481599999995,-9.795764618499998,-0.000488,0.047057,1.606,-1.3698630136893541e-06,-5.102040816495901e-07,-2.500000000016378e-06,-0.0001404880986362409,-0.000194171053945702,-0.00010191548662233721
149700000000.0,6,-0.004393379199999999,0.003726527,0.0558782917,0.000775,-0.001331,0.000308,-0.0050406181,-0.4614617224,-9.795764618499998,-0.000514,0.047074,1.606,-1.3698630136893541e-06,-5.102040816495901e-07,-1.999999999990898e-05,-0.00035914747691232277,-0.0003991423559943641,-1.0955637690025777e-05
149700000000.0,6,-0.0017455836999999998,0.000980665,0.006501808949999999,-0.003464,0.000838,-0.001838,-0.004981778199999999,-0.4612655894,-9.795764618499998,-0.000509,0.047053,1.606,-1.3698630136893541e-06,-5.102040816495901e-07,1.999999999990898e-05,0.000593156923691612,0.0005526508582571754,0.00012044022221599157
149700000000.0,6,0.0046581587499999995,-0.00648219565,0.0021770762999999997,-0.004519,0.002977,-0.000776,-0.0046581587499999995,-0.46098119654999997,-9.795764618499998,-0.000476,0.047025,1.606,-1.3698630136893541e-06,-5.102040816495901e-07,5.000000000032756e-06,0.0004657775987383789,0.00020670436968628358,6.316895379196788e-05
149700000000.0,6,-0.01197391965,0.0058447633999999995,0.050062948249999996,0.000789,-0.000264,-0.000761,-0.0047856452,-0.4608929367,-9.795764618499998,-0.000488,0.047016,1.606,-1.3698630136893541e-06,-5.102040816495901e-07,5.000000000032756e-06,-0.0006532805040193271,-0.00018946394443086767,-0.00011419379795951645
149700000000.0,6,-0.01817172245,0.017897136249999997,0.0629390797,0.002917,-0.000283,0.00031,-0.005021004799999999,-0.4608242901499999,-9.795764618499998,-0.000512,0.047008,1.606,-1.3698630136893541e-06,-5.102040816495901e-07,9.99999999995449e-06,5.300863526199948e-06,0.00017621602353279364,8.779002737760444e-05
149700000000.0,6,-0.01877973475,-0.00030400615,0.0372064301,-0.001333,0.001883,0.000299,-0.005315204299999999,-0.46072622365,-9.795862685,-0.000542,0.046998,1.606,-1.3698630136893541e-06,-5.102040816495901e-07,1.0000000000065512e-05,0.00017071577432474505,-6.942471887416701e-05,9.286254670259203e-05
149700000000.0,6,-0.010404855650000001,-0.00442279915,0.0011571847,-0.004537,0.000845,-0.000772,-0.005462304049999999,-0.46035357094999996,-9.795862685,-0.000557,0.04696,1.606,-1.3698630136893541e-06,-5.102040814275455e-07,-2.0000000000020002e-05,0.0001232091352857921,-6.402535956073763e-06,-9.401205521909414e-05
149700000000.0,6,0.0021966895999999997,-0.0015592573499999998,0.03139108665,-0.000269,0.00081,-0.000765,-0.00534462425,-0.46022608449999997,-9.795862685,-0.000545,0.046947,1.606,-1.3698630136893541e-06,-5.102040816495901e-07,9.99999999995449e-06,-6.14420808365719e-05,7.514545902886915e-05,1.4897512800936957e-05
149700000000.0,6,0.0005099458,0.0038049802,0.0681954441,0.001861,-0.000272,-0.001827,-0.005295591,-0.46034376429999996,-9.795862685,-0.000541,0.046959,1.606,-1.3698630136893541e-06,-5.102040816495901e-07,1.0000000000065512e-05,0.00036991366670463023,-9.547554737920905e-07,-0.00014804813527413002
149700000000.0,6,-0.0007060788,0.00130428445,0.049337256149999995,0.000798,0.000801,-0.000763,-0.0052857843499999994,-0.46039279755,-9.795862685,-0.000539,0.046964,1.606,-1.3698630136893541e-06,-5.102040816495901e-07,-3.0000000000085514e-05,-0.0004108583097172068,-0.00039976237180816554,5.80324799971596e-05
149700000000.0,6,-0.007060788,0.0007747253499999999,0.026752541199999997,-0.003465,0.000837,-0.001838,-0.0052171378,-0.46015743794999997,-9.795862685,-0.000532,0.04694,1.606,-1.3698630139113988e-06,-5.102040816495901e-07,-9.99999999995449e-06,-0.00026942882854843683,0.00016219113895576953,2.1440440295152075e-05
149700000000.0,6,-0.00408937305,-0.007904159899999999,0.02287891445,-0.00452,0.002976,-0.000776,-0.0050406181,-0.45986323844999993,-9.795862685,-0.000514,0.04691,1.6059,-1.3698630136893541e-06,-5.102040816495901e-07,2.0000000000020002e-05,0.000459394054699103,0.00011065352118566629,7.917358904415903e-05
149700000000.0,6,-0.0070804013,-0.00226533615,0.0408348906,0.000775,-0.001332,0.000308,-0.005187717849999999,-0.45996130495,-9.795862685,-0.00053,0.04692,1.6059,-1.3698630136893541e-06,-5.102040816495901e-07,2.0000000000020002e-05,-0.00026695374734972757,0.0001641649533479228,-2.2545197800084155e-05
149700000000.0,6,-0.014337322299999998,-0.0035794272499999995,0.05278919694999999,0.000787,0.000798,0.001372,-0.0054132708,-0.46014763129999997,-9.795862685,-0.000552,0.046939,1.606,-1.3698630136893541e-06,-5.102040816495901e-07,1.999999999990898e-05,0.00022616463321629282,3.322761919699602e-05,1.1594476671886178e-05
149700000000.0,6,-0.01205237285,-0.0089240515,0.039618866,-0.003483,-0.000231,0.000299,-0.0057466969,-0.4601868579,-9.795862685,-0.000587,0.046944,1.606,-1.3698630136893541e-06,-5.102040816495901e-07,-6.999999999990347e-05,-0.00021712416478703554,-0.0006955154182459733,-0.0002763680950388092
149700000000.0,6,0.0013631243499999997,-0.00758054045,0.012542705349999999,-0.001355,-0.00025,0.00137,-0.0056976636499999995,-0.46003975815,-9.795862685,-0.000582,0.046928,1.606,-1.3698630136893541e-06,-5.102040816495901e-07,-2.0000000000020002e-05,-0.0004900133686451241,-7.478670752125716e-05,0.0001284144801938121
149700000000.0,6,-0.0026576021499999996,-0.00697252815,0.02944936995,-0.000265,0.001874,0.000301,-0.005717276949999999,-0.4600495648,-9.795862685,-0.000584,0.046929,1.606,-1.3698630136893541e-06,-5.102040816495901e-07,4.999999999921734e-06,7.79129674628766e-05,7.279770994506052e-05,-0.00016890858998207595
149700000000.0,6,-0.01264077185,0.005187717849999999,0.0517398854,0.002906,-0.002414,-0.000753,-0.0060703163499999995,-0.46023589114999996,-9.795862685,-0.000619,0.046949,1.606,-1.3698630136893541e-06,-5.102040816495901e-07,5.000000000032756e-06,-1.3091499448275937e-05,5.2165694538031104e-05,0.00019370271288916135
149700000000.0,6,-0.0098654899,0.00771783355,0.04650313429999999,-0.000246,0.002941,-0.001836,-0.0059918631499999995,-0.46022608449999997,-9.795862685,-0.000612,0.046947,1.606,-1.3698630136893541e-06,-5.102040816495901e-07,2.999999999997449e-05,3.689917746984954e-05,-3.147027449923456e-05,2.6426659153026832e-06
149700000000.0,6,-0.0023241760499999996,-0.01862282835,0.01028717585,-0.002411,-0.000239,-0.000767,-0.006060509699999999,-0.46036337759999996,-9.795862685,-0.000618,0.046961,1.606,-1.3698630136893541e-06,-5.102040814275455e-07,-2.999999999997449e-05,7.322910227402536e-05,3.491792765353274e-05,-6.890580936767463e-05
149700000000.0,6,-0.0034029075499999997,-0.011964112999999998,0.014778621550000001,-0.002402,0.000826,-0.000768,-0.0060310897499999995,-0.46028492439999996,-9.795862685,-0.000615,0.046954,1.6059,-1.3698630136893541e-06,-5.102040816495901e-07,1.4999999999987246e-05,-7.681544425316295e-06,-0.00012789332931939512,0.00012011246613651688
149700000000.0,6,-0.0046581587499999995,0.00055897905,0.0472484397,0.001874,0.001857,-0.000763,-0.00581534345,-0.46040260419999995,-9.795862685,-0.000594,0.046965,1.6059,-1.3698630136893541e-06,-5.102040816495901e-07,1.4999999999987246e-05,-0.00036280101112903806,0.00010833184930381101,-0.00025192653625055045
149700000000.0,6,-0.0007354987499999999,0.00392266,0.060850263249999995,0.002941,0.001848,-0.000761,-0.0056976636499999995,-0.46061835049999994,-9.795862685,-0.000582,0.046987,1.6059,-1.3698630136893541e-06,-5.102040816495901e-07,1.0000000000065512e-05,0.0006844778284423158,0.00034822104832943346,0.0002462474088908012
149700000000.0,6,-0.00050013915,-0.0093751574,0.04617951484999999,-0.002416,-0.00024,0.000301,-0.0057859235,-0.46078506355,-9.795764618499998,-0.00059,0.047004,1.6059,-1.3698630136893541e-06,-5.102040816495901e-07,-1.0000000000065512e-05,-6.553253383227188e-05,-5.481875321677876e-05,6.904843017103979e-05
149700000000.0,6,-0.007453054,-0.006276256,0.004903325,-0.006661,0.001927,-0.000778,-0.005717276949999999,-0.46029473104999996,-9.795862685,-0.000584,0.046954,1.6059,-1.3698630136893541e-06,-5.102040816495901e-07,-6.666666666599319e-06,-0.0001340430412766925,-0.00011203465035580784,-7.594181066491665e-05
149700000000.0,6,-0.0130428445,-0.00269682875,0.0253992235,0.001866,0.000791,-0.000761,-0.0059624432,-0.46027511774999996,-9.795862685,-0.000609,0.046953,1.6059,-1.3698630136893541e-06,-5.102040816495901e-07,-6.666666666710341e-06,-0.00010728080932352266,0.00024246159406504653,-1.3528364153567174e-07
149700000000.0,6,-0.0121994726,0.0106892485,0.07671742295,0.003972,-0.00136,0.001381,-0.006207609449999999,-0.46050067069999995,-9.795862685,-0.000634,0.046975,1.6059,-1.3698630136893541e-06,-5.102040816495901e-07,-6.666666666599319e-06,0.00012934779992081376,-0.0001661813933544476,-1.5641786901790522e-05
149700000000.0,6,-0.011875853149999999,0.00342252085,0.055613512149999995,0.000799,0.000799,-0.000763,-0.00638412915,-0.46055951059999994,-9.795862685,-0.000651,0.046982,1.6059,-1.3698630136893541e-06,-5.102040816495901e-07,1.999999999990898e-05,-4.6040030458565154e-05,-1.459642958301366e-05,3.529517595576154e-05
149700000000.0,6,-0.0033342610000000003,-0.0076099604,0.00863965865,-0.005594,0.001917,-0.000776,-0.006246836049999999,-0.46030453769999996,-9.795862685,-0.000638,0.046955,1.6059,-1.3698630136893541e-06,-5.102040816495901e-07,2.0000000000020002e-05,1.4835782513518761e-05,8.196666527271468e-05,-0.0001379068198695127
149700000000.0,6,-0.00134351105,-0.0130624578,0.013739116649999997,-0.003477,-0.000231,-0.000768,-0.006286062649999999,-0.4600887914,-9.795862685,-0.000642,0.046933,1.6059,-1.3698630136893541e-06,-5.102040816495901e-07,-2.0000000000020002e-05,0.0002277569450066623,0.0001514602420249478,0.0001293923539162009
149700000000.0,6,-0.00169655045,0.0023830159499999997,0.05443671415,0.002941,0.001847,-0.000761,-0.00622722275,-0.46027511774999996,-9.795862685,-0.000636,0.046953,1.6059,-1.3698630136893541e-06,-5.102040816495901e-07,-1.999999999990898e-05,-0.00030157556113203157,-0.000314396515534332,-6.227561803102966e-05
149700000000.0,6,-0.009051537949999999,0.0080806796,0.07911024554999999,0.002928,0.00078,0.000308,-0.0063645158499999995,-0.4604418308,-9.795862685,-0.00065,0.046969,1.6059,-1.3698630136893541e-06,-5.102040816495901e-07,2.999999999997449e-05,-5.9977153519871415e-05,0.00024087181381271527,-0.0001453872685016934
149700000000.0,6,-0.00942419065,-0.00246146915,0.0216530832,-0.002401,0.000825,-0.000768,-0.00644296905,-0.46036337759999996,-9.795862685,-0.000657,0.046962,1.6059,-1.3698630136893541e-06,-5.102040814275455e-07,-1.0000000000065512e-05,0.00017787554208388047,-5.7125173434036114e-05,0.00018894837214036495
149700000000.0,6,-0.0100812362,-0.01683801805,0.005952636549999999,-0.004549,-0.000224,0.000297,-0.00652142225,-0.46020647119999997,-9.795862685,-0.000666,0.046945,1.6059,-1.3698630136893541e-06,-5.102040816495901e-07,-2.999999999997449e-05,-0.00036472128820462003,-0.00030144615515093065,-0.00013525108908495412
149700000000.0,6,-0.00622722275,-0.00587418335,0.030498681499999996,-0.001334,0.000816,-0.000766,-0.0064920023,-0.46009859805,-9.795862685,-0.000663,0.046934,1.6059,-1.3698630139113988e-06,-5.102040816495901e-07,1.0000000000065512e-05,0.0003452271328331872,0.0001571959166359882,0.00015119322430698703
149700000000.0,6,0.00140235095,0.004648352099999999,0.06102678295,0.000789,0.000797,0.001372,-0.0063350959,-0.46014763129999997,-9.795862685,-0.000647,0.046939,1.6059,-1.3698630136893541e-06,-5.102040816495901e-07,-3.0000000000085514e-05,-0.0002316989942384648,-0.0002056661797757986,-0.00020130515524221376
149700000000.0,6,-0.0042462794499999994,-0.0016867438,0.0512887795,-0.001326,0.001882,-0.000768,-0.00622722275,-0.46024569779999996,-9.795862685,-0.000635,0.046949,1.6059,-1.3698630136893541e-06,-5.102040816495901e-07,6.0000000000060005e-05,0.0003514117835788956,0.00045724048355300084,0.00013079156795377245
149700000000.0,6,-0.0069627215,-0.0017946169499999999,0.011356100699999998,-0.00454,0.000842,0.000296,-0.006207609449999999,-0.4598338185,-9.795862685,-0.000634,0.046907,1.6059,-1.3698630136893541e-06,-5.102040816495901e-07,-2.0000000000020002e-05,-7.76382421090651e-05,-0.00015706944070470463,2.1026483643823285e-05
149700000000.0,6,-0.0051190713,-0.0055309506,0.01107170785,-0.004526,0.001908,-0.000774,-0.00610954295,-0.45953961899999995,-9.795862685,-0.000623,0.046877,1.6059,-1.3698630136893541e-06,-5.102040816495901e-07,-9.99999999995449e-06,4.490222137637501e-05,-0.0002495102500237323,-9.286395175026052e-05
149700000000.0,6,-0.006433162399999999,-0.0052857843499999994,0.043237519849999996,0.001867,0.00079,-0.000761,-0.00612915625,-0.4596376855,-9.795862685,-0.000626,0.046887,1.6059,-1.3698630136893541e-06,-5.102040816495901e-07,1.999999999990898e-05,0.00039972357684443446,0.0005600542605572745,0.00023949817942755733
149700000000.0,6,-0.0090417313,0.0084141057,0.049523582499999996,0.00185,-0.001341,-0.000757,-0.0063645158499999995,-0.4597161387,-9.795862685,-0.00065,0.046896,1.6059,-1.3698630136893541e-06,-5.102040816495901e-07,-5.000000000032756e-06,-2.8030883583003707e-05,-0.00028460237427596624,-0.0001420258504265387
149700000000.0,6,-0.0112776475,-0.00389324005,0.030361388399999995,-0.001322,0.002946,0.000297,-0.0063743225,-0.4598338185,-9.795862685,-0.000651,0.046907,1.6059,-1.3698630136893541e-06,-5.102040816495901e-07,-4.999999999921734e-06,-0.00016103883163925276,-0.00026026277571156164,1.784361303004689e-05
149700000000.0,6,-0.01266038515,-0.0016082905999999998,0.025595356499999996,0.041389,0.011112,0.006762,-0.0054426907500000005,-0.46256987385,-9.795764618499998,-0.000556,0.047186,1.6059,-1.3698630136893541e-06,-5.102040816495901e-07,-2.999999999997449e-05,-0.0005453747493349963,-0.0003799874523353619,-0.00011992695612838417
149700000000.0,6,-0.07181409794999999,0.029635696299999997,0.41663552524999997,0.058494,0.014169,0.004651,-0.0055505638999999996,-0.4680714045,-9.795470418999999,-0.000567,0.047748,1.606,-1.3698630136893541e-06,-5.102040816495901e-07,9.99999999995449e-06,0.0005339851947790443,0.00015971301967421248,4.8098268645525855e-05
149700000000.0,6,-0.027635139700000002,0.05694721654999999,0.3790074092,0.049996,0.019565,0.005694,-0.004236472799999999,-0.4726413034,-9.795274286,-0.000432,0.048215,1.606,-1.3698630136893541e-06,-5.102040816495901e-07,-1.999999999990898e-05,-1.3258503497624169e-05,-0.0001379880937044664,0.00012601521602454563
149700000000.0,6,-0.039393313049999996,-0.01546508705,0.019279873899999998,0.020087,0.014484,0.004584,-0.0034029075499999997,-0.47579904469999995,-9.795078153,-0.000347,0.048537,1.6061,-1.3698630136893541e-06,-5.102040816495901e-07,-2.0000000000020002e-05,0.0002480865124140641,5.194522382390154e-05,0.0001776673294188666
149700000000.0,6,0.0079629998,-0.06015399109999999,-0.26053327055,-0.020543,-0.001158,-0.002931,-0.0030204482,-0.47554407179999997,-9.795078153,-0.000309,0.048511,1.6061,-1.3698630136893541e-06,-5.102040814275455e-07,-1.0000000000065512e-05,-0.0003008914508899358,-0.00033500419701359974,-0.0005643300801865189
149700000000.0,6,0.07579559785,-0.059624432,-0.38827469345,-0.055817,-0.00939,-0.002977,-0.0026183755499999996,-0.47144489209999996,-9.795274286,-0.000267,0.048092,1.606,-1.3698630136893541e-06,-5.102040816495901e-07,2.999999999997449e-05,-8.952232636373278e-05,0.0003352025097376199,0.00030206655702250465
149700000000.0,6,0.08477848924999999,-0.06353728535,-0.4703073207,-0.064426,-0.019972,-0.005108,-0.00306948145,-0.46572761514999994,-9.7955684855,-0.000314,0.047509,1.606,-1.3698630136893541e-06,-5.102040816495901e-07,6.0000000000060005e-05,-9.004908101145105e-05,0.0005969442483291232,0.00014357827972723627
149700000000.0,6,0.04514000995,-0.04096237705,-0.32774804965,-0.053718,-0.015795,-0.006165,-0.00414821295,-0.46047125074999995,-9.795862685,-0.000423,0.046972,1.6059,-1.3698630136893541e-06,-5.102040816495901e-07,9.99999999995449e-06,0.00047249534364953057,0.00012067344545019232,-1.862903032279553e-05
149700000000.0,6,0.0158671597,0.008492558899999999,-0.0303221618,-0.009954,-0.008704,0.00137,-0.00495235825,-0.4583039810999999,-9.7959607515,-0.000505,0.046751,1.6059,-1.3698630136893541e-06,-5.102040816495901e-07,-9.99999999995449e-06,-0.0005936836019202769,-0.0001524467069404789,-7.243849772003291e-06
149700000000.0,6,-0.07275553635,0.0273017136,0.40761340724999995,0.021015,-0.005763,0.000352,-0.00685484835,-0.45945135914999996,-9.795862685,-0.0007,0.046868,1.6059,-1.3698630136893541e-06,-5.102040816495901e-07,-1.0000000000065512e-05,-0.00013211069306771905,-0.00024626696904572754,-0.00021365855442040393
149700000000.0,6,-0.0575650355,0.05320107625,0.54384738905,0.020042,0.005967,0.000329,-0.00648219565,-0.46141268915,-9.795764618499998,-0.000661,0.047069,1.6059,-1.3698630136893541e-06,-5.102040816495901e-07,-3.999999999992898e-05,0.0002039431445667473,-8.091417149214131e-05,9.737445743610365e-05
149700000000.0,6,-0.027389973449999997,0.02807643895,0.3227956914,0.004042,0.007163,0.001367,-0.005678050349999999,-0.46217760784999995,-9.795764618499998,-0.00058,0.047147,1.6059,-1.3698630136893541e-06,-5.102040816495901e-07,9.99999999995449e-06,-0.0002100933086228319,-0.00030106014082509347,-3.476213634118555e-05
149700000000.0,6,-0.01322917085,-0.02203554255,0.020240925599999997,-0.004519,0.001909,-0.001841,-0.00516810455,-0.461893215,-9.795764618499998,-0.000528,0.047118,1.6059,-1.3698630136893541e-06,-5.102040816495901e-07,1.0000000000065512e-05,0.00016160508714578234,0.0001460854079564644,-0.00012372849163024696
149700000000.0,6,0.02691925425,-0.025458063399999998,-0.14030374155,-0.006683,-0.00127,-0.000772,-0.0047660318999999994,-0.46160882215,-9.795764618499998,-0.000487,0.047089,1.6059,-1.3698630136893541e-06,-5.102040816495901e-07,9.99999999995449e-06,0.00029014533587671046,0.00026258511389465333,0.0002681465846846448
149700000000.0,6,0.0173185439,-0.017475450299999997,-0.10856942214999998,-0.003494,-0.003427,-0.00183,-0.00505042475,-0.46121655615,-9.795764618499998,-0.000515,0.047048,1.6059,-1.3698630136893541e-06,-5.102040816495901e-07,-9.99999999995449e-06,-0.0005066972644936253,-8.562807334011602e-05,-0.0002278706672015976
149700000000.0,6,-0.005942829899999999,-0.0012454445499999998,-0.043767078949999996,-0.000299,-0.003454,-0.000757,-0.0054328841,-0.46113810295,-9.795764618499998,-0.000555,0.04704,1.6059,-1.3698630136893541e-06,-5.102040816495901e-07,1.999999999990898e-05,5.705800093569642e-05,8.972673464446856e-06,8.689076973181914e-05
149700000000.0,6,-0.01328801075,-0.00342252085,0.0074138274,-0.001375,-0.004511,-0.000757,-0.005717276949999999,-0.46104984309999997,-9.795764618499998,-0.000583,0.047032,1.6059,-1.3698630139113988e-06,-5.102040816495901e-07,1.0000000000065512e-05,2.722876154077035e-05,8.820894997541018e-05,-9.572906652314389e-05
149700000000.0,6,-0.0196133,-0.011689526799999999,0.04586570204999999,-0.00563,-0.002346,0.000299,-0.006423355749999999,-0.4610106165,-9.795764618499998,-0.000656,0.047028,1.6059,-1.3698630136893541e-06,-5.102040814275455e-07,-2.999999999997449e-05,-9.119330716437189e-05,-0.00020129008284253125,8.93405794412383e-06
149700000000.0,6,-0.005687856999999999,0.0003334261,0.08179726764999999,-0.001332,0.000816,-0.000766,-0.006286062649999999,-0.46061835049999994,-9.795862685,-0.000641,0.046988,1.6058,-1.3698630136893541e-06,-5.102040816495901e-07,-5.000000000032756e-06,0.0003461128643352761,0.00030497020452990853,1.293825464583273e-05
149700000000.0,6,-0.0023241760499999996,0.005462304049999999,0.12817291549999998,0.00505,-0.000304,0.001382,-0.006207609449999999,-0.46096158325,-9.795764618499998,-0.000634,0.047022,1.6058,-1.3698630136893541e-06,-5.102040816495901e-07,-5.000000000032756e-06,-0.00015384251784205522,-0.00025407229444929236,7.300877057072469e-05
149700000000.0,6,-0.0116699135,0.013356657299999998,0.13141891665,0.009328,-0.000337,-0.000746,-0.0061389629,-0.46182456845000003,-9.795764618499998,-0.000626,0.04711,1.6058,-1.3698630136893541e-06,-5.102040816495901e-07,2.0000000000020002e-05,0.00038589090135455854,0.00045362410252902663,8.037716980456924e-05
149700000000.0,6,-0.0088455983,0.0012650578499999998,0.06183092824999999,0.000819,0.00293,-0.000766,-0.0061193496,-0.4621481879,-9.795764618499998,-0.000625,0.047144,1.6058,-1.3698630136893541e-06,-5.102040816495901e-07,2.999999999997449e-05,0.000259655010900077,0.00026992337686659873,0.00016377193319992017
149700000000.0,6,-0.00234378935,-0.014494228699999999,-0.03990325885,-0.005613,-0.000215,0.000296,-0.0060408964,-0.4616578554,-9.795764618499998,-0.000616,0.047093,1.6058,-1.3698630136893541e-06,-5.102040816495901e-07,-9.99999999995449e-06,0.00019054370327560924,-0.00018139014426599154,-6.667852297081306e-05
149700000000.0,6,-0.00630567595,-0.0215354034,-0.07114724574999999,-0.009884,-0.001244,-0.000777,-0.00626644935,-0.4608929367,-9.795764618499998,-0.00064,0.047015,1.6058,-1.3698630136893541e-06,-5.102040816495901e-07,2.0000000000020002e-05,-0.00021632952458368847,0.0001808733927086692,-3.1732460805532214e-05
149700000000.0,6,0.007198081099999999,-0.0072176943999999995,-0.0184561153,-0.002421,-0.001307,0.000303,-0.006452775699999999,-0.46054970394999994,-9.795862685,-0.000659,0.04698,1.6059,-1.3698630136893541e-06,-5.102040816495901e-07,-1.0000000000065512e-05,8.322955890134251e-05,-1.8702418983940206e-05,8.337521215908208e-05
149700000000.0,6,-0.0030106415499999996,0.00040207264999999996,0.07027445389999999,0.002944,0.001847,-0.00076,-0.00626644935,-0.46068699704999994,-9.795862685,-0.00064,0.046995,1.6058,-1.3698630136893541e-06,-5.102040816495901e-07,-9.99999999995449e-06,3.8224882569080215e-05,-8.946412843724438e-05,-3.254977000835546e-06
149700000000.0,6,-0.025075604049999995,-0.0047660318999999994,0.10213625975,-0.000267,0.001871,0.001369,-0.006648908699999999,-0.46091255,-9.795764618499998,-0.000678,0.047017,1.6059,-1.3698630136893541e-06,-5.102040816495901e-07,5.000000000032756e-06,-0.00042626492174335263,-0.0001322866350881302,-0.0001526420979862976
149700000000.0,6,-0.028351025149999997,-0.0020005566,0.07401078755,-0.001314,0.002946,-0.00077,-0.0069627215,-0.4608340968,-9.795764618499998,-0.000711,0.047009,1.6058,-1.3698630136893541e-06,-5.102040816495901e-07,4.999999999921734e-06,0.0003080979438821411,0.00024866452011695905,0.00019658025166562065
149700000000.0,6,-0.013788149899999998,-0.006452775699999999,0.03464689445,0.000792,0.000795,0.001373,-0.007168661149999999,-0.46102042314999997,-9.795764618499998,-0.000731,0.047028,1.6059,-1.3698630136893541e-06,-5.102040816495901e-07,-9.99999999995449e-06,-0.00041271095866039255,-0.0003122335855965108,-0.000240143861240473
149700000000.0,6,0.00152003075,-0.00779628675,0.0234182802,0.000794,-0.000268,-0.00076,-0.00705098135,-0.46116752289999996,-9.795764618499998,-0.00072,0.047043,1.6059,4.999999999988347e-05,-5.102040816495901e-07,2.0000000000020002e-05,0.000335538454971418,0.0001649482999646068,0.00011312245572284163
149700000000.0,6,0.00977723005,-0.006501808949999999,0.007109821249999999,-0.003482,-0.001298,-0.000766,-0.006933301549999999,-0.46110868299999996,-9.795764618499998,-0.000708,0.047038,1.6058,5.0000000000105516e-05,-5.102040814275455e-07,-1.0000000000065512e-05,-0.00022658645551132395,-0.00014728340401970463,-3.940063687321582e-05
149700000000.0,6,0.006933301549999999,-0.0049229383,-0.0011081514499999999,-0.005612,-0.000216,0.000296,-0.006933301549999999,-0.46075564359999993,-9.795764618499998,-0.000708,0.047001,1.6058,-4.761904761840796e-06,-5.102040816495901e-07,2.500000000016378e-06,1.131320709693226e-05,4.0124021035925495e-05,-1.98804427928162e-05
149700000000.0,6,-0.00291257505,-0.00116699135,0.027331133549999997,-0.001345,-0.000251,0.000303,-0.0069627215,-0.46060854384999994,-9.795862685,-0.00071,0.046987,1.6058,-4.761904762062841e-06,-5.102040816495901e-07,2.500000000016378e-06,-0.00020669889199631183,-0.0003632433556239878,-0.000178689897435233
149700000000.0,6,-0.0077766734499999995,0.0057859235,0.05650591729999999,0.001956,0.000699,0.000329,-0.0070411747,-0.46068699704999994,-9.795862685,-0.000719,0.046995,1.6059,-4.761904761840796e-06,-5.102040816495901e-07,2.500000000016378e-06,0.0004927253243079185,0.0003593187902608541,0.00018528279556112928
149700000000.0,6,-0.00324600115,0.0014219642499999998,0.061889768149999996,-0.000172,0.000718,-0.000742,-0.0070804013,-0.46080467685,-9.795764618499998,-0.000723,0.047007,1.6058,-4.761904761840796e-06,-5.102040816495901e-07,2.500000000016378e-06,-0.00021071273844969034,-1.0927733050447586e-05,4.864821688144519e-05
149700000000.0,6,-0.0080610663,-0.00722750105,0.04169787579999999,-0.002306,0.000736,-0.000746,-0.007060788,-0.46068699704999994,-9.795862685,-0.00072,0.046994,1.6058,-4.761904761840796e-06,-5.102040816495901e-07,-2.0000000000020002e-05,0.000274609765116186,0.00025417165180918744,0.0001960403314275605
149700000000.0,6,-0.011159967699999999,8.825985e-05,0.024948117599999996,-0.001234,0.000728,-0.001812,-0.00709020795,-0.46037318424999996,-9.795862685,-0.000724,0.046962,1.6058,-4.761904762062841e-06,-5.102040816495901e-07,-2.0000000000020002e-05,-0.0005452331151998193,-0.0005843676558259236,-0.0004018072789708088
149700000000.0,6,-0.00485429175,0.00024516625,0.03437230825,-0.00123,0.001792,-0.000746,-0.007109821249999999,-0.4603829909,-9.795862685,-0.000726,0.046963,1.6058,-4.761904761840796e-06,-5.102040816495901e-07,6.666666666710341e-06,-0.00036682986196636715,-0.00019092640040874187,0.00017255698433735547
149700000000.0,6,-0.0012650578499999998,0.00487390505,0.050386567699999996,0.000895,0.000709,-0.00074,-0.007119627899999999,-0.46036337759999996,-9.795862685,-0.000727,0.046962,1.6058,-4.761904761840796e-06,-5.102040816495901e-07,6.666666666599319e-06,-9.28064707073576e-05,5.227722024203629e-05,-0.00020556332091923799
149700000000.0,6,-0.0037559469499999997,-0.00279489525,0.041560582699999994,-0.001239,0.000727,-0.000744,-0.007168661149999999,-0.46033395764999996,-9.795862685,-0.000732,0.046959,1.6058,-4.761904762062841e-06,-5.102040816495901e-07,6.666666666710341e-06,0.0006997999073123685,0.0002560122814161403,-5.36541239439664e-06
149700000000.0,6,-0.0089436648,-0.00252030905,0.0135920169,-0.004434,0.000754,-0.001817,-0.00736479415,-0.4600103382,-9.795862685,-0.000752,0.046925,1.6058,-4.761904761840796e-06,-5.102040816495901e-07,-2.0000000000020002e-05,-0.0001837858763264963,1.1573534272502073e-05,0.00012706495328063117
149700000000.0,6,-0.0031773546,-0.0073157609,0.02870406455,-0.001225,0.001793,-0.001813,-0.00730595425,-0.4600005315499999,-9.795862685,-0.000745,0.046924,1.6058,-4.761904761840796e-06,-5.102040816495901e-07,-4.0000000000040004e-05,-0.00031231216131239435,-0.0002965795529648041,-6.842224898634397e-05
149700000000.0,6,-0.009934136449999999,-0.0016475171999999999,0.06925456229999999,0.00089,0.000708,0.000327,-0.007423634049999999,-0.460128018,-9.795862685,-0.000758,0.046937,1.6058,-4.761904761840796e-06,-5.102040816495901e-07,4.0000000000040004e-05,0.0002761991934387819,0.00030776401929411,-0.00010416761472701458
149700000000.0,6,-0.00352058735,0.0007747253499999999,0.06491021635,0.000907,0.002839,0.000323,-0.007247114349999999,-0.46016724459999997,-9.795862685,-0.00074,0.046941,1.6058,-4.761904762062841e-06,-5.102040814275455e-07,-4.999999999999449e-05,-0.0006734679588638413,-0.0005218200461358791,-7.765402207220509e-05
149700000000.0,6,0.0058643767,-0.0020201699,0.031547993049999994,-0.003386,-0.000322,0.000321,-0.007060788,-0.46005937145000003,-9.795862685,-0.000721,0.04693,1.6058,-4.761904761840796e-06,-5.102040816495901e-07,9.00000000000345e-05,0.001007970882116226,0.0007289523864069114,0.0003026719063292417
149700000000.0,6,0.00446202575,-0.00493274495,0.0171812508,-0.001244,0.000726,0.000323,-0.0070019481,-0.4600005315499999,-9.795862685,-0.000715,0.046924,1.6058,-4.761904761840796e-06,-5.102040816495901e-07,-2.0000000000020002e-05,0.0001298250217342204,9.809637284075023e-05,0.00017394337169473334
149700000000.0,6,-0.00850236555,-0.011385520649999998,0.0316950928,-0.000185,-0.000349,0.000327,-0.007207887749999999,-0.460128018,-9.795862685,-0.000736,0.046937,1.6058,-4.761904762062841e-06,-5.102040816495901e-07,2.0000000000020002e-05,-2.115561082927618e-05,0.00010572456152324605,2.1508731354959176e-05
149700000000.0,6,-0.01056176205,-0.0089632781,0.0461893215,0.001954,-0.000366,-0.000737,-0.0074040207499999995,-0.4605987372,-9.795862685,-0.000755,0.046985,1.6058,-4.761904761840796e-06,-5.102040816495901e-07,-2.0000000000020002e-05,-0.000421604013032947,-0.00014018406387350524,-0.00013055828848766368
149700000000.0,6,-0.01862282835,-0.010042009599999999,0.04317867994999999,-0.000193,-0.001415,0.000329,-0.007855126649999999,-0.4608733234,-9.795764618499998,-0.000802,0.047013,1.6058,-4.761904761840796e-06,-5.102040816495901e-07,9.99999999995449e-06,0.00026188206277356386,2.9857273310840426e-05,9.016134573794701e-05
149700000000.0,6,-0.010855961549999998,-0.0059036033,0.0222414822,-0.003377,0.000742,0.00032,-0.0080022264,-0.46066738375,-9.795862685,-0.000817,0.046992,1.6058,-4.761904761840796e-06,-5.102040816495901e-07,1.0000000000065512e-05,-0.0001676994910548707,0.00013942413845757784,-0.00011692042617438697
149700000000.0,6,-0.0012356379,-0.006021283099999999,0.036304218299999996,-0.000162,0.001783,-0.000744,-0.00789435325,-0.46069680369999993,-9.795862685,-0.000806,0.046995,1.6058,-4.761904762062841e-06,-5.102040816495901e-07,9.99999999995449e-06,0.00026084496044046813,-0.0001543259591696433,-2.555751869955797e-05
149700000000.0,6,0.007423634049999999,-0.0066979419499999995,0.054544587299999996,0.00198,0.002831,-0.000742,-0.0075707338,-0.4610694564,-9.795764618499998,-0.000773,0.047034,1.6058,-4.761904761840796e-06,-5.102040816495901e-07,-9.99999999995449e-06,-0.00012162546380532421,-9.885693653899352e-06,-9.593549973141782e-05
149700000000.0,6,0.0032950343999999998,-0.00015690639999999998,0.054976079899999995,0.001958,0.000699,0.000329,-0.00748247395,-0.4613244293,-9.795764618499998,-0.000764,0.047059,1.6058,9.999999999998899e-05,-5.102040816495901e-07,-1.0000000000065512e-05,0.0001523070959977297,4.0204949258715317e-07,0.0001544504701149925
149700000000.0,6,-0.00638412915,-0.00824739265,0.01577889985,-0.002318,-0.000332,0.000323,-0.0075315072,-0.46131462264999995,-9.795764618499998,-0.000769,0.047059,1.6058,-3.333333333332966e-05,-5.102040816495901e-07,1.0000000000065512e-05,-6.416870631086209e-05,0.00013108996737076772,6.774521556580232e-06
149700000000.0,6,-0.018044235999999998,-0.01664188505,-8.825985e-05,-0.003362,0.001809,-0.000749,-0.007698220249999999,-0.46130481599999995,-9.795764618499998,-0.000786,0.047057,1.6058,-3.333333333332966e-05,-5.102040816495901e-07,9.99999999995449e-06,1.9421790514242976e-05,-4.151761363213602e-05,0.00013838244313645748
149700000000.0,6,-0.004167826249999999,-0.0037853669,0.03882452735,-0.000178,-0.000349,-0.00074,-0.007649186999999999,-0.4612852027,-9.795764618499998,-0.000781,0.047055,1.6057,-3.333333333332966e-05,-5.102040816495901e-07,-5.000000000032756e-06,0.00010638133488659156,5.1433677929813015e-05,-4.4360574576001593e-05
149700000000.0,6,0.006805815099999999,0.00980665,0.06260565359999999,0.004097,0.000682,-0.000735,-0.00756092715,-0.46155978889999993,-9.795764618499998,-0.000772,0.047084,1.6057,9.999999999998899e-05,-5.102040814275455e-07,-4.999999999921734e-06,0.00013891720577768885,5.191161344253459e-05,-3.583025775216048e-05
149700000000.0,6,0.006413549099999999,0.0008335652500000001,0.04314926,-0.001248,0.000724,0.001391,-0.0073157609,-0.46156959554999993,-9.795764618499998,-0.000747,0.047084,1.6057,-1.2499999999970868e-05,-5.102040816495901e-07,-5.000000000032756e-06,-0.00024783278401003736,8.249694470396918e-05,1.187785431658317e-05
149700000000.0,6,0.0016671305000000001,-0.01258193195,0.013984282899999999,-0.005504,0.000761,-0.000751,-0.007198081099999999,-0.4613244293,-9.795764618499998,-0.000735,0.047059,1.6057,-1.2499999999970868e-05,-5.102040816495901e-07,-5.000000000032756e-06,-0.00012438952473025656,-0.0002357295717134722,1.836171859234334e-05
149700000000.0,6,-0.00828661925,-0.0102969825,0.021908056099999997,-0.001228,0.001792,-0.000746,-0.0072765343,-0.46135384924999995,-9.795764618499998,-0.000743,0.047063,1.6057,-1.2499999999970868e-05,-5.102040816495901e-07,-2.0000000000020002e-05,-0.00024785074882213015,-0.0001876842928913991,-0.0001036625288626733
149700000000.0,6,-0.00722750105,0.006433162399999999,0.055427185799999994,0.003036,0.000692,-0.001804,-0.007286340949999999,-0.4614813357,-9.795764618499998,-0.000744,0.047076,1.6057,-1.2500000000192912e-05,-5.102040816495901e-07,2.0000000000020002e-05,0.0003468256495615836,0.0002710500794738113,8.713233023382658e-05
149700000000.0,6,-0.019113160849999998,0.0013729309999999998,0.06304695284999999,0.000897,0.000708,-0.00074,-0.00752170055,-0.4616578554,-9.795764618499998,-0.000768,0.047093,1.6057,-1.2499999999970868e-05,-5.102040816495901e-07,5.000000000032756e-06,0.00015956604649862947,-0.0001239567767470362,-0.00015125007292084852
149700000000.0,6,-0.0094928372,0.00104931155,0.038971627099999996,-0.003362,0.001809,-0.000749,-0.0075707338,-0.46133423595,-9.795764618499998,-0.000773,0.04706,1.6057,-1.2499999999970868e-05,-5.102040816495901e-07,5.000000000032756e-06,-0.0001800907377725383,0.00010358149297307051,0.00010095658151482861
149700000000.0,6,-0.006207609449999999,-0.0077080269,0.014876688049999998,-0.001236,0.000725,-0.000744,-0.0075511204999999994,-0.46125578274999995,-9.795764618499998,-0.000771,0.047053,1.6057,-1.2499999999970868e-05,-5.102040816495901e-07,4.999999999921734e-06,-0.00011284333376339328,-4.366770763408745e-05,-3.974456685421762e-05
149700000000.0,6,-0.0061193496,-0.00363826715,0.03358777625,-0.000169,0.000717,-0.000742,-0.007649186999999999,-0.4612852027,-9.795764618499998,-0.000781,0.047055,1.6057,-1.2499999999970868e-05,-5.102040816495901e-07,5.000000000032756e-06,5.145006934459406e-05,-3.113544643773558e-05,8.688133989088326e-05
149700000000.0,6,0.0034715540999999996,0.0026379888499999996,0.05841821404999999,0.00195,-0.000367,0.000331,-0.007511893899999999,-0.46143230244999994,-9.795764618499998,-0.000767,0.04707,1.6057,9.999999999998899e-05,-5.102040816495901e-07,-9.99999999995449e-06,0.00018255821900341543,0.0002286261379937926,3.459938996194095e-05
149700000000.0,6,-0.0080218397,0.0007060788,0.04180574895,-0.001228,0.001791,-0.000746,-0.0075315072,-0.46144210909999994,-9.795764618499998,-0.000769,0.047071,1.6057,-1.666666666655381e-05,-5.102040816495901e-07,-1.0000000000065512e-05,-0.0002175114047727883,-0.0001950588306498524,1.079404318633792e-05
149700000000.0,6,-0.00726672765,-0.011179581,0.01517088755,-0.002303,0.000734,-0.000746,-0.00754131385,-0.46137346254999995,-9.795764618499998,-0.00077,0.047064,1.6057,-1.6666666666775853e-05,-5.102040816495901e-07,-9.99999999995449e-06,0.0003319104955770164,7.425837338348451e-05,-0.0003047712187656433
149700000000.0,6,-0.00901231135,-0.0074040207499999995,0.02580129615,-0.000178,-0.000349,-0.00074,-0.0077472535,-0.4614028825,-9.795764618499998,-0.00079,0.047068,1.6057,-1.6666666666775853e-05,-5.102040816495901e-07,2.999999999997449e-05,1.0799558661603662e-05,-0.00012962136684335768,0.0001583636349097757
149700000000.0,6,-0.0033440676499999996,-0.00365788045,0.0567608902,0.004107,0.001747,-0.000736,-0.007727640199999999,-0.4617166953,-9.795764618499998,-0.000789,0.0471,1.6057,-1.666666666655381e-05,-5.102040814275455e-07,-6.666666666710341e-06,-0.00020673131379389705,3.4885569493825486e-05,-0.00011136980376056857
149700000000.0,6,-0.0013925443,0.0030008349,0.0555644789,-0.001244,-0.00034,-0.000742,-0.0077374468499999995,-0.46163824209999993,-9.795764618499998,-0.00079,0.047092,1.6057,-1.666666666655381e-05,-5.102040816495901e-07,-6.666666666599319e-06,0.00021385109112578154,-1.4722426107782738e-05,0.00016146372289623304
149700000000.0,6,-0.01372931,-0.008276812599999999,0.033117057049999996,-0.003389,-0.000325,0.001389,-0.00797280645,-0.46158920885,-9.795764618499998,-0.000814,0.047086,1.6057,-1.6666666666775853e-05,-5.102040816495901e-07,-6.666666666710341e-06,-0.0005683095290538037,-0.0002182872538964986,-0.00013075737295699039
149700000000.0,6,-0.015651413399999998,-0.00730595425,0.016514398599999997,-0.002316,-0.000333,0.000324,-0.00828661925,-0.46150094899999994,-9.795764618499998,-0.000846,0.047078,1.6057,9.999999999998899e-05,-5.102040816495901e-07,2.0000000000020002e-05,0.0004053208206435434,0.0004480771249093518,0.0002118058988478562
149700000000.0,6,-0.00036284604999999996,0.0029027683999999997,0.046885593649999995,0.00304,0.001755,-0.000738,-0.008168939449999999,-0.46168727535,-9.795764618499998,-0.000834,0.047097,1.6057,-9.999999999998899e-05,-5.102040816495901e-07,5.000000000032756e-06,0.0002224364000066245,-0.0003250162291228431,-0.00012595282207561107
149700000000.0,6,-0.00267721545,0.00167693715,0.06497886289999999,0.001956,-0.000367,-0.000736,-0.008090486249999999,-0.46196186155,-9.795764618499998,-0.000826,0.047125,1.6057,9.999999999998899e-05,-5.102040816495901e-07,4.999999999921734e-06,0.0001473673384315647,0.00034241811440827163,0.00025992209350510567
149700000000.0,6,0.0010198916,-0.005462304049999999,0.0295180165,-0.003369,0.000742,-0.000747,-0.00805125965,-0.46185398839999997,-9.795764618499998,-0.000822,0.047114,1.6057,-9.999999999998899e-05,-5.102040816495901e-07,1.0000000000065512e-05,-0.00020639552742743837,-0.00035918175606064473,-0.00020083555256512203
149700000000.0,6,-0.000980665,-0.008973084749999999,0.014268675749999998,-0.004441,0.00075,0.000318,-0.007992419749999998,-0.46163824209999993,-9.795764618499998,-0.000816,0.047092,1.6057,6.249999999985434e-06,-5.102040816495901e-07,-2.0000000000020002e-05,0.00018305484158438919,0.00020866624256665744,6.065983871423458e-05
149700000000.0,6,0.0013140911,0.0006472389,0.03327396345,0.000902,0.001772,0.000326,-0.00789435325,-0.46153036895,-9.795764618499998,-0.000806,0.047081,1.6057,6.249999999985434e-06,-5.102040816495901e-07,2.999999999997449e-05,-6.578033260328658e-05,-0.00030898751203189967,-4.66401521575302e-05
149700000000.0,6,-0.00469738535,0.012062179499999999,0.0606443236,0.004076,-0.001451,0.000337,-0.0080218397,-0.46172650195,-9.795764618499998,-0.000819,0.0471,1.6057,6.249999999985434e-06,-5.102040816495901e-07,-9.99999999995449e-06,-4.4877534622234094e-05,9.348132611464166e-05,9.116110672856281e-05
149700000000.0,6,-0.009188831049999999,0.0152199208,0.0636451585,-0.001246,0.000723,0.001391,-0.008168939449999999,-0.46158920885,-9.795764618499998,-0.000834,0.047087,1.6057,6.249999999985434e-06,-5.102040816495901e-07,9.99999999995449e-06,0.0005165831208159433,-3.0629398826587106e-05,6.230521813548398e-05
149700000000.0,6,-0.007590347099999999,-0.0139450563,0.0106892485,-0.006556,0.001835,-0.001822,-0.008119906199999999,-0.46130481599999995,-9.795764618499998,-0.000829,0.047057,1.6057,6.249999999985434e-06,-5.102040816495901e-07,-2.999999999997449e-05,-3.772510776268827e-05,5.149523814829138e-05,2.934271735282115e-05
149700000000.0,6,-0.0005295590999999999,-0.0096301303,0.00067665885,-0.003369,0.000742,-0.000747,-0.0080022264,-0.46098119654999997,-9.795764618499998,-0.000817,0.047024,1.6057,6.249999999985434e-06,-5.102040816495901e-07,4.0000000000040004e-05,4.605191654640656e-05,8.426010927653493e-06,-0.0001972725865715605
149700000000.0,6,-0.000588399,0.00418743955,0.04257066765,0.003023,-0.000376,-0.000734,-0.00793357985,-0.46103022979999997,-9.795764618499998,-0.00081,0.047029,1.6056,6.249999999985434e-06,-5.102040814275455e-07,-2.0000000000020002e-05,0.00011598072270770261,-5.2223766893400025e-05,0.00012591856148928132
149700000000.0,6,-0.005942829899999999,0.007168661149999999,0.07877681945,0.003032,0.000689,-0.000736,-0.00797280645,-0.4613244293,-9.795764618499998,-0.000814,0.047059,1.6056,6.249999999985434e-06,-5.102040816495901e-07,9.99999999995449e-06,-8.109215271301894e-05,-0.00025516208749931657,-1.9014945734231736e-05
149700000000.0,6,-0.0042462794499999994,0.00069627215,0.04674830055,-0.001236,0.000725,-0.000744,-0.0080218397,-0.46127539605,-9.795764618499998,-0.000819,0.047055,1.6056,6.2500000002074785e-06,-5.102040816495901e-07,2.0000000000020002e-05,0.00017653534017495962,2.2448010768894022e-05,-4.321958275457782e-05
149700000000.0,6,-0.00199074995,-0.0130428445,0.0014219642499999998,-0.005511,-0.000306,-0.000749,-0.008041452999999999,-0.4610106165,-9.795764618499998,-0.000821,0.047028,1.6056,6.249999999985434e-06,-5.102040816495901e-07,2.0000000000020002e-05,0.00010872051736608192,-0.00030850096060786036,-4.79787156428442e-05
149700000000.0,6,-0.0088455983,0.00212804305,0.0196917532,-0.001227,0.00179,-0.000745,-0.008070872949999999,-0.46076545025,-9.795764618499998,-0.000824,0.047002,1.6056,6.249999999985434e-06,-5.102040816495901e-07,-1.0000000000065512e-05,0.0004028174905909756,-0.00010629208486290231,4.8453054359878095e-05
149700000000.0,6,-0.00718827445,0.0075315072,0.06263507355,0.001974,0.001764,-0.00074,-0.008070872949999999,-0.4609321633,-9.795764618499998,-0.000824,0.047019,1.6056,6.249999999985434e-06,-5.102040816495901e-07,5.0000000000105516e-05,0.0009356682716162908,-0.0005008536480402004,-0.00025116431526553754
149700000000.0,6,-0.0058055367999999994,-0.0080022264,0.0587222202,0.000902,0.001771,0.000326,-0.00811009955,-0.4612655894,-9.795764618499998,-0.000828,0.047053,1.6056,6.249999999985434e-06,-5.102040816495901e-07,-1.0000000000065512e-05,-5.900751187257712e-05,-0.0003868985596295893,-6.0749772359380144e-05
149700000000.0,6,-0.005933023249999999,-0.01218966595,0.0289492308,-0.004441,0.00075,0.000318,-0.00812971285,-0.46110868299999996,-9.795764618499998,-0.00083,0.047038,1.6056,6.249999999985434e-06,9.999999999998899e-05,2.999999999997449e-05,0.0008987394156778229,-0.0002991282697049069,-0.00031432185912593294
149700000000.0,6,-0.0027262486999999995,-0.00430511935,0.016239812399999998,-0.002302,0.000733,-0.000745,-0.00805125965,-0.46092235665,-9.795764618499998,-0.000822,0.047018,1.6056,6.249999999985434e-06,-9.999999999998899e-05,1.0000000000065512e-05,0.0003936602932615215,-6.640166132165781e-05,0.00016995346880351384
149700000000.0,6,-0.00295180165,0.00040207264999999996,0.041384063,0.000902,0.001771,0.000326,-0.007825706699999999,-0.46098119654999997,-9.795764618499998,-0.000799,0.047025,1.6056,6.249999999985434e-06,-1.999999999990898e-05,5.000000000032756e-06,0.0003471030488329113,-0.00044087562691408344,-0.00032896400459334063
149700000000.0,6,-0.00326561445,-0.0012160246,0.06530248235,0.000899,0.000707,-0.00074,-0.0078060934,-0.46130481599999995,-9.795764618499998,-0.000797,0.047058,1.6056,-5.0000000000105516e-05,-2.0000000000131024e-05,4.999999999921734e-06,0.0005275456460536506,-0.00033232951702788505,-4.2397558833097426e-05
149700000000.0,6,-0.0023045627499999996,-0.0019809433,0.0355392996,-0.004427,0.001816,-0.000751,-0.00771783355,-0.4611479096,-9.795764618499998,-0.000788,0.047041,1.6056,-4.999999999988347e-05,-1.999999999990898e-05,4.0000000000040004e-05,0.0003631496582998939,5.720349074267439e-05,0.00010536419519492635
149700000000.0,6,-7.845319999999999e-05,0.0010002783,0.0080218397,-0.003369,0.000742,-0.000747,-0.007698220249999999,-0.46068699704999994,-9.795862685,-0.000786,0.046995,1.6056,3.333333333332966e-05,-2.0000000000131024e-05,5.999999999994898e-05,0.0015872433704734162,-0.0009686000676267792,-0.00019440195505183305
149700000000.0,6,0.00234378935,-0.0020005566,0.03211677875,0.00196,0.000697,0.00033,-0.00758054045,-0.46068699704999994,-9.795862685,-0.000774,0.046994,1.6056,3.333333333332966e-05,-1.999999999990898e-05,4.0000000000040004e-05,0.0013511254559048416,-0.0009310549112515609,-0.0004930833976304304
149700000000.0,6,-0.00448163905,0.0011277647499999999,0.06726381235,0.001966,0.000698,-0.000738,-0.007639380349999999,-0.4609713899,-9.795764618499998,-0.00078,0.047023,1.6056,3.333333333332966e-05,1.999999999990898e-05,-2.0000000000020002e-05,0.0002255823076417196,-0.0012505320877334025,-0.000844073940730064
149700000000.0,6,-0.01099325465,0.001176798,0.0482683313,-0.002302,0.000733,-0.000745,-0.0077080269,-0.46086351675,-9.795764618499998,-0.000787,0.047012,1.6056,9.999999999998899e-05,2.0000000000131024e-05,-9.999999999998899e-05,-0.000565615248076367,0.0003507573362870886,-0.0006126178534246844
149700000000.0,6,-0.008041452999999999,-0.01118938765,0.0056290171,-0.004435,0.00075,-0.000749,-0.00781590005,-0.46061835049999994,-9.795862685,-0.000798,0.046987,1.6056,5.000000000032756e-06,1.999999999990898e-05,2.0000000000020002e-05,-7.853153405474635e-05,-0.0001909696263047156,-0.00011347507447960481
149700000000.0,6,-0.00234378935,-0.011022674599999999,0.006688135299999999,-0.00336,0.001807,-0.000749,-0.007678606949999999,-0.46048105739999995,-9.795862685,-0.000784,0.046973,1.6056,5.000000000032756e-06,2.0000000000131024e-05,-2.0000000000020002e-05,0.00032704243483210743,-9.715364472917543e-07,4.229644918349318e-05
149700000000.0,6,-0.0039422733,0.0012748644999999999,0.0627821733,0.0041,0.00068,-0.000734,-0.007727640199999999,-0.4608144834999999,-9.795764618499998,-0.000789,0.047007,1.6056,5.000000000032756e-06,1.999999999990898e-05,-2.0000000000020002e-05,-0.0004240263042421203,-0.00023010598625949896,-0.0002400945408500832
149700000000.0,6,-0.0017848103,0.0032263878499999995,0.07219655729999999,0.001949,-0.001433,-0.000734,-0.00779628675,-0.46111848964999996,-9.795764618499998,-0.000796,0.047038,1.6055,4.999999999810711e-06,-5.0000000000105516e-05,9.99999999995449e-06,-0.0003099819943110753,0.0002407910571280425,0.00017241417486096866
149700000000.0,6,0.0003334261,-0.0056976636499999995,0.0412271566,-0.003365,0.001806,0.000318,-0.0076688003,-0.46102042314999997,-9.795764618499998,-0.000783,0.047028,1.6056,5.000000000032756e-06,-4.999999999988347e-05,1.0000000000065512e-05,0.0007448559237803864,9.339999427071533e-05,0.00011803248588070081
149700000000.0,6,-0.0031185146999999996,-0.0112776475,0.0078649333,-0.004443,-0.000315,-0.000747,-0.0078060934,-0.4608340968,-9.795764618499998,-0.000796,0.047009,1.6055,5.000000000032756e-06,6.666666666710341e-06,9.99999999995449e-06,-0.0003520451061150339,7.658280282196728e-05,-2.850303524687403e-05
149700000000.0,6,-0.00485429175,-0.0046581587499999995,0.030459454899999995,0.000886,-0.00036,0.00033,-0.0078649333,-0.46086351675,-9.795764618499998,-0.000803,0.047013,1.6055,5.000000000032756e-06,6.666666666710341e-06,1.0000000000065512e-05,0.0005237444096112872,0.0002951995046140965,0.00040565951208029055
149700000000.0,6,-0.004540478949999999,0.005501530649999999,0.07158854499999999,0.005172,0.000672,-0.0018,-0.00787473995,-0.46129500934999995,-9.795764618499998,-0.000804,0.047056,1.6055,5.000000000032756e-06,6.666666666488297e-06,-2.0000000000020002e-05,-0.00029053287737069305,-0.00031547384833219283,-0.00043263459325430104
149700000000.0,6,-0.00393246665,0.004707192,0.06066393689999999,-0.000181,-0.000351,0.000328,-0.00803164635,-0.4614028825,-9.795764618499998,-0.00082,0.047067,1.6055,5.000000000032756e-06,6.666666666710341e-06,9.99999999995449e-06,0.0002535954512880752,-0.0001720783345238175,1.8929267482190038e-05
149700000000.0,6,-0.0040991797,-0.006197802799999999,0.011454167199999999,-0.006551,0.002899,-0.000756,-0.00787473995,-0.4609713899,-9.795764618499998,-0.000803,0.047023,1.6055,4.999999999810711e-06,6.666666666710341e-06,-9.99999999995449e-06,-0.0001791609437693329,0.0002694199064363634,-8.373489922526567e-05
149700000000.0,6,-0.0019417166999999998,-0.00848275225,0.00053936575,-0.001237,-0.000341,-0.001809,-0.00793357985,-0.46078506355,-9.795764618499998,-0.00081,0.047004,1.6055,5.000000000032756e-06,6.666666666710341e-06,2.0000000000020002e-05,-0.00014758012102719653,-0.00025421853600082756,-4.0558311396418634e-05
149700000000.0,6,-0.0034519407999999995,-0.0009022117999999999,0.04512039665,0.003017,-0.001442,-0.000732,-0.00791396655,-0.46103022979999997,-9.795764618499998,-0.000808,0.047029,1.6055,5.000000000032756e-06,6.666666666710341e-06,-2.0000000000020002e-05,-0.0002682112125689147,3.1553917923865527e-05,0.00011651477125884657
149700000000.0,6,-0.0039422733,0.00697252815,0.07189255115,0.00302,-0.000378,0.000333,-0.0080218397,-0.4612655894,-9.795764618499998,-0.000819,0.047054,1.6055,5.000000000032756e-06,6.666666666488297e-06,-2.999999999997449e-05,2.8396776568309634e-05,0.00021617505442050877,0.0001328277269846724
149700000000.0,6,-0.0058643767,-0.010198915999999999,0.04555188925,-0.003364,0.001806,0.000319,-0.00805125965,-0.46130481599999995,-9.795764618499998,-0.000822,0.047058,1.6055,5.000000000032756e-06,6.666666666710341e-06,3.999999999992898e-05,0.00017410360464280294,-0.00038279892432169227,-0.00022055241256658045
149700000000.0,6,-0.009718390149999999,-0.01521011415,0.0093555441,-0.003355,0.002871,0.000317,-0.00793357985,-0.46107926305,-9.795764618499998,-0.00081,0.047035,1.6055,5.000000000032756e-06,6.666666666710341e-06,-1.999999999990898e-05,0.0002830368374209403,-0.0001090208754390698,-0.00022455349198082647
149700000000.0,6,0.0016377105499999999,-0.0051386846,0.030596747999999997,0.000906,0.000707,-0.001807,-0.0077766734499999995,-0.46112829629999996,-9.795764618499998,-0.000794,0.047039,1.6055,5.000000000032756e-06,6.666666666710341e-06,9.99999999995449e-06,-9.41622551659145e-06,0.0003969683982409933,0.00038080325229742154
149700000000.0,6,0.0036480737999999998,0.007453054,0.06530248235,0.003015,-0.000379,0.001401,-0.007688413599999999,-0.46130481599999995,-9.795764618499998,-0.000785,0.047057,1.6055,4.999999999810711e-06,6.666666666710341e-06,-9.99999999995449e-06,-0.00022076100461649803,-0.0004112175742725377,-0.0001018767631631827
149700000000.0,6,-0.0083552658,0.0006276255999999999,0.05737870915,-0.002297,0.001797,0.00032,-0.007658993649999999,-0.46121655615,-9.795764618499998,-0.000782,0.047048,1.6055,5.000000000032756e-06,6.666666666488297e-06,9.99999999995449e-06,0.00023620765103085292,0.00024190953926495062,-8.034497849811195e-05
149700000000.0,6,-0.001569064,-0.01577889985,0.020270345549999996,-0.004425,0.001816,-0.000751,-0.00756092715,-0.46110868299999996,-9.795764618499998,-0.000771,0.047038,1.6055,5.000000000032756e-06,6.666666666710341e-06,-9.99999999995449e-06,-0.00019050687521667518,-0.0002886378494662001,-0.0001531844836752949
149700000000.0,6,0.0026477955,-0.011611073599999999,0.027909725899999998,-0.0023,0.000733,-0.000745,-0.007433440699999999,-0.4609517765999999,-9.795764618499998,-0.000759,0.047021,1.6055,5.000000000032756e-06,6.666666666710341e-06,-0.0001100000000000545,-0.0024061593018196176,0.0013619806930926792,0.00014811849605544936
149700000000.0,6,0.0024320492,0.005540757249999999,0.0493078362,0.001971,0.001762,0.000328,-0.007374600799999999,-0.46103022979999997,-9.795764618499998,-0.000753,0.04703,1.6055,-0.00019999999999997797,9.999999999998899e-05,-0.000140000000000029,-0.005893001106877984,0.005161050181355709,0.0026350574346993977
149700000000.0,6,-0.0051779112,-0.0019122967499999998,0.06920552904999999,-0.000157,0.001781,-0.000743,-0.007394214099999999,-0.46121655615,-9.795764618499998,-0.000754,0.047048,1.6055,-5.882352941188884e-06,-2.3255813954570215e-06,8.000000000008001e-05,0.00045306144997566376,-0.000257245642653281,0.00034809609456293994
149700000000.0,6,-0.01020872265,-0.0052857843499999994,0.02701732075,-0.005514,-0.000308,0.000319,-0.007600153749999999,-0.46099100319999997,-9.795764618499998,-0.000776,0.047025,1.6055,-5.882352941188884e-06,-2.325581395234977e-06,9.99999999995449e-06,0.00047437625812310827,-0.0001354640833608478,-0.00014014016664602724
149700000000.0,6,-0.0151610809,-0.01022833595,0.0014317708999999998,-0.003366,0.000741,-0.000747,-0.007727640199999999,-0.4608340968,-9.795764618499998,-0.000789,0.047009,1.6055,-5.882352941188884e-06,-2.3255813954570215e-06,-4.0000000000040004e-05,-0.00037999599355279315,-0.0003635463725797372,-8.154226856582625e-05
149700000000.0,6,-0.01013026945,-0.00748247395,0.0407760507,0.001968,0.000697,-0.000738,-0.007678606949999999,-0.46103022979999997,-9.795764618499998,-0.000783,0.047029,1.6055,-5.882352941188884e-06,-2.325581395234977e-06,2.0000000000020002e-05,-6.541474703633879e-05,-4.468410295777048e-05,0.00016104140186314758
149700000000.0,6,-0.00944380395,0.007453054,0.07518758554999999,0.001968,0.000697,-0.000737,-0.007766866799999999,-0.46115771624999996,-9.795764618499998,-0.000793,0.047042,1.6055,-5.882352941188884e-06,-2.3255813954570215e-06,2.0000000000020002e-05,0.0003262826033162917,0.0004506769825054491,3.854520792683988e-05
149700000000.0,6,-0.01464132845,0.0014219642499999998,0.0573885158,-0.002305,0.000731,0.000322,-0.00795319315,-0.46110868299999996,-9.795764618499998,-0.000812,0.047037,1.6055,-5.882352941188884e-06,-2.325581395234977e-06,-2.0000000000020002e-05,6.329606957870999e-05,-0.00034733349004123504,-0.00016648772854927288
149700000000.0,6,-0.007511893899999999,-0.01903470765,0.0069627215,-0.004421,0.002879,0.000315,-0.007904159899999999,-0.46100080984999997,-9.795764618499998,-0.000807,0.047026,1.6055,-5.882352941188884e-06,-2.3255813954570215e-06,1.0000000000065512e-05,2.8320372714284864e-05,0.00024453001732438473,0.00010011989773887203
149700000000.0,6,-0.00922805765,-0.01301342455,0.0063645158499999995,-0.001232,0.000723,-0.000743,-0.0079826131,-0.4608929367,-9.795764618499998,-0.000815,0.047015,1.6055,-5.882352941188884e-06,-2.325581395234977e-06,-2.0000000000020002e-05,-0.00032307720790005975,-0.00016467598570257813,-4.69300975756079e-05
149700000000.0,6,-0.00726672765,-0.0071490478500000005,0.05886931994999999,0.004086,-0.001452,-0.00073,-0.00814932615,-0.46136365589999995,-9.795764618499998,-0.000832,0.047063,1.6055,-5.88235294096684e-06,-2.3255813954570215e-06,9.99999999995449e-06,0.00015812307912791562,0.0001042421383889991,-1.6191910347518323e-06
149700000000.0,6,-0.00661948875,0.0019024901,0.07083343295,0.000894,-0.000361,-0.000737,-0.00818855275,-0.46158920885,-9.795764618499998,-0.000836,0.047086,1.6055,-5.882352941188884e-06,-2.325581395234977e-06,2.0000000000020002e-05,0.0003996156993882963,0.0002156852836994183,1.411393726058474e-07
149700000000.0,6,-0.00556037055,-0.0062174160999999995,0.0367160976,-0.002304,0.00073,0.000323,-0.008208166049999998,-0.46154998225,-9.795764618499998,-0.000838,0.047082,1.6055,-5.882352941188884e-06,-2.3255813954570215e-06,-6.666666666710341e-06,2.63928482910937e-05,-0.00014347434998573938,0.00012061747253287042
149700000000.0,6,-0.0031969679,-0.008708305199999999,0.0063547092,-0.00549,0.001823,-0.000752,-0.0080218397,-0.4611479096,-9.795764618499998,-0.000819,0.047042,1.6054,-5.882352941188884e-06,-2.325581395234977e-06,-6.666666666599319e-06,-0.0005957328760236042,3.946883249184019e-05,-3.963312982956796e-05
149700000000.0,6,-0.00101008495,-0.00104931155,0.0317931593,0.000906,0.001769,0.000326,-0.00797280645,-0.46117732954999996,-9.795764618499998,-0.000814,0.047045,1.6054,-5.882352941188884e-06,-2.3255813954570215e-06,-6.666666666710341e-06,0.00012154503976118634,-0.00012809792286971877,0.00011815861742228706
149700000000.0,6,0.0031185146999999996,0.007855126649999999,0.07173564475,0.003027,-0.000378,-0.000734,-0.0080610663,-0.4614028825,-9.795764618499998,-0.000823,0.047067,1.6054,-5.882352941188884e-06,-2.325581395234977e-06,-9.99999999995449e-06,-7.158447882568003e-07,-0.0002004981657892646,-0.00032371155132557977
149700000000.0,6,-8.825985e-05,0.00577611685,0.0443652846,-0.002206,0.000654,-0.001779,-0.007992419749999998,-0.46111848964999996,-9.795764618499998,-0.000816,0.047039,1.6054,-5.882352941188884e-06,-2.3255813954570215e-06,2.0000000000020002e-05,-4.387655215497971e-06,0.0001780714333201594,9.767128083747537e-05
149700000000.0,6,-0.00314793465,-0.014268675749999998,0.0023339827,-0.006471,0.001754,-0.000721,-0.0079237732,-0.4608242901499999,-9.795764618499998,-0.000809,0.047008,1.6054,-5.882352941188884e-06,-2.325581395234977e-06,-1.0000000000065512e-05,0.0001100393419415785,0.00018361474762351726,3.9504555294507526e-05
149700000000.0,6,-0.01189546645,-0.0146707484,0.0220845758,-0.001136,0.00171,-0.000711,-0.008012033049999999,-0.4608733234,-9.795764618499998,-0.000818,0.047013,1.6054,-5.882352941188884e-06,-2.3255813954570215e-06,1.0000000000065512e-05,-0.00045223291770854143,-0.00011642925194643716,1.2915467184775736e-05
149700000000.0,6,-0.0018436501999999997,0.00648219565,0.05708450965,0.005257,0.000591,-0.000698,-0.00803164635,-0.46122636279999996,-9.795764618499998,-0.00082,0.047049,1.6054,9.999999999998899e-05,-2.325581395234977e-06,-1.0000000000065512e-05,0.00016029566702386797,2.2273420982710235e-05,-1.4553317050254588e-06
149700000000.0,6,0.00385401345,0.00034323274999999994,0.0560155848,0.002065,0.001683,-0.000706,-0.0077472535,-0.4615205623,-9.795764618499998,-0.000791,0.04708,1.6054,3.999999999892978e-06,-2.3255813954570215e-06,-2.0000000000020002e-05,0.00018075490726144304,8.253652661838196e-05,-1.921393109993383e-05
149700000000.0,6,-0.00381478685,-0.0096301303,0.02295736765,-0.003292,-0.000405,0.000356,-0.007855126649999999,-0.46143230244999994,-9.795764618499998,-0.000802,0.04707,1.6054,4.000000000115023e-06,-2.325581395234977e-06,1.0000000000065512e-05,-0.000241754876360847,-0.00028965309768791414,-0.00012741903839786836
149700000000.0,6,-0.0030302548499999997,-0.013082071099999999,0.00067665885,-0.005425,-0.000387,0.000353,-0.00789435325,-0.46111848964999996,-9.795764618499998,-0.000806,0.047038,1.6054,3.999999999892978e-06,-2.3255813954570215e-06,9.99999999995449e-06,-2.779994523292341e-05,0.00025755536026861314,-1.8859593366216815e-05
149700000000.0,6,-0.0011375714,0.00452086565,0.03552949295,0.00312,-0.000455,-0.001767,-0.00784532,-0.46121655615,-9.795764618499998,-0.000801,0.047049,1.6054,4.000000000115023e-06,-2.325581395234977e-06,1.0000000000065512e-05,0.00022481303615562616,0.00013537077024539101,0.00010541972229905286
149700000000.0,6,-0.007658993649999999,0.010444082249999998,0.07848261995,-6e-05,0.002766,-0.000711,-0.00775706015,-0.4611479096,-9.795764618499998,-0.000791,0.047042,1.6054,3.999999999892978e-06,-2.3255813954570215e-06,-4.0000000000040004e-05,-0.00044612101209387175,-0.0002567069171230951,-0.00019275645035721559
149700000000.0,6,-0.00106892485,-0.00167693715,0.049003830049999995,-0.00223,-0.000415,0.001426,-0.007766866799999999,-0.46115771624999996,-9.795764618499998,-0.000792,0.047042,1.6054,4.000000000115023e-06,-2.325581395234977e-06,2.0000000000020002e-05,0.00010757122886091881,-1.0206925560307667e-05,0.00014975146628501412
149700000000.0,6,-0.0048837117,-0.007658993649999999,0.00561921045,-0.005426,-0.000387,0.000353,-0.00783551335,-0.4608537101,-9.795764618499998,-0.0008,0.047012,1.6054,3.999999999892978e-06,-2.3255813954570215e-06,2.0000000000020002e-05,-5.028991178206675e-05,0.00020352592684247384,0.00015085375400652676
149700000000.0,6,-0.0023732093,-0.0041972462,0.0225356817,-7.7e-05,0.000635,-0.000707,-0.0078060934,-0.46072622365,-9.795764618499998,-0.000797,0.046998,1.6054,4.000000000115023e-06,-2.325581395234977e-06,-4.0000000000040004e-05,2.326320137168922e-05,-7.980983117050755e-05,-7.948333114035297e-05
149700000000.0,6,0.0019809433,0.00430511935,0.05874183349999999,0.002051,0.000617,0.000364,-0.00781590005,-0.4608537101,-9.795764618499998,-0.000798,0.047011,1.6054,3.999999999892978e-06,-2.3255813954570215e-06,9.99999999995449e-06,-9.221731721503236e-05,0.00010459648044269798,-4.3661289686816596e-05
149700000000.0,6,-0.0085513988,0.0008139519499999999,0.0665087003,0.000981,-0.000439,-0.000704,-0.007904159899999999,-0.46109887634999996,-9.795764618499998,-0.000807,0.047036,1.6054,4.000000000115023e-06,-2.325581395234977e-06,1.0000000000065512e-05,0.0002734223410527214,-4.627024497683152e-05,-0.00010550748200857316
149700000000.0,6,-0.009502643849999999,-0.0032754210999999997,0.0324011716,-0.004336,0.001736,-0.000717,-0.0080022264,-0.46090274335,-9.795764618499998,-0.000817,0.047016,1.6054,3.999999999892978e-06,-2.3255813954570215e-06,5.000000000032756e-06,-0.00014671722988282218,-0.0001000577537744185,2.981222518379581e-05
149700000000.0,6,-0.00681562175,-0.015455280399999998,0.004128599649999999,-0.003278,0.000662,-0.000713,-0.0080022264,-0.46084390345,-9.795764618499998,-0.000817,0.04701,1.6054,4.000000000115023e-06,-2.325581395234977e-06,4.999999999921734e-06,0.0002727569987895015,0.00037213755609677435,0.00016181296697283937
149700000000.0,6,0.0010395049,-0.0118072066,0.0313616667,0.000968,-0.001506,0.000366,-0.008070872949999999,-0.46090274335,-9.795764618499998,-0.000824,0.047016,1.6054,3.999999999892978e-06,-2.3255813954570215e-06,-3.999999999992898e-05,-0.0004765137716234002,-0.0005450426892064097,-0.0001487623835620261
149700000000.0,6,-0.00399130655,-0.0026281822,0.0615661487,0.003136,0.002739,0.000362,-0.00797280645,-0.46125578274999995,-9.795764618499998,-0.000814,0.047052,1.6054,4.000000000115023e-06,-2.325581395234977e-06,3.999999999992898e-05,0.00024694353019097566,0.00037961084219118035,5.731957162976101e-05
149700000000.0,6,-0.00306948145,0.0017259703999999998,0.0560351981,-0.001144,0.000644,-0.000709,-0.007855126649999999,-0.4612655894,-9.795764618499998,-0.000802,0.047053,1.6054,3.999999999892978e-06,-2.3255813954570215e-06,-1.333333333330966e-05,0.00017921967388315196,0.00010479072277291834,0.00015274198720232474
149700000000.0,6,-0.0025497289999999997,-0.005246557749999999,0.01744603035,-0.005389,0.002811,-0.001788,-0.0077766734499999995,-0.4608831300499999,-9.795764618499998,-0.000794,0.047014,1.6054,4.000000000115023e-06,-2.325581395234977e-06,-1.333333333330966e-05,-0.00011851198301378318,-0.0003138795232580094,-0.00012140313634866756
149700000000.0,6,-0.005315204299999999,-0.00216726965,0.013101684399999999,-8.5e-05,-0.00043,-0.000705,-0.007855126649999999,-0.4608144834999999,-9.795764618499998,-0.000802,0.047007,1.6054,3.999999999892978e-06,-2.3255813954570215e-06,-1.333333333330966e-05,0.00019784738144725152,-4.9133555090508096e-05,3.126153038931698e-05
149700000000.0,6,-0.00401091985,-0.00095124505,0.05663340374999999,0.002074,0.002749,-0.000707,-0.0078060934,-0.46112829629999996,-9.795764618499998,-0.000797,0.04704,1.6054,4.000000000115023e-06,-2.325581395234977e-06,2.999999999997449e-05,7.703301261078634e-05,-2.4996589861991936e-05,-5.87210924776968e-05
149700000000.0,6,-0.0077864801,0.0015592573499999998,0.05767290864999999,-0.001135,0.001709,-0.000711,-0.00793357985,-0.46124597609999995,-9.795764618499998,-0.00081,0.047052,1.6054,3.999999999892978e-06,-2.3255813954570215e-06,3.999999999992898e-05,-0.000366634911433808,6.264029245151015e-05,-6.597636792597672e-05
149700000000.0,6,-0.0033931009,-0.01038524235,0.02880213105,-0.005416,0.000678,0.000351,-0.00797280645,-0.46111848964999996,-9.795764618499998,-0.000814,0.047039,1.6054,4.000000000115023e-06,-2.325581395234977e-06,-2.999999999997449e-05,0.0007242169322246375,-0.00030151446268145143,8.403791384216028e-05
149700000000.0,6,-0.0042462794499999994,-0.0107088618,0.01683801805,-0.001129,0.00171,-0.001778,-0.00787473995,-0.46109887634999996,-9.795764618499998,-0.000804,0.047036,1.6054,3.999999999892978e-06,-2.3255813954570215e-06,1.0000000000065512e-05,0.00031312001041546716,-0.0002438288462420779,-0.0002567312339018038
149700000000.0,6,-0.006933301549999999,-0.00102969825,0.035372586549999994,0.003124,0.000609,-0.000702,-0.00787473995,-0.46135384924999995,-9.795764618499998,-0.000804,0.047062,1.6054,4.000000000115023e-06,-2.325581395234977e-06,-9.99999999995449e-06,-0.0004688751606274754,0.00030570735362789314,0.0003421817664391487
149700000000.0,6,-0.007286340949999999,0.0021378497,0.0600559246,0.003124,0.000608,-0.000702,-0.00783551335,-0.4616774687,-9.795764618499998,-0.000799,0.047095,1.6054,3.999999999892978e-06,-2.3255813954570215e-06,-1.0000000000065512e-05,0.0002571198798510931,-5.470661066797611e-05,-0.00028382983327599615
149700000000.0,6,-0.011836626549999998,-0.00552114395,0.051367232699999994,-7.3e-05,0.001699,0.000358,-0.0079237732,-0.46180495515,-9.795764618499998,-0.000808,0.047108,1.6054,4.000000000115023e-06,-2.325581395234977e-06,5.999999999994898e-05,0.00130389242736389,-0.001031668187096546,-0.0006986102912341641
149700000000.0,6,-0.00679600845,-0.005236751099999999,0.023545766649999997,-0.003304,-0.001472,0.001426,-0.0080218397,-0.46163824209999993,-9.795764618499998,-0.000819,0.047091,1.6054,3.999999999892978e-06,-2.3255813954570215e-06,2.999999999997449e-05,0.0016808018844433354,-0.0016910689893210318,-0.0008044827896921125
149700000000.0,6,-6.864654999999999e-05,-0.00067665885,0.024447978449999998,-7.3e-05,0.001699,0.000358,-0.008012033049999999,-0.46154998225,-9.795764618499998,-0.000818,0.047083,1.6054,-2.0408163265983603e-06,-1.999999999990898e-05,2.0000000000020002e-05,0.0016274356354536532,-0.0012749527408744132,-0.0005654744166020825
149700000000.0,6,-0.0006080123,-0.00067665885,0.050170821399999996,0.002041,-0.001514,-0.0007,-0.008070872949999999,-0.4616970819999999,-9.795764618499998,-0.000824,0.047098,1.6054,-2.0408163263763157e-06,-2.0000000000131024e-05,1.0000000000065512e-05,0.0007705146737966,-0.0009356022117146257,-0.0004804367106031049
149700000000.0,6,0.0007158854499999999,-0.0025889556,0.04821929805,0.000977,-0.000441,0.000364,-0.00805125965,-0.46188340834999997,-9.795764618499998,-0.000822,0.047116,1.6054,-2.0408163265983603e-06,-1.999999999990898e-05,2.5000000000052758e-05,0.0008471308094214359,2.6915144729189322e-05,0.00019142647074739394
149700000000.0,6,0.00128467115,-0.0016671305000000001,0.0268309944,-0.003276,0.000661,-0.000713,-0.0080218397,-0.4617657285499999,-9.795764618499998,-0.000819,0.047104,1.6054,-2.0408163265983603e-06,-2.0000000000131024e-05,2.4999999999941735e-05,-0.00035908089945690426,-0.0003390807232304116,-0.0003073924127020705
149700000000.0,6,-0.0046875787,-0.01130706745,0.017249897349999998,-0.002209,0.000652,-0.000711,-0.00803164635,-0.4616970819999999,-9.795764618499998,-0.00082,0.047097,1.6054,-2.0408163263763157e-06,-1.999999999990898e-05,5.000000000032756e-06,0.001194497946930632,-0.00017920398719306618,-1.2536940883302317e-05
149700000000.0,6,-0.005952636549999999,-0.0048248718,0.02862561135,-8.4e-05,-0.000431,-0.000705,-0.008119906199999999,-0.4617363086,-9.795764618499998,-0.000829,0.047102,1.6054,-2.0408163265983603e-06,4.999999999988347e-05,4.999999999921734e-06,-0.00040318800609319763,2.7959701978108598e-05,-0.00014126576731043894
149700000000.0,6,-0.0063547092,-0.0030792880999999995,0.0576434887,0.000986,0.000625,0.000362,-0.008168939449999999,-0.46199128149999996,-9.795764618499998,-0.000833,0.047127,1.6054,-2.0408163265983603e-06,5.0000000000105516e-05,1.4999999999987246e-05,0.00010911798621213858,0.00020723325617288957,0.00023786404172708442
149700000000.0,6,-0.00267721545,-0.0018632635,0.05239693095,-6.4e-05,0.002765,0.000357,-0.0081002929,-0.4621678012,-9.795764618499998,-0.000827,0.047145,1.6054,-2.0408163265983603e-06,-9.999999999998899e-05,1.4999999999987246e-05,-4.365416272538239e-06,-0.0004482413373139149,7.698654734735605e-05
149700000000.0,6,-0.004059953099999999,-0.00871811185,0.01005181625,-0.004365,-0.001462,0.000357,-0.008208166049999998,-0.46204031474999996,-9.795764618499998,-0.000838,0.047133,1.6054,-2.0408163263763157e-06,1.1111111111183902e-05,-9.99999999995449e-06,0.0004533815365883511,0.0001491304685603545,-1.3721421593816674e-05
149700000000.0,6,-0.0063547092,-0.0128074849,0.0063154826,-0.002214,0.000651,0.000357,-0.0083160392,-0.46199128149999996,-9.795764618499998,-0.000848,0.047128,1.6054,-2.0408163265983603e-06,1.1111111110961858e-05,-9.99999999995449e-06,-0.0004590720439985301,-6.701147029297694e-05,-7.81901900666418e-05
149700000000.0,6,-0.0032165811999999997,0.0026576021499999996,0.0534462425,0.003134,0.001674,-0.000703,-0.008306232549999999,-0.46219722114999995,-9.795764618499998,-0.000848,0.047148,1.6054,-2.0408163265983603e-06,1.1111111111183902e-05,2.999999999997449e-05,0.0005087256710969417,0.00024565677185894863,0.0001412505352670415
149700000000.0,6,-0.0016279038999999999,0.0120817928,0.0675089786,0.00095,-0.002574,0.002503,-0.00854159215,-0.46218741449999995,-9.795764618499998,-0.000872,0.047148,1.6054,-2.0408163263763157e-06,1.1111111111183902e-05,-9.99999999995449e-06,-0.0003016272095663474,-0.0001762521599362188,-0.00020638805107028174
149700000000.0,6,0.0018632635,-0.0037069137,0.03219523195,-0.003267,0.001726,-0.000715,-0.00844352565,-0.46210896129999995,-9.795764618499998,-0.000862,0.04714,1.6054,-2.0408163265983603e-06,1.1111111110961858e-05,-1.0000000000065512e-05,0.00011569923538835847,-0.00016815414963011754,-1.286412915138535e-05
149700000000.0,6,-0.0012748644999999999,-0.012993811249999999,0.00452086565,-0.004351,-0.000396,-0.000713,-0.0084533323,-0.4619520549,-9.795764618499998,-0.000863,0.047124,1.6054,-2.0408163265983603e-06,1.1111111111183902e-05,-1.0000000000065512e-05,0.00021763702432889102,-3.255327513640438e-05,-9.236006111315587e-06
149700000000.0,6,0.00167693715,-0.0038834333999999996,0.0338525558,-8.3e-05,-0.000431,-0.000705,-0.0084141057,-0.46193244159999997,-9.795764618499998,-0.000859,0.047122,1.6054,-2.0408163263763157e-06,1.1111111111183902e-05,-9.99999999995449e-06,-0.00048026204868744683,0.0002838032271992308,0.00031031333521625015
149700000000.0,6,-0.0068450417,-0.00140235095,0.06241932725,0.003107,-0.000459,0.001435,-0.0084141057,-0.46232470759999994,-9.795764618499998,-0.000859,0.047161,1.6054,-2.0408163265983603e-06,1.1111111110961858e-05,4.999999999999449e-05,0.0001722898853420609,-0.00014883350717287414,-0.00021805457574344822
149700000000.0,6,-0.0067862018,-0.00344213415,0.05207331149999999,0.000975,-0.001505,-0.000701,-0.008629852,-0.462677747,-9.795764618499998,-0.000881,0.047198,1.6054,-2.0408163265983603e-06,1.1111111111183902e-05,-2.999999999997449e-05,-0.00012801922074829816,-0.0002739644419393894,-2.2279313205031404e-05
149700000000.0,6,-0.0042855060499999995,-0.006933301549999999,0.016024066099999998,-0.004325,0.002801,-0.000718,-0.00858081875,-0.462481614,-9.795764618499998,-0.000876,0.047178,1.6054,-2.0408163263763157e-06,-9.999999999998899e-05,2.999999999997449e-05,0.00022707120570585222,0.00023755131630398552,1.1484686981519387e-05
149700000000.0,6,2.941995e-05,-0.010012589649999999,0.010787315,-0.002208,0.000652,-0.000711,-0.00840429905,-0.46239335414999994,-9.795764618499998,-0.000858,0.047168,1.6054,-2.0408163265983603e-06,1.2499999999970868e-05,-2.0000000000020002e-05,-5.192577813039473e-05,0.00018712743122528686,3.173164614779511e-05
149700000000.0,6,-0.0017848103,-0.00250069575,0.04743476605,0.003112,-0.000458,0.000368,-0.00854159215,-0.46272678024999997,-9.795764618499998,-0.000872,0.047203,1.6054,-2.0408163265983603e-06,1.2499999999970868e-05,-6.666666666599319e-06,-0.00019555710094597625,5.289373912620299e-05,2.352265023766731e-05
149700000000.0,6,-0.00456009225,0.00013729309999999998,0.058947773149999994,-8.3e-05,-0.000431,-0.000705,-0.0086102387,-0.46281504009999996,-9.795764618499998,-0.000878,0.047212,1.6054,-2.0408163265983603e-06,1.2499999999970868e-05,-6.666666666710341e-06,1.9980747250217604e-05,-0.00031762866106688215,-3.042712615856924e-05
149700000000.0,6,-0.00367749375,-0.006639102049999999,0.02678196115,-0.004333,0.001735,-0.000716,-0.00844352565,-0.46262871375,-9.795764618499998,-0.000862,0.047192,1.6054,-2.0408163263763157e-06,1.2499999999970868e-05,-6.666666666599319e-06,0.000375620683285895,0.00012804818486822356,-6.479118642771509e-05
149700000000.0,6,-0.0033440676499999996,-0.012876131449999998,0.004648352099999999,-0.002191,0.002783,-0.000714,-0.00832584585,-0.4625208405999999,-9.795764618499998,-0.00085,0.047182,1.6054,-2.0408163265983603e-06,1.2500000000192912e-05,1.4999999999987246e-05,-0.000268527524535548,3.9329776383212334e-05,0.00020854448310420742
149700000000.0,6,-0.00928689755,-0.0070019481,0.030528101449999998,0.002043,-0.001514,-0.000699,-0.008521978849999999,-0.46270716695,-9.795764618499998,-0.00087,0.047201,1.6054,-2.0408163265983603e-06,1.2499999999970868e-05,1.4999999999987246e-05,0.0005084924478842377,-0.00022318558697209667,-0.0003598524538521372
149700000000.0,6,-0.0070313680499999994,-0.0035990405499999995,0.05174969204999999,0.003122,0.000607,0.000366,-0.0085317855,-0.46312885289999994,-9.795666552,-0.000871,0.047243,1.6054,-2.0408163263763157e-06,1.2499999999970868e-05,-3.0000000000085514e-05,-1.4520527169081462e-05,0.000590326203091962,0.0005992378029574495
149700000000.0,6,-0.00183384355,0.0032950343999999998,0.038442067999999996,-0.002216,-0.000414,-0.000709,-0.008492558899999999,-0.46298175315,-9.795764618499998,-0.000867,0.047229,1.6054,-2.0408163265983603e-06,1.2499999999970868e-05,-2.999999999997449e-05,-0.0006846005717039087,-0.00028375834624738694,-0.0003977331108413161
149700000000.0,6,-0.00015690639999999998,-0.006207609449999999,0.0059918631499999995,-0.004341,0.000669,-0.000714,-0.0083748791,-0.46260910045,-9.795764618499998,-0.000855,0.047191,1.6053,-2.0408163265983603e-06,-9.999999999998899e-05,2.0000000000020002e-05,0.00040700081825850026,-0.00012753402105536438,-3.692731162594637e-05
149700000000.0,6,0.0032558077999999997,0.0027262486999999995,0.0163182656,-0.001135,0.000644,-0.001776,-0.0081983594,-0.46241296745,-9.795764618499998,-0.000837,0.04717,1.6053,-2.0408163263763157e-06,4.999999999988347e-05,2.999999999997449e-05,0.00014105643484739645,-1.7803979366348699e-06,-1.5736073184086097e-07
149700000000.0,6,-0.007698220249999999,0.006060509699999999,0.04893518349999999,0.002051,-0.000449,-0.000701,-0.0083160392,-0.46260910045,-9.795764618499998,-0.000849,0.04719,1.6053,-2.0408163265983603e-06,5.0000000000105516e-05,-3.999999999992898e-05,-0.0007686395653081941,0.0002694469425390533,0.000252426950190926
149700000000.0,6,-0.009002504699999999,-0.00583495675,0.044443737799999994,-0.001141,0.000643,-0.000709,-0.0083552658,-0.462677747,-9.795764618499998,-0.000852,0.047198,1.6053,-2.0408163265983603e-06,-9.999999999998899e-05,3.999999999992898e-05,0.0007536728903258308,-0.00022608809116420048,-7.653890601565932e-05
149700000000.0,6,0.0038834333999999996,-0.009433997299999998,0.0067371685499999995,-0.004346,0.000668,0.000353,-0.0082179727,-0.4625208405999999,-9.795764618499998,-0.000839,0.047181,1.6053,-2.0408163265983603e-06,1.6666666666775853e-05,-1.999999999990898e-05,0.0004388299156400325,-0.0002028300664438376,-0.00012475544320891124
149700000000.0,6,0.0021378497,-0.00316754795,0.0134939504,-0.002213,0.000651,0.000357,-0.008119906199999999,-0.4622070278,-9.795764618499998,-0.000829,0.047149,1.6053,-2.0408163263763157e-06,1.666666666655381e-05,3.3333333333551707e-06,-0.0003119173516277843,0.00022936195346212607,-9.551595003353536e-05
149700000000.0,6,0.0023830159499999997,-0.000784532,0.0374221764,0.003121,-0.001521,-0.002832,-0.0080610663,-0.4623443209,-9.795764618499998,-0.000823,0.047164,1.6053,-2.0408163265983603e-06,1.666666666655381e-05,3.3333333332441484e-06,3.595401982644901e-05,-9.954260476519039e-05,4.4220148626157585e-05
149700000000.0,6,-0.00287334845,-0.0030302548499999997,0.052524417399999995,0.002055,0.000616,0.000364,-0.00805125965,-0.4626483270499999,-9.795764618499998,-0.000822,0.047194,1.6053,-2.0408163265983603e-06,1.6666666666775853e-05,3.3333333333551707e-06,-0.0001921714912559748,4.6954742515925574e-05,1.5581846634235563e-05
149700000000.0,6,-0.006462582349999999,-0.00393246665,0.043541526000000004,-0.002198,0.001717,-0.000712,-0.00805125965,-0.46262871375,-9.795764618499998,-0.000822,0.047193,1.6053,-2.0408163263763157e-06,1.6666666666775853e-05,-2.999999999997449e-05,-0.0001288705095127511,0.00012575762287259096,0.00010058581165277997
149700000000.0,6,-0.011081514499999999,0.0012944778,0.0021182363999999996,-0.004341,0.000669,-0.000714,-0.0082179727,-0.46217760784999995,-9.795764618499998,-0.000839,0.047147,1.6053,-2.0408163265983603e-06,1.666666666655381e-05,3.999999999992898e-05,2.467357959927939e-05,-1.7572913687535774e-05,-1.5720977431070426e-05
149700000000.0,6,-0.00027458619999999996,-0.00683523505,0.017092990949999998,-0.002198,0.001717,-0.000712,-0.0081002929,-0.46198147484999996,-9.795764618499998,-0.000827,0.047127,1.6053,-2.0408163265983603e-06,-5.0000000000105516e-05,-3.999999999992898e-05,-0.0004768519417885572,0.0002663981707169416,7.62494301903005e-05
149700000000.0,6,-0.002353596,0.00687446165,0.05524085945,0.004203,0.001665,-0.000701,-0.00797280645,-0.4622266411,-9.795764618499998,-0.000814,0.047151,1.6053,-2.0408163263763157e-06,-4.999999999988347e-05,2.999999999997449e-05,0.0003120194385658349,-0.0004074129595466047,0.00012124057343718131
149700000000.0,6,-0.0087475318,0.0016573238499999997,0.05073960709999999,-7.9e-05,0.000633,0.000361,-0.008012033049999999,-0.46238354749999994,-9.795764618499998,-0.000818,0.047168,1.6053,-2.0408163265983603e-06,3.333333333332966e-05,9.99999999995449e-06,0.0004576061140462405,-0.00010016067393792127,-0.0002942361380175451
149700000000.0,6,-0.006805815099999999,-0.00050013915,0.0099047165,-0.005391,0.002809,-0.00072,-0.0080022264,-0.46202070145,-9.795764618499998,-0.000817,0.047131,1.6053,-2.0408163265983603e-06,3.333333333332966e-05,1.0000000000065512e-05,-0.0001911242998908578,0.00010530535147967868,-0.00012425380778681439
149700000000.0,6,-0.0027360553499999997,-0.007423634049999999,0.015298373999999998,-0.002212,0.000651,0.000357,-0.00803164635,-0.4618343750999999,-9.795764618499998,-0.00082,0.047112,1.6053,-2.0408163263763157e-06,3.333333333332966e-05,-2.0000000000020002e-05,-0.00017941819102179277,0.00011689733747277664,0.0001258992855458843
149700000000.0,6,-0.010895188149999999,-0.00079433865,0.04043281795,0.00205,0.000614,0.001432,-0.00811009955,-0.4620305081,-9.795764618499998,-0.000828,0.047132,1.6053,-2.0408163265983603e-06,-9.999999999998899e-05,1.0000000000065512e-05,-7.925474281461967e-06,-7.648075961874667e-05,0.00015771042741325944
149700000000.0,6,-0.007384407449999999,0.007021561399999999,0.06316463265,0.00098,-0.000442,0.000364,-0.008168939449999999,-0.4622266411,-9.795764618499998,-0.000834,0.047151,1.6053,-2.0408163265983603e-06,4.999999999988347e-05,9.99999999995449e-06,-0.00031084058677374043,-0.00020254210922687754,-0.00014852090756351313
149700000000.0,6,-0.0032067745499999994,0.0026576021499999996,0.03713778355,-0.002221,-0.000415,0.000359,-0.0081591328,-0.46204031474999996,-9.795764618499998,-0.000833,0.047133,1.6053,-2.0408163265983603e-06,5.0000000000105516e-05,-2.0000000000020002e-05,-7.672427781022992e-05,0.0006882275949613437,0.0002904164269984938
149700000000.0,6,-0.0054328841,-0.00634490255,0.0094732239,-0.004341,0.000669,-0.000714,-0.00818855275,-0.46172650195,-9.795764618499998,-0.000836,0.0471,1.6053,-2.0408163263763157e-06,1.4285714285744433e-05,2.0000000000020002e-05,0.0006278050567227831,-0.00029546818156278576,-0.000326294626665391
149700000000.0,6,0.0022947561,-0.0020103632499999997,0.0223395487,0.000988,0.000624,0.000363,-0.0081395195,-0.4617166953,-9.795764618499998,-0.000831,0.047099,1.6053,-2.0408163265983603e-06,1.4285714285744433e-05,-4.0000000000040004e-05,-0.0005305373125735445,8.533857629244856e-05,0.0001591411381542604
149700000000.0,6,-0.00177500365,8.825985e-05,0.054652460449999996,0.003136,0.001673,-0.000703,-0.0081002929,-0.46201089479999996,-9.795764618499998,-0.000827,0.04713,1.6053,-2.0408163265983603e-06,1.4285714285744433e-05,-2.0000000000020002e-05,-0.00076519091414653,0.0004017222303207557,0.00019651905136077938
149700000000.0,6,-0.007825706699999999,-0.00031381279999999996,0.05000410835,0.00098,-0.000442,0.000364,-0.008335652499999999,-0.4622070278,-9.795764618499998,-0.000851,0.04715,1.6053,-2.0408163263763157e-06,1.4285714285522388e-05,1.0000000000065512e-05,-0.0003142600915412991,0.00045283586634958795,0.00019246886259028512
149700000000.0,6,-0.00775706015,-0.0027262486999999995,0.0134939504,-0.003274,0.00066,-0.000712,-0.0083944924,-0.46205012139999996,-9.795764618499998,-0.000857,0.047133,1.6053,-2.0408163265983603e-06,1.4285714285744433e-05,-2.999999999997449e-05,-0.001043891310007981,0.0011151808438147892,0.0006968527789176469
149700000000.0,6,-0.00485429175,-0.0018142302499999999,0.007678606949999999,-0.002198,0.001717,-0.000712,-0.008306232549999999,-0.4617559219,-9.795764618499998,-0.000848,0.047104,1.6053,9.999999999998899e-05,1.4285714285744433e-05,1.999999999990898e-05,0.00041056486921082873,-0.00029937234132293433,-0.00027261814993996894
149700000000.0,6,-0.0045895122,-0.001176798,0.043884758749999996,-8.7e-05,-0.000433,0.000363,-0.008433719,-0.46180495515,-9.795764618499998,-0.000861,0.047109,1.6053,-9.999999999998899e-05,1.4285714285744433e-05,-7.00000000000145e-05,-0.0025713735947675027,0.0019710011051747856,0.0009795477920345082
149700000000.0,6,-0.0019809433,0.0036971070499999996,0.06003631129999999,-6.4e-05,0.001699,-0.000708,-0.00834545915,-0.461893215,-9.795764618499998,-0.000852,0.047117,1.6053,-1.999999999990898e-05,4.761904761840796e-06,-9.99999999995449e-06,-0.001816572232893653,0.0011041164245013668,0.0008434469351225292
149700000000.0,6,-0.0045110589999999996,-0.0037069137,0.0385009079,-0.00221,-0.000413,-0.001776,-0.0083552658,-0.4618147618,-9.795764618499998,-0.000853,0.04711,1.6053,-2.0000000000131024e-05,4.761904762062841e-06,-4.0000000000040004e-05,-0.0004973751374079838,0.00024087126066940634,7.943754905866823e-06
149700000000.0,6,0.00183384355,-0.0083160392,0.011866046499999998,-0.00329,-0.001471,-0.000708,-0.0084141057,-0.4616970819999999,-9.795764618499998,-0.000859,0.047097,1.6053,-1.999999999990898e-05,4.761904761840796e-06,9.99999999995449e-06,0.0004713307780522605,0.00023383049853076265,0.00012124158981487165
149700000000.0,6,0.0037951735499999993,-0.008472945599999998,0.02503637745,-8.1e-05,-0.000432,-0.000705,-0.008276812599999999,-0.46168727535,-9.795764618499998,-0.000845,0.047097,1.6052,-2.0000000000131024e-05,4.761904761840796e-06,1.0000000000065512e-05,-0.000340952028314339,0.00022210265289102082,-1.5651044557779548e-05
149700000000.0,6,0.00195152335,0.00348136075,0.04627758135,0.000977,-0.001506,-0.000701,-0.008237586,-0.46182456845000003,-9.795764618499998,-0.000841,0.04711,1.6052,-1.999999999990898e-05,4.761904761840796e-06,-9.99999999995449e-06,-0.00020002031265443747,-0.0003149220653446694,-5.08080493063362e-05
149700000000.0,6,-0.00093163175,0.00138273765,0.0399915187,-8.7e-05,-0.000433,0.000363,-0.0081983594,-0.46182456845000003,-9.795764618499998,-0.000836,0.04711,1.6052,9.999999999998899e-05,4.761904762062841e-06,-1.0000000000065512e-05,-0.00032846376550958387,0.0003213422107113395,4.236964926035425e-05
149700000000.0,6,-0.01226811915,-0.009483030549999999,0.02144714355,-0.003265,0.001726,-0.000714,-0.008237586,-0.46172650195,-9.795764618499998,-0.00084,0.0471,1.6053,-1.4285714285744433e-05,4.761904761840796e-06,-3.999999999992898e-05,1.0833713487727256e-05,0.00011646195380432545,0.00024203760697004417
149700000000.0,6,0.0039520799499999995,-0.00601147645,0.00304986815,-0.002203,0.001716,0.000355,-0.007992419749999998,-0.46145191574999994,-9.795764618499998,-0.000816,0.047072,1.6052,-1.4285714285744433e-05,4.761904761840796e-06,2.0000000000020002e-05,-0.00014578067972547543,-0.00011430562220260398,-0.00016016667018399489
149700000000.0,6,-0.0006276255999999999,-0.0037853669,0.035362779899999995,0.002039,-0.001516,0.000368,-0.00805125965,-0.46158920885,-9.795764618499998,-0.000821,0.047086,1.6052,-1.4285714285744433e-05,4.761904762062841e-06,9.99999999995449e-06,-0.00013648547345386682,5.786767615223454e-05,-0.00011425922714674089
149700000000.0,6,-0.00907115125,0.006197802799999999,0.05629997764999999,0.002056,0.000615,0.000365,-0.0081395195,-0.46184418174999997,-9.795764618499998,-0.000831,0.047112,1.6052,-1.4285714285522388e-05,4.761904761840796e-06,-2.0000000000020002e-05,0.00016678441156658605,-2.5639961741541484e-05,-1.2704482686386187e-06
149700000000.0,6,-0.0055897905,0.0041776329,0.0268309944,-0.003282,-0.000406,-0.00071,-0.00832584585,-0.4616186288,-9.795764618499998,-0.00085,0.04709,1.6052,-1.4285714285744433e-05,4.761904761840796e-06,-2.0000000000020002e-05,-0.00023347257794341034,-0.00013341641540587368,-4.552243054726027e-05
149700000000.0,6,0.0025301156999999997,-0.008472945599999998,0.0008041452999999999,-0.003281,-0.000405,-0.00071,-0.0082179727,-0.46138326919999995,-9.795764618499998,-0.000839,0.047066,1.6052,-1.4285714285744433e-05,4.761904761840796e-06,1.5000000000098268e-05,0.00025992373751441804,-4.642587741865434e-05,-8.776921245442007e-05
149700000000.0,6,0.00467777205,-0.006952914849999999,0.021005844299999996,-6.4e-05,0.001699,-0.000708,-0.00797280645,-0.46141268915,-9.795764618499998,-0.000814,0.047068,1.6052,-1.4285714285744433e-05,4.761904762062841e-06,1.4999999999987246e-05,-8.968322267782769e-05,0.00020484033347667463,0.00010429118954127098
149700000000.0,6,0.0007158854499999999,0.0030596748,0.0533285627,0.001003,0.001691,-0.000707,-0.00789435325,-0.46154998225,-9.795764618499998,-0.000806,0.047083,1.6052,9.999999999998899e-05,4.761904761840796e-06,-2.0000000000020002e-05,8.535863361684888e-05,8.326131602487408e-05,4.526991824789148e-05
149700000000.0,6,-0.0050013915,-0.0031283213499999998,0.052416544249999995,-7.2e-05,0.000634,-0.000706,-0.0078649333,-0.46180495515,-9.795764618499998,-0.000803,0.047108,1.6052,1.4285714285744433e-05,4.761904761840796e-06,2.999999999997449e-05,-1.4725865571022997e-05,5.3649587528514786e-05,-8.429776303823036e-05
149700000000.0,6,-0.00495235825,-0.0067077486,0.019348520449999997,-0.004317,0.002801,-0.001785,-0.007766866799999999,-0.4616578554,-9.795764618499998,-0.000793,0.047093,1.6052,1.4285714285744433e-05,4.761904762062841e-06,-2.0000000000020002e-05,0.00011850597966759496,-0.00023610318583999756,0.00015625016086514426
149700000000.0,6,-0.0053250109499999995,-0.00775706015,0.00559959715,-0.004345,0.000668,0.000353,-0.00784532,-0.46136365589999995,-9.795764618499998,-0.000801,0.047063,1.6052,1.4285714285744433e-05,4.761904761840796e-06,-2.999999999997449e-05,-0.0003295962291237787,-7.27587609967717e-05,-3.514561736557911e-05
149700000000.0,6,-0.0069234948999999995,0.00122583125,0.03313667035,-4.1e-05,0.003831,-0.001779,-0.00789435325,-0.46136365589999995,-9.795764618499998,-0.000806,0.047063,1.6052,1.4285714285522388e-05,4.761904761840796e-06,-2.999999999997449e-05,-6.550730278672909e-05,-0.0008232119595807941,-0.00018175065019266148
149700000000.0,6,0.00013729309999999998,-0.0010002783,0.06349805874999999,-6.7e-05,0.000635,-0.001774,-0.007766866799999999,-0.46153036895,-9.795764618499998,-0.000793,0.04708,1.6052,1.4285714285744433e-05,4.761904761840796e-06,-7.00000000000145e-05,-0.00011545901477418193,-0.0005378913414031405,-8.883266068531598e-05
149700000000.0,6,-0.0051190713,-0.0079826131,0.042394147949999995,-0.002205,0.000651,-0.00071,-0.00789435325,-0.46157940219999993,-9.795764618499998,-0.000806,0.047086,1.6052,1.4285714285744433e-05,4.761904762062841e-06,9.99999999995449e-06,0.00010465056297942997,-4.6581078593677105e-05,9.767618594985067e-06
149700000000.0,6,-0.013582210249999999,-0.009718390149999999,0.0097870367,-0.002117,0.002715,0.000383,-0.0079629998,-0.4614813357,-9.795764618499998,-0.000813,0.047076,1.6052,1.4285714285744433e-05,4.761904761840796e-06,-0.00019000000000002348,-0.0008472608255831703,-0.0021597736952219115,-0.0007585417746661487
149700000000.0,6,-0.009688970199999999,0.00041187929999999997,0.01995653275,0.001063,-0.000507,-0.000673,-0.008119906199999999,-0.46144210909999994,-9.795764618499998,-0.000829,0.047071,1.6052,-6.666666666710341e-06,9.999999999998899e-05,-0.00020999999999993246,-0.0010529082081669177,-0.0038046369161899296,-0.001083048648125036
149700000000.0,6,-0.011503200449999999,-0.0020005566,0.04822910469999999,0.003209,0.001606,0.000395,-0.0081002929,-0.46172650195,-9.795764618499998,-0.000827,0.047101,1.6052,-6.666666666710341e-06,9.999999999998899e-05,-0.0001100000000000545,-0.0008732355615493747,-0.0015719336840025466,-0.0007637409466781583
