Time,placement_label,user_acc_x(m/s^2),user_acc_y(m/s^2),user_acc_z(m/s^2),rotation_rate_x(rad/s),rotation_rate_y(rad/s),rotation_rate_z(rad/s),gravity_x(m/s^2),gravity_y(m/s^2),gravity_z(m/s^2),attitude_roll(rad),attitude_pitch(rad),attitude_yaw(rad),target_delta_x,target_delta_y,target_delta_z,target_delta_roll,target_delta_pitch,target_delta_yaw
150000000000.0,6,-0.0010002783,-0.0018044235999999999,0.006952914849999999,-0.001237,0.001033,0.001069,-0.15881869675,-0.5804360002,-9.7881154315,-0.016224,0.059223,3.1335,0.0,0.0,0.0,0.0,0.0,0.0
150000000000.0,6,-0.0013140911,-0.0014906108,0.0089044382,-0.001244,-0.001096,-0.001062,-0.15894618319999998,-0.5804556135,-9.7881154315,-0.016237,0.059224,3.1335,-9.999999999998899e-05,-9.999999999998899e-05,2.0000000000020002e-05,0.0007861866524170869,-0.00020554032244968212,0.0003796058498318211
150000000000.0,6,0.00250069575,-0.0004609125499999999,0.026085689,0.003013,-0.001133,0.001081,-0.1590246364,-0.58074000635,-9.7881154315,-0.016245,0.059253,3.1335,1.4285714285744433e-05,9.999999999998899e-05,2.0000000000020002e-05,-7.08812458346808e-05,-6.708321389647942e-05,3.829326804977162e-05
150000000000.0,6,-0.00085317855,-0.0018142302499999999,0.017848103,-0.001254,-0.001098,0.001073,-0.159259996,-0.5808674927999999,-9.7881154315,-0.01627,0.059267,3.1335,1.4285714285744433e-05,-9.999999999998899e-05,-2.0000000000020002e-05,7.530061294172552e-05,-0.0003296502095837539,0.00022137654196702217
150000000000.0,6,-0.00067665885,-0.0010591181999999998,0.0159063863,-0.002302,-2.2e-05,-0.001065,-0.15927960929999999,-0.5807301997,-9.7881154315,-0.016271,0.059252,3.1335,1.4285714285744433e-05,1.6666666666775853e-05,-4.999999999999449e-05,-0.0004643897426064719,-0.00011924036840760266,-8.876973735441607e-05
150000000000.0,6,0.0060997363,0.0028243152,0.0031969679,-0.00016,0.001026,-0.001063,-0.1591815428,-0.58072039305,-9.7881154315,-0.016261,0.059252,3.1335,1.4285714285522388e-05,1.666666666655381e-05,4.0000000000040004e-05,0.00018442101708597558,0.0005107349956294804,-0.00019590781407871627
150000000000.0,6,0.0050308114499999996,0.0012748644999999999,0.01124822755,0.001957,-0.001122,-0.001056,-0.15915212285,-0.5811224656999999,-9.7881154315,-0.016259,0.059292,3.1335,1.4285714285744433e-05,1.666666666655381e-05,-4.0000000000040004e-05,0.0004302351841456026,-0.0009877347096802769,0.0002985925850974569
150000000000.0,6,0.0091790244,-0.0006472389,0.030253515249999998,-0.001237,0.001033,0.001069,-0.15896579649999998,-0.5811420789999999,-9.7881154315,-0.016239,0.059295,3.1335,1.4285714285744433e-05,1.6666666666775853e-05,4.999999999999449e-05,-0.0003081215996700304,0.0008592322624942916,-6.782264553609196e-05
150000000000.0,6,0.0020201699,-0.00034323274999999994,0.01648497865,-0.001257,-0.002162,8e-06,-0.1589854098,-0.5811420789999999,-9.7881154315,-0.016242,0.059295,3.1335,1.4285714285744433e-05,1.6666666666775853e-05,-2.0000000000020002e-05,-0.0006579369756402054,0.00028714972627885693,-0.0005035841768545879
150000000000.0,6,0.00405014645,0.00224572285,0.01020872265,-0.001237,0.001034,0.001069,-0.1589265699,-0.5810440124999999,-9.7881154315,-0.016236,0.059285,3.1335,-3.333333333332966e-05,1.666666666655381e-05,-9.99999999995449e-06,0.0002950069845630149,-0.0006338445800511128,0.0002223837017102659
150000000000.0,6,0.00255953565,0.00489351835,-0.0036971070499999996,-0.000168,-3.8e-05,-0.001062,-0.15877947015,-0.58099497925,-9.7881154315,-0.016221,0.05928,3.1335,-3.333333333332966e-05,-9.999999999998899e-05,-9.99999999995449e-06,-0.0004068041121653432,-0.0002475207858483319,0.00034988953010289814
150000000000.0,6,-0.00685484835,0.00348136075,0.00363826715,-0.00016,0.001027,-0.001063,-0.15878927680000002,-0.5809263326999999,-9.7881154315,-0.016222,0.059273,3.1335,-3.333333333332966e-05,1.2499999999970868e-05,5.999999999994898e-05,0.0013651415565464342,0.0010361378212491168,0.0002039579890349974
150000000000.0,6,-0.011110934449999998,0.0014709974999999999,0.01993691945,0.000902,0.001017,6e-06,-0.15887753664999998,-0.58101459255,-9.7881154315,-0.01623,0.059282,3.1334,1.4285714285744433e-05,1.2499999999970868e-05,2.999999999997449e-05,0.0013234662722013818,-0.0004993924311809117,8.636349975460478e-05
150000000000.0,6,-0.0024810824500000003,0.005972249849999999,0.02442836515,0.000885,-0.001114,1e-05,-0.1589854098,-0.5810243992,-9.7881154315,-0.016241,0.059283,3.1334,1.4285714285744433e-05,1.2499999999970868e-05,-9.999999999998899e-05,-0.002223735326925866,-0.00046173279727401706,-0.0004001323260205414
150000000000.0,6,-0.0021378497,0.00924767095,0.012317152399999998,-0.00016,0.001027,-0.001063,-0.1590246364,-0.5808674927999999,-9.7881154315,-0.016245,0.059267,3.1334,1.4285714285744433e-05,1.2499999999970868e-05,-4.999999999999449e-05,-0.000154923865707271,-0.00020345055478010465,8.624813045160495e-05
150000000000.0,6,0.0024222425499999998,0.0008041452999999999,0.01711260425,-0.000171,0.001025,0.001071,-0.15894618319999998,-0.58079884625,-9.7881154315,-0.016237,0.05926,3.1334,1.4285714285522388e-05,1.2500000000192912e-05,4.999999999999449e-05,0.0007841313101504405,0.0001055817425659189,0.00013754062790599653
150000000000.0,6,0.00665871535,0.00059820565,0.01921122735,-0.001214,0.001036,1.4e-05,-0.15883831005,-0.58074000635,-9.7881154315,-0.016227,0.059254,3.1335,1.4285714285744433e-05,1.2499999999970868e-05,-2.0000000000020002e-05,-0.0007051496194975665,-0.00010580912812585552,-0.00031822916268656187
150000000000.0,6,-0.0013925443,-0.00050013915,0.01307226445,-0.001223,-2.9e-05,1.6e-05,-0.15887753664999998,-0.5806909731,-9.7881154315,-0.01623,0.059249,3.1335,1.4285714285744433e-05,1.2499999999970868e-05,2.0000000000020002e-05,0.0011685059630955619,-0.00031762663972934035,0.0002481149595505716
150000000000.0,6,0.00210842975,0.00013729309999999998,0.009943943099999998,-0.001209,0.001038,-0.001053,-0.15862256374999997,-0.5805830999499999,-9.7881154315,-0.016205,0.059237,3.1334,1.4285714285744433e-05,1.2499999999970868e-05,9.00000000000345e-05,-0.0008256815199287476,0.0019951289686328533,-0.0003617525279850098
150000000000.0,6,0.005207331149999999,0.0041972462,0.008012033049999999,-0.001214,0.001037,1.4e-05,-0.15843623739999999,-0.5804458068499999,-9.788213498,-0.016185,0.059224,3.1334,-3.333333333332966e-05,-2.4999999999941735e-05,-4.999999999999449e-05,-0.0007851607995020549,-0.0006681612427452688,-0.00027739864269638037
150000000000.0,6,0.008649465299999999,-0.00253992235,0.0174362237,0.001986,0.001011,2e-05,-0.1581420379,-0.58060271325,-9.788213498,-0.016155,0.05924,3.1334,-3.333333333332966e-05,-2.500000000016378e-05,2.999999999997449e-05,0.00040489111255924415,-0.00012172936724574868,0.0004410990931605352
150000000000.0,6,0.012444638849999998,0.004236472799999999,0.022368968649999998,-0.000173,-0.002168,2.1e-05,-0.15804397139999998,-0.5806419398499999,-9.7881154315,-0.016145,0.059244,3.1334,-3.333333333332966e-05,-2.4999999999941735e-05,-7.00000000000145e-05,0.00046072023682926233,-0.0012474948365035488,0.0003362952966828314
150000000000.0,6,0.00709020795,0.00508965135,0.009669356899999999,-0.001209,0.001038,-0.001053,-0.1579262916,-0.5804458068499999,-9.788213498,-0.016133,0.059224,3.1334,3.333333333332966e-05,-2.4999999999941735e-05,7.00000000000145e-05,0.0017056493869078149,0.0015881047838790519,-5.2586621995920346e-05
150000000000.0,6,0.0078060934,-0.00485429175,0.0161025193,-0.003355,-0.001074,-0.002121,-0.15789687165,-0.5803771603,-9.788213498,-0.01613,0.059216,3.1334,3.333333333332966e-05,9.999999999998899e-05,-4.999999999999449e-05,-0.0016689784670594204,-0.0014037683057335215,-0.00020673933250522913
150000000000.0,6,0.013454723799999999,-0.005756503549999999,0.00891424485,0.000911,-4.5e-05,1.9e-05,-0.15756344555000001,-0.5805242600499999,-9.788213498,-0.016096,0.059231,3.1334,3.333333333332966e-05,9.090909090847532e-06,7.00000000000145e-05,0.0003403054627897917,0.002056547079032356,-0.000142746961344975
150000000000.0,6,0.0087475318,-0.0045698989,0.018210949049999998,-0.00013,0.00316,1.2e-05,-0.15688678669999997,-0.5805046467499999,-9.788213498,-0.016027,0.05923,3.1334,-9.999999999998899e-05,9.090909091069577e-06,-2.0000000000020002e-05,3.334145891797924e-05,-0.0010765242991916946,0.0001826680038654882
150000000000.0,6,0.008737725149999999,-0.0047464186,0.0182207557,-0.002276,0.001048,-0.001055,-0.15688678669999997,-0.5803379337,-9.788213498,-0.016026,0.059213,3.1334,2.4999999999941735e-05,9.090909090847532e-06,4.0000000000040004e-05,-0.0006179613712262028,2.4614090710972647e-05,-0.00022289497329092134
150000000000.0,6,-0.0015494506999999998,-0.0024908890999999996,0.0255365166,-0.000151,-3.5e-05,-0.00105,-0.15692601329999997,-0.5804948401,-9.788213498,-0.01603,0.059229,3.1334,2.4999999999941735e-05,9.090909090847532e-06,-3.0000000000085514e-05,0.0006870049399052003,6.740737756039117e-05,0.0001175888680935433
150000000000.0,6,0.0035892338999999997,0.0037951735499999993,0.025085410699999998,0.000913,-0.001108,-0.002113,-0.1569652399,-0.5805046467499999,-9.788213498,-0.016035,0.059229,3.1334,2.500000000016378e-05,9.090909090847532e-06,2.0000000000020002e-05,4.8106004560038995e-05,3.626886324004097e-05,6.121080140980562e-05
150000000000.0,6,-0.00220649625,-0.0002941995,0.01162088025,-0.000142,0.001031,-0.001052,-0.1570044665,-0.5804458068499999,-9.788213498,-0.016039,0.059224,3.1333,2.4999999999941735e-05,9.090909091069577e-06,1.0000000000065512e-05,-0.00020655412538456153,0.0010033018926844939,-0.00030951249241095713
150000000000.0,6,-0.0103558224,0.003530394,0.00608992965,-0.000168,-0.002166,-0.001046,-0.15738692585,-0.5803869669499999,-9.788213498,-0.016078,0.059217,3.1333,-5.0000000000105516e-05,9.090909090847532e-06,-4.0000000000040004e-05,-0.0005151029113684008,-0.0015629582563316813,0.0002360638688008454
150000000000.0,6,-0.0059036033,0.0032263878499999995,0.01326839745,0.000913,-0.001108,-0.002113,-0.15765170539999998,-0.5803771603,-9.788213498,-0.016105,0.059217,3.1333,-4.999999999988347e-05,9.090909090847532e-06,2.999999999997449e-05,0.001968205162595396,0.00046581352369723383,0.00026813929684657567
150000000000.0,6,-0.0047660318999999994,0.0091201845,0.02374189965,-0.000165,-0.001102,2e-05,-0.15773996524999997,-0.58028890045,-9.788213498,-0.016114,0.059207,3.1333,9.999999999998899e-05,9.090909090847532e-06,-2.0000000000020002e-05,-0.0018417731727133624,0.0006056689454401187,-0.0005495301342831049
150000000000.0,6,-0.00385401345,-0.0010787315,0.024193005549999997,-0.001209,0.001039,-0.001053,-0.15774977189999997,-0.5802692871499999,-9.788213498,-0.016115,0.059205,3.1333,-3.333333333332966e-05,9.090909091069577e-06,-9.99999999995449e-06,-0.0003069836582501595,-0.0007282345696650872,0.00020614288668791003
150000000000.0,6,-0.0040403398,0.0039520799499999995,0.01311149105,0.000907,-0.001109,-0.001046,-0.1578674517,-0.580357547,-9.788213498,-0.016127,0.059215,3.1333,-3.333333333332966e-05,9.090909090847532e-06,4.0000000000040004e-05,-0.0004893956524369414,0.0015922819863294357,-0.0007139149655545629
150000000000.0,6,0.00387362675,0.0067763951499999996,0.0041384062999999995,0.00091,-4.5e-05,2e-05,-0.15770073865,-0.5803379337,-9.788213498,-0.01611,0.059213,3.1333,-3.333333333332966e-05,-9.999999999998899e-05,-4.0000000000040004e-05,0.0021180852641094067,-0.0013009116785474006,0.0010077712192406996
150000000000.0,6,-0.00426589275,0.00122583125,0.01850514855,-0.000156,-3.6e-05,1.8e-05,-0.1579459049,-0.5803183204,-9.788213498,-0.016135,0.059211,3.1333,9.999999999998899e-05,5.0000000000105516e-05,2.999999999997449e-05,0.0001560246660176623,0.0002853365349659853,-0.0001635410071236243
150000000000.0,6,-0.00507003805,0.0039618866,0.01760293675,0.000916,-4.4e-05,-0.001048,-0.15803416475,-0.5803673536499999,-9.788213498,-0.016144,0.059215,3.1333,-5.0000000000105516e-05,4.999999999988347e-05,-9.99999999995449e-06,-0.0026469115463068765,0.0004610751954807757,-0.0007449002715883835
150000000000.0,6,-0.0015886773,0.009983169699999999,0.025085410699999998,0.000893,-0.002176,2.3e-05,-0.15807339135,-0.5802594805,-9.788213498,-0.016148,0.059204,3.1333,-4.999999999988347e-05,-9.999999999998899e-05,2.0000000000020002e-05,0.002621662147528653,-0.0008903725583022659,0.00089065713606723
150000000000.0,6,-0.0087279185,0.00212804305,0.01670072495,0.001994,0.002077,1.8e-05,-0.15812242459999998,-0.5803281270499999,-9.788213498,-0.016153,0.059212,3.1333,9.999999999998899e-05,9.999999999998899e-05,-1.0000000000065512e-05,-0.0014840088382653965,0.0002034186572275054,-0.00012588771060106918
150000000000.0,6,-0.0022947561,-0.00138273765,0.013258590799999997,-0.000157,-3.6e-05,1.8e-05,-0.15811261794999998,-0.58040658025,-9.788213498,-0.016152,0.059219,3.1333,1.4285714285744433e-05,-9.999999999998899e-05,-3.999999999992898e-05,0.0002083159910200305,0.00037683314107628263,-0.00036489132559083814
150000000000.0,6,-0.0010787315,-0.006452775699999999,0.02356537995,0.000924,0.001022,-0.00105,-0.1581420379,-0.5805732933,-9.788213498,-0.016155,0.059237,3.1333,1.4285714285744433e-05,9.999999999998899e-05,5.999999999994898e-05,0.000262331016861142,0.0007971855556887508,-0.0002593165190408475
150000000000.0,6,0.0077766734499999995,-0.017671583299999998,0.016818404749999998,-0.000151,-3.5e-05,-0.00105,-0.1580047448,-0.58087729945,-9.7881154315,-0.016141,0.059268,3.1332,1.4285714285744433e-05,-1.2499999999970868e-05,-5.999999999994898e-05,6.218465837291853e-05,-0.0021085444513624374,0.0007946843421020311
150000000000.0,6,0.00754131385,-0.0119248864,0.013817569850000001,-0.001209,0.001039,-0.001053,-0.15777919184999997,-0.5810832390999999,-9.7881154315,-0.016118,0.059289,3.1332,1.4285714285522388e-05,-1.2499999999970868e-05,2.999999999997449e-05,-0.0007083854776911008,0.0011606966707708999,-0.0006861626191705661
150000000000.0,6,0.00530539765,-0.016141745899999997,0.0190445143,-0.001209,0.00104,-0.001053,-0.1576320921,-0.58136763195,-9.7881154315,-0.016103,0.059318,3.1332,1.4285714285744433e-05,-1.2499999999970868e-05,-2.4999999999941735e-05,0.0007706015871922628,0.00011534704054927403,7.596611998914038e-05
150000000000.0,6,0.010855961549999998,-0.0172400907,0.02023111895,0.000908,-0.001109,-0.001046,-0.15750460565,-0.5816127982,-9.7881154315,-0.01609,0.059343,3.1332,1.4285714285744433e-05,-1.2499999999970868e-05,-2.5000000000052758e-05,0.00043023472791872686,-0.000806378225051807,0.00029330123980847445
150000000000.0,6,0.014798234849999998,-0.029978929049999995,0.027233067049999997,0.000917,-4.3e-05,-0.001048,-0.1572594394,-0.58219139055,-9.7881154315,-0.016065,0.059402,3.1332,1.4285714285744433e-05,-1.2500000000192912e-05,4.999999999999449e-05,-0.0026710151136088017,0.00155490906464828,-0.0006791460893086076
150000000000.0,6,0.00784532,-0.0194563936,0.03348970975,-0.001208,0.00104,-0.001053,-0.15718098619999998,-0.5825444299499999,-9.7881154315,-0.016057,0.059438,3.1332,-9.999999999998899e-05,-1.2499999999970868e-05,9.99999999995449e-06,0.001786839222927189,-0.0010381784234858582,0.0004016160187192419
150000000000.0,6,-0.00960071035,-0.02176095635,0.0214961768,-0.001219,-0.00109,-0.002117,-0.15739673249999997,-0.58291708265,-9.788017365,-0.016079,0.059476,3.1332,5.0000000000105516e-05,-1.2499999999970868e-05,2.999999999997449e-05,0.0006847497570765804,6.242060049377329e-05,0.00045610781902893915
150000000000.0,6,-0.0091005712,-0.0332837701,0.010247949249999999,-0.001221,-2.7e-05,1.6e-05,-0.15744576575,-0.5833779952,-9.788017365,-0.016084,0.059523,3.1332,4.999999999988347e-05,-1.2499999999970868e-05,-4.999999999999449e-05,-0.0004291358648799287,0.0007199753504378847,-0.0003531516861378925
150000000000.0,6,-0.01267999845,-0.023751706299999998,0.014405968849999999,0.000927,0.001022,-0.00105,-0.15760267214999998,-0.5837800678499999,-9.788017365,-0.0161,0.059564,3.1332,-9.999999999998899e-05,9.999999999998899e-05,-2.999999999997449e-05,-0.0001353428925814637,-0.0008113610535376292,3.3033555516093216e-05
150000000000.0,6,-0.01511204765,-0.0026870221,0.023673253099999996,-0.00014,0.001031,-0.001051,-0.1578674517,-0.583887941,-9.788017365,-0.016127,0.059576,3.1331,9.999999999998899e-05,-4.999999999988347e-05,6.0000000000060005e-05,-0.002135920184225343,0.0012260612091179457,-0.00043863835317112243
150000000000.0,6,-0.009414384,-0.0050406181,0.0260660757,-0.000162,-0.001101,2e-05,-0.15803416475,-0.58393697425,-9.788017365,-0.016144,0.05958,3.1331,-9.999999999998899e-05,-5.0000000000105516e-05,1.999999999990898e-05,0.002713330386351284,-0.0011224182472733268,0.0008364951183597036
150000000000.0,6,-0.011209000949999999,-0.006629295399999999,0.01648497865,-0.001217,0.001037,0.001081,-0.15818126449999997,-0.58399581415,-9.7879192985,-0.01616,0.059586,3.1331,2.4999999999941735e-05,5.0000000000105516e-05,-2.999999999997449e-05,0.00016524652189642275,-6.515308960475252e-05,0.00010341394453683428
150000000000.0,6,-0.0091986377,-0.0028439284999999996,0.01079712165,-0.000141,0.002094,0.001081,-0.1582401044,-0.5840350407499999,-9.7879192985,-0.016166,0.059591,3.1332,2.500000000016378e-05,4.999999999988347e-05,1.0000000000065512e-05,-0.001282170029864485,-6.363296321110212e-05,-0.00046338281030580686
150000000000.0,6,-0.0059918631499999995,0.00946341725,0.009894909849999998,0.000883,-0.003243,0.001093,-0.15846565734999998,-0.5839271676,-9.7879192985,-0.016188,0.059579,3.1332,2.4999999999941735e-05,-9.999999999998899e-05,-6.0000000000060005e-05,8.607113094782903e-05,-0.0006059354589189603,7.076578090153829e-05
150000000000.0,6,-0.0127878716,0.012091599449999999,0.006168382849999999,-0.000164,-3.8e-05,0.002153,-0.15870101695,-0.5837016146499999,-9.788017365,-0.016212,0.059556,3.1332,2.4999999999941735e-05,-9.090909090847532e-06,6.0000000000060005e-05,2.937090604498982e-05,0.001237382355231187,-0.0001897878884356552
150000000000.0,6,-0.0178677163,0.0038442067999999996,0.01020872265,0.000916,0.001019,0.001085,-0.15885792335,-0.58368200135,-9.788017365,-0.016228,0.059555,3.1332,-4.999999999988347e-05,-9.090909091069577e-06,-4.999999999999449e-05,-0.0004921283756102734,-0.0005444672605463552,0.00011081815165905895
150000000000.0,6,-0.0135724036,0.016239812399999998,0.01783829635,0.000905,0.001017,0.00322,-0.15911289625,-0.5835152883,-9.788017365,-0.016254,0.059537,3.1332,-5.0000000000105516e-05,-9.090909090847532e-06,-3.0000000000085514e-05,5.2711608572050817e-05,0.0004141040478387037,-0.00031469849352822044
150000000000.0,6,-0.01577889985,0.015376827199999998,0.014415775499999998,-0.001218,0.001036,0.001082,-0.15944632234999997,-0.58325050875,-9.788017365,-0.016288,0.05951,3.1332,-5.0000000000105516e-05,-9.090909090847532e-06,4.0000000000040004e-05,0.00011197958331231328,-0.0009183332157534085,0.0003061670736237976
150000000000.0,6,-0.008953471449999998,0.0079629998,0.0151610809,0.000899,-0.001113,0.001089,-0.16013278784999999,-0.5830249557999999,-9.788017365,-0.016359,0.059487,3.1332,-4.999999999988347e-05,-9.090909090847532e-06,2.0000000000020002e-05,0.001964398286247254,-0.00014762708916360445,0.0005161006140140534
150000000000.0,6,-0.0089436648,0.00783551335,0.01517088755,-0.001232,-3.1e-05,0.002151,-0.16015240114999998,-0.58289746935,-9.788017365,-0.01636,0.059474,3.1333,9.999999999998899e-05,-9.090909091069577e-06,-2.0000000000020002e-05,-0.0012993907454212361,0.00032895570696034326,-0.00044018918952934416
150000000000.0,6,-0.00605070305,0.008041452999999999,0.007855126649999999,-0.000143,0.002092,0.001082,-0.160044528,-0.58264249645,-9.788017365,-0.01635,0.059448,3.1333,-1.999999999990898e-05,-9.090909090847532e-06,-4.999999999999449e-05,-0.0008936993875472699,-0.000310189136381922,-0.00019999892305017086
150000000000.0,6,0.0020103632499999997,0.0058055367999999994,0.02191786275,0.001968,-5.7e-05,0.002157,-0.15987781495,-0.58266210975,-9.788017365,-0.016332,0.05945,3.1333,-2.0000000000131024e-05,-9.090909090847532e-06,9.00000000000345e-05,0.0017954762022205223,0.0001144330108666658,0.000595421500951876
150000000000.0,6,0.0146119085,0.0042462794499999994,0.034499794699999996,0.000893,-0.001114,0.002157,-0.15976013514999998,-0.5826032698499999,-9.788017365,-0.01632,0.059444,3.1333,-1.999999999990898e-05,-9.090909090847532e-06,-9.999999999998899e-05,-0.0009021423405529277,-0.0002859251526046158,-0.0003060069884719685
150000000000.0,6,0.024242038799999997,-0.0024320492,0.022525875049999998,0.000907,-4.7e-05,0.001087,-0.1593580625,-0.58264249645,-9.788017365,-0.01628,0.059448,3.1333,-2.0000000000131024e-05,-9.090909091069577e-06,8.999999999992347e-05,0.00010228215967382492,0.0006903401810167686,0.00010504566395655446
150000000000.0,6,0.0263014353,0.010395048999999998,0.0050406181,-0.000179,-0.001105,0.003222,-0.15903444304999997,-0.5824561701,-9.788017365,-0.016246,0.059429,3.1333,-1.999999999990898e-05,-9.090909090847532e-06,2.0000000000020002e-05,0.0010817957941322287,-1.74698249844063e-05,0.0003391185818190645
150000000000.0,6,0.0272821003,0.00436395925,0.00042168595,-0.00228,0.001047,1.2e-05,-0.1585146906,-0.5822600371,-9.7881154315,-0.016193,0.059409,3.1333,4.999999999988347e-05,4.999999999988347e-05,-9.99999999995449e-06,-0.00011972423503317509,-0.0005783366698284276,5.8160514036342814e-05
150000000000.0,6,0.025203090499999997,0.009718390149999999,0.0046287388,-0.000143,0.002095,0.001082,-0.15793609825,-0.5820835174,-9.7881154315,-0.016134,0.059391,3.1333,5.0000000000105516e-05,5.0000000000105516e-05,-2.0000000000020002e-05,-0.0018064517929157475,0.00020253033036232715,-0.000635216020636542
150000000000.0,6,0.0209666177,0.0234378935,0.011983726299999999,-0.000156,-3.5e-05,1.8e-05,-0.1575928655,-0.581730478,-9.7881154315,-0.016099,0.059355,3.1333,9.090909090847532e-06,-9.999999999998899e-05,4.999999999999449e-05,0.0013852519155525406,0.0006114470324602994,0.000540203167443104
150000000000.0,6,0.0140038962,0.022270902149999997,0.02203554255,0.000925,0.001023,-0.001049,-0.1573575059,-0.58146569845,-9.7881154315,-0.016075,0.059328,3.1333,9.090909091069577e-06,3.333333333332966e-05,-1.0000000000065512e-05,-0.0005273201549283041,-0.0004869734798882419,0.00015708313737919366
150000000000.0,6,0.008119906199999999,0.0026281822,0.0175539035,-0.000145,-3.2e-05,-0.002117,-0.15716137289999998,-0.58142647185,-9.7881154315,-0.016054,0.059324,3.1333,9.090909090847532e-06,3.333333333332966e-05,3.0000000000085514e-05,0.0010596332238700379,0.0010563074206324519,0.00013416690935103004
150000000000.0,6,0.0088455983,0.0014513841999999999,0.0093359308,-0.001195,0.002108,-0.002122,-0.15683775345,-0.5812989854,-9.7881154315,-0.016022,0.059311,3.1333,9.090909090847532e-06,3.333333333332966e-05,3.999999999992898e-05,-0.002420656926986259,0.0002339287709798299,-0.0007294351456651471
150000000000.0,6,0.014817848149999998,0.0003530394,0.0183188222,-0.001212,-2.3e-05,-0.002119,-0.15652394065,-0.58124995215,-9.7881154315,-0.01599,0.059306,3.1333,9.090909090847532e-06,-0.00020000000000020002,-5.999999999994898e-05,0.002229143982492035,-0.0012173721210999577,0.0009013044619901045
150000000000.0,6,0.0060310897499999995,0.007384407449999999,0.0263995018,-0.000142,0.001033,-0.001051,-0.15626896775000002,-0.5812401455,-9.7881154315,-0.015964,0.059305,3.1333,9.090909091069577e-06,0.00010000000000021103,4.999999999999449e-05,-0.0016833357880224331,0.0003166179129887592,-0.0003281349129945488
150000000000.0,6,0.0022947561,0.0089828914,0.023124080699999997,-0.001213,-2.3e-05,-0.002119,-0.156121868,-0.58105381915,-9.788213498,-0.015949,0.059285,3.1332,9.090909090847532e-06,-0.00010000000000021103,9.99999999995449e-06,0.0005789375348550507,-0.000852549713878048,0.0006841500238935483
150000000000.0,6,0.0112776475,0.01154242705,0.01744603035,-0.000154,-0.001097,-0.002115,-0.15597476824999998,-0.58091652605,-9.788213498,-0.015934,0.059271,3.1332,9.090909090847532e-06,0.00010000000000021103,4.0000000000040004e-05,-0.0009720047176472318,0.00038272960317731197,-0.0003631874399055435
150000000000.0,6,0.0187895414,1.9613299999999997e-05,0.0177500365,-0.001218,-2.3e-05,-0.001051,-0.1557099887,-0.58091652605,-9.788213498,-0.015906,0.059272,3.1332,9.090909090847532e-06,-0.00010000000000021103,9.99999999995449e-06,0.0010499103947162608,0.0017745349997064785,-0.00019294123696309007
150000000000.0,6,0.008472945599999998,0.0019809433,0.0020397832,0.000907,-0.001106,-0.001046,-0.15571979535,-0.5809263326999999,-9.788213498,-0.015907,0.059273,3.1332,9.090909091069577e-06,0.00010000000000021103,6.0000000000060005e-05,0.000614836041575112,-0.0014560898307096615,0.0004910180117528862
150000000000.0,6,0.0030890947499999997,0.017681389949999998,0.007590347099999999,-0.000143,0.001034,-0.001051,-0.15571979535,-0.58062232655,-9.788213498,-0.015907,0.059241,3.1332,9.090909090847532e-06,-5.0000000000105516e-05,2.0000000000020002e-05,-0.0006425612313168405,0.00042417095845248554,-8.094700320773751e-05
150000000000.0,6,-0.0089828914,0.0245558516,0.01315071765,0.00092,-4e-05,-0.002115,-0.15591592834999998,-0.5803085137499999,-9.788213498,-0.015928,0.05921,3.1331,-1.0000000000065512e-05,-5.0000000000105516e-05,-3.0000000000085514e-05,0.00025667063489170916,-0.00021916920482145663,0.00028220945676266096
150000000000.0,6,-0.027488039949999998,0.0187503148,0.01166010685,-0.000121,0.003165,-0.002122,-0.156121868,-0.5800437342,-9.788213498,-0.015948,0.059183,3.1331,-9.999999999843467e-06,0.00010000000000021103,-9.99999999995449e-06,-0.001409877043435745,0.0004750995179727546,-0.0004786224107748427
150000000000.0,6,-0.0446006442,0.02501676415,0.01572005995,-0.001197,0.002108,-0.002122,-0.15666123375,-0.5795730149999999,-9.788213498,-0.016004,0.059134,3.1331,-1.0000000000065512e-05,-5.0000000000105516e-05,-9.99999999995449e-06,0.0005599059878416551,-0.00013260754702981714,0.0002910685039257954
150000000000.0,6,-0.03886375395,0.02493831095,0.01154242705,-0.000136,0.002097,-0.001053,-0.15716137289999998,-0.5792003623,-9.788311564499999,-0.016055,0.059096,3.1331,-1.0000000000065512e-05,-5.0000000000105516e-05,-1.0000000000065512e-05,0.000613426590514568,-0.00010323352005303654,0.00030160941247592277
150000000000.0,6,-0.03243059155,0.0318323859,0.012474058799999998,-0.00227,0.002115,-0.001057,-0.15761247879999998,-0.5786021566499999,-9.788311564499999,-0.016101,0.059036,3.1331,-9.999999999843467e-06,5.0000000000105516e-05,2.999999999997449e-05,0.00019820140274204312,0.0008558927879256384,-0.0004065893693736
150000000000.0,6,-0.026262208699999998,0.01697531115,0.01503359445,-0.001204,0.002105,-0.001055,-0.15779880515,-0.5782687305499999,-9.788311564499999,-0.01612,0.059001,3.1331,-1.0000000000065512e-05,5.0000000000105516e-05,-2.999999999997449e-05,-0.001090962405824833,-0.000792423186830149,-0.0002820569694527153
150000000000.0,6,-0.0140038962,0.00771783355,0.01399408955,0.000924,0.002087,1.6e-05,-0.15793609825,-0.57813143745,-9.788311564499999,-0.016133,0.058988,3.1331,-1.0000000000065512e-05,9.999999999998899e-05,6.0000000000060005e-05,0.00031597375489091084,0.00010828441027466162,-6.401642540898589e-05
150000000000.0,6,0.00608992965,0.010924608099999998,0.00652142225,-0.000151,0.00103,1.6e-05,-0.15768112534999998,-0.57805298425,-9.788311564499999,-0.016107,0.058979,3.1331,-1.0000000000065512e-05,-9.999999999998899e-05,2.999999999997449e-05,0.0018669117003218827,7.64710494314258e-05,0.000561440933207924
150000000000.0,6,0.01222889255,0.008384685749999999,0.0183580488,-0.000157,0.001029,0.001084,-0.1573771192,-0.5779058845,-9.788311564499999,-0.016076,0.058964,3.1331,-9.999999999843467e-06,9.999999999998899e-05,-7.00000000000145e-05,-0.0010177232969893202,0.00016879434170702368,-0.0005888824165742323
150000000000.0,6,0.0135920169,-0.0058251501,0.0168478247,-0.000151,0.00103,1.6e-05,-0.15709272635,-0.5780627908999999,-9.788311564499999,-0.016048,0.05898,3.1331,-1.0000000000065512e-05,9.999999999998899e-05,0.00017999999999995797,0.0003885983038763724,-0.0008460887085945945,0.00020456386016698413
150000000000.0,6,0.01909354755,-0.01654381855,0.013376270599999998,0.001969,-5.3e-05,0.001089,-0.15645529409999998,-0.5788669362,-9.788311564499999,-0.015983,0.059062,3.1331,9.999999999998899e-05,3.333333333332966e-05,-0.00012999999999996348,-0.0006853015854140082,0.0013042682788830806,-0.00010038115433519401
150000000000.0,6,0.01909354755,-0.016612465099999998,0.013376270599999998,-0.003354,-7e-06,-0.001055,-0.15645529409999998,-0.5787982896499999,-9.788311564499999,-0.015983,0.059055,3.1331,-6.666666666665932e-05,3.333333333332966e-05,-2.999999999997449e-05,-0.0006507717760228238,-0.0009589944450987264,-0.0002077788806038039
150000000000.0,6,0.023634026499999995,-0.010424468949999998,0.0167889848,0.006236,-0.002216,-0.002102,-0.15621012785,-0.5792984287999999,-9.788311564499999,-0.015958,0.059107,3.1331,-6.666666666665932e-05,3.333333333332966e-05,2.0000000000020002e-05,0.0010614407320997804,0.00011869280478382649,0.00037707549481746927
150000000000.0,6,0.01983885295,-0.014513841999999999,0.01515127425,-0.00441,5e-06,-0.003192,-0.15586689509999999,-0.5793964953,-9.788311564499999,-0.015922,0.059116,3.133,-6.666666666665932e-05,5.0000000000105516e-05,0.00013999999999991797,0.0015115640544857284,-0.0016159420113992518,0.0006022296647670844
150000000000.0,6,0.006060509699999999,-0.0231829206,0.010924608099999998,0.003067,0.001009,-0.00318,-0.1556903754,-0.5800045076,-9.788213498,-0.015905,0.059179,3.133,9.999999999998899e-05,4.999999999988347e-05,-7.999999999996898e-05,-0.0008197620767775721,-0.0002164086232872009,-0.0005140895024434988
150000000000.0,6,0.0164947853,-0.00659987545,0.028576578099999996,-0.002276,-1.2e-05,-0.003188,-0.15520984955,-0.5802790938,-9.788213498,-0.015856,0.059207,3.133,3.333333333332966e-05,4.999999999988347e-05,-0.00012999999999996348,-0.0006551001591021954,-0.0011456363979704953,0.00046351458769358644
150000000000.0,6,0.01642613875,-0.0067077486,0.028576578099999996,-0.000142,-3e-05,-0.003184,-0.155141203,-0.5801712206499999,-9.788213498,-0.015848,0.059196,3.1329,3.333333333332966e-05,5.0000000000105516e-05,0.00012000000000000899,0.0007633380336250495,-6.633915424392178e-05,-0.00014003811576696057
150000000000.0,6,0.01248386545,-0.0044326057999999995,0.01617116585,-0.002256,0.001056,-0.005324,-0.15478816359999997,-0.5800437342,-9.788213498,-0.015812,0.059183,3.1329,3.333333333332966e-05,3.333333333332966e-05,-7.00000000000145e-05,-0.0012422881785642687,0.0006551196714135177,-0.00019598860096070592
150000000000.0,6,0.017946169499999998,-0.0071392412,0.0196133,-0.005485,-0.001051,-0.003192,-0.15456261065,-0.5801810273,-9.788213498,-0.01579,0.059197,3.1328,3.333333333332966e-05,3.333333333332966e-05,4.0000000000040004e-05,0.0008146817719195815,0.00031237803583894497,8.853594568705714e-05
150000000000.0,6,0.021358883699999998,-0.0102577559,0.0191621941,0.003047,-0.002185,-0.004242,-0.15438609095,-0.58021044725,-9.788213498,-0.015772,0.0592,3.1328,3.333333333332966e-05,3.333333333332966e-05,-7.00000000000145e-05,-0.0015977286008479058,-0.00024828307228674795,-0.000555220357063152
150000000000.0,6,0.0177500365,-0.011463973849999998,0.00224572285,-0.000153,-0.002158,-0.004248,-0.15421937789999998,-0.58034774035,-9.788213498,-0.015754,0.059214,3.1327,3.333333333332966e-05,3.333333333332966e-05,3.500000000000725e-05,0.00013858951065109926,0.00035771476958035286,5.573632142752416e-05
150000000000.0,6,0.0175342902,-0.0074040207499999995,-0.0024026292499999997,0.000917,-0.001102,-0.00318,-0.1540036316,-0.5805242600499999,-9.788213498,-0.015732,0.059231,3.1327,-9.999999999998899e-05,3.333333333332966e-05,3.500000000000725e-05,0.0012653779496925172,-0.00036329309332150395,0.00016655561148223863
150000000000.0,6,0.00565843705,-0.0085906254,0.0195936867,0.000931,-3.5e-05,-0.00425,-0.1539447917,-0.58068116645,-9.788213498,-0.015726,0.059248,3.1326,9.999999999998899e-05,3.333333333332966e-05,8.999999999992347e-05,-0.00017623526534250866,0.0013571664016847063,-0.00046320160069887595
150000000000.0,6,-0.00204958985,-0.0137096967,0.029439563299999996,0.000923,-0.001101,-0.004248,-0.1540232449,-0.58109304575,-9.788213498,-0.015734,0.05929,3.1326,3.333333333332966e-05,9.999999999998899e-05,-2.999999999997449e-05,-0.0005863057667414434,8.077545635565286e-05,-0.00016915134683326283
150000000000.0,6,-0.0136900834,-0.009983169699999999,0.0184953419,-0.000141,-2.8e-05,-0.003184,-0.154356671,-0.58138724525,-9.788213498,-0.015768,0.059319,3.1326,3.333333333332966e-05,-9.999999999998899e-05,-9.999999999998899e-05,-0.0005692925849271335,-0.000821925210375829,0.00021862105032804946
150000000000.0,6,-0.017298930599999998,0.0034127142,0.006678328649999999,-0.002261,0.001056,-0.004257,-0.1546312572,-0.5811616923,-9.788213498,-0.015796,0.059297,3.1325,3.333333333332966e-05,1.666666666655381e-05,2.0000000000020002e-05,-0.00010851364828845522,0.0006861838452782987,-0.00041269129305562813
150000000000.0,6,-0.0261445289,-0.005236751099999999,0.00038245935,-0.000161,-0.003224,-0.004246,-0.15521965619999997,-0.58119111225,-9.788213498,-0.015856,0.0593,3.1325,-1.4285714285744433e-05,1.6666666666775853e-05,2.0000000000020002e-05,0.0002163743719448552,-0.00028422082809975713,0.00036187687863981077
150000000000.0,6,-0.0287530978,-0.012827098199999998,0.01711260425,0.000932,-3.7e-05,-0.00425,-0.1557492153,-0.5815343449999999,-9.7881154315,-0.01591,0.059334,3.1325,-1.4285714285744433e-05,1.6666666666775853e-05,-1.0000000000065512e-05,-2.851096669298503e-05,0.0003249966815892513,-0.00020361714134023434
150000000000.0,6,-0.0354412331,-0.00361865385,0.033117057049999996,-0.000144,-0.001094,-0.00425,-0.1563964542,-0.58162260485,-9.7881154315,-0.015977,0.059343,3.1324,-1.4285714285744433e-05,1.666666666655381e-05,2.999999999997449e-05,-0.0011756051783305549,0.001427572813657907,-0.000878530435814262
150000000000.0,6,-0.017043957699999997,-0.0014808041500000001,0.022329742049999997,-0.000151,-3.2e-05,-0.001049,-0.1566906537,-0.5816520247999999,-9.7881154315,-0.016007,0.059347,3.1324,-1.4285714285522388e-05,1.666666666655381e-05,1.0000000000065512e-05,0.0013741474790472663,-0.0006837652898361579,0.0003435364040355604
150000000000.0,6,-0.00106892485,0.0011964113,0.0268309944,-0.00228,-1.3e-05,-0.00212,-0.1566514271,-0.5814951184,-9.7881154315,-0.016003,0.05933,3.1324,-1.4285714285744433e-05,1.6666666666775853e-05,9.99999999995449e-06,-5.604836468790786e-05,0.0003062942585954076,-0.00016410512527084697
150000000000.0,6,-0.010502922149999998,-0.00828661925,0.0146903617,0.000911,-4.2e-05,2e-05,-0.1569456266,-0.5817402846499999,-9.7881154315,-0.016033,0.059356,3.1324,-1.4285714285744433e-05,-4.999999999988347e-05,1.0000000000065512e-05,-0.0004106746164977554,0.0005118403496677804,-0.00018151453749751245
150000000000.0,6,-0.01075789505,-0.0072569209999999995,0.0214177236,-0.000146,-3.1e-05,-0.002117,-0.15713195295,-0.5818677711,-9.7881154315,-0.016052,0.059369,3.1324,-1.4285714285744433e-05,-5.0000000000105516e-05,-7.00000000000145e-05,0.0005398392586752898,-0.0025230220723693186,0.0006148364490086711
150000000000.0,6,-0.0077374468499999995,0.00085317855,0.014386355549999999,-0.001209,0.001042,-0.001053,-0.15716137289999998,-0.5817500913,-9.7881154315,-0.016055,0.059357,3.1324,9.999999999998899e-05,9.999999999998899e-05,4.999999999999449e-05,-0.0009090202313270235,0.0006828466771955366,-0.00043724270364997597
150000000000.0,6,-0.0157494799,-0.00818855275,0.009590903699999999,-0.000148,0.001032,1.6e-05,-0.15738692585,-0.5818285445,-9.7881154315,-0.016078,0.059365,3.1324,-2.4999999999941735e-05,1.4285714285744433e-05,-2.0000000000020002e-05,6.398717251707153e-06,0.00047373570253972375,-0.00012536756242589875
150000000000.0,6,-0.0326365312,-0.006080123,0.01915238745,0.000916,-4.2e-05,-0.001047,-0.1580047448,-0.5819952575499999,-9.7881154315,-0.016141,0.059382,3.1324,-2.4999999999941735e-05,1.4285714285744433e-05,-4.0000000000040004e-05,-1.69942543799817e-06,0.00013581484568936375,-2.1681332642825568e-05
150000000000.0,6,-0.021182364,-0.009502643849999999,0.02886097095,-0.000141,0.00103,0.001107,-0.1583773975,-0.58217177725,-9.7881154315,-0.01618,0.0594,3.1324,-2.500000000016378e-05,1.4285714285744433e-05,6.0000000000060005e-05,0.0005578326054859334,-0.00023013768369017917,0.0003159195436676365
150000000000.0,6,-0.028762904449999998,-0.01517088755,0.023604606549999997,-0.002283,-1.9e-05,0.001105,-0.1588873433,-0.58232868365,-9.788017365,-0.016231,0.059416,3.1324,-2.4999999999941735e-05,1.4285714285522388e-05,-1.0000000000065512e-05,0.00029121960036443406,-0.0006198177264626903,0.00021812088687639397
150000000000.0,6,-0.01552392695,-0.01899548105,0.01834824215,-0.000127,0.002095,3.8e-05,-0.15894618319999998,-0.5825542365999999,-9.788017365,-0.016238,0.059439,3.1324,5.0000000000105516e-05,1.4285714285744433e-05,1.0000000000065512e-05,-7.314434264586722e-05,5.435306641210502e-06,8.41775605169015e-05
150000000000.0,6,-0.006678328649999999,-0.018112882549999997,0.02311427405,0.003057,-6.2e-05,4.7e-05,-0.15896579649999998,-0.58297592255,-9.788017365,-0.01624,0.059482,3.1324,4.999999999988347e-05,1.4285714285744433e-05,-1.0000000000065512e-05,-0.00012399290691525455,0.00045191695335278226,-0.00022287384606295424
150000000000.0,6,-0.0051779112,-0.0214373369,0.0274390067,-0.004419,-0.001066,3.6e-05,-0.1591227029,-0.58325050875,-9.788017365,-0.016255,0.05951,3.1324,-9.999999999998899e-05,1.4285714285744433e-05,0.00014999999999998348,0.0005152911281657013,0.001958604513715878,-0.00042636005511487163
150000000000.0,6,0.0117483667,-0.025889555999999998,0.0311263071,0.008392,-0.000106,5.6e-05,-0.1589854098,-0.5841821405,-9.7879192985,-0.016242,0.059606,3.1324,1.4285714285744433e-05,-1.999999999990898e-05,-0.00014999999999998348,-0.0008270944489516818,-0.0023680991769681192,0.0003799461381786551
150000000000.0,6,0.016661498349999998,-0.031057660549999998,0.0167497582,-0.005485,-0.001057,3.4e-05,-0.15881869675,-0.5843978867999999,-9.7879192985,-0.016224,0.059628,3.1324,1.4285714285744433e-05,-2.0000000000131024e-05,4.999999999999449e-05,0.0006441747778460766,0.000709999971936659,-1.0804164838562613e-05
150000000000.0,6,0.0207116448,-0.0314401199,-0.00438357255,0.00304,-0.001129,0.002184,-0.15853430389999998,-0.5850745456499999,-9.7879192985,-0.016195,0.059696,3.1324,1.4285714285744433e-05,-1.999999999990898e-05,9.999999999998899e-05,0.0005509368612164056,0.001811190367713822,-0.00042150693318163124
150000000000.0,6,0.0147295883,-0.02144714355,0.015357213899999998,-0.001208,-2.6e-05,4e-05,-0.1582401044,-0.5853295185499999,-9.7879192985,-0.016165,0.059723,3.1324,1.4285714285522388e-05,-2.0000000000131024e-05,-0.00010999999999994348,-0.0008538095541341106,-0.0013973215731981625,9.217736930169917e-05
150000000000.0,6,-0.006433162399999999,-0.026526988249999998,0.0325188514,-0.001227,-0.001093,0.002176,-0.15831855759999997,-0.58609443725,-9.787821231999999,-0.016174,0.0598,3.1324,1.4285714285744433e-05,-1.999999999990898e-05,-9.99999999995449e-06,5.2382715187870854e-05,-0.00023023205246963663,0.00036016116704432055
150000000000.0,6,-0.0065312289,-0.0265367949,0.0325188514,0.000949,0.002089,-0.001028,-0.15822049109999997,-0.5860748239499999,-9.787821231999999,-0.016164,0.059799,3.1324,1.4285714285744433e-05,-1.0000000000065512e-05,9.99999999995449e-06,0.000575223393783228,-0.00012724933194707688,-5.537595000354445e-06
150000000000.0,6,-0.00846313895,-0.021770763000000002,0.019024901,-0.000146,-3.6e-05,0.001109,-0.15838720415,-0.58650631655,-9.787821231999999,-0.01618,0.059843,3.1324,1.4285714285744433e-05,-9.999999999843467e-06,-2.0000000000020002e-05,-0.0009947785956153365,0.0004816244320684504,-0.00019592667222617655
150000000000.0,6,-0.0092770909,-0.009267284249999999,0.02303582085,0.003052,-0.001127,4.9e-05,-0.1586127571,-0.5868887759,-9.787821231999999,-0.016204,0.059882,3.1325,-9.999999999998899e-05,-1.0000000000065512e-05,2.999999999997449e-05,0.0007414818421261626,-0.0002336895779004866,0.00021599716473857944
150000000000.0,6,-0.0225356817,-0.01556315355,0.0334799031,-0.001195,0.002104,0.001103,-0.15897560314999998,-0.5873300751499999,-9.7877231655,-0.016241,0.059927,3.1325,9.999999999998899e-05,-1.0000000000065512e-05,-8.999999999992347e-05,-0.0010035893581790273,-0.0003617226457810485,-0.00022334396781337196
150000000000.0,6,-0.012817291549999998,-0.0050406181,0.026732927899999998,-0.000145,-3.6e-05,0.001109,-0.15926980265,-0.5873693017499999,-9.7877231655,-0.016271,0.059931,3.1325,-9.999999999998899e-05,-9.999999999843467e-06,7.00000000000145e-05,0.0009529042002462129,-0.0002020740272754562,0.000609507777737911
150000000000.0,6,-0.0174362237,0.0015102241,0.018966061099999997,-0.002284,-2e-05,0.002173,-0.15958361545,-0.5871927820499999,-9.7877231655,-0.016303,0.059913,3.1325,9.999999999998899e-05,-1.0000000000065512e-05,-4.999999999999449e-05,-0.0006101421532047346,0.0003552789386243038,-0.0001949675990861599
150000000000.0,6,-0.008629852,0.006678328649999999,0.015367020549999999,0.000899,-0.002177,0.002182,-0.15985820164999998,-0.5871241355,-9.7877231655,-0.016331,0.059906,3.1325,-9.999999999998899e-05,-1.0000000000065512e-05,-5.000000000032756e-06,0.00030031921801933203,-0.0016571293344880278,0.0005377929748112409
150000000000.0,6,0.004118793,0.006246836049999999,0.020201699,-0.001206,0.002101,0.003238,-0.1595934221,-0.58654554315,-9.787821231999999,-0.016304,0.059847,3.1326,-5.0000000000105516e-05,-1.0000000000065512e-05,-5.000000000032756e-06,1.645180547957259e-05,0.0011334759113390547,-0.000577097519823988
150000000000.0,6,-0.0080218397,0.0152395341,0.021829602899999998,0.00196,-0.002187,0.003251,-0.1598680083,-0.5867122562,-9.787821231999999,-0.016332,0.059864,3.1326,-4.999999999988347e-05,-9.999999999843467e-06,7.00000000000145e-05,0.00024479702604947307,-0.0006475040059630288,0.0003687901066017907
150000000000.0,6,-0.005275977699999999,0.007060788,0.02260432825,-0.001232,-0.001096,0.003244,-0.16023085434999998,-0.5861630837999999,-9.787821231999999,-0.016369,0.059807,3.1326,9.999999999998899e-05,-1.0000000000065512e-05,-4.0000000000040004e-05,0.00041030949404974315,-0.0002939048567192071,0.00027377602897621367
150000000000.0,6,-0.0055701772,0.006727361899999999,0.0226337482,-0.001201,0.002102,0.002171,-0.1599268482,-0.5858296577,-9.787821231999999,-0.016338,0.059773,3.1326,-5.0000000000105516e-05,-2.4999999999941735e-05,3.0000000000085514e-05,-3.416355519811343e-05,0.0007961296699081633,-6.001086196905092e-05
150000000000.0,6,-0.0080806796,0.005952636549999999,0.0232025339,0.004107,-0.001139,0.002186,-0.16026027429999998,-0.5861042438999999,-9.787821231999999,-0.016372,0.059801,3.1327,-4.999999999988347e-05,-2.500000000016378e-05,2.999999999997449e-05,0.00047413097834035633,-0.0002903267526399578,0.0002530331579055356
150000000000.0,6,-0.006952914849999999,0.0059036033,0.028615804699999997,-0.004411,0.001063,0.002167,-0.16034853415,-0.5857413978499999,-9.787821231999999,-0.016381,0.059765,3.1327,1.6666666666775853e-05,-2.4999999999941735e-05,-7.999999999996898e-05,-0.000372089627914754,-0.001045715934973268,0.00023071911786237687
150000000000.0,6,-0.0101400761,-0.005099457999999999,0.026330855249999997,0.004121,-7.2e-05,0.001116,-0.16060350704999998,-0.58627095695,-9.787821231999999,-0.016407,0.059818,3.1327,1.666666666655381e-05,-2.4999999999941735e-05,-3.0000000000085514e-05,-0.0008666497286865527,-0.0005127889258162988,-5.7778481550890826e-05
150000000000.0,6,0.01122861425,-0.01222889255,0.020201699,-0.000143,0.001028,0.002175,-0.16027008094999998,-0.5863199901999999,-9.787821231999999,-0.016373,0.059824,3.1327,1.666666666655381e-05,-1.999999999990898e-05,2.999999999997449e-05,0.0006473264470946843,-4.33795427159378e-05,9.845196851052118e-05
150000000000.0,6,0.00781590005,-0.0003530394,0.010924608099999998,0.000933,0.002085,0.002175,-0.15999549475,-0.5863788300999999,-9.787821231999999,-0.016345,0.059829,3.1327,1.6666666666775853e-05,-2.0000000000131024e-05,3.0000000000085514e-05,-0.0004212858638867195,0.0011696759634183262,-0.0002885489613209391
150000000000.0,6,0.022898527749999998,-0.0035794272499999995,0.023643833149999998,-0.00121,0.001037,0.002173,-0.15967187530000002,-0.58644747665,-9.787821231999999,-0.016312,0.059836,3.1328,1.6666666666775853e-05,-1.999999999990898e-05,-2.0000000000020002e-05,0.0012685972877012341,-0.0005237825171513499,0.0003993021961564702
150000000000.0,6,0.0271448072,-0.0095712904,0.031116500449999997,-0.00014,-3.5e-05,4.2e-05,-0.15926980265,-0.5867318695,-9.787821231999999,-0.016271,0.059866,3.1328,1.666666666655381e-05,-2.0000000000131024e-05,-9.00000000000345e-05,-0.002434005567033354,0.0012260141104494249,-0.0008096533273726225
150000000000.0,6,0.019377940399999998,-0.0029223816999999997,0.03276401765,0.000935,0.001022,4.2e-05,-0.15884811669999999,-0.5868005160499999,-9.787821231999999,-0.016227,0.059873,3.1328,-5.0000000000105516e-05,-1.999999999990898e-05,-2.5000000000052758e-05,9.883852099384915e-05,0.00019069607565591618,-3.0486288735920297e-05
150000000000.0,6,0.015808319799999998,0.0048837117,0.01840708205,0.001988,-5.2e-05,0.001113,-0.1582597177,-0.58682012935,-9.787821231999999,-0.016168,0.059875,3.1328,-4.999999999988347e-05,-3.333333333332966e-05,-2.4999999999941735e-05,0.0008750527899883259,-0.0014239421802177965,0.00069678428159059
150000000000.0,6,0.0157690932,0.0048640984,0.01840708205,-0.000151,-3.6e-05,0.002176,-0.15822049109999997,-0.5868005160499999,-9.787821231999999,-0.016164,0.059873,3.1328,-1.4285714285744433e-05,-3.333333333332966e-05,0.000160000000000049,0.0005024623795039235,0.0028244058702247,-0.0005430822666947499
150000000000.0,6,0.00269682875,0.014298095700000001,0.01573967325,-0.000118,0.002099,-0.00103,-0.15801455144999998,-0.58650631655,-9.787821231999999,-0.016143,0.059843,3.1328,-1.4285714285744433e-05,-3.333333333332966e-05,2.0000000000020002e-05,0.0008195569191630642,-0.0008549873982841572,0.0002487885142428703
150000000000.0,6,0.0009414384,0.01717144415,0.02995931575,0.000937,-4e-05,-0.002091,-0.15805377804999998,-0.58638863675,-9.787821231999999,-0.016147,0.059831,3.1328,-1.4285714285744433e-05,-2.4999999999941735e-05,9.99999999995449e-06,-0.0001402777452508691,-0.00021233603352444064,7.75066360108323e-05
150000000000.0,6,-0.00401091985,0.0351862602,0.03013583545,0.001992,-5.1e-05,4.5e-05,-0.15819107114999997,-0.585849271,-9.787821231999999,-0.016161,0.059776,3.1328,-1.4285714285522388e-05,-2.4999999999941735e-05,-0.00012000000000000899,-0.001009566129222192,-0.000994963021125006,0.0001447365649165644
150000000000.0,6,-0.00354020065,0.02164327655,0.0253796102,-0.001212,-0.001089,-0.001026,-0.15836759085,-0.5853295185499999,-9.7879192985,-0.016179,0.059723,3.1328,-1.4285714285744433e-05,-2.500000000016378e-05,9.00000000000345e-05,0.0005095138956260764,0.0013219017566281632,-0.0003172729959911025
150000000000.0,6,-0.00754131385,0.01564160675,0.02015266575,-0.001204,-2.4e-05,-0.001028,-0.15855391719999998,-0.58501570575,-9.7879192985,-0.016198,0.059691,3.1327,-1.4285714285744433e-05,-2.4999999999941735e-05,-2.0000000000020002e-05,0.0003739887566026334,-0.00012487514343995088,-3.329952308184225e-05
150000000000.0,6,0.0048052584999999995,0.025987622499999998,0.032901310749999996,0.000913,-0.002172,-0.00102,-0.15863237039999997,-0.58458421315,-9.7879192985,-0.016206,0.059647,3.1327,-1.4285714285744433e-05,-3.333333333332966e-05,4.999999999999449e-05,0.0011029726295067738,-0.00059165216253243,0.0004415046563423508
150000000000.0,6,0.01670072495,0.020564545049999997,0.023800739549999998,0.000938,0.001025,-0.001026,-0.15840681745,-0.5842409803999999,-9.7879192985,-0.016183,0.059612,3.1327,9.999999999998899e-05,-3.333333333332966e-05,2.999999999997449e-05,-0.001167449356613004,0.0014437946514351818,-0.0007076720941350256
150000000000.0,6,0.008335652499999999,0.0092770909,0.019917306149999998,-0.001201,0.001041,3.8e-05,-0.15826952435,-0.5840350407499999,-9.7879192985,-0.016169,0.059591,3.1327,1.4285714285744433e-05,-3.333333333332966e-05,1.0000000000065512e-05,0.0013835186935449995,-0.0006051099518584735,0.0010067896587855896
150000000000.0,6,-0.00473661195,0.0083944924,0.0251638639,-0.001215,-2.5e-05,0.001107,-0.15836759085,-0.5839075543,-9.7879192985,-0.016179,0.059577,3.1327,1.4285714285744433e-05,9.999999999998899e-05,4.999999999999449e-05,-2.8338382656076244e-05,0.00039217512910227903,-0.0002916209149504412
150000000000.0,6,-0.0015396440499999998,0.017524483549999997,0.0253403836,-0.003349,-8e-06,0.001103,-0.15856372384999998,-0.5834564484,-9.788017365,-0.016199,0.059531,3.1327,1.4285714285744433e-05,-2.4999999999941735e-05,-9.00000000000345e-05,-0.0012669446211030777,-0.0008452581949145443,-0.0004659646295661346
150000000000.0,6,-0.008306232549999999,0.011424747249999999,0.03086152755,0.000909,-0.001108,0.001113,-0.15883831005,-0.5836427747499999,-9.788017365,-0.016226,0.05955,3.1327,1.4285714285522388e-05,-2.500000000016378e-05,4.0000000000040004e-05,0.0007050786743075105,0.0009623085910774876,0.00041805849681400553
150000000000.0,6,-0.0024026292499999997,0.01083634825,0.028635417999999996,-0.001242,-0.003222,0.001113,-0.15905405635,-0.5832014755,-9.788017365,-0.016248,0.059505,3.1328,1.4285714285744433e-05,-2.4999999999941735e-05,-4.0000000000040004e-05,-0.0003759467415003076,-0.0008942534970828309,0.0001247378296019841
150000000000.0,6,-0.010885381500000001,0.018907221199999998,0.02999854235,0.000931,0.001024,4.2e-05,-0.15925018935,-0.58289746935,-9.788017365,-0.016269,0.059474,3.1328,1.4285714285744433e-05,-2.4999999999941735e-05,-0.00012999999999996348,-0.0006503822308431273,-0.0005793748393352338,-0.00012555291323473883
150000000000.0,6,-0.02144714355,0.01275845165,0.024771597899999998,-0.001189,0.002107,-0.001031,-0.15946593565,-0.58258365655,-9.788017365,-0.016291,0.059442,3.1328,1.4285714285744433e-05,9.999999999998899e-05,8.999999999992347e-05,-0.0011744259652710642,0.002210739470910328,-0.00040699828393800375
150000000000.0,6,-0.01979962635,0.0146119085,0.0193975537,-0.000131,0.001033,-0.001028,-0.15976013514999998,-0.5823384903,-9.788017365,-0.016321,0.059417,3.1328,-9.999999999998899e-05,-9.999999999998899e-05,9.999999999998899e-05,0.0031372441109112775,-0.0011965878067681235,0.0006975948214619498
150000000000.0,6,-0.011866046499999998,0.01056176205,0.031077273849999996,-0.000136,0.001032,4e-05,-0.15976013514999998,-0.58217177725,-9.788017365,-0.016321,0.0594,3.1328,2.4999999999941735e-05,9.999999999998899e-05,-5.999999999994898e-05,-0.0015803492634345884,0.0008180536744351041,-0.0004994590953212863
150000000000.0,6,-0.0020397832,0.0078060934,0.0337741026,-0.000153,-0.001099,4.4e-05,-0.1598680083,-0.58211293735,-9.788017365,-0.016331,0.059394,3.1328,2.4999999999941735e-05,1.4285714285744433e-05,-2.999999999997449e-05,-0.0003773334677438095,-0.0010922027922888322,-0.00010957381731357962
150000000000.0,6,0.0035500073,0.005246557749999999,0.034078108749999995,-0.001214,0.001038,0.002173,-0.15977974844999998,-0.5820933240499999,-9.788017365,-0.016322,0.059392,3.1328,2.500000000016378e-05,1.4285714285744433e-05,9.99999999995449e-06,0.0005979977272460718,-1.9940744717894532e-05,0.0001289145935697844
150000000000.0,6,0.0042462794499999994,0.00250069575,0.01642613875,-0.000161,-3.7e-05,0.003244,-0.15972090854999998,-0.58205409745,-9.788017365,-0.016317,0.059387,3.1328,2.4999999999941735e-05,1.4285714285744433e-05,-9.999999999998899e-05,-0.002166132464373763,0.0009873016284869252,-0.00082174182612893
150000000000.0,6,0.0054132708,-0.0005295590999999999,0.0146315218,-0.001212,-2.5e-05,4e-05,-0.1596914886,-0.5820050642,-9.7881154315,-0.016314,0.059383,3.1328,-2.4999999999941735e-05,1.4285714285522388e-05,-1.4999999999987246e-05,0.00025921797984762573,0.0002767188877810245,0.0003538062591066926
150000000000.0,6,0.0058839899999999995,-0.011385520649999998,0.03166567285,0.004121,0.000995,0.002182,-0.15956400215,-0.5823777169,-9.788017365,-0.0163,0.059421,3.1328,-2.500000000016378e-05,1.4285714285744433e-05,-1.4999999999987246e-05,0.00020164202032013634,-0.00025440731050352383,-0.00012025757680711457
150000000000.0,6,-0.0071000146,-0.00581534345,0.04288448045,-0.000128,0.002098,3.8e-05,-0.1595934221,-0.5825542365999999,-9.788017365,-0.016304,0.059439,3.1328,-2.4999999999941735e-05,1.4285714285744433e-05,-2.0000000000020002e-05,-0.0007583871746986159,0.000274599984270818,-0.0001615356721494099
150000000000.0,6,-0.009669356899999999,-0.00612915625,0.04347287945,0.000931,0.001023,4.2e-05,-0.15956400215,-0.5826915296999999,-9.788017365,-0.016301,0.059453,3.1328,-2.4999999999941735e-05,1.4285714285744433e-05,0.000160000000000049,0.0015263396193939266,0.00031522710162179557,0.00027660678159643903
150000000000.0,6,-0.0027360553499999997,-0.021721729749999998,0.027272293649999998,-0.000124,0.003162,0.001104,-0.1597699418,-0.5832603154,-9.788017365,-0.016321,0.059511,3.1328,9.999999999998899e-05,-3.333333333332966e-05,-0.000160000000000049,-0.0012271831527117388,0.0001820982687608108,-0.00033094891334023435
150000000000.0,6,-0.00267721545,-0.021839409549999998,0.0272821003,-0.001225,-0.001092,0.001109,-0.15982878169999998,-0.5831426356,-9.788017365,-0.016327,0.059499,3.1328,-9.999999999998899e-05,-3.333333333332966e-05,0.00014999999999998348,0.001992837248328924,-0.0010843747285205207,0.00043029910978387154
150000000000.0,6,0.00354020065,-0.01116977435,0.02083913125,-0.001194,0.002106,3.6e-05,-0.1596130354,-0.58334857525,-9.788017365,-0.016305,0.05952,3.1328,-9.999999999998899e-05,-3.333333333332966e-05,2.0000000000020002e-05,0.0008531135885377211,-0.0009616851288396511,0.0005408862775033441
150000000000.0,6,0.009914523149999998,-0.01205237285,0.024722564649999997,-0.000163,-0.001101,0.002178,-0.15940709574999998,-0.5835054816499999,-9.788017365,-0.016285,0.059536,3.1328,9.999999999998899e-05,9.999999999998899e-05,9.99999999995449e-06,-0.001790026780484455,0.0020564015977646566,-0.0007992429953009583
150000000000.0,6,0.01324878415,-0.02201592925,0.03592175895,0.003055,0.001004,0.00218,-0.15915212285,-0.58401542745,-9.7879192985,-0.016258,0.059588,3.1329,-9.999999999998899e-05,-9.999999999998899e-05,2.0000000000020002e-05,0.0028387916417995235,-0.002143820797527507,0.0012019528609535923
150000000000.0,6,0.0091594111,-0.0153376006,0.0421882083,-0.003332,0.002123,0.0011,-0.15879908345,-0.58440769345,-9.7879192985,-0.016223,0.059629,3.1329,3.333333333332966e-05,9.999999999998899e-05,9.99999999995449e-06,-0.0015176100581937718,5.62125993142093e-05,-0.0005086202880568436
150000000000.0,6,0.00795319315,-0.0085906254,0.04262950755,-0.000157,-0.0011,0.001111,-0.15878927680000002,-0.58442730675,-9.7879192985,-0.016222,0.05963,3.1329,3.333333333332966e-05,-4.999999999988347e-05,1.0000000000065512e-05,2.8781941759217777e-05,0.0014789149731095907,-0.0003610774285481011
150000000000.0,6,0.018917027849999997,-0.009502643849999999,0.0315577997,-0.001232,-0.002156,0.001111,-0.15853430389999998,-0.5845547931999999,-9.7879192985,-0.016195,0.059643,3.1329,3.333333333332966e-05,-5.0000000000105516e-05,-0.00017999999999995797,-0.001794493852713977,-0.00044603709570067984,-8.092145314059218e-05
150000000000.0,6,0.01222889255,-0.019348520449999997,0.01972117315,-0.000134,0.001033,4e-05,-0.158279331,-0.5848882193,-9.7879192985,-0.016169,0.059678,3.1329,-2.4999999999941735e-05,-5.0000000000105516e-05,0.00012000000000000899,0.0010411253701762685,-0.0004509846569140663,0.00025628047321213376
150000000000.0,6,0.00079433865,-0.0079237732,0.028547158149999998,-0.000139,0.001032,0.001107,-0.15806358469999998,-0.58493725255,-9.7879192985,-0.016148,0.059682,3.1329,-2.4999999999941735e-05,-4.999999999988347e-05,-0.00010000000000010001,0.0004876465925318929,0.0008042766638278742,4.683728074245108e-05
150000000000.0,6,-0.0129840046,0.0100812362,0.03707894365,0.001986,-5.1e-05,0.001113,-0.1582008778,-0.58483918605,-9.7879192985,-0.016162,0.059673,3.1329,-2.500000000016378e-05,4.999999999988347e-05,-8.999999999992347e-05,-0.001302950144947232,-0.0013509112298488724,-0.00012649422931412801
150000000000.0,6,-0.010885381500000001,-0.0040403398,0.038569554449999995,0.000925,-4.1e-05,4.4e-05,-0.15834797755000002,-0.58493725255,-9.7879192985,-0.016177,0.059682,3.1329,-2.4999999999941735e-05,5.0000000000105516e-05,0.00017999999999995797,0.0017705772303674844,-4.092577902570227e-05,0.0002319178188605886
150000000000.0,6,-0.009914523149999998,-0.0005099458,0.037814442399999995,-0.000134,0.001033,4e-05,-0.15842643074999999,-0.5850255124,-9.7879192985,-0.016185,0.059691,3.1329,9.999999999998899e-05,-5.0000000000105516e-05,-3.999999999992898e-05,-0.0013855174248019186,0.000848086241005408,-0.00036863558927868745
150000000000.0,6,-0.00840429905,-0.0048444850999999995,0.03676513085,-0.001214,-2.5e-05,0.001107,-0.15858333715,-0.5850255124,-9.7879192985,-0.016201,0.059691,3.1329,-1.999999999990898e-05,-4.999999999988347e-05,-0.0001300000000000745,-0.0003366135708942758,4.1199201127772866e-05,-2.7807672018764773e-05
150000000000.0,6,-0.0014317708999999998,-0.0060408964,0.0264387284,-0.002289,-0.001082,0.001107,-0.15868140365,-0.5850255124,-9.7879192985,-0.016211,0.059692,3.1329,-2.0000000000131024e-05,-4.999999999988347e-05,9.00000000000345e-05,0.00023141840691841276,0.001004508463874787,-0.0003095383492516257
150000000000.0,6,-0.009483030549999999,0.00020593964999999999,0.03137147335,-0.001214,-2.5e-05,0.001107,-0.15885792335,-0.5849862857999999,-9.7879192985,-0.016229,0.059688,3.1329,-1.999999999990898e-05,-5.0000000000105516e-05,-6.0000000000060005e-05,0.0013399288294006911,-0.0005076334805480531,0.0007049567125479994
150000000000.0,6,-0.012827098199999998,0.00038245935,0.04333558635,0.001981,-5.3e-05,0.00218,-0.15910308959999997,-0.5851726121499999,-9.7879192985,-0.016254,0.059706,3.1329,-2.0000000000131024e-05,-1.999999999990898e-05,-4.999999999999449e-05,-0.0006600349495442803,-0.00039248743441633316,-0.0001593389289431535
150000000000.0,6,-0.0012944778,-0.0009022117999999999,0.046463907699999994,0.001987,-5.2e-05,0.001113,-0.159259996,-0.5853785518,-9.7879192985,-0.01627,0.059727,3.133,-1.999999999990898e-05,-2.0000000000131024e-05,7.00000000000145e-05,0.001158744417982971,-0.00031102985366548985,0.0002526326137577972
150000000000.0,6,-0.004834678449999999,-0.00430511935,0.030586941349999997,0.000909,-4.5e-05,0.003246,-0.15931883589999998,-0.5855648781499999,-9.787821231999999,-0.016276,0.059747,3.133,5.0000000000105516e-05,-1.999999999990898e-05,-2.7499999999958114e-05,-0.00037722478665133674,0.0008192009255185706,-0.00020175809159758695
150000000000.0,6,-0.0035500073,-0.0087475318,0.019662333249999997,-0.000161,-0.001101,0.002179,-0.15940709574999998,-0.5856139114,-9.787821231999999,-0.016284,0.059751,3.133,4.999999999988347e-05,-2.0000000000131024e-05,-2.7500000000069136e-05,-0.0016560131172903836,8.736025192357388e-05,-0.00039148843321873406
150000000000.0,6,-0.007433440699999999,-0.0061389629,0.0274193934,0.001976,-5.4e-05,0.003248,-0.1595541955,-0.5858296577,-9.787821231999999,-0.0163,0.059774,3.133,-9.999999999998899e-05,-1.999999999990898e-05,-2.7499999999958114e-05,0.0024542589264056613,-0.0004457025912236734,0.0006956209986019035
150000000000.0,6,-0.01022833595,0.0013729309999999998,0.03056732805,-0.004428,-0.001066,0.002171,-0.15976013514999998,-0.5857119779,-9.787821231999999,-0.016321,0.059761,3.1331,3.333333333332966e-05,-2.4999999999941735e-05,-2.7499999999958114e-05,-0.0016101304060873456,-0.00040574429641404564,-0.00012957037288055528
150000000000.0,6,-0.0137489233,-0.009561483749999999,0.0401288118,0.000913,0.001019,0.004311,-0.15997588145,-0.58599637075,-9.787821231999999,-0.016343,0.059791,3.1331,3.333333333332966e-05,-2.500000000016378e-05,5.999999999994898e-05,-0.001052712044163226,-0.0004178172847537631,-0.0005422971644637731
150000000000.0,6,-0.013788149899999998,-0.0143765489,0.04264912084999999,-0.000145,0.002093,0.004308,-0.16009356125,-0.58627095695,-9.787821231999999,-0.016355,0.059819,3.1331,3.333333333332966e-05,-2.500000000016378e-05,4.999999999999449e-05,-0.0003302242383058235,0.0018402757859736774,-9.321719785329585e-05
150000000000.0,6,-0.01744603035,-0.0074040207499999995,0.03187161249999999,-0.000154,0.001027,0.00431,-0.1603191142,-0.58634941015,-9.787821231999999,-0.016378,0.059827,3.1332,-9.999999999998899e-05,-2.4999999999941735e-05,2.0000000000020002e-05,0.0020972389976561673,-0.0014428192110915727,0.0009877231190953129
150000000000.0,6,-0.0016279038999999999,-0.0003530394,0.039648285949999994,-0.001212,0.002102,0.004306,-0.1602798876,-0.5863788300999999,-9.787821231999999,-0.016374,0.05983,3.1332,-5.0000000000105516e-05,-3.333333333332966e-05,9.99999999995449e-06,-0.0007850321954439715,0.0007771988698250798,-0.000336780170934331
150000000000.0,6,0.00079433865,-0.0072373077,0.038147868499999994,-0.000162,-3.8e-05,0.004312,-0.16030930755,-0.5865161232,-9.787821231999999,-0.016377,0.059844,3.1333,-4.999999999988347e-05,-3.333333333332966e-05,-0.00011999999999989797,0.000441495521787752,-0.0022645247343617836,0.0005707128674103668
150000000000.0,6,0.00040207264999999996,-0.013739116649999997,0.030812494299999996,-0.000145,0.002093,0.004308,-0.1600641413,-0.58660438305,-9.787821231999999,-0.016352,0.059853,3.1333,-1.2499999999970868e-05,-3.333333333332966e-05,3.4999999999896225e-05,0.0002755667815415169,-0.0009616675840788957,0.0006273202489212315
150000000000.0,6,0.0058839899999999995,-0.012954584649999998,0.04247260115,-0.001237,-0.001095,0.004312,-0.1600053014,-0.5867907094,-9.787821231999999,-0.016346,0.059872,3.1333,-1.2499999999970868e-05,9.999999999998899e-05,3.500000000000725e-05,-0.0005761735039307853,0.001765378563880704,-0.000907147607215969
150000000000.0,6,0.01081673495,-0.013082071099999999,0.030655587899999996,0.000897,-0.001112,0.004315,-0.15985820164999998,-0.58682012935,-9.787821231999999,-0.016331,0.059874,3.1334,-1.2499999999970868e-05,-9.999999999998899e-05,-4.999999999999449e-05,-9.917336753097195e-05,-0.00042260956100514946,0.0002958495767469982
150000000000.0,6,0.0133174307,-0.01569064,0.0346763144,-0.001228,-2.9e-05,0.00431,-0.15966206865,-0.5872025887,-9.7877231655,-0.016311,0.059914,3.1334,-1.2499999999970868e-05,-5.0000000000105516e-05,4.0000000000040004e-05,-0.00030622206817271236,0.0007300482864904811,-0.00014191680441319465
150000000000.0,6,0.005540757249999999,-0.0145334553,0.03570601265,-0.000175,-0.001104,0.005381,-0.15966206865,-0.5874575616,-9.7877231655,-0.016311,0.05994,3.1335,-1.2500000000192912e-05,-4.999999999988347e-05,2.0000000000020002e-05,0.000445931509460859,-0.001075542942687635,0.0008074705311471864
150000000000.0,6,0.0032754210999999997,-0.01701453775,0.040168038399999995,-0.00015,-3.5e-05,0.002177,-0.159652262,-0.58782040765,-9.7877231655,-0.01631,0.059977,3.1335,-1.2499999999970868e-05,-3.333333333332966e-05,-4.999999999999449e-05,0.0005790595128737086,0.0001044000442815829,6.713731674373724e-05
150000000000.0,6,0.0019319100499999998,-0.0170047311,0.0452478831,-0.001235,-0.001094,0.004312,-0.159652262,-0.58797731405,-9.7877231655,-0.01631,0.059993,3.1335,-1.2499999999970868e-05,-3.333333333332966e-05,2.999999999997449e-05,-0.0011163840318235418,0.0003322134008874045,-0.00036094573933498353
150000000000.0,6,0.0023241760499999996,-0.01989769285,0.0341663686,-0.001207,0.001039,0.002173,-0.1595934221,-0.58823228695,-9.7877231655,-0.016304,0.060019,3.1336,-1.2499999999970868e-05,-3.333333333332966e-05,-2.0000000000020002e-05,0.0016082774977472653,-0.0009989709037061534,0.000689992322136429
150000000000.0,6,-0.0033538743,-0.020084019199999997,0.040570111049999996,0.000885,-0.002178,0.005384,-0.1599072349,-0.5886441662499999,-9.787625099,-0.016336,0.060061,3.1336,-1.999999999990898e-05,-5.0000000000105516e-05,1.4999999999987246e-05,-0.0013753475915651153,0.0004701410959047081,-0.0003926682282039684
150000000000.0,6,-0.0091005712,-0.01503359445,0.0401091985,-0.002279,0.001047,0.003239,-0.15998568809999997,-0.5887618460499999,-9.787625099,-0.016344,0.060073,3.1337,-2.0000000000131024e-05,-4.999999999988347e-05,1.4999999999987246e-05,0.0021183640339610538,-1.8371307277886828e-05,0.0006976603146471583
150000000000.0,6,-0.0020299765499999997,-0.0158475464,0.03199909895,-0.001231,-3e-05,0.005377,-0.16017201444999998,-0.58913449875,-9.787625099,-0.016364,0.060112,3.1337,-1.999999999990898e-05,-9.999999999998899e-05,-3.999999999992898e-05,-0.000745560134219253,-0.0014281522274639524,-2.3216145241811148e-05
150000000000.0,6,-0.0077374468499999995,-0.01899548105,0.045149816599999996,0.000898,-4.8e-05,0.006448,-0.16029950089999997,-0.58942869825,-9.787625099,-0.016377,0.060142,3.1338,-2.0000000000131024e-05,-9.999999999998899e-05,-9.00000000000345e-05,-0.0005444043100080731,0.00010011990751412903,-0.00013409584431639532
150000000000.0,6,-0.009973363049999998,-0.0064920023,0.03989345219999999,0.000912,0.001018,0.005379,-0.16046621395,-0.58966405785,-9.787625099,-0.016394,0.060165,3.1338,-1.999999999990898e-05,-9.999999999998899e-05,-9.99999999995449e-06,0.00036260960830657163,-2.1938896711315437e-05,9.616895597022723e-05
150000000000.0,6,-0.00505042475,-0.00512887795,0.0433257797,0.000905,-0.001111,0.003248,-0.1605937004,-0.5898307708999999,-9.787625099,-0.016406,0.060182,3.1339,-5.0000000000105516e-05,-2.4999999999941735e-05,-3.0000000000085514e-05,-0.0002451005426508668,3.607695391139032e-05,-0.0004525549672477758
150000000000.0,6,-0.0054132708,-0.014896301349999998,0.03552949295,0.000893,-5e-05,0.007516,-0.16068196025,-0.59009555045,-9.7875270325,-0.016416,0.060209,3.1339,-5.0000000000105516e-05,-2.500000000016378e-05,4.0000000000040004e-05,6.54021260518417e-05,-0.0001998167490653291,-0.0003130474183388743
150000000000.0,6,-0.0056976636499999995,-0.007766866799999999,0.0386578143,-0.000185,-0.002171,0.00645,-0.16099577305,-0.5901838103,-9.7875270325,-0.016447,0.060218,3.134,-2.4999999999941735e-05,-2.4999999999941735e-05,2.999999999997449e-05,6.0300446105748806e-05,8.677298534598421e-06,9.448859107324958e-05
150000000000.0,6,-0.00736479415,-0.0021770762999999997,0.03819690175,0.000893,-5e-05,0.007516,-0.1611232595,-0.5903897499499999,-9.7875270325,-0.016461,0.060239,3.1341,-2.4999999999941735e-05,-2.4999999999941735e-05,-3.999999999992898e-05,-0.00020147743641747706,-0.00036637542415829394,0.0001261402041817794
150000000000.0,6,-0.0060016698,-0.010169496049999999,0.04701308009999999,-0.003369,-1.4e-05,0.006441,-0.16144687894999998,-0.5904780098,-9.7875270325,-0.016493,0.060248,3.1341,-2.500000000016378e-05,-4.999999999988347e-05,9.99999999995449e-06,0.00011659268919768373,-0.0005717507763800533,0.00016389749470172021
150000000000.0,6,-0.01271922505,-0.012817291549999998,0.040246491599999996,0.005144,-0.002217,0.007527,-0.16205489125,-0.5909683423,-9.7875270325,-0.016556,0.060299,3.1342,-2.4999999999941735e-05,-5.0000000000105516e-05,7.999999999996898e-05,-0.0003241066801164122,0.0008914164474367325,-0.00035632404279431484
150000000000.0,6,-0.012621158549999999,-0.012944777999999999,0.040246491599999996,-0.001226,-3.8e-05,0.007496,-0.16215295775,-0.5908408558499999,-9.7875270325,-0.016566,0.060286,3.1343,3.333333333332966e-05,-9.999999999998899e-05,-9.99999999995449e-06,-0.0012318792151940344,0.00011729907433455367,-0.0010261372269806668
150000000000.0,6,-0.00940457735,-0.0095712904,0.042619700899999995,-0.000146,0.001019,0.006428,-0.16237851069999998,-0.59107621545,-9.787428966,-0.016589,0.060309,3.1343,3.333333333332966e-05,-9.999999999998899e-05,-4.999999999999449e-05,0.0014035339344986852,0.0006743113009173296,0.00050435765412013
150000000000.0,6,-0.0131605243,-0.0158475464,0.051122066449999996,0.000913,-5.5e-05,0.006432,-0.16266290355,-0.59152732135,-9.787428966,-0.016619,0.060356,3.1344,3.333333333332966e-05,-5.0000000000105516e-05,2.999999999997449e-05,-0.001709669998139804,0.0009915717891273435,6.8992915667753785e-06
150000000000.0,6,-0.0033538743,-0.015268954049999998,0.0440710851,-0.000176,-0.002178,0.007501,-0.1628884565,-0.5918117142,-9.787428966,-0.016641,0.060385,3.1345,-4.999999999988347e-05,-4.999999999988347e-05,-2.0000000000020002e-05,0.0009730183293193695,-0.0008663902188323913,0.0006651951201580575
150000000000.0,6,-0.007119627899999999,-0.01069905515,0.030890947499999998,-0.001191,0.004224,0.007488,-0.1628688432,-0.5918901674,-9.787428966,-0.016639,0.060393,3.1346,-5.0000000000105516e-05,9.999999999998899e-05,8.000000000008001e-05,0.0006378331351323957,-0.0009556436230611087,0.00047046344586451627
150000000000.0,6,0.00630567595,-0.0107088618,0.0346174745,0.000895,-0.001123,0.008569,-0.16281980994999998,-0.5921843669,-9.787428966,-0.016634,0.060423,3.1347,9.999999999998899e-05,-9.999999999998899e-05,-1.0000000000065512e-05,-0.001501323669354196,0.001085880900910663,-0.0004855219094605234
150000000000.0,6,0.012925164699999998,-0.009188831049999999,0.042845253849999994,-0.000164,-4.8e-05,0.008565,-0.16256483705,-0.5923608866,-9.787428966,-0.016608,0.060441,3.1347,-9.999999999998899e-05,-9.999999999998899e-05,-4.999999999999449e-05,0.0005301643716984911,-0.0008783501146965023,0.0006034382075323363
150000000000.0,6,0.00610954295,-0.0038245934999999996,0.04013861845,-0.003361,0.001043,0.009625,-0.16247657719999997,-0.5924883730499999,-9.787428966,-0.016599,0.060454,3.1348,-2.4999999999941735e-05,-9.999999999998899e-05,-3.500000000000725e-05,0.00019421554181316136,-0.0015182097728452248,0.0002546085424568467
150000000000.0,6,-0.00055897905,-0.01460210185,0.0364022848,-0.001216,0.001027,0.007494,-0.16239812399999998,-0.5924785664,-9.787428966,-0.016591,0.060453,3.1349,-2.500000000016378e-05,-9.999999999998899e-05,-3.500000000000725e-05,-0.00013695550097049536,-0.00021821201003979773,0.0003706316472732174
150000000000.0,6,-0.00030400615,-0.0070313680499999994,0.043551332649999996,-0.000177,-0.001114,0.009634,-0.1626530969,-0.59301793215,-9.787330899499999,-0.016617,0.060508,3.135,-2.4999999999941735e-05,-9.999999999998899e-05,-2.999999999997449e-05,-0.001018654682403794,0.0011864187222059286,-0.0002151070607472605
150000000000.0,6,-0.0002549729,-0.007158854499999999,0.043561139299999996,-0.001224,-3.8e-05,0.007496,-0.16270213015,-0.5928904456999999,-9.787330899499999,-0.016622,0.060494,3.1351,-2.4999999999941735e-05,-9.999999999998899e-05,2.0000000000020002e-05,0.0015010232437647625,-0.0012635895881116799,0.00046089423689951725
150000000000.0,6,-0.019446586949999997,-0.016769371499999998,0.05384831515,0.000902,0.001007,0.0107,-0.16295710305,-0.5933023249999999,-9.787330899499999,-0.016649,0.060537,3.1352,-4.999999999988347e-05,-0.00019999999999997797,-6.0000000000060005e-05,0.001264213245070242,0.0009490630845334636,0.00011784356547908659
150000000000.0,6,-0.0116306869,-0.024604884849999998,0.04423779815,-0.000181,-0.001116,0.010702,-0.16329052914999997,-0.5938514974,-9.787330899499999,-0.016683,0.060593,3.1353,-5.0000000000105516e-05,-5.0000000000105516e-05,2.0000000000020002e-05,-0.000833359598623476,0.0006470560651223867,-0.0002865885482588315
150000000000.0,6,-0.0094928372,-0.02462449815,0.0380694153,-0.001239,-4.2e-05,0.010698,-0.16364356855,-0.59427318335,-9.787232833,-0.016718,0.060637,3.1354,-3.333333333332966e-05,-5.0000000000105516e-05,6.0000000000060005e-05,0.0006260258365150262,-0.00024361361843316942,0.00029232601786619017
150000000000.0,6,-0.0132193642,-0.037706569249999995,0.03099882065,-0.001239,-4.2e-05,0.010698,-0.1639475747,-0.5948125490999999,-9.787232833,-0.01675,0.060692,3.1355,-3.333333333332966e-05,-0.00019999999999997797,-4.0000000000040004e-05,0.0003369888926753467,0.00013233600284534575,0.000748768776608344
150000000000.0,6,-0.0176911966,-0.0444241245,0.0360492454,-0.000145,0.003146,0.010694,-0.16411428774999998,-0.5954205614,-9.7871347665,-0.016767,0.060754,3.1356,-3.333333333332966e-05,-9.999999999998899e-05,-9.99999999995449e-06,0.00039684082209509586,-0.0002241538113330055,0.0002562007760233964
150000000000.0,6,-0.007727640199999999,-0.0350097405,0.05155355905,0.001955,-0.001134,0.010706,-0.1644967471,-0.59631296655,-9.7871347665,-0.016806,0.060844,3.1358,-9.999999999998899e-05,-9.999999999998899e-05,-1.0000000000065512e-05,-0.0018365315745680066,-0.0008552607541181256,-0.0005708121348982353
150000000000.0,6,-0.0136312435,-0.029880862549999995,0.055093759699999995,-0.000189,-0.001119,0.012837,-0.16488901309999998,-0.5969503988,-9.7870367,-0.016846,0.06091,3.1359,-5.0000000000105516e-05,-9.999999999998899e-05,4.999999999999449e-05,0.00014961667191507044,0.0005057164728790031,0.00010197416991064578
150000000000.0,6,-0.0204762852,-0.0413056098,0.03425462845,-0.002319,-3.7e-05,0.013899,-0.1652224392,-0.59748976455,-9.7870367,-0.016881,0.060965,3.136,-4.999999999988347e-05,-9.999999999998899e-05,4.999999999999449e-05,-0.0005620842227414408,0.001285825735177104,-0.000230162315588478
150000000000.0,6,-0.02154521005,-0.0469934668,0.025811102799999996,0.000877,-6.5e-05,0.014972,-0.16564412515,-0.59839197635,-9.7869386335,-0.016924,0.061057,3.1362,-4.999999999988347e-05,-0.00019999999999997797,-9.999999999998899e-05,-0.0006930494060914255,-3.290601797689696e-05,-0.00015119041543881773
150000000000.0,6,-0.01652420525,-0.044836003799999996,0.038334194849999996,-0.000181,0.001009,0.014968,-0.16587948474999997,-0.5992059283,-9.7869386335,-0.016948,0.06114,3.1363,-5.0000000000105516e-05,-5.0000000000105516e-05,0.00017000000000000348,0.0011105065882549559,-0.0016898578767121641,0.0012599460814834984
150000000000.0,6,-0.0132389775,-0.04461045085,0.04276680065,-0.00126,-4.9e-05,0.016035,-0.16617368425,-0.60001988025,-9.786840566999999,-0.016978,0.061224,3.1365,-2.4999999999941735e-05,-4.999999999988347e-05,-2.999999999997449e-05,-0.0017027020802875409,0.0008857444459289265,-0.0005893562842546052
150000000000.0,6,-0.005099457999999999,-0.03862839435,0.03912853349999999,0.000863,-6.9e-05,0.018174,-0.16637962389999997,-0.60062789255,-9.786840566999999,-0.016999,0.061285,3.1367,-2.500000000016378e-05,-9.999999999998899e-05,9.99999999995449e-06,-0.0016058742525244946,-1.709066358879241e-06,-0.00022476538698251725
150000000000.0,6,-0.01211121275,-0.0427962206,0.0364022848,-0.004453,0.002106,0.018161,-0.16655614359999998,-0.60123590485,-9.786742500499999,-0.017017,0.061348,3.1368,-2.4999999999941735e-05,-9.999999999998899e-05,-2.999999999997449e-05,-0.0003840990937496319,0.00025687814566466294,-0.0002788797456004799
150000000000.0,6,-0.012317152399999998,-0.050170821399999996,0.0405799177,0.000866,-6.9e-05,0.018174,-0.1672426091,-0.6035993075,-9.786644434,-0.017088,0.061589,3.137,-2.4999999999941735e-05,-9.999999999998899e-05,-9.99999999995449e-06,-0.00037772710751930727,-0.00014160459787193602,5.299025684246672e-06
150000000000.0,6,-0.0122583125,-0.0502688879,0.04058972435,-0.000206,-6.1e-05,0.019239,-0.16731125565,-0.60349143435,-9.786644434,-0.017094,0.061578,3.1372,-4.999999999988347e-05,-0.00019999999999997797,4.999999999999449e-05,0.000394059011306791,-2.2057813022557937e-05,0.00044712349839393095
150000000000.0,6,-0.025693422999999996,-0.06175247504999999,0.0351274203,-0.001286,-0.00112,0.020307,-0.16793888125,-0.60443287275,-9.7865463675,-0.017159,0.061675,3.1374,-5.0000000000105516e-05,-5.0000000000105516e-05,0.000140000000000029,0.0007502684294179579,0.0004412122648846939,0.00039325515546503875
150000000000.0,6,-0.01772061655,-0.07293205605,0.03519606685,0.000863,-7.1e-05,0.019241,-0.16827230734999998,-0.6056783173,-9.786448301,-0.017193,0.061801,3.1376,-9.999999999998899e-05,-4.999999999988347e-05,-2.0000000000020002e-05,0.00015219247840421446,-0.00042717155936267126,0.0002133396541527388
150000000000.0,6,-0.030233901949999996,-0.0673716855,0.05322068955,0.000858,-7.2e-05,0.020309,-0.1687920598,-0.6068943418999999,-9.786448301,-0.017246,0.061926,3.1378,-9.999999999998899e-05,-9.999999999998899e-05,-1.0000000000065512e-05,0.00025987563220003507,-0.0011163861175857992,0.00015659409942764269
150000000000.0,6,-0.026526988249999998,-0.0701960007,0.05642746409999999,-0.000221,-0.001131,0.021376,-0.16935103885,-0.6081103664999999,-9.786350234499999,-0.017303,0.06205,3.138,-5.0000000000105516e-05,-0.00019999999999997797,-2.0000000000020002e-05,0.00011811338164516294,-0.00027185763188941614,0.0010724274921524724
150000000000.0,6,-0.047944711849999995,-0.08440583655,0.0543680676,-0.000194,0.002065,0.02137,-0.17022383069999997,-0.6096205906,-9.786252167999999,-0.017393,0.062204,3.1382,-4.999999999988347e-05,-0.00019999999999997797,7.00000000000145e-05,0.0017082607209900208,0.0018860356633405573,-0.00024947874117209334
150000000000.0,6,-0.0271448072,-0.10300905159999998,0.045728408949999994,0.000842,-7.8e-05,0.024578,-0.1709691361,-0.6112092679,-9.786056035,-0.017469,0.062367,3.1385,-9.999999999998899e-05,-0.000300000000000189,3.0000000000085514e-05,-0.0012247962889104652,0.00022021010014627862,-0.0010415032465183605
150000000000.0,6,-0.016279039,-0.0942222932,0.03468612105,-0.001291,-6.1e-05,0.024574,-0.17137120875,-0.61296465825,-9.7859579685,-0.01751,0.062546,3.1387,-9.999999999998899e-05,-0.00029999999999996696,-0.00012000000000000899,-0.00032746096077594655,1.8687409460538262e-05,9.561057706386489e-07
150000000000.0,6,-0.009894909849999998,-0.10552936064999999,0.0236536398,-0.001308,-0.001129,0.026711,-0.17176347474999998,-0.614680822,-9.785859901999999,-0.017551,0.062721,3.139,-9.999999999998899e-05,-0.00019999999999997797,9.999999999998899e-05,0.00025941169841219025,0.0009323394854656719,-9.20726045271214e-05
150000000000.0,6,-0.023026014199999997,-0.1084027091,0.027576299799999995,-0.000238,0.00099,0.029911,-0.17225380725,-0.6164362123499999,-9.785761835499999,-0.017601,0.062901,3.1393,-9.999999999998899e-05,-0.00019999999999997797,-7.00000000000145e-05,0.00014097446073899067,-0.000863558795563435,-0.0002749682857280389
150000000000.0,6,-0.04425741144999999,-0.0951441183,0.0584084074,0.002969,0.000964,0.02885,-0.17317563235,-0.6183288958,-9.7855657025,-0.017695,0.063094,3.1396,-4.999999999988347e-05,-0.00029999999999996696,9.99999999995449e-06,0.0014355137212851699,0.00026741006187647187,0.0017042010933895346
150000000000.0,6,-0.05004333495,-0.09028982655,0.07279476295,0.000826,0.000979,0.030981,-0.1742641705,-0.62004505955,-9.785467635999998,-0.017806,0.063269,3.1399,-5.0000000000105516e-05,-0.00039999999999995595,-2.0000000000020002e-05,-0.00046100862286375943,0.000447580808556447,0.00020110657583330416
150000000000.0,6,-0.05392676835,-0.10992273984999999,0.054250387799999994,0.000826,0.002041,0.033114,-0.17531348205,-0.6219573563,-9.7853695695,-0.017914,0.063465,3.1403,-9.999999999998899e-05,-0.00029999999999996696,-7.999999999996898e-05,0.0010103546700977878,-0.00017460108478872804,0.0006893032285410772
150000000000.0,6,-0.04415934495,-0.1149927779,0.03078307435,-0.001323,-7.3e-05,0.033114,-0.17625492045,-0.62377158655,-9.7851734365,-0.01801,0.06365,3.1406,-9.999999999998899e-05,-0.000300000000000189,-4.999999999999449e-05,-0.0008061871031813522,-0.0009286872337290752,0.00025558726841642954
150000000000.0,6,-0.0380890286,-0.10390145675,0.024820631149999998,-0.001328,0.000989,0.036314,-0.17709829234999996,-0.6254289103999999,-9.78507537,-0.018096,0.063819,3.141,-5.0000000000105516e-05,-0.00039999999999995595,-0.00010999999999994348,0.0004950785736619473,1.039919018208657e-05,0.001276553480540149
150000000000.0,6,-0.023222147199999998,-0.11953325684999999,0.0350097405,-0.002402,-6.8e-05,0.036314,-0.17774553124999998,-0.6273117871999999,-9.7849773035,-0.018163,0.064012,3.1413,-5.0000000000105516e-05,-0.00029999999999996696,-9.00000000000345e-05,-0.00019250604441216346,-0.0005565734759751528,0.0011757606355346506
150000000000.0,6,-0.036225765099999994,-0.13718522684999998,0.0501119815,-0.00029,-0.001155,0.039522,-0.17880464945,-0.62955751005,-9.7847811705,-0.018272,0.064242,-3.1415,-0.00019999999999997797,-0.0004999999999999449,9.00000000000345e-05,0.0003590489340399433,0.0007845046482819473,-0.0002559970478622775
150000000000.0,6,-0.030410421649999998,-0.14422640155,0.054868206749999995,-0.000302,-0.002222,0.040591,-0.17982454104999998,-0.6320974323999999,-9.7845850375,-0.018377,0.0645,-3.141,-0.00019999999999997797,-0.0004999999999999449,-9.999999999998899e-05,-0.00041467175690881874,-0.0008539922088868224,-0.0002915827743258381
150000000000.0,6,-0.028096052249999996,-0.14554049265,0.040481851199999995,0.000782,0.000963,0.042722,-0.18050119989999996,-0.63451967495,-9.784486971,-0.018445,0.064748,-3.1406,-9.999999999998899e-05,-0.000500000000000167,-0.0001300000000000745,-0.002294316685716599,0.0009251799368450442,-0.0014888704165949562
150000000000.0,6,-0.03170489945,-0.1722243873,0.04608144835,-0.000281,0.002034,0.044853,-0.18182509764999996,-0.6401584987,-9.784094705,-0.018582,0.065324,-3.1402,-9.999999999998899e-05,-0.00029999999999996696,0.00024999999999997247,0.00015162097830312415,0.0006726873925526622,0.0007841138965228589
150000000000.0,6,-0.03135186005,-0.1721851607,0.0460716417,0.000755,-0.001172,0.045928,-0.18217813705,-0.6401977253000001,-9.7839966385,-0.018618,0.065329,-3.1397,-9.999999999998899e-05,-0.0004999999999999449,3.0000000000085514e-05,0.00013483122404744918,0.001360069529120267,0.00033870300094065997
150000000000.0,6,-0.035245100099999996,-0.17985396099999998,0.05482898014999999,-0.002422,0.002049,0.046984,-0.1830705422,-0.6432966267,-9.783800505499999,-0.01871,0.065645,-3.1392,-0.00019999999999997797,-0.00039999999999995595,3.999999999992898e-05,0.0011703240795907094,-0.00047335851982888144,0.0010532407401972477
150000000000.0,6,-0.0384812946,-0.19361269095,0.04412992499999999,0.002879,-0.001194,0.049134,-0.18402178724999999,-0.646454368,-9.7836043725,-0.018807,0.065968,-3.1387,-9.999999999998899e-05,-0.000400000000000178,4.999999999999449e-05,0.0005009263984130236,0.0001603064758182171,0.0012035962471785289
150000000000.0,6,-0.05033753445,-0.18835632654999998,0.05108283985,-0.00244,0.000979,0.050188,-0.18519858525,-0.6494650095499999,-9.7834082395,-0.018927,0.066276,-3.1382,-9.999999999998899e-05,-0.0004999999999999449,2.0000000000020002e-05,-0.0007484818538027876,3.198992365893716e-06,6.877733708882117e-05
150000000000.0,6,-0.06004611795,-0.188679946,0.0480133584,-0.000333,-0.000109,0.054463,-0.1865617096,-0.65258352425,-9.78311404,-0.019067,0.066594,-3.1377,-0.00019999999999997797,-0.00039999999999995595,-0.0003949999999999232,9.779678118090884e-06,-0.00012545807957531352,-0.0003158518066201932
150000000000.0,6,-0.06919572239999999,-0.18393352739999996,0.05539776585,0.000749,0.002011,0.055529,-0.1880327071,-0.6558295254000001,-9.782917907,-0.019218,0.066926,-3.1371,-0.0021999999999999797,-0.00029999999999996696,-0.0003950000000000342,-0.019491714199355838,-0.0030242430567632983,0.04448112893581302
150000000000.0,6,-0.034852834099999994,-0.19407360349999997,0.06787182465,0.000721,-0.001187,0.056602,-0.18915066519999998,-0.6591637864,-9.782623707499999,-0.019333,0.067266,-3.1365,-9.999999999998899e-05,-0.0005999999999999339,-2.0000000000020002e-05,0.0018573681274487372,-0.0025571304375640036,-0.0009784769405781213
150000000000.0,6,-0.03099882065,-0.2047040121,0.05475052695,-0.000375,-0.003313,0.059806,-0.19031765655,-0.6625961139,-9.7824275745,-0.019453,0.067617,-3.1359,-9.999999999998899e-05,-0.000500000000000167,-2.0000000000020002e-05,0.0004450428842871501,0.0002247693122501282,-0.000851329140095225
150000000000.0,6,-0.0009218250999999998,-0.22197352274999999,0.036235571749999994,-0.00249,-0.000101,0.061931,-0.19091586219999998,-0.6661265078999999,-9.782133375,-0.019514,0.067978,-3.1353,-0.0001500000000000945,-0.0005999999999999339,6.0000000000060005e-05,-0.0003688100420731963,-0.001044166461438456,-0.0003240795709382738
150000000000.0,6,-0.03323473685,-0.2204338787,0.049337256149999995,-0.002486,-0.001167,0.060865,-0.19226917989999998,-0.6733442022999999,-9.781643042499999,-0.019653,0.068716,-3.1347,-0.0001500000000000945,-0.0008999999999999009,9.99999999995449e-06,-0.0013050620184723166,0.0010932725486798578,0.0020982364528958075
150000000000.0,6,-0.032901310749999996,-0.2201200659,0.0493078362,0.004974,-0.000166,0.064079,-0.192602606,-0.6736580151,-9.781544976,-0.019688,0.068748,-3.1341,-0.00019999999999997797,-0.0008000000000001339,4.0000000000040004e-05,-0.0004410439378481276,0.0015891302168336008,0.0018824626492268126
150000000000.0,6,-0.0344213415,-0.21163731365,0.08136577505,-0.001411,0.002017,0.065131,-0.19347539784999998,-0.6772080224,-9.781348843,-0.019778,0.069111,-3.1334,-0.00029999999999996696,-0.0006999999999999229,-4.999999999999449e-05,-0.0023787395240802076,0.0003465498426986624,0.0026205643531987954
150000000000.0,6,-0.0490920899,-0.2470687401,0.08313097205,0.002836,0.000912,0.068343,-0.19467180914999999,-0.6815817882999999,-9.780956577,-0.0199,0.069558,-3.1327,-0.00019999999999997797,-0.0006999999999999229,7.999999999996898e-05,0.001451060556322964,0.0034505800862414393,-0.0003359336661910295
150000000000.0,6,-0.0122779258,-0.24509760345,0.0652926757,0.00177,-0.000144,0.067275,-0.19541711455,-0.6861026539499999,-9.780662377499999,-0.019978,0.07002,-3.1321,-0.00019999999999997797,-0.0008000000000001339,-0.000160000000000049,-2.747960562361762e-05,-0.0019296224193887657,-0.0004473866561763018
150000000000.0,6,0.0032165811999999997,-0.24073364419999999,0.0460324151,-0.006775,-0.00114,0.068329,-0.19595648029999999,-0.68971150115,-9.780368178,-0.020033,0.070389,-3.1314,-0.00019999999999997797,-0.0008999999999999009,2.0000000000020002e-05,-0.0005543953506644064,-0.0006875931020597914,0.0008325821562086277
150000000000.0,6,0.01026756255,-0.27612584405,0.027135000549999996,0.003899,-0.001228,0.068348,-0.19641739285,-0.6944284998,-9.780073978499999,-0.020081,0.070871,-3.1307,-0.00039999999999995595,-0.001000000000000112,-5.999999999994898e-05,-0.0008370148429108909,-0.0009093421209001029,0.0006604435732969205
150000000000.0,6,0.012317152399999998,-0.2558751118,0.061056202899999995,0.001767,-0.000147,0.070477,-0.19681946549999998,-0.69910627185,-9.779681712499999,-0.020123,0.07135,-3.13,-0.00019999999999997797,-0.0010999999999998789,0.00026999999999999247,0.0017884357290698927,0.004141238885112086,0.001759628534062807
150000000000.0,6,-0.0026183755499999996,-0.21540306724999997,0.0748639661,-0.003589,-0.003299,0.070473,-0.19744709109999997,-0.7024699528,-9.7794855795,-0.020187,0.071694,-3.1293,-0.00019999999999997797,-0.0009000000000001229,-0.00034000000000000696,-0.00040085254553531846,-0.007130587799163646,0.0005520461187937253
150000000000.0,6,-0.014298095700000001,-0.26672126669999996,0.06553784195,0.003893,-0.000167,0.073682,-0.19819239649999998,-0.70712811155,-9.779093313499999,-0.020264,0.072169,-3.1285,-9.999999999998899e-05,-0.0008999999999999009,5.999999999994898e-05,0.0023306505700393526,0.001463507255432761,-0.0010327743897702857
150000000000.0,6,0.02791953255,-0.26108244295,0.05591751829999999,0.001733,-0.003347,0.074751,-0.19850620929999999,-0.7117078171,-9.778799114,-0.020297,0.072638,-3.1278,-0.000300000000000189,-0.001000000000000112,-5.999999999994898e-05,-0.0018797340433885992,0.0006959874073551031,0.0017427639997653899
150000000000.0,6,0.03881472069999999,-0.21893346125,0.05162220559999999,-0.00251,-0.000116,0.075805,-0.19847678935,-0.7152480177499999,-9.7785049145,-0.020295,0.073,-3.1271,-0.00029999999999996696,-0.0011999999999998678,-9.999999999998899e-05,-0.0011310435871515062,-0.0005281984096943138,0.0014903160798541704
150000000000.0,6,0.04786625864999999,-0.25203090499999997,0.0327738243,-0.002514,-0.00118,0.075807,-0.19839833614999997,-0.7192687442499999,-9.778210715,-0.020287,0.073411,-3.1263,-9.999999999998899e-05,-0.0012000000000000899,0.00024000000000001798,-2.1612877671606245e-05,0.0013723664447671258,0.0005560933193750062
150000000000.0,6,0.006286062649999999,-0.25425701455,0.041442902899999995,-0.002507,-0.000116,0.076872,-0.19901615509999998,-0.72332869735,-9.7779165155,-0.020351,0.073826,-3.1255,-9.999999999998899e-05,-0.0009999999999998899,9.99999999995449e-06,0.0007135226118959656,-0.0026859651904167503,-0.0005482264041413443
150000000000.0,6,0.0126701918,-0.22982864939999997,0.05461323385,0.00177,-0.000149,0.075812,-0.19926132135,-0.727261164,-9.777622316,-0.020377,0.074228,-3.1248,-0.00029999999999996696,-0.0012000000000000899,-0.00019999999999997797,-0.0024629009500984414,0.0015324704071311146,0.0018023453266988732
150000000000.0,6,-0.022192448949999995,-0.22777905955,0.07226520384999999,0.001766,-0.00228,0.074748,-0.20061463905,-0.7349888042,-9.777033916999999,-0.020516,0.075018,-3.124,-0.00029999999999996696,-0.0012000000000000899,-8.000000000008001e-05,0.0016623336808958208,-0.001961282392175967,5.2515521214213656e-05
150000000000.0,6,-0.02187863615,-0.22823016544999997,0.0722946238,-0.001408,0.003071,0.077935,-0.2009382585,-0.7345376982999999,-9.777033916999999,-0.020549,0.074972,-3.1232,-0.00029999999999996696,-0.0014999999999998348,0.00010000000000010001,0.0006514707197562628,-0.00027321271318170304,0.0013224415520818045
150000000000.0,6,-0.0384028414,-0.24344027959999998,0.07432460034999999,0.00073,0.003053,0.077939,-0.20190911685,-0.73907817725,-9.776641651,-0.020649,0.075437,-3.1224,-0.00019999999999997797,-0.0014000000000000679,0.00012000000000000899,-6.723050646129103e-05,0.0015203229098423865,0.001506651864854519
150000000000.0,6,-0.04027591155,-0.22183622964999997,0.07219655729999999,0.003917,0.000895,0.077948,-0.2030368816,-0.74317735695,-9.7763474515,-0.020765,0.075856,-3.1217,-0.000400000000000178,-0.0013000000000000789,-0.000300000000000078,-0.002087359786824193,-0.000934663665317581,0.0018653454570559669
150000000000.0,6,-0.012856518150000001,-0.21059780875,0.05396599495,-0.000349,0.001993,0.080074,-0.20351740745,-0.7466292977499999,-9.776053251999999,-0.020815,0.076209,-3.1208,9.999999999998899e-05,-0.0012999999999998568,0.00041999999999997595,0.00438434426692548,0.007790179592922719,-0.002254996779826962
150000000000.0,6,0.01913277415,-0.23229011854999998,0.027909725899999998,0.000722,0.001985,0.080075,-0.20363508724999999,-0.7506794442,-9.7757590525,-0.020827,0.076623,-3.12,-0.0004999999999999449,-0.0014000000000000679,-7.999999999996898e-05,-0.003948500420359477,-0.004358869491810413,0.0018828178767157644
150000000000.0,6,0.01770100325,-0.23631084505,0.0403249448,-0.001446,-0.000133,0.084345,-0.20385083355,-0.75459229755,-9.775464852999999,-0.020851,0.077023,-3.1192,-0.00039999999999995595,-0.0017000000000000348,-0.00024999999999997247,0.000891017419403714,-0.005334736806140494,0.002157593981272743
150000000000.0,6,0.0047660318999999994,-0.23723267015,0.043453266149999996,0.001745,-0.001225,0.085419,-0.20438039264999996,-0.7584561176499999,-9.775170653499998,-0.020905,0.077419,-3.1184,-9.999999999998899e-05,-0.0012000000000000899,0.00024000000000001798,0.0026624361841523364,0.004288619619126077,-0.0012689375855678975
150000000000.0,6,0.01726951065,-0.21791356965,0.0500335283,0.000675,-0.000154,0.088618,-0.20490995174999999,-0.7622120646,-9.774876454,-0.02096,0.077803,-3.1175,-0.00029999999999996696,-0.0014999999999998348,-4.999999999999449e-05,-0.0004604592995657922,0.0006373222828919278,0.0006004634316222057
150000000000.0,6,0.07106879255,-0.19472084239999998,0.0462089348,-0.001464,-0.001201,0.088615,-0.20440000595,-0.76535999925,-9.7745822545,-0.020908,0.078124,-3.1166,-0.00019999999999997797,-0.0017000000000000348,0.00024999999999997247,-0.0007117899342986497,0.0012299490905141042,0.0008141127783078267
150000000000.0,6,0.0090613446,-0.20193853679999998,0.05000410835,0.000685,0.000912,0.089683,-0.20479227194999997,-0.76845890065,-9.7743861215,-0.020949,0.078441,-3.1157,-9.999999999998899e-05,-0.0015000000000000568,0.00010999999999994348,0.0011546467833766644,0.0015153233613236505,0.0005752492470317699
150000000000.0,6,-0.0205743517,-0.17415629735,0.05392676835,-0.000367,0.003051,0.090744,-0.2055277707,-0.7715578020499999,-9.774091922,-0.021024,0.078758,-3.1148,-0.000400000000000178,-0.0016000000000000458,-0.00025999999999992696,0.0001652064250815266,-0.0031381868130102575,0.0007210020321195276
150000000000.0,6,-0.05984017829999999,-0.15765170539999998,0.06255662035,-0.005696,0.004158,0.091801,-0.2069595416,-0.77369565175,-9.773895789,-0.021172,0.078977,-3.1139,-0.00029999999999996696,-0.0019000000000000128,7.00000000000145e-05,-0.0016937243772361874,-0.0004124712336932568,0.0014865183813667082
150000000000.0,6,-0.01309187775,-0.17107700924999997,0.04073682409999999,0.007072,-0.001274,0.090765,-0.20793039994999998,-0.7768730063499999,-9.7736015895,-0.021271,0.079302,-3.113,-0.00019999999999997797,-0.0017999999999998018,4.999999999999449e-05,0.0014153100637774307,0.0020316180881259083,0.0013074886677582054
150000000000.0,6,0.02458527155,-0.19902596174999998,0.07544255845,-0.001448,-0.000137,0.090748,-0.2077440736,-0.7827471896999999,-9.773111257,-0.021253,0.079903,-3.1121,-0.00039999999999995595,-0.0016000000000000458,-9.00000000000345e-05,-0.0001062287733099021,0.0015047059419939224,-2.555151950234258e-05
150000000000.0,6,0.025173670549999996,-0.19936919449999999,0.0754523651,-0.000397,-0.000149,0.093952,-0.20833247259999998,-0.78240395695,-9.7732093235,-0.021313,0.079868,-3.1111,-0.00029999999999996696,-0.0019000000000000128,-0.00010999999999994348,-0.0018521037568732177,-0.006109480034735437,0.001151819801820983
150000000000.0,6,-0.03205793885,-0.24592136204999998,0.04231569475,0.004945,0.000871,0.095027,-0.20946023735,-0.7867286896,-9.7728170575,-0.02143,0.08031,-3.1102,-0.00019999999999997797,-0.0018000000000000238,-3.0000000000085514e-05,-0.0006744815037988267,0.0010457607882063957,0.002210148377593049
150000000000.0,6,-0.0152199208,-0.17603917415,0.025046184099999997,-0.008881,0.007376,0.097126,-0.20998979645000002,-0.78913131885,-9.7726209245,-0.021484,0.080556,-3.1092,-0.000700000000000145,-0.0020000000000000018,-0.00025999999999992696,3.281290209083271e-05,0.0006461336872793932,0.001199342918931895
150000000000.0,6,0.0076688003,-0.18192316415,0.0423255014,-0.000386,0.001978,0.09715,-0.21042128905,-0.79191640745,-9.772326725,-0.021529,0.080841,-3.1082,-0.00019999999999997797,-0.0020999999999999908,0.00010999999999994348,-0.0015012547707762003,-0.00025722740124334287,0.0012028542940323295
150000000000.0,6,0.023535959999999998,-0.21782530979999998,0.10760837044999999,0.014532,-0.000276,0.098247,-0.21073510185,-0.7968687656999999,-9.771934458999999,-0.021562,0.081348,-3.1072,-0.00019999999999997797,-0.0018000000000000238,-0.00010999999999994348,0.0012461266272061691,-0.00035988670282161017,0.00042212450044179506
150000000000.0,6,0.02960627635,-0.21675638495,0.1515519691,-0.000387,0.004105,0.10248,-0.21081355504999996,-0.8010758185499999,-9.7716402595,-0.021571,0.081778,-3.1062,-0.0004999999999999449,-0.0020999999999999908,4.999999999999449e-05,0.0006920443704805657,0.0008012547346332166,0.0017410560319679746
150000000000.0,6,0.0269879008,-0.24232232149999997,0.023673253099999996,-0.013197,0.002081,0.1014,-0.21089200824999998,-0.803949167,-9.771346059999999,-0.02158,0.082072,-3.1052,-0.00019999999999997797,-0.0020999999999999908,7.999999999996898e-05,-0.002066010997703191,-0.0005598174771224151,0.0013177224856460307
150000000000.0,6,0.0184953419,-0.27259545004999997,-0.09319259494999999,-0.003588,0.003067,0.10248,-0.21108814124999997,-0.8074893676499999,-9.7710518605,-0.0216,0.082434,-3.1042,-0.00019999999999997797,-0.0019000000000000128,-0.00014999999999998348,0.0017216712321653851,1.1876770990459917e-05,-0.00041332148636928634
150000000000.0,6,0.026134722249999996,-0.16872341325,-0.0208685512,0.007101,0.005111,0.10249,-0.21108814124999997,-0.8105000092,-9.770855727499999,-0.021601,0.082743,-3.1032,-0.00029999999999996696,-0.0023999999999999577,0.00029999999999996696,0.0002746434287473412,0.0027761829428485374,0.0024987006002940293
150000000000.0,6,-0.05612345795,-0.16156455875,0.17778475784999997,0.012425,0.003999,0.10357,-0.21262778529999998,-0.8145207357,-9.7704634615,-0.021759,0.083154,-3.1021,-0.000300000000000189,-0.0021999999999999797,-0.00024999999999997247,-0.0007048028092694336,-0.0022723898766723316,9.432168046516476e-05
150000000000.0,6,-0.028243152,-0.25364900225,0.21996315949999998,0.002836,0.005144,0.10355,-0.21356922369999998,-0.8198457466499999,-9.769973129,-0.021856,0.083699,-3.1011,-0.00019999999999997797,-0.0020000000000000018,4.999999999999449e-05,5.832631184515824e-05,-0.0008527457711247077,7.800653930054025e-05
150000000000.0,6,-0.022045349199999998,-0.2542668212,0.06773453154999999,-0.003588,0.003063,0.10568,-0.21438317564999998,-0.82372918005,-9.7696789295,-0.02194,0.084096,-3.1,-0.00039999999999995595,-0.0026000000000001577,0.00017999999999995797,-0.0004510564636845682,0.0022087081424226884,0.0033785042193105463
150000000000.0,6,0.07836494014999999,-0.22452325174999999,-0.11500258455,-0.008936,0.000977,0.10567,-0.2134907705,-0.82608277605,-9.7694827965,-0.02185,0.084337,-3.099,-0.00019999999999997797,-0.0020999999999999908,-0.00022999999999995246,0.002499957035775255,-0.0021525678497702483,-0.0016362370490082684
150000000000.0,6,0.06343921884999999,-0.19753535095,-0.1066767387,-0.001431,0.005179,0.10568,-0.21277488505,-0.8286815382999999,-9.769286663499999,-0.021777,0.084603,-3.0979,-0.00039999999999995595,-0.0026999999999999247,0.000140000000000029,-0.002550890191163682,0.0019801337224825133,0.002629678425792689
150000000000.0,6,0.033107250399999996,-0.2108625883,0.08944645465,0.009236,0.005091,0.10677,-0.21251991215,-0.8328591712,-9.768894397499999,-0.021752,0.085031,-3.0969,-0.00029999999999996696,-0.0021999999999999797,-4.0000000000040004e-05,0.0014253239631032144,-0.0008047639232060533,0.002095728286545029
150000000000.0,6,0.01803442935,-0.23731112334999996,0.24113571685,0.014574,0.002919,0.10358,-0.21271604514999998,-0.83857644815,-9.768404064999999,-0.021772,0.085616,-3.0958,-0.00029999999999996696,-0.0025999999999999357,2.5000000000052758e-05,-0.0016345729305415613,0.00021844057900444191,-2.995009567852147e-05
150000000000.0,6,0.05277939029999999,-0.22958348315,0.15843623739999999,0.004967,0.005121,0.10568,-0.2122943592,-0.8433130601,-9.768011798999998,-0.021731,0.0861,-3.0947,-0.00020000000000020002,-0.0026000000000001577,2.4999999999941735e-05,0.0024077788826851187,0.0020996798563059915,0.001081136062423882
150000000000.0,6,0.10870671524999999,-0.1682428874,-0.086690786,-0.029167,0.006468,0.10668,-0.21090181489999998,-0.84391126575,-9.768011798999998,-0.021588,0.086161,-3.0937,-0.00019999999999997797,-0.0023999999999999577,0.00012000000000000899,0.0018873136847908784,-0.0025736164982663734,-0.00030973201766999747
150000000000.0,6,0.08371937104999999,-0.28930598165,-0.18744430809999998,-0.008911,0.002044,0.10352,-0.20987211665,-0.8464413814499999,-9.767815666,-0.021482,0.086421,-3.0927,-0.00029999999999996696,-0.0026999999999999247,4.0000000000040004e-05,0.00026772458954565925,0.001392731094737032,0.0009194589162226929
150000000000.0,6,0.0953794779,-0.24066499765,0.00287334845,0.025233,0.001764,0.10358,-0.20865609205,-0.8521390450999999,-9.7673253335,-0.021359,0.087003,-3.0916,-0.00029999999999996696,-0.0027000000000001467,-2.0000000000020002e-05,-0.0010862077772412979,-0.000500311393577535,0.0019270278547155323
150000000000.0,6,0.0232613738,-0.10270504544999999,0.29450350615,0.010358,0.009346,0.10354,-0.20866589869999996,-0.855728279,-9.767031134,-0.021361,0.087371,-3.0906,-0.0004999999999999449,-0.0027999999999999137,-0.000180000000000069,-0.0028593359494228157,0.0012792329298545457,0.002355354069487045
150000000000.0,6,0.09362408755,-0.1949169754,0.23870366765,-0.002478,0.004126,0.10246,-0.20749890734999998,-0.8592782863,-9.766736934499999,-0.021243,0.087735,-3.0896,-9.999999999998899e-05,-0.0027999999999999137,0.000160000000000049,0.0024034581462469493,-0.002048864327493405,-2.5770931342969372e-05
150000000000.0,6,0.07487377275,-0.32641434525,0.016563431849999997,-0.009916,0.005258,0.099243,-0.2065476623,-0.8638089586,-9.7663446685,-0.021146,0.088198,-3.0886,-0.00039999999999995595,-0.0027000000000001467,9.99999999995449e-06,0.001076890709122487,0.0004365297941890667,0.0004855440669246508
150000000000.0,6,0.11110934449999998,-0.278312727,-0.12003339599999999,-0.007742,0.008441,0.097106,-0.20463536554999998,-0.86730993265,-9.766050469,-0.020951,0.088557,-3.0876,-0.000400000000000178,-0.0031999999999998696,-0.00019999999999997797,-0.0035267071442097175,-0.0004302215044276192,0.00265994575658543
150000000000.0,6,0.09095667874999999,-0.16662479014999998,-0.07065691325,-0.002407,0.006271,0.093916,-0.20302707494999997,-0.86946739565,-9.7659524025,-0.020787,0.088778,-3.0867,-0.00029999999999996696,-0.0028000000000001357,-0.000140000000000029,-0.0005975242754717308,0.00041197082350041825,0.001177515834581741
150000000000.0,6,0.09698776849999999,-0.20440000595,0.18723836844999997,0.000869,0.014771,0.093906,-0.19993798019999998,-0.87613591765,-9.765364003499998,-0.020471,0.08946,-3.0858,-0.00029999999999996696,-0.0029999999999998916,0.0001300000000000745,-0.0016981366842466622,-0.001102922990340982,0.00037396633073115415
150000000000.0,6,0.09700738179999999,-0.2033506944,0.18714030194999998,0.013667,0.011473,0.089664,-0.19995759349999997,-0.8771852292,-9.765265936999999,-0.020474,0.089568,-3.0849,-0.00019999999999997797,-0.0030000000000001137,-4.0000000000040004e-05,0.0006842417006087398,0.0012093324650570558,0.0012595569609560042
150000000000.0,6,0.0832584585,-0.22851455829999998,0.19815316989999998,0.004062,0.009425,0.087516,-0.1980354901,-0.88164725495,-9.7649717375,-0.020277,0.090024,-3.084,-0.00029999999999996696,-0.0031999999999998696,-3.500000000000725e-05,0.001156907464458963,-0.0005619610842375611,0.0003050354209585965
150000000000.0,6,0.0631155994,-0.21840390214999997,0.04737592615,-0.008751,0.006337,0.085364,-0.19688811205,-0.8845794433,-9.764677537999999,-0.02016,0.090324,-3.0831,-0.00029999999999996696,-0.0031000000000001027,-3.500000000000725e-05,-8.896629017982743e-05,-0.0008693910284056638,0.0010353674766471893
150000000000.0,6,0.16399660794999998,-0.19726076474999998,-0.1171894675,-0.010866,0.00636,0.082157,-0.1942305099,-0.8864132868499999,-9.7645794715,-0.019888,0.090513,-3.0823,-0.00019999999999997797,-0.0032999999999998586,0.0001100000000000545,-0.0005085957637839256,0.0012081358799473918,0.000573381762160291
150000000000.0,6,0.22239520869999999,-0.15921096275,-0.06989199454999999,-0.002354,0.005225,0.085375,-0.19067069594999997,-0.8886982362999999,-9.764481405,-0.019525,0.090747,-3.0815,-0.000400000000000178,-0.0032000000000000917,-9.00000000000345e-05,0.0004754781953761403,-0.00018980324399597848,0.0009906793228085936
150000000000.0,6,0.1728520129,-0.18798367384999998,0.12611351899999998,0.010441,-0.000199,0.079002,-0.18812096694999997,-0.8926993495,-9.764089139,-0.019264,0.091156,-3.0807,-0.00014999999999987246,-0.0033000000000000806,2.0000000000020002e-05,0.0007604437342765141,-0.00016439337656759534,0.0004717706215829065
150000000000.0,6,0.1293889401,-0.23368266284999997,0.20759697384999998,-0.002287,0.007369,0.076831,-0.1859536973,-0.8971221486500001,-9.7637949395,-0.019043,0.091609,-3.08,-0.0001500000000000945,-0.0033999999999998476,2.999999999997449e-05,-0.002250167649715716,-0.0010889299506817718,0.0015971600728769825
150000000000.0,6,0.1408038807,-0.22514107069999997,0.06183092824999999,-0.015058,0.00961,0.074669,-0.18329609514999998,-0.89953458455,-9.7635988065,-0.018771,0.091856,-3.0792,-9.999999999998899e-05,-0.0034000000000000696,-9.99999999995449e-06,0.0018613083617150666,0.0017280694758572412,0.0005497328044232891
150000000000.0,6,0.11302164125,-0.1919161405,-0.05984017829999999,-0.002261,0.00525,0.069361,-0.18125631194999997,-0.9017803073999999,-9.7634026735,-0.018563,0.092087,-3.0786,-0.00019999999999997797,-0.0034000000000000696,9.99999999995449e-06,-0.001010010916910102,0.0006602908492281401,0.0014474824466422787
150000000000.0,6,0.13651837465,-0.18694416895,0.03070462115,0.005272,0.011586,0.067228,-0.17842219009999996,-0.9054087679,-9.763108474,-0.018273,0.092457,-3.0779,-9.999999999998899e-05,-0.0035999999999998256,-4.999999999999449e-05,0.0010142346285336654,-0.0011590094445872445,0.000553659347151042
150000000000.0,6,0.08040472335,-0.13970553589999998,0.1710868159,0.000988,0.005235,0.060827,-0.1772257788,-0.90865476905,-9.7628142745,-0.018151,0.09279,-3.0773,-0.00019999999999997797,-0.0035000000000000586,-4.999999999999449e-05,-0.0002239440120207839,-0.0002861975794552496,-1.0014135429892157e-05
150000000000.0,6,0.12375992299999998,-0.2108625883,0.13044805829999997,-0.007545,0.00318,0.057613,-0.17508792909999998,-0.9115673440999998,-9.762618141499999,-0.017932,0.093089,-3.0767,-0.00019999999999997797,-0.0036000000000000476,-7.00000000000145e-05,-0.0005432804731953997,-0.00017514964717468828,0.00033210242970338477
150000000000.0,6,0.11259995529999998,-0.17070435655,-0.0770214291,-0.019251,0.008603,0.060785,-0.1727539464,-0.9128225952999999,-9.762520075,-0.017694,0.093217,-3.0761,-9.999999999998899e-05,-0.0037000000000000366,7.999999999996898e-05,-9.656770056111486e-05,-0.0002834549762840144,0.0014594782757321317
150000000000.0,6,0.08868153595,-0.15968168195,-0.13916617015,-0.011797,0.00322,0.05547,-0.17128294889999998,-0.91351886745,-9.762520075,-0.017543,0.093288,-3.0756,-0.00019999999999997797,-0.0038000000000000256,6.0000000000060005e-05,0.0008752347873508953,0.0008404971939137695,-0.00017627820027658891
150000000000.0,6,0.2061553963,-0.059349845799999995,-0.04294332035,-0.003298,-0.002173,0.054425,-0.16815462755,-0.91404842655,-9.762520075,-0.017222,0.093342,-3.0751,-9.999999999998899e-05,-0.0039000000000000146,5.999999999994898e-05,-0.0015165593718807768,0.0006675405701539461,0.0005982370514810154
150000000000.0,6,0.30566347385,-0.19535827465,0.1821879437,0.002011,-0.004346,0.056572,-0.1632022693,-0.9173532676,-9.762323942,-0.016716,0.093681,-3.0746,-9.999999999998899e-05,-0.0036999999999998145,-0.00015999999999993797,0.001397072863277754,-0.0023539768345388623,-0.00030426390523916047
150000000000.0,6,0.19387747049999998,-0.0991844581,0.19551518105,-0.002197,-0.001105,0.050153,-0.1606525403,-0.9192557577,-9.762127808999999,-0.016455,0.093875,-3.0741,-5.0000000000105516e-05,-0.0039000000000000146,-1.0000000000065512e-05,0.0009062549060762301,0.002497998367674281,0.0016928426950100495
150000000000.0,6,0.17348944514999998,-0.0934377612,0.06226242084999999,-0.001089,0.003152,0.04908,-0.1579262916,-0.9205110089,-9.7620297425,-0.016177,0.094004,-3.0736,-4.999999999988347e-05,-0.0039000000000000146,-0.00012000000000000899,-0.002277882281722113,0.0004591332075909449,0.0005208339783463606
150000000000.0,6,0.07114724574999999,-0.0746874464,-0.00797280645,-0.00537,-6e-06,0.046943,-0.15689659334999997,-0.9212955409,-9.7620297425,-0.016071,0.094085,-3.0731,9.999999999998899e-05,-0.0038000000000000256,6.0000000000060005e-05,-0.0005570422787705073,0.0005168255392460352,0.0010022339866327945
150000000000.0,6,-0.04447315775,-0.16829192064999998,0.020084019199999997,-0.000983,0.01062,0.040527,-0.15739673249999997,-0.92361971695,-9.7618336095,-0.016122,0.094322,-3.0727,-3.333333333332966e-05,-0.0040000000000000036,-0.00021000000000004349,0.0004961299445641609,-0.0002581854256575866,-0.0008056564812129186
150000000000.0,6,-0.0325188514,-0.05941849235,-0.012836904849999999,-0.018041,0.010763,0.038363,-0.1575144123,-0.9235510704,-9.7618336095,-0.016135,0.094316,-3.0723,-3.333333333332966e-05,-0.0040000000000000036,-7.999999999996898e-05,-0.0020387298062402442,-0.0005091552463214466,-0.0002714355553490172
150000000000.0,6,-0.0874360914,-0.0314793465,-0.033548549649999995,-0.011667,0.003256,0.031983,-0.15872063025,-0.9224625322499999,-9.7618336095,-0.016257,0.094205,-3.072,-3.333333333332966e-05,-0.0040000000000000036,-2.999999999997449e-05,-0.0004188933290032934,-0.002242982515455516,-0.0009539506581222046
150000000000.0,6,0.015072821049999999,-0.0224768418,-0.01371950335,-0.006256,0.012803,0.031976,-0.15752421895,-0.9218839399000001,-9.761931676,-0.016135,0.094145,-3.0716,-5.0000000000105516e-05,-0.0041999999999999815,-2.0000000000020002e-05,0.004099339202411893,7.462573408467676e-05,0.0006873157374695515
150000000000.0,6,0.00253992235,0.03262672455,0.08087544255000001,0.003313,0.007398,0.029867,-0.15711233965,-0.9216289669999999,-9.7620297425,-0.016093,0.094118,-3.0713,-5.0000000000105516e-05,-0.0040999999999999925,-2.0000000000020002e-05,-0.0012306863612569843,-0.0008402655062638154,-0.0005444385817261754
150000000000.0,6,-0.0030596748,0.09411442005,0.11828781229999999,-0.003072,0.009582,0.029852,-0.15660239385,-0.92010893625,-9.762127808999999,-0.016041,0.093964,-3.071,0.000400000000000178,-0.007100000000000106,0.00273000000000001,-0.019141938796599388,0.013382302877428032,0.010876580502654998
150000000000.0,6,0.12749625665,0.040491657849999994,0.033636809499999996,-0.010573,0.00432,0.027713,-0.15368001215,-0.9185692921999999,-9.762323942,-0.015741,0.093806,-3.0708,-0.000400000000000178,-0.0013999999999998458,-0.002569999999999961,0.022297652327512962,-0.01318833876197445,-0.011752529476974916
150000000000.0,6,0.053809088549999995,0.016769371499999998,-0.046679654,-0.015876,0.00969,0.029829,-0.15226785454999997,-0.9168433218,-9.762520075,-0.015596,0.093629,-3.0705,0.00019999999999997797,-0.004200000000000204,-1.0000000000065512e-05,0.0014995221379643098,0.00020591080235488057,0.0015839828169110365
150000000000.0,6,0.14201009865,-0.0449929102,-0.04754263919999999,-0.003135,0.001063,0.028798,-0.14963967235,-0.9168825483999999,-9.762520075,-0.015327,0.093632,-3.0702,0.00020000000000020002,-0.007299999999999862,0.002589999999999981,-0.025474547182520083,0.009647110259445313,0.010411855914958967
150000000000.0,6,0.04716017985,0.0699214145,0.01701453775,-0.01162,0.007528,0.028772,-0.1486099741,-0.91477411865,-9.762716207999999,-0.015221,0.093417,-3.0699,-0.00019999999999997797,-0.0042999999999999705,6.0000000000060005e-05,0.0036370254878855257,0.0024114485008150943,0.0013553351964787075
150000000000.0,6,0.10097907505,0.10503902814999999,0.0159063863,-0.000966,0.003183,0.024528,-0.14661922415,-0.91247936255,-9.7630104075,-0.015016,0.093182,-3.0697,-0.000300000000000189,-0.0015000000000000568,-0.0025800000000000267,0.020385015615242093,-0.014597849770370264,-0.011648357143849528
150000000000.0,6,0.01144436055,0.12341669025,0.068842683,-0.0095,0.004318,0.025578,-0.14611908499999998,-0.9097629205,-9.763304607,-0.014965,0.092903,-3.0694,9.999999999998899e-05,-0.0042999999999999705,-3.999999999992898e-05,0.002965192591374198,0.00018051844043354137,-0.0005895886965283509
150000000000.0,6,0.007600153749999999,0.03219523195,0.11930770389999999,0.004374,0.004205,0.024535,-0.1458641121,-0.9093706545,-9.763304607,-0.014939,0.092864,-3.0692,5.0000000000105516e-05,-0.0044999999999999485,0.00013999999999991797,-0.00016695436916853296,0.0001968980215887317,0.0004559982827786885
150000000000.0,6,-0.0033244543499999996,0.13292914074999998,0.0839841506,0.002246,0.00316,0.021331,-0.14571701235,-0.9078996569999999,-9.7634026735,-0.014924,0.092713,-3.069,5.0000000000105516e-05,-0.0046000000000001595,2.0000000000020002e-05,-0.0009330990421623567,0.0018754115754868739,0.0015054837738308902
150000000000.0,6,-0.00224572285,0.15635722759999998,0.005295591,-0.027619,0.0066,0.024475,-0.1454522328,-0.9028982655,-9.763893006,-0.014896,0.0922,-3.0687,0.00019999999999997797,-0.007199999999999873,0.002650000000000041,-0.0247154251725262,0.011529618866006563,0.010549069348748413
150000000000.0,6,0.03902066035,-0.0359315656,-0.03690242395,0.012933,0.006268,0.022411,-0.14436369464999999,-0.9030453652499999,-9.763893006,-0.014785,0.092216,-3.0685,-9.999999999998899e-05,-0.0015000000000000568,-0.0028799999999999937,0.024624572426242365,-0.015463138984069147,-0.0115620469534842
150000000000.0,6,-0.011993532949999998,0.10095946174999999,0.0864161998,0.028941,0.005074,0.019239,-0.14422640155,-0.9045163627499999,-9.7637949395,-0.014771,0.092366,-3.0683,-9.999999999998899e-05,-0.0047999999999999154,0.00017000000000000348,0.0014952619081159343,0.0026578823453187184,0.0011013700302133084
150000000000.0,6,-0.06204667455,0.3531374665,0.1348806641,-0.01584,0.010767,0.021286,-0.14490306039999998,-0.8981126202999999,-9.764383338499998,-0.014839,0.091711,-3.0681,9.999999999998899e-05,-0.0045000000000001705,0.00010999999999994348,0.0001915869973425563,-0.0007459046404501013,-0.00023185931411555394
150000000000.0,6,0.12041585534999999,-0.0011277647499999999,-0.00106892485,0.00765,0.011644,0.01919,-0.1416668659,-0.897896874,-9.764481405,-0.014507,0.091688,-3.0679,-5.0000000000105516e-05,-0.0043999999999999595,-7.00000000000145e-05,-0.001589820681527028,-0.0011841094424442922,-5.5575599507459716e-05
150000000000.0,6,-0.09715448154999999,-0.10358764394999999,0.05427000109999999,0.010812,0.005225,0.017072,-0.14271617744999998,-0.9012311349999998,-9.764089139,-0.014615,0.09203,-3.0677,-4.999999999988347e-05,-0.0045999999999999375,-8.999999999992347e-05,0.0008780883893405034,-0.0002625466659689213,0.00047106565481609686
150000000000.0,6,-0.0727261164,0.05994805145,0.10299924495,-0.02009,0.007614,0.012745,-0.14304960355,-0.8985146929499999,-9.764383338499998,-0.014649,0.091752,-3.0676,0.00019999999999997797,-0.0046999999999999265,0.00010999999999994348,0.0011401421445750154,0.0021786885830328284,0.0010236261454071305
150000000000.0,6,0.0334602898,-0.13981340905,0.05280881025,0.002335,0.017008,0.024509,-0.1413530531,-0.90106442195,-9.7641872055,-0.014475,0.092013,-3.0674,4.999999999988347e-05,-0.0046000000000001595,-9.00000000000345e-05,-0.002435871374491208,-0.0010283154106549564,-0.0007042391981563062
150000000000.0,6,-0.0324600115,-0.0169262779,0.0360296321,-0.005164,0.003233,0.008509,-0.14156879939999997,-0.9012507483,-9.764089139,-0.014498,0.092032,-3.0672,5.0000000000105516e-05,-0.0046999999999999265,-4.999999999999449e-05,0.0004915335492738787,-0.000844079540245346,-0.0008379715993801634
150000000000.0,6,-0.05537815255,0.1950738818,-0.06736187885,-0.020128,0.007606,0.020217,-0.14169628585,-0.8962689701,-9.7645794715,-0.01451,0.091522,-3.067,-5.0000000000105516e-05,-0.0047999999999999154,-1.4999999999987246e-05,-0.00044850141681565536,-0.0015920753445626268,0.0004128594450692191
150000000000.0,6,0.02740958675,0.19573092735,-0.18029526024999998,-0.030741,0.013025,0.016987,-0.1403920014,-0.8894435417,-9.765265936999999,-0.014376,0.090823,-3.0669,-4.999999999988347e-05,-0.0048000000000001375,-1.4999999999987246e-05,0.0014181417345713737,0.0005916340413276711,0.0004053366881913295
150000000000.0,6,-0.056133264599999996,0.06452775699999999,-0.00638412915,0.020396,0.003013,0.016026,-0.14079407405,-0.8890316624,-9.765265936999999,-0.014417,0.09078,-3.0667,9.999999999998899e-05,-0.0047999999999999154,6.0000000000060005e-05,-0.00019900653945006952,1.0159359934203138e-05,0.000381734499177111
150000000000.0,6,0.0458362821,0.2765867566,0.23154481315,0.004456,0.01167,0.015983,-0.13936230314999998,-0.8859131477,-9.7655601365,-0.01427,0.090462,-3.0665,9.999999999998899e-05,-0.0048000000000001375,6.999999999990347e-05,-0.0005685632734044876,0.0017735564394387726,0.0012831594140715469
150000000000.0,6,0.04555188925,0.2654267889,0.16957659179999998,-0.022249,0.010821,0.020208,-0.13757749284999998,-0.8798428313499999,-9.7661485355,-0.014087,0.08984,-3.0664,9.999999999998899e-05,-0.0046999999999999265,8.000000000008001e-05,0.0004458605432731133,0.0014967005416186563,0.00029779799371221216
150000000000.0,6,-0.09939039775,-0.01823056235,-0.058928159849999995,-0.015802,0.011839,0.012745,-0.13838163814999999,-0.8780972476499999,-9.766246601999999,-0.014169,0.089661,-3.0662,9.999999999998899e-05,-0.0047999999999999154,-0.00019999999999997797,-0.002734166000143215,-0.0037343898909865114,-0.0009843015716584774
150000000000.0,6,-0.005187717849999999,-0.026164142199999997,-0.1138355932,-0.003032,0.0096,0.015974,-0.13756768619999998,-0.8780972476499999,-9.766246601999999,-0.014085,0.089661,-3.066,9.999999999998899e-05,-0.0049000000000001265,-4.0000000000040004e-05,0.0022987544039188845,0.0007449515954431885,-0.0002243118941447214
150000000000.0,6,-0.05616268455,0.20887183834999998,0.0090613446,-0.022163,0.019347,0.015923,-0.1370185138,-0.8726643635499999,-9.766835001,-0.014028,0.089105,-3.0659,-9.999999999998899e-05,-0.004899999999999904,0.00015999999999993797,-0.0019034023920943416,0.00033067876056369627,0.0003832215964128388
150000000000.0,6,-0.1152281375,0.11968035659999998,0.1306441913,0.012937,0.005204,0.014942,-0.13841105809999998,-0.871615052,-9.766835001,-0.014171,0.088997,-3.0657,9.999999999998899e-05,-0.0049000000000001265,3.0000000000085514e-05,0.002761002800753337,0.00035912341537236436,-0.0001615632302865433
150000000000.0,6,-0.0081395195,0.11366888015,0.26576021499999997,0.016123,0.006239,0.019215,-0.1380580187,-0.8717327317999999,-9.766835001,-0.014134,0.08901,-3.0655,5.0000000000105516e-05,-0.004999999999999893,9.99999999995449e-06,-0.0014819344834196418,0.0008005508285093832,0.001213902551663662
150000000000.0,6,0.0331857036,0.08642600645,0.25341364265,0.000102,0.00424,0.019191,-0.137489233,-0.87097761975,-9.7669330675,-0.014076,0.088932,-3.0653,4.999999999988347e-05,-0.004899999999999904,-4.999999999999449e-05,-0.0008092105585953691,-0.0017050030853336118,0.0006726016510835015
150000000000.0,6,0.03554910625,0.07482473949999999,-0.04221762824999999,-0.032962,0.009834,0.025528,-0.13625359509999999,-0.867300126,-9.7673253335,-0.013949,0.088556,-3.0651,6.666666666665932e-05,-0.0050000000000001155,9.00000000000345e-05,0.0008815482405124045,0.0017672157659653909,-0.000613324305379373
150000000000.0,6,-0.05687856999999999,0.10321499124999998,-0.2842163303,-0.02017,0.003343,0.017023,-0.13675373425,-0.8624752541999999,-9.7677175995,-0.014,0.088062,-3.0649,6.666666666665932e-05,-0.004899999999999904,-0.00017000000000000348,-0.001929275750553551,-0.0010737544691468148,0.000142173144389246
150000000000.0,6,-0.00130428445,0.19053340284999998,-0.1540232449,0.002208,0.006346,0.026663,-0.1362143685,-0.85911157325,-9.768011798999998,-0.013944,0.087718,-3.0647,6.666666666665932e-05,-0.0051000000000001044,8.999999999992347e-05,0.0008443104358247522,0.0009732504156534372,-0.00010164072818213965
150000000000.0,6,-0.005982056499999999,0.19580938054999997,0.22556275665,0.002222,0.003157,0.018129,-0.1361751419,-0.8561597716,-9.768305998499999,-0.01394,0.087415,-3.0645,0.0019000000000000128,-0.008299999999999974,0.006310000000000038,-0.003331754388622356,0.03476800500690769,-0.0027950963018852637
150000000000.0,6,-0.0627429467,0.07975748444999999,0.38829430675,-0.000964,0.011696,0.028783,-0.1365674079,-0.85532620635,-9.768305998499999,-0.01398,0.08733,-3.0642,0.00039999999999995595,-0.005300000000000082,-0.00024999999999997247,-0.003135245019433068,-0.0008486623745760369,-0.0029784987241207317
150000000000.0,6,-0.06280178659999999,0.021751149699999996,0.24789249869999996,0.002257,0.009545,0.021321,-0.13726368005,-0.85567924575,-9.768305998499999,-0.014051,0.087366,-3.064,-0.00019999999999997797,-0.0047999999999999154,0.0006599999999999939,0.0036956044841718466,-0.0009776604239386533,0.0034647011363453245
150000000000.0,6,-0.038226321699999996,0.1552392695,0.0004609125499999999,-0.021217,0.009738,0.02128,-0.1369989005,-0.85150161285,-9.7686982645,-0.014023,0.086938,-3.0637,-0.00029999999999996696,-0.0047999999999999154,0.00036999999999998145,0.006822349570251768,0.006127669430220362,-0.0006584377399451724
150000000000.0,6,-0.09074093245,0.05824169435,-0.10668654535,-0.017991,0.015034,0.024478,-0.1374500064,-0.8480300587499999,-9.768992464,-0.01407,0.086583,-3.0635,0.0006999999999999229,-0.005700000000000038,-0.0010799999999999699,-0.010532376935367682,-0.008695597337177396,-0.0030138583869508406
150000000000.0,6,0.00952225715,0.01615155255,-0.0582122744,0.007581,0.00737,0.019199,-0.13671450764999998,-0.8482948382999999,-9.768894397499999,-0.013993,0.08661,-3.0633,2.4999999999941735e-05,-0.0051000000000001044,8.999999999992347e-05,0.0007103317368350737,0.0014804392980478642,-0.0013416887923957954
150000000000.0,6,-0.0031185146999999996,0.21023496269999997,0.0570550897,-0.030879,0.005549,0.02554,-0.1361947552,-0.84259717465,-9.7694827965,-0.01394,0.086027,-3.0631,2.4999999999941735e-05,-0.004999999999999893,-0.00039999999999995595,-0.006293328666215153,-0.0007775313038231868,0.0016179282659120886
150000000000.0,6,0.06433162399999999,-0.03862839435,0.023222147199999998,-0.008562,-0.004226,0.027731,-0.1354102232,-0.8412340502999999,-9.769580863,-0.01386,0.085888,-3.0628,2.500000000016378e-05,-0.0052000000000000934,4.999999999999449e-05,0.002239362082683778,0.0025082363000301644,0.00042816533039670424
150000000000.0,6,0.2219244895,0.08307213214999999,-0.011875853149999999,0.01165,-0.012912,0.025646,-0.13304682054999997,-0.84083197765,-9.7696789295,-0.013617,0.085847,-3.0626,2.4999999999941735e-05,-0.005199999999999871,6.0000000000060005e-05,0.0017579572496195447,-0.0012239393975999047,0.00045686589422873347
