Time,placement_label,user_acc_x(m/s^2),user_acc_y(m/s^2),user_acc_z(m/s^2),rotation_rate_x(rad/s),rotation_rate_y(rad/s),rotation_rate_z(rad/s),gravity_x(m/s^2),gravity_y(m/s^2),gravity_z(m/s^2),attitude_roll(rad),attitude_pitch(rad),attitude_yaw(rad),target_delta_x,target_delta_y,target_delta_z,target_delta_roll,target_delta_pitch,target_delta_yaw
149700000000.0,6,0.0149845612,-0.011846433200000001,0.0173185439,0.004133,-0.000298,0.000227,-0.022310128749999998,-0.55243801445,-9.7910574265,-0.002279,0.056362,-1.0587,0.0,0.0,0.0,0.0,0.0,0.0
149700000000.0,6,0.023006400899999998,0.0019319100499999998,0.10228335949999999,0.007315,-0.001392,0.002369,-0.02240819525,-0.5530460267499999,-9.7910574265,-0.002289,0.056425,-1.0587,-1.0000000000065512e-05,-8.695652173873469e-07,3.0000000000085514e-05,0.0002541900691228338,-4.712815981644525e-05,4.611459814390928e-05
149700000000.0,6,0.0132389775,-0.00889463155,0.0518379519,0.000905,-0.002405,0.002359,-0.02266316815,-0.553291193,-9.790959359999999,-0.002315,0.05645,-1.0587,1.0000000000065512e-05,-8.695652173873469e-07,-5.000000000032756e-06,-0.00014736563868064656,-0.00013767735538072756,-0.0002877193660483224
149700000000.0,6,-0.01854437515,-0.028086245599999997,-0.05153394575,-0.008697,-0.002326,0.002343,-0.022908334399999997,-0.5528008605,-9.7910574265,-0.002339,0.0564,-1.0587,-1.0000000000065512e-05,-8.695652173873469e-07,-5.000000000032756e-06,-0.00011712566738328323,2.076710631460088e-06,0.00012025413158622822
149700000000.0,6,0.0009708583499999999,-0.0363434449,-0.07394214099999999,-0.011871,0.000897,0.002331,-0.022967174299999997,-0.55218304155,-9.7910574265,-0.002345,0.056337,-1.0586,-9.99999999995449e-06,-8.695652173873469e-07,-1.4999999999987246e-05,-0.0001375329024741745,-7.443670798767954e-05,2.2611039251552167e-05
149700000000.0,6,0.00079433865,-0.030155448749999997,0.0516418189,-0.003328,0.001892,0.002345,-0.022790654599999998,-0.5514867694,-9.791155493,-0.002327,0.056266,-1.0586,9.99999999995449e-06,-8.695652173873469e-07,-1.4999999999987246e-05,0.00027194944041389335,0.0001539437680853073,6.260082748382745e-05
149700000000.0,6,-0.0091594111,0.02189824945,0.183580488,0.010558,0.003909,0.002365,-0.02240819525,-0.5522124614999999,-9.7910574265,-0.002289,0.05634,-1.0586,-1.999999999990898e-05,-8.695652173873469e-07,2.999999999997449e-05,-0.0003532813402948032,-0.0001253606427875642,-6.0519956066706904e-05
149700000000.0,6,-0.0149649479,0.026173948849999996,0.1818741309,0.010541,0.001778,0.002369,-0.0221434157,-0.5533500329,-9.790959359999999,-0.002262,0.056456,-1.0586,9.99999999995449e-06,-8.695652173873469e-07,-5.000000000032756e-06,0.00032506778564955763,0.00016405271397457177,0.00016066446300533332
149700000000.0,6,-0.013954862949999999,-0.0161025193,0.021456950199999998,-0.007615,-0.001268,0.001275,-0.02240819525,-0.5534186794499999,-9.790959359999999,-0.002289,0.056463,-1.0586,3.3333333333551707e-06,-8.695652173873469e-07,-4.999999999921734e-06,-0.00024502043362600867,-0.00019495494455301632,-6.301477129366795e-05
149700000000.0,6,0.01081673495,-0.0526420972,-0.13647914805,-0.015089,-0.001208,0.00233,-0.022486648449999997,-0.55204574845,-9.7910574265,-0.002297,0.056322,-1.0585,3.3333333332441484e-06,-8.695652173873469e-07,9.99999999995449e-06,2.6642637076523812e-05,0.00012295752827551354,-6.060840974403403e-05
149700000000.0,6,0.016141745899999997,-0.03539219984999999,-0.09139797799999999,-0.006557,-0.002343,0.001279,-0.02272200805,-0.5511925699,-9.791155493,-0.002321,0.056235,-1.0585,3.3333333333551707e-06,-8.695652173873469e-07,-9.99999999995449e-06,5.776854257116826e-05,-7.729231570019479e-05,4.4121511444616957e-05
149700000000.0,6,0.02111371745,0.00352058735,0.0721377174,0.006257,-0.000318,0.002365,-0.02276123465,-0.5514867694,-9.791155493,-0.002325,0.056266,-1.0585,-9.99999999995449e-06,-8.695652173873469e-07,4.999999999921734e-06,-1.0389069892174918e-05,0.00030547285816440173,9.484403826648391e-05
149700000000.0,6,-0.013337044000000001,0.014327515649999999,0.17250878014999999,0.007355,0.002871,0.001294,-0.02287891445,-0.55212420165,-9.7910574265,-0.002337,0.056331,-1.0585,6.666666666710341e-06,-8.695652173873469e-07,5.000000000032756e-06,5.914513325822046e-05,-0.0004726180714613726,-9.857030055604454e-05
149700000000.0,6,-0.0253992235,-0.02701732075,0.0889855421,-0.003322,0.001892,0.001277,-0.0232417605,-0.5526733740499999,-9.7910574265,-0.002373,0.056387,-1.0585,6.666666666599319e-06,-8.695652173873469e-07,2.0000000000020002e-05,-2.578630134844606e-05,7.001819943730503e-05,-0.00018032063928330455
149700000000.0,6,-0.013425303849999999,-0.03401926885,-0.03490186735,-0.009736,0.000878,0.002335,-0.023379053599999998,-0.5524085944999999,-9.7910574265,-0.002388,0.05636,-1.0584,6.666666666710341e-06,-8.695652173873469e-07,-2.999999999997449e-05,4.875151098987507e-05,0.00011352544405895948,0.00012182201572141782
149700000000.0,6,0.0122779258,-0.02688002765,-0.0426785408,-0.003324,0.000828,0.000212,-0.023055434149999998,-0.55235956125,-9.7910574265,-0.002354,0.056355,-1.0584,-5.000000000032756e-06,-8.695652173873469e-07,9.99999999995449e-06,1.797879985074302e-05,0.00019900780727821754,-8.249260877091213e-05
149700000000.0,6,0.025556129899999995,-0.00120621795,0.058614347049999994,0.004131,-0.000299,0.001294,-0.02256510165,-0.5526047274999999,-9.7910574265,-0.002305,0.05638,-1.0584,-5.000000000032756e-06,-8.695652173873469e-07,-1.333333333330966e-05,0.00013088214290529754,-0.00025134538993909494,2.334695184713631e-05
149700000000.0,6,0.01354298365,-0.01107170785,0.10121443464999999,0.003081,0.001841,0.001288,-0.022221868899999997,-0.5533598395499999,-9.790959359999999,-0.00227,0.056457,-1.0584,-5.000000000032756e-06,-8.695652173873469e-07,-1.333333333330966e-05,4.743892365077773e-05,0.00024043798467143773,9.996865895522955e-05
149700000000.0,6,-0.01872089485,-0.02336924695,0.034323275,-0.006534,0.000853,0.002341,-0.022584714949999998,-0.55347751935,-9.790959359999999,-0.002307,0.056469,-1.0584,-4.999999999921734e-06,-8.695652173873469e-07,-1.333333333330966e-05,-0.0009091620618713603,-0.0006756873495175064,-0.00011032870631177971
149700000000.0,6,-0.0303025485,-0.02311427405,-0.030753654399999997,-0.007609,-0.000204,0.002341,-0.02311427405,-0.5531440932499999,-9.790959359999999,-0.002361,0.056435,-1.0584,2.0000000000020002e-05,-8.695652173873469e-07,4.999999999999449e-05,0.0006443954342486846,0.0004210669173165815,-5.699822840671276e-05
149700000000.0,6,-0.00924767095,-0.01644575205,0.0033734876,-0.004389,0.000837,0.00021,-0.023222147199999998,-0.55292834695,-9.7910574265,-0.002372,0.056413,-1.0584,-1.0000000000065512e-05,-8.695652173873469e-07,-2.0000000000020002e-05,4.30152958387775e-05,-5.816598448227239e-05,0.0001458959499941459
149700000000.0,6,0.0151218543,-0.0060703163499999995,0.07773731454999999,0.000932,-0.000274,0.001288,-0.022908334399999997,-0.55312447995,-9.790959359999999,-0.00234,0.056433,-1.0583,6.666666666710341e-06,-8.695652173873469e-07,2.999999999997449e-05,-8.887790035763676e-05,0.00018089989690861508,-0.00010307930993985748
149700000000.0,6,0.02382035285,-0.0016671305000000001,0.09134894475,-0.002274,-0.000248,0.00235,-0.0224768418,-0.5531931265,-9.790959359999999,-0.002295,0.05644,-1.0583,6.666666666599319e-06,-8.695652173873469e-07,-4.999999999999449e-05,-4.776680541795919e-05,-5.0119953015625995e-05,0.00024691043732605333
149700000000.0,6,0.0056290171,-0.0069234948999999995,0.024173392250000002,-0.003318,0.001893,0.001277,-0.022231675549999996,-0.5530166068,-9.7910574265,-0.002271,0.056422,-1.0583,6.666666666710341e-06,-8.695652173873469e-07,2.999999999997449e-05,0.0001800675530753415,5.325706419956333e-05,-6.115536018391765e-05
149700000000.0,6,-0.01872089485,-0.019466200249999996,-0.00514849125,-0.005469,-0.00022,0.001277,-0.022574908299999998,-0.552898927,-9.7910574265,-0.002306,0.05641,-1.0583,-9.99999999995449e-06,-8.695652173873469e-07,-9.99999999995449e-06,-0.00020181932834736904,-6.194192385589048e-05,-0.00016688999262914894
149700000000.0,6,-0.02313388735,-0.024908891,0.0216138566,-0.001198,0.000808,0.00235,-0.02295736765,-0.553291193,-9.790959359999999,-0.002345,0.05645,-1.0583,-1.0000000000065512e-05,-8.695652173873469e-07,2.999999999997449e-05,0.0001904635357029283,-7.17840378317014e-05,6.497658106280335e-05
149700000000.0,6,-0.0006472389,-0.01256231865,0.0512299396,-0.001203,0.000807,0.003418,-0.022849494499999998,-0.55351674595,-9.790959359999999,-0.002334,0.056473,-1.0583,-5.000000000032756e-06,-8.695652173873469e-07,-4.0000000000040004e-05,-0.00017250698047671653,0.0002110351217941009,0.00013893871968634341
149700000000.0,6,0.0127682583,-0.007678606949999999,0.05735909585,-0.003331,0.000826,0.002347,-0.022643554849999997,-0.55361481245,-9.790959359999999,-0.002313,0.056483,-1.0582,-4.999999999921734e-06,-8.695652173873469e-07,1.0000000000065512e-05,0.00013489100901045714,-0.00018262789147471814,-0.0001198507027183604
149700000000.0,6,0.013582210249999999,-0.0103165958,0.037912508899999996,-0.003348,-0.001304,0.00235,-0.022418001899999998,-0.55351674595,-9.790959359999999,-0.002289,0.056473,-1.0582,4.999999999921734e-06,-8.695652173873469e-07,-5.000000000032756e-06,-4.8037055235816695e-06,0.00037212841872813485,3.9627485559967646e-05
149700000000.0,6,0.0077864801,-0.013454723799999999,0.0302829352,-0.002275,-0.001312,0.001285,-0.0223003221,-0.5535265525999999,-9.790959359999999,-0.002278,0.056474,-1.0582,5.000000000032756e-06,-8.695652176093915e-07,-5.000000000032756e-06,3.7629241197989494e-07,-0.0004470246901584485,-8.113748401650245e-06
149700000000.0,6,-0.01132668075,-0.018897414549999998,0.04463006415,-0.002241,0.00295,0.001277,-0.0223395487,-0.5537619121999999,-9.790959359999999,-0.002281,0.056498,-1.0582,-1.999999999990898e-05,-8.695652173873469e-07,1.0000000000065512e-05,-0.00042804366523852,0.00013666312523219482,-1.320053870695892e-05
149700000000.0,6,-0.00791396655,-0.0186522483,0.023379053599999998,-0.003315,0.001893,0.001277,-0.022310128749999998,-0.5538599786999999,-9.790959359999999,-0.002278,0.056508,-1.0582,9.99999999995449e-06,-8.695652173873469e-07,3.3333333333551707e-06,0.00036882266404072994,0.0001123271124170433,4.376484065526931e-05
149700000000.0,6,-0.0035794272499999995,-0.0175342902,0.0187307015,-0.002262,0.000818,0.002348,-0.0223003221,-0.55392862525,-9.790959359999999,-0.002278,0.056516,-1.0582,9.99999999995449e-06,-8.695652173873469e-07,3.3333333332441484e-06,3.41709749632213e-06,2.9783141055395035e-05,-0.00010637637869714833
149700000000.0,6,0.00420705285,-0.013915636349999998,0.031744126049999995,-0.001212,-0.001322,0.002354,-0.022319935399999997,-0.55410514495,-9.790959359999999,-0.002279,0.056533,-1.0581,-9.99999999995449e-06,-8.695652173873469e-07,3.3333333333551707e-06,-0.00013480041150679134,4.1047510462632886e-05,4.198996568671731e-05
149700000000.0,6,0.006423355749999999,-0.0091790244,0.0447575506,-0.000134,-0.001328,0.000221,-0.0222807088,-0.55420321145,-9.790959359999999,-0.002276,0.056544,-1.0581,9.99999999995449e-06,-8.695652173873469e-07,-2.999999999997449e-05,0.0003323895541427202,-0.0002465326827401082,-3.750818332592942e-05
149700000000.0,6,-0.00281450855,-0.01569064,0.04938628939999999,-0.001194,0.000809,0.00235,-0.022319935399999997,-0.5544287644,-9.790959359999999,-0.00228,0.056567,-1.0581,-3.3333333333551707e-06,-8.695652173873469e-07,2.0000000000020002e-05,-0.0001799092690790427,-0.00011659121843310416,-2.341724587823224e-05
149700000000.0,6,-0.007639380349999999,-0.0031969679,0.03772618255,-0.004378,0.002967,0.002341,-0.022290515449999996,-0.55420321145,-9.790959359999999,-0.002277,0.056543,-1.0581,-3.3333333332441484e-06,-8.695652173873469e-07,-1.0000000000065512e-05,0.00011038411721811525,2.0815536714735572e-05,8.3545387404238e-05
149700000000.0,6,-0.0020299765499999997,-0.00367749375,0.03309744375,-0.003336,-0.000239,0.002348,-0.022359162,-0.55402669175,-9.790959359999999,-0.002284,0.056525,-1.0581,-3.3333333333551707e-06,-8.695652173873469e-07,2.0000000000020002e-05,-0.00045749046686793804,-2.5894546789695383e-05,7.782521521237928e-05
149700000000.0,6,0.004314926,-0.012650578499999999,0.0407172108,-0.001197,-0.000255,0.001285,-0.022270902149999997,-0.55418359815,-9.790959359999999,-0.002274,0.056541,-1.0581,-4.999999999921734e-06,-8.695652173873469e-07,5.000000000032756e-06,0.000573067590650761,5.619983404669959e-05,-7.668174270381023e-05
149700000000.0,6,0.0062174160999999995,-0.01909354755,0.04937648275,-0.001199,0.000808,0.003418,-0.0220845758,-0.554467991,-9.790959359999999,-0.002255,0.05657,-1.058,-5.000000000032756e-06,-8.695652173873469e-07,5.000000000032756e-06,-0.00040856028497865404,7.896219654801584e-06,-1.178312672939219e-05
149700000000.0,6,-0.0051779112,-0.00850236555,0.0360688587,-0.00226,0.000818,0.002348,-0.02205515585,-0.5544385710499999,-9.790959359999999,-0.002253,0.056567,-1.058,2.999999999997449e-05,-8.695652173873469e-07,-3.0000000000085514e-05,0.0001721963468828136,5.959292893287227e-05,-5.9236129341666555e-06
149700000000.0,6,-0.00930651085,-0.00893385815,0.033528936349999997,-0.003335,-0.000239,0.002348,-0.022261095499999998,-0.55430127795,-9.790959359999999,-0.002274,0.056553,-1.058,-1.0000000000065512e-05,-8.695652173873469e-07,2.0000000000020002e-05,-0.00017733204575826056,8.697932291013011e-05,-9.534491807683398e-06
149700000000.0,6,0.00406975975,-0.015533733599999999,0.02978279605,-0.003321,0.000828,0.001279,-0.022329742049999997,-0.55428166465,-9.790959359999999,-0.002281,0.056551,-1.058,-9.99999999995449e-06,-8.695652173873469e-07,1.0000000000065512e-05,8.882092482373483e-05,-0.0001357897285176879,-9.75523898560926e-05
149700000000.0,6,0.00228494945,-0.0109638347,0.049974688399999995,-0.000131,0.0008,0.00342,-0.0223395487,-0.5545170242499999,-9.790959359999999,-0.002281,0.056576,-1.0579,9.99999999995449e-06,-8.695652173873469e-07,-1.0000000000065512e-05,0.00026635765552418533,5.20629158917707e-05,6.560033814650978e-05
149700000000.0,6,-0.00042168595,-0.0029812216,0.05610384465,-0.001196,-0.000255,0.001285,-0.022329742049999997,-0.5545660575,-9.790959359999999,-0.00228,0.05658,-1.0579,1.0000000000065512e-05,-8.695652173873469e-07,-2.0000000000020002e-05,0.00030102885117530565,3.563246288185162e-05,7.885712527472277e-05
149700000000.0,6,-0.0075315072,-0.010022396299999998,0.03605905205,-0.003334,-0.000239,0.002348,-0.0223983886,-0.5545562508499999,-9.790959359999999,-0.002288,0.05658,-1.0579,-1.0000000000065512e-05,-8.695652173873469e-07,-1.999999999990898e-05,-0.00014877388964107396,-3.7874936499759926e-05,-0.0001402379038282775
149700000000.0,6,-0.010895188149999999,-0.028566771449999997,0.0231829206,-0.003314,0.002957,0.00341,-0.0224768418,-0.5547131572499999,-9.790959359999999,-0.002295,0.056596,-1.0579,-9.99999999995449e-06,-8.695652173873469e-07,3.999999999992898e-05,-0.000447093025583406,-7.689150719047966e-05,7.797058518821398e-05
149700000000.0,6,-0.00224572285,-0.0173577705,0.04321790655,0.000939,-0.000273,0.001289,-0.022447421849999996,-0.55500735675,-9.790959359999999,-0.002292,0.056625,-1.0579,2.0000000000020002e-05,-8.695652173873469e-07,-9.99999999995449e-06,0.00030969315923742857,0.00011322591792595205,4.425313557304689e-05
149700000000.0,6,0.0072373077,-0.005540757249999999,0.05263229055,-0.000141,-0.00133,0.002356,-0.02234935535,-0.5551544565,-9.790861293499999,-0.002283,0.05664,-1.0578,-2.0000000000020002e-05,-8.695652173873469e-07,9.99999999995449e-06,-6.176335359658891e-05,-6.942884756111489e-05,4.066962644350136e-05
149700000000.0,6,0.0094928372,-0.01517088755,0.04559111585,-0.003314,0.000829,0.000212,-0.02221206225,-0.55524271635,-9.790861293499999,-0.002269,0.05665,-1.0578,9.99999999995449e-06,-8.695652173873469e-07,-1.0000000000065512e-05,-0.00022020535162697863,0.00032138304356998937,-6.559223153101978e-05
149700000000.0,6,0.0086102387,-0.020662611549999998,0.01836785545,-0.006516,0.001919,0.002339,-0.0219276694,-0.55514464985,-9.790861293499999,-0.00224,0.056639,-1.0578,-9.99999999995449e-06,-8.695652173873469e-07,-9.99999999995449e-06,4.670575303339364e-05,-0.00016786379684452513,2.1671218011831694e-05
149700000000.0,6,-0.00748247395,-0.0171616375,0.02509521735,-0.002257,0.000819,0.002348,-0.02199631595,-0.5551936831,-9.790861293499999,-0.002247,0.056645,-1.0578,2.0000000000020002e-05,-8.695652173873469e-07,5.000000000032756e-06,9.14126809616056e-05,-0.00020900702095838497,1.2415370915064283e-05
149700000000.0,6,-0.01203275955,-0.00980665,0.06204667455,-0.001173,0.002941,0.002347,-0.0219276694,-0.5553702027999999,-9.790861293499999,-0.00224,0.056663,-1.0578,-1.0000000000065512e-05,-8.695652173873469e-07,5.000000000032756e-06,-4.132202521978101e-05,7.054994770783196e-05,1.0721274580127726e-05
149700000000.0,6,-0.00601147645,-0.013327237349999998,0.047817225399999996,-0.000112,0.000803,0.000217,-0.021966895999999996,-0.55559575575,-9.790861293499999,-0.002244,0.056685,-1.0578,-1.999999999990898e-05,-8.695652173873469e-07,9.99999999995449e-06,-9.499267069384976e-05,0.00010578960328011533,-2.503201944792366e-05
149700000000.0,6,0.00862004535,-0.0151610809,0.027331133549999997,-0.003323,0.000827,0.002347,-0.0216334699,-0.55539962275,-9.790861293499999,-0.00221,0.056666,-1.0578,2.999999999997449e-05,-8.695652173873469e-07,-2.999999999997449e-05,0.00030494750207060717,0.00012049860349727659,2.103187051805122e-05
149700000000.0,6,0.0126113519,-0.00118660465,0.020309572149999996,-0.002268,-0.001311,0.001285,-0.0214373369,-0.55516426315,-9.790861293499999,-0.00219,0.056642,-1.0577,-1.0000000000065512e-05,-8.695652173873469e-07,2.0000000000020002e-05,6.833528824939927e-05,-0.00014851373805835344,-2.011591336326113e-05
149700000000.0,6,0.0006276255999999999,-0.01030678915,0.03870684755,-0.000134,-0.001329,0.001289,-0.02157463,-0.5553211695499999,-9.790861293499999,-0.002203,0.056657,-1.0577,-9.99999999995449e-06,-8.695652173873469e-07,-2.999999999997449e-05,0.00016795955306425636,0.00016726338741701596,-7.793936165478854e-05
149700000000.0,6,-0.01640652545,-0.01169933345,0.0624879738,-0.001178,0.000812,0.000216,-0.02189824945,-0.5555859491,-9.790861293499999,-0.002237,0.056684,-1.0577,-1.0000000000065512e-05,-8.695652173873469e-07,2.999999999997449e-05,-0.0004994324713447906,-3.762455906741735e-05,0.00014026827848134804
149700000000.0,6,-0.008041452999999999,-0.017298930599999998,0.044963490249999995,-0.002272,-0.001313,0.002352,-0.022192448949999995,-0.55581150205,-9.790861293499999,-0.002266,0.056708,-1.0577,-9.99999999995449e-06,-8.695652173873469e-07,2.0000000000020002e-05,-0.0003992326912953814,-0.0003241255668473553,-0.00018805631675972156
149700000000.0,6,0.0026674088,-0.00891424485,0.02372228635,-0.003313,0.001893,0.002345,-0.0221238024,-0.5556644022999999,-9.790861293499999,-0.002259,0.056692,-1.0577,2.0000000000020002e-05,-8.695652173873469e-07,-2.0000000000020002e-05,0.0003472901071007173,3.746098362156225e-05,2.9623299087455646e-05
149700000000.0,6,0.009316317499999999,-0.0105323421,0.031214566949999998,-0.002249,0.00082,0.001281,-0.021888442799999998,-0.5555467224999999,-9.790861293499999,-0.002235,0.056681,-1.0577,4.999999999921734e-06,-8.695652173873469e-07,-1.0000000000065512e-05,0.00014601162750879637,0.00011714132356877016,0.0002225451791442179
149700000000.0,6,0.00463854545,-0.006992141449999999,0.03794192885,-0.000138,-0.00133,0.002356,-0.021839409549999998,-0.555644789,-9.790861293499999,-0.002231,0.05669,-1.0576,5.000000000032756e-06,-8.695652173873469e-07,5.000000000032756e-06,0.0002777053313944011,0.0002251126722205843,-4.082613390588019e-05
149700000000.0,6,-0.0017848103,-0.0191425808,0.05408367475,-0.001201,-0.000257,0.00342,-0.02185902285,-0.5559193752,-9.790861293499999,-0.002233,0.056718,-1.0576,1.0000000000065512e-05,-8.695652173873469e-07,5.000000000032756e-06,-0.000308119801113782,-3.690306777293095e-05,1.4149976335864345e-05
149700000000.0,6,-0.0145530686,-0.019436780299999998,0.03702010375,-0.002262,-0.000247,0.00235,-0.022104189099999998,-0.5560762815999999,-9.790861293499999,-0.002258,0.056734,-1.0576,-1.0000000000065512e-05,-8.695652173873469e-07,9.99999999995449e-06,0.00010960874417814681,-0.00012901371645646087,-0.000137473216874906
149700000000.0,6,-0.0063645158499999995,-0.0168085981,0.01740680375,-0.001203,-0.001321,0.002354,-0.022359162,-0.5561547348,-9.790861293499999,-0.002284,0.056743,-1.0576,1.0000000000065512e-05,-8.695652173873469e-07,-9.99999999995449e-06,-8.094086132276468e-05,-4.893850516385356e-06,1.646893574830388e-05
149700000000.0,6,0.0019122967499999998,-0.008600432049999999,0.04449277105,-0.002258,0.000818,0.003416,-0.022261095499999998,-0.5561253148499999,-9.790861293499999,-0.002274,0.05674,-1.0575,9.99999999995449e-06,-8.695652173873469e-07,-1.0000000000065512e-05,-0.00014043889392340025,-1.851086693527293e-05,-8.165358083878083e-05
149700000000.0,6,0.0081395195,-0.0063154826,0.0543680676,-0.002251,-0.000245,0.000216,-0.022202255599999998,-0.5561743481,-9.790861293499999,-0.002268,0.056744,-1.0575,-9.99999999995449e-06,-8.695652173873469e-07,1.0000000000065512e-05,4.05105705691966e-06,1.924398289054885e-05,-1.7276220838913225e-05
149700000000.0,6,0.0022359162,-0.014062736099999999,0.04957261574999999,-0.002244,0.001884,0.002347,-0.02199631595,-0.5563508678,-9.790861293499999,-0.002246,0.056763,-1.0575,9.99999999995449e-06,-8.695652173873469e-07,-1.0000000000065512e-05,0.00023334275473196886,-3.119432740827932e-05,6.315977608140066e-05
149700000000.0,6,-0.0039422733,-0.017249897349999998,0.034303661699999995,-0.002269,-0.001312,0.002352,-0.02209438245,-0.5564685476,-9.790861293499999,-0.002257,0.056774,-1.0575,-2.0000000000020002e-05,-8.695652173873469e-07,2.0000000000020002e-05,-6.604606419061132e-05,-0.00014198977377533062,1.6783236596817908e-05
149700000000.0,6,-0.006913688249999999,-0.0202801522,0.03564717275,-0.002252,0.000819,0.002349,-0.022261095499999998,-0.5565764207499999,-9.790861293499999,-0.002274,0.056785,-1.0575,-9.99999999995449e-06,-8.695652173873469e-07,-5.000000000032756e-06,-0.00013941745849954668,5.659565472582173e-05,-6.22185830289057e-05
149700000000.0,6,-0.007502087249999999,-0.01569064,0.04670907395,-0.001176,0.001875,0.002349,-0.022270902149999997,-0.55667448725,-9.790763227,-0.002275,0.056795,-1.0574,2.0000000000020002e-05,-8.695652173873469e-07,-4.999999999921734e-06,0.00013068964550400075,0.00013208204475012586,0.00010313148052376597
149700000000.0,6,0.0018142302499999999,-0.0044718324,0.0420705285,-0.002254,-0.000246,0.001283,-0.02217283565,-0.55667448725,-9.790763227,-0.002264,0.056795,-1.0574,-1.0000000000065512e-05,-8.695652173873469e-07,-5.000000000032756e-06,-0.0002556903034075242,-0.00016048300501037005,-0.0001433817509771118
149700000000.0,6,-0.00267721545,-0.01677917815,0.0404230113,-0.002268,-0.001312,0.002352,-0.022310128749999998,-0.5567823604,-9.790763227,-0.002279,0.056806,-1.0574,2.0000000000020002e-05,-8.695652173873469e-07,-5.000000000032756e-06,0.0003082351647165915,-9.402098835797901e-05,2.0543644481507695e-05
149700000000.0,6,-0.009022117999999999,-0.020505705149999998,0.0300868022,-0.003321,-0.000237,0.001281,-0.022555295,-0.5569392667999999,-9.790763227,-0.002304,0.056823,-1.0574,-2.999999999997449e-05,-8.695652173873469e-07,1.0000000000065512e-05,-0.0005621882447445492,-4.135366911084404e-05,-6.637445324431113e-05
149700000000.0,6,-0.00059820565,-0.00944380395,0.04189400879999999,-0.000108,0.001867,0.00235,-0.022447421849999996,-0.55708636655,-9.790763227,-0.002293,0.056837,-1.0574,9.99999999995449e-06,-8.695652173873469e-07,3.3333333333551707e-06,0.0003830438206126885,0.00018504483576475828,0.000290001814703289
149700000000.0,6,-0.0017848103,-0.011611073599999999,0.0421882083,-0.000119,-0.000263,0.001287,-0.0224572285,-0.5573119194999999,-9.790763227,-0.002294,0.056861,-1.0573,1.0000000000065512e-05,-8.695652173873469e-07,3.3333333332441484e-06,-0.00018698707844005957,0.00018118769788944,-4.337540316468047e-05
149700000000.0,6,0.0028831550999999997,-0.012621158549999999,0.03904027365,-0.003311,0.000829,0.001279,-0.0223395487,-0.5573511461,-9.790763227,-0.002282,0.056864,-1.0573,-1.0000000000065512e-05,-8.695652173873469e-07,3.3333333333551707e-06,0.0003438224523409361,8.207803432425109e-05,-5.7279971757751014e-05
149700000000.0,6,0.00169655045,-0.01328801075,0.032165811999999995,-0.003319,-0.000237,0.001281,-0.0223395487,-0.55728249955,-9.790763227,-0.002282,0.056857,-1.0573,-9.99999999995449e-06,-8.695652173873469e-07,-9.99999999995449e-06,8.498273434129344e-05,-2.613389451333603e-05,0.00012678951533162675
149700000000.0,6,0.0013631243499999997,-0.004903325,0.03800076875,-0.000129,-0.000265,0.003422,-0.022310128749999998,-0.55728249955,-9.790763227,-0.002279,0.056858,-1.0573,9.99999999995449e-06,-8.695652173873469e-07,4.999999999921734e-06,-0.00012786330837016857,2.2539707269508824e-05,-0.000146735014994126
149700000000.0,6,-0.012346572349999998,-0.01568083335,0.05085728689999999,-0.001194,-0.00132,0.001287,-0.022672974799999995,-0.5574295992999999,-9.790763227,-0.002315,0.056873,-1.0573,-2.500000000016378e-06,-8.695652173873469e-07,5.000000000032756e-06,0.0001236257212829106,-0.00020970688456167785,-6.142681797211003e-05
149700000000.0,6,-0.0081787461,-0.016769371499999998,0.03962867265,-0.002249,0.000819,0.002349,-0.022800461249999997,-0.55753747245,-9.790763227,-0.002329,0.056884,-1.0572,-2.500000000016378e-06,-8.695652173873469e-07,1.0000000000065512e-05,-0.00010619521480922933,-9.601931350200488e-05,-1.753179970287455e-05
149700000000.0,6,-0.0012454445499999998,-0.01005181625,0.033646616149999996,-0.00119,-0.000256,0.002352,-0.022702394749999997,-0.55751785915,-9.790763227,-0.002318,0.056882,-1.0572,-2.4999999999053557e-06,-8.695652173873469e-07,-1.0000000000065512e-05,2.6917623728139883e-05,6.135666691875485e-05,2.2658047211132626e-05
149700000000.0,6,-0.0001176798,-0.007904159899999999,0.036333638249999994,-0.001167,0.001876,0.001281,-0.0226337482,-0.55757669905,-9.790763227,-0.002312,0.056888,-1.0572,-2.500000000016378e-06,-8.695652173873469e-07,-2.999999999997449e-05,-0.00015878285450465768,0.0002491488412921239,0.0001960753538614579
149700000000.0,6,-0.00067665885,-0.01230734575,0.04246279449999999,-0.001172,0.001875,0.002349,-0.0225160684,-0.55765515225,-9.790763227,-0.0023,0.056896,-1.0572,2.999999999997449e-05,-8.695652173873469e-07,2.999999999997449e-05,7.233540137571715e-05,-0.00031145145115396566,-0.00030473521166596296
149700000000.0,6,-0.0011375714,-0.008708305199999999,0.0366376444,-0.004362,0.001904,0.000208,-0.022359162,-0.55751785915,-9.790763227,-0.002284,0.056882,-1.0572,-9.99999999995449e-06,-8.695652173873469e-07,-9.99999999995449e-06,7.001610937484859e-05,0.00024327895011500011,0.0001653233086408301
149700000000.0,6,-0.00681562175,-0.0087475318,0.03574523925,-0.002265,-0.001313,0.002352,-0.0225160684,-0.55747863255,-9.790763227,-0.0023,0.056878,-1.0571,-9.99999999995449e-06,-8.695652173873469e-07,-1.0000000000065512e-05,-2.481157123021549e-05,-3.568874731296745e-06,3.964467616124345e-05
149700000000.0,6,0.0012748644999999999,-0.00030400615,0.043237519849999996,-0.002242,0.00082,0.001281,-0.022368968649999998,-0.5572530795999999,-9.790763227,-0.002285,0.056854,-1.0571,-1.0000000000065512e-05,-8.695652173873469e-07,5.000000000032756e-06,-0.00011681722911865977,-0.00032599989808534957,-5.84344449222618e-05
149700000000.0,6,0.0026674088,-0.008119906199999999,0.04802316505,-0.002264,-0.001312,0.002352,-0.022418001899999998,-0.557213853,-9.790763227,-0.00229,0.05685,-1.0571,-9.99999999995449e-06,-8.695652176093915e-07,5.000000000032756e-06,-0.00013100952364111795,0.00021023389087515554,3.829212801442772e-05
149700000000.0,6,-0.00397169325,-0.00879656505,0.051023999949999996,-0.00223,0.00295,0.002345,-0.022359162,-0.5571353997999999,-9.790763227,-0.002284,0.056843,-1.0571,9.99999999995449e-06,-8.695652173873469e-07,2.0000000000020002e-05,0.00021763922839362904,1.6442213744749523e-05,-3.591413140102695e-05
149700000000.0,6,-0.0065704555,-0.0065116155999999994,0.04533614295,-0.001183,-0.000255,0.001285,-0.0224572285,-0.5571746263999999,-9.790763227,-0.002294,0.056847,-1.0571,9.99999999995449e-06,-8.695652173873469e-07,-3.0000000000085514e-05,-0.0001698650006537461,-1.4885844541456805e-06,0.0001161779441329891
149700000000.0,6,-0.002353596,-0.0171812508,0.03709855695,-0.00333,-0.001304,0.002351,-0.022643554849999997,-0.55728249955,-9.790763227,-0.002312,0.056858,-1.0571,1.0000000000065512e-05,-8.695652173873469e-07,1.0000000000065512e-05,0.00020018508306329785,7.219949428560746e-05,-4.1464841350591364e-05
149700000000.0,6,-0.00350097405,-0.007433440699999999,0.02529135035,-0.003305,0.001893,0.002345,-0.022682781449999998,-0.5569981066999999,-9.790763227,-0.002317,0.056828,-1.057,-1.0000000000065512e-05,-8.695652173873469e-07,-1.0000000000065512e-05,-0.0001433256113871073,-2.218190003122622e-05,-0.00012290748677029617
149700000000.0,6,0.00389324005,-0.009532063799999999,0.045934348599999994,0.000951,-0.000272,0.001289,-0.0225945216,-0.55714520645,-9.790763227,-0.002308,0.056843,-1.057,-9.99999999995449e-06,-8.695652173873469e-07,3.0000000000085514e-05,-0.00014668225734815188,-0.00030613231831622123,6.183696289380203e-05
149700000000.0,6,0.00542307745,0.0055701772,0.05207331149999999,0.000965,0.000795,0.000219,-0.022486648449999997,-0.5571353997999999,-9.790763227,-0.002297,0.056843,-1.057,9.99999999995449e-06,-8.695652173873469e-07,-3.0000000000085514e-05,0.00030065237760171226,0.00014007945510319253,-6.005769794814597e-05
149700000000.0,6,-0.007374600799999999,-0.007825706699999999,0.0478760653,-0.001196,-0.001321,0.002354,-0.022702394749999997,-0.55720404635,-9.790763227,-0.002319,0.056849,-1.057,1.0000000000065512e-05,-8.695652173873469e-07,1.0000000000065512e-05,9.029225071419122e-05,0.0001618317320526419,6.367977308169293e-05
149700000000.0,6,-0.0019809433,-0.012748645,0.0342644351,-0.00436,0.001904,0.000208,-0.022555295,-0.5570765598999999,-9.790763227,-0.002304,0.056836,-1.057,-2.999999999997449e-05,-8.695652173873469e-07,2.999999999997449e-05,-0.00015613876483447364,-0.00014197592938991477,-0.0001228927947280467
149700000000.0,6,0.00013729309999999998,-0.0146315218,0.03725546335,-0.002257,-0.001311,0.001285,-0.022584714949999998,-0.5571353997999999,-9.790763227,-0.002307,0.056843,-1.057,9.99999999995449e-06,-8.695652173873469e-07,-2.0000000000020002e-05,4.7045888637603506e-05,6.78873743795716e-05,0.00018479863473858105
149700000000.0,6,0.0045306723,-0.00493274495,0.04458103089999999,0.000961,0.000794,0.001287,-0.022486648449999997,-0.5572530795999999,-9.790763227,-0.002297,0.056855,-1.057,9.99999999995449e-06,-8.695652173873469e-07,-4.999999999999449e-05,-0.0001771621073448082,-0.00014869121217842007,-4.506145162019859e-05
149700000000.0,6,-0.0007060788,-0.0049425516,0.0469150136,0.018068,0.00598,0.002375,-0.0215942433,-0.55843968425,-9.790763227,-0.002205,0.056976,-1.0569,-9.99999999995449e-06,-8.695652173873469e-07,2.0000000000020002e-05,-1.608394467059182e-05,8.647858913968243e-05,8.217225789936e-05
149700000000.0,6,-0.021143137399999998,0.0091005712,0.18836613319999998,0.015909,0.0028,0.002377,-0.0216530832,-0.5602146879,-9.790567094,-0.002212,0.057157,-1.0569,4.999999999921734e-06,-8.695652173873469e-07,-2.999999999997449e-05,0.0006552382905099241,-0.0001709845031365731,-0.00024048127678027997
149700000000.0,6,-0.00958109705,0.0085121722,0.1501986514,-0.003058,0.002922,-1.3e-05,-0.02154521005,-0.56038140095,-9.790567094,-0.002201,0.057174,-1.0569,5.000000000032756e-06,-8.695652173873469e-07,3.999999999992898e-05,-0.00040874373094107463,0.00018181309755993524,0.00012152944165466639
149700000000.0,6,0.0035990405499999995,-0.028605998049999998,-0.09932175119999999,-0.02231,-0.004376,-0.002168,-0.021711923099999995,-0.5590182765999999,-9.7906651605,-0.002217,0.057035,-1.0569,5.000000000032756e-06,-8.695652173873469e-07,4.0000000000040004e-05,4.721570825419463e-05,2.5136290553451346e-05,1.8854347813401784e-05
149700000000.0,6,0.02903749065,-0.06381187155,-0.23046608165,-0.022339,-0.005446,0.002103,-0.021711923099999995,-0.55747863255,-9.790763227,-0.002217,0.056878,-1.0569,5.000000000032756e-06,-8.695652173873469e-07,-2.0000000000020002e-05,3.739351228865262e-05,-5.0961906328250706e-05,-2.0172078591951248e-05
149700000000.0,6,0.03488225405,-0.03148915315,-0.1297223662,-0.005255,-0.004519,0.001064,-0.021564823349999998,-0.5568902335499999,-9.790763227,-0.002203,0.056817,-1.0569,-1.0000000000065512e-05,-8.695652173873469e-07,-2.999999999997449e-05,-0.00030143577875105243,0.0001736456866949787,-3.366256559572678e-05
149700000000.0,6,-0.00779628675,0.006943108199999999,0.14452060105,0.010748,-0.004651,0.001092,-0.0222807088,-0.557606119,-9.790763227,-0.002276,0.056891,-1.0569,-3.3333333333551707e-06,-8.695652173873469e-07,9.99999999995449e-06,0.0003901029331918604,-8.993042276261853e-05,-2.6250704027008798e-05
149700000000.0,6,-0.013503757049999999,0.0320089056,0.2375759029,0.005464,0.001786,0.001071,-0.02240819525,-0.5579885783499999,-9.790763227,-0.002289,0.056929,-1.0569,-3.3333333332441484e-06,-8.695652173873469e-07,2.0000000000020002e-05,-0.00033247597549407315,-0.00016986236245197794,5.974163747757277e-05
149700000000.0,6,-0.03560794615,-6.864654999999999e-05,0.1319190558,-0.003053,0.003987,0.001053,-0.022751427999999997,-0.5580768382,-9.790763227,-0.002324,0.056939,-1.0568,-3.3333333333551707e-06,-8.695652173873469e-07,-2.0000000000020002e-05,7.087908903766205e-05,0.00030720345689205786,0.00012181019441848129
149700000000.0,6,-0.012925164699999998,-0.028537351499999995,0.00489351835,-0.007343,0.00189,0.002116,-0.0226925881,-0.5578905118499999,-9.790763227,-0.002318,0.05692,-1.0568,9.99999999995449e-06,-8.695652173873469e-07,5.000000000032756e-06,7.516554483111282e-05,-0.0002431908033178054,-0.0001833403342960116
149700000000.0,6,0.0160044528,-0.023771319599999997,-0.014709975,-0.003081,-0.000274,-7e-06,-0.022447421849999996,-0.5578708985499999,-9.790763227,-0.002292,0.056917,-1.0568,1.0000000000065512e-05,-8.695652173873469e-07,5.000000000032756e-06,3.2569845071300785e-05,0.00025750029565840826,3.1507316242518346e-05
149700000000.0,6,0.01548470035,-0.00485429175,0.0283804451,-0.000953,-0.000292,0.001064,-0.02221206225,-0.5579395451,-9.790763227,-0.002269,0.056924,-1.0568,-5.000000000032756e-06,-8.695652173873469e-07,-1.0000000000065512e-05,-0.0001689666761617581,-8.55482374009231e-05,2.9830327002156043e-05
149700000000.0,6,0.014435388799999999,0.009610516999999999,0.052328284399999994,0.001167,-0.001376,0.002137,-0.022064962499999997,-0.5578807052,-9.790763227,-0.002254,0.056919,-1.0568,-5.000000000032756e-06,-8.695652173873469e-07,3.0000000000085514e-05,2.445386043464781e-05,1.4739176970035572e-06,-6.047910316198113e-05
149700000000.0,6,-0.018818961349999996,-0.0106696352,0.0343625016,-0.002016,0.000781,0.002127,-0.022486648449999997,-0.5579493517499999,-9.790763227,-0.002296,0.056926,-1.0568,3.0000000000085514e-05,-8.695652173873469e-07,-3.0000000000085514e-05,9.02686717700607e-05,-0.0003301652306728631,-5.941231639811084e-05
149700000000.0,6,-0.00420705285,-0.009532063799999999,0.0020692031499999998,-0.006267,0.002947,0.002116,-0.022427808549999997,-0.55759631235,-9.790763227,-0.002291,0.05689,-1.0568,-1.0000000000065512e-05,-8.695652173873469e-07,2.0000000000020002e-05,5.970204610597496e-05,0.00011008560133518586,-4.295717436514357e-05
149700000000.0,6,-0.00120621795,-0.0088455983,0.0079237732,-0.004158,-0.000267,0.002126,-0.022427808549999997,-0.5572334662999999,-9.790763227,-0.002291,0.056853,-1.0567,-2.999999999997449e-05,-8.695652173873469e-07,1.0000000000065512e-05,0.0002266071642692824,0.0005944246775559936,0.00042901057652894314
149700000000.0,6,0.01003220295,-0.0028047019,0.06553784195,0.000115,-0.000301,0.001066,-0.0223003221,-0.55714520645,-9.790763227,-0.002278,0.056843,-1.0567,-9.99999999995449e-06,-8.695652173873469e-07,1.999999999990898e-05,0.00031737853531429994,0.00014366093233131316,0.00021244140585224836
149700000000.0,6,0.00871811185,-0.0006668522,0.10697093819999999,0.003327,0.001803,0.002135,-0.02203554255,-0.5574884392,-9.790763227,-0.002251,0.056878,-1.0567,-4.0000000000040004e-05,-8.695652173873469e-07,5.0000000000105516e-05,0.0006871277470357484,0.0006141778599040304,0.0002294199649721107
149700000000.0,6,-0.0037559469499999997,-0.00510926465,0.08660252615,0.000127,0.001829,0.002129,-0.0219865093,-0.55783167195,-9.790763227,-0.002245,0.056913,-1.0567,-2.999999999997449e-05,-1.999999999990898e-05,5.999999999994898e-05,0.0008021815134677535,0.00014403076930769032,0.00027553456309598046
149700000000.0,6,-0.010424468949999998,-0.0162005858,0.020466478549999997,-0.006283,0.000816,0.00212,-0.022045349199999998,-0.55765515225,-9.790763227,-0.002251,0.056896,-1.0567,-1.0000000000065512e-05,-2.0000000000131024e-05,-9.99999999995449e-06,0.0009835991914700914,0.000675336827152595,0.00019098061289246626
149700000000.0,6,0.00150041745,-0.0171616375,-0.025595356499999996,-0.008416,0.000834,0.002116,-0.022006122599999997,-0.5572923061999999,-9.790763227,-0.002247,0.056859,-1.0566,1.5000000000098268e-05,-1.999999999990898e-05,2.999999999997449e-05,-0.000832034594070441,-0.00025978176560936816,-8.959846519451808e-05
149700000000.0,6,0.0095124505,-0.0154356671,-0.01032640245,-0.004166,-0.001332,0.002127,-0.0219276694,-0.5570765598999999,-9.790763227,-0.00224,0.056837,-1.0566,1.4999999999987246e-05,-2.0000000000131024e-05,-4.0000000000040004e-05,-0.0002556329635462484,-0.00012126933042932997,-4.404757330428444e-05
149700000000.0,6,0.0038442067999999996,-0.004971971549999999,0.0532697228,-0.000948,0.000773,0.002129,-0.02180018295,-0.55706675325,-9.790763227,-0.002226,0.056836,-1.0566,-0.000220000000000109,-1.999999999990898e-05,0.00038000000000004697,0.0016300136475054794,0.0038730403022564364,0.0023504152961453806
149700000000.0,6,-0.0094732239,-0.00526617105,0.09185889055,0.001191,0.000756,0.001066,-0.02195708935,-0.5573707593999999,-9.790763227,-0.002242,0.056866,-1.0566,0.00029000000000001247,0.00019999999999997797,-0.0005399999999999849,-0.00412692630348252,-0.005747456015398278,-0.0033949212910492355
149700000000.0,6,-0.0170831843,-0.005099457999999999,0.07075497975,0.000125,0.000765,0.001064,-0.0221238024,-0.55753747245,-9.790763227,-0.00226,0.056883,-1.0566,1.0000000000065512e-05,5.882352941188884e-06,-1.0000000000065512e-05,-0.000588207353521053,-0.0004183694665105264,-0.00020914509683411797
149700000000.0,6,-0.0039128533499999995,-0.01166010685,0.03080268765,-0.004134,0.001865,0.001054,-0.0221238024,-0.5575668923999999,-9.790763227,-0.00226,0.056886,-1.0566,-2.999999999997449e-05,5.882352941188884e-06,4.999999999999449e-05,0.0009066490977089336,0.0004782974690413777,0.00023180250267973435
149700000000.0,6,0.00938496405,-0.019407360349999996,0.0067077486,-0.003101,-0.002406,0.001064,-0.022104189099999998,-0.5575865056999999,-9.790763227,-0.002258,0.056889,-1.0566,1.4999999999987246e-05,5.882352941188884e-06,1.0000000000065512e-05,-0.00013181182584565132,0.00015890378294503016,-6.449293983823434e-05
149700000000.0,6,0.00459931885,-0.007590347099999999,0.02362421985,-0.003061,0.001858,-1.1e-05,-0.02195708935,-0.55743940595,-9.790763227,-0.002242,0.056873,-1.0565,1.4999999999987246e-05,5.882352941188884e-06,-2.0000000000020002e-05,0.00040003678528222064,-3.656762111736711e-05,6.708079058181937e-05
149700000000.0,6,-0.007453054,0.004903325,0.05489762669999999,-0.000952,0.000771,0.003197,-0.0220257359,-0.55736095275,-9.790763227,-0.002249,0.056866,-1.0565,9.99999999995449e-06,5.882352941188884e-06,-9.00000000000345e-05,-0.001637592348577327,-0.0012209723588252341,-0.0006455759074976419
149700000000.0,6,-0.012836904849999999,-0.0056290171,0.049964881749999995,-0.003084,-0.000275,0.00106,-0.02217283565,-0.5573119194999999,-9.790763227,-0.002265,0.05686,-1.0565,1.0000000000065512e-05,5.882352941188884e-06,1.0000000000065512e-05,-0.00018726516023231943,-0.0002506905618051558,9.001522260282391e-05
149700000000.0,6,-0.00381478685,-0.01552392695,0.0252815437,-0.003083,-0.000275,0.00106,-0.022221868899999997,-0.5572923061999999,-9.790763227,-0.00227,0.056858,-1.0565,-3.0000000000085514e-05,5.882352941188884e-06,9.999999999998899e-05,0.0015963466079815525,0.0014075220310274528,0.0005337980370923034
149700000000.0,6,0.007060788,-0.0171027976,0.029468983249999997,-0.000941,0.000773,0.001062,-0.0220257359,-0.5573511461,-9.790763227,-0.00225,0.056865,-1.0565,3.0000000000085514e-05,5.882352941188884e-06,-0.0001300000000000745,-0.0014573823587762658,-0.0011824789371248645,-0.0004832671032067859
149700000000.0,6,0.02042725195,-0.00361865385,0.0414232896,0.002234,-0.002449,0.001073,-0.021770763000000002,-0.55751785915,-9.790763227,-0.002224,0.056882,-1.0565,-2.0000000000020002e-05,5.882352941188884e-06,0.0001100000000000545,0.0016351377656825261,0.0013847427342335017,0.0006258091290338164
149700000000.0,6,0.0004609125499999999,-0.0030008349,0.055182019549999996,0.000118,-0.0003,0.001066,-0.02185902285,-0.55769437885,-9.790763227,-0.002233,0.056899,-1.0565,2.999999999997449e-05,5.882352941188884e-06,-9.999999999998899e-05,-0.0018198895815081662,-0.0015338465249203903,-0.0005838377143754792
149700000000.0,6,-0.0088848249,-0.00306948145,0.0427766073,-0.00308,0.00079,0.002126,-0.021937476049999998,-0.55747863255,-9.790763227,-0.002241,0.056877,-1.0564,-2.0000000000020002e-05,5.882352941188884e-06,4.999999999921734e-06,9.2850789113752e-05,-2.536451972656728e-05,-4.250089379886912e-05
149700000000.0,6,-0.017730423199999998,-0.00648219565,0.02797837245,-0.004138,0.001864,0.002122,-0.02207476915,-0.55720404635,-9.790763227,-0.002254,0.056849,-1.0564,1.0000000000065512e-05,5.882352941188884e-06,5.000000000032756e-06,5.904088736197188e-05,0.000123572050277021,0.00026494722150938177
149700000000.0,6,-0.0118072066,-0.0126701918,0.03380352255,-0.002016,-0.000283,0.001062,-0.022310128749999998,-0.55730211285,-9.790763227,-0.002279,0.05686,-1.0564,-3.0000000000085514e-05,5.882352941188884e-06,0.0001100000000000545,0.0015049146839378746,0.0014418460007283862,0.0002772577974223811
149700000000.0,6,0.00795319315,-0.0005295590999999999,0.05520163285,0.000121,0.000764,0.002131,-0.022163028999999997,-0.55732172615,-9.790763227,-0.002264,0.056862,-1.0564,-1.999999999990898e-05,5.882352941188884e-06,-1.0000000000065512e-05,0.00012236143707700098,-0.0002674689060717661,-0.00010037680214980416
149700000000.0,6,0.0055897905,-0.0097478101,0.05162220559999999,-0.002012,0.000781,0.002128,-0.02189824945,-0.5572334662999999,-9.790763227,-0.002237,0.056852,-1.0564,3.999999999992898e-05,5.882352941188884e-06,-0.00010999999999994348,-0.0017212043961397638,-0.0010768773398790454,-0.00048162070125201684
149700000000.0,6,0.0012650578499999998,-0.0115522337,0.0475818658,-0.003082,-0.000274,0.00106,-0.02191786275,-0.55722365965,-9.790763227,-0.002238,0.056851,-1.0563,-1.999999999946489e-06,5.882352941188884e-06,-5.000000000032756e-06,-0.00016569536313246203,-8.439929155756865e-05,8.103037716533645e-05
149700000000.0,6,-0.007649186999999999,-0.01636729885,0.04007977855,-0.000948,-0.000292,0.001064,-0.02197670265,-0.55749824585,-9.790763227,-0.002245,0.05688,-1.0563,-2.0000000000575113e-06,5.882352941188884e-06,-5.000000000032756e-06,0.0003096779291971996,4.888103277478351e-06,5.925953647090143e-05
149700000000.0,6,-0.01264077185,-0.0154160538,0.028096052249999996,-0.000948,-0.000292,0.001064,-0.022231675549999996,-0.55769437885,-9.790763227,-0.00227,0.056899,-1.0563,-1.999999999946489e-06,-0.00010000000000021103,1.0000000000065512e-05,-0.0005114790862716101,-0.00011806234380551395,-0.00010437889842462855
149700000000.0,6,0.00438357255,-0.01213082605,0.03886375395,-0.002006,0.000782,0.00106,-0.022192448949999995,-0.5578414785999999,-9.790763227,-0.002267,0.056915,-1.0563,-2.0000000000575113e-06,3.846153846076561e-06,-2.0000000000020002e-05,0.0003885308271491805,0.0003361541858530881,0.00010497073340071106
149700000000.0,6,0.009983169699999999,-0.012513285399999999,0.05651572394999999,-0.002014,-0.000283,0.001062,-0.021947282699999997,-0.5579101251499999,-9.790763227,-0.002242,0.056922,-1.0563,-1.999999999946489e-06,3.8461538462986056e-06,2.999999999997449e-05,-0.0001891580597200293,-0.0002793217103087553,-6.418232868843354e-05
149700000000.0,6,0.012748645,-0.0129840046,0.05590771165,-0.00201,0.000782,0.002128,-0.021721729749999998,-0.5580376116,-9.790763227,-0.002219,0.056935,-1.0563,-5.000000000032756e-06,3.846153846076561e-06,-2.999999999997449e-05,0.00017022466322244578,0.0002529179761563416,8.35576104205038e-05
149700000000.0,6,-0.0006276255999999999,-0.01130706745,0.03570601265,-0.003069,0.001856,0.002124,-0.0216726965,-0.5580572249,-9.790763227,-0.002213,0.056937,-1.0563,-5.000000000032756e-06,3.8461538462986056e-06,0.00012000000000000899,0.0018544522067114044,0.001167463812592029,0.0003464431732578266
149700000000.0,6,-0.00622722275,-0.00854159215,0.03586291905,-0.001993,0.002913,0.002124,-0.02160404995,-0.5579885783499999,-9.790763227,-0.002206,0.05693,-1.0562,2.0000000000020002e-05,3.846153846076561e-06,-9.999999999998899e-05,-0.0020021211489325286,-0.0012965632944861305,-0.00044955181763361995
149700000000.0,6,0.0004903325,-0.01197391965,0.0487194372,-0.000951,-0.000292,0.002131,-0.021584436649999997,-0.5581454847499999,-9.790763227,-0.002205,0.056946,-1.0562,-2.0000000000020002e-05,3.846153846076561e-06,0.00010999999999994348,0.0019960823044731513,0.0014325890593414048,0.00044933802375873855
149700000000.0,6,0.009237864299999999,-0.010885381500000001,0.05455439395,-0.002004,0.000783,0.00106,-0.021358883699999998,-0.5581847113499999,-9.790763227,-0.002182,0.05695,-1.0562,-9.99999999995449e-06,3.8461538462986056e-06,-9.99999999995449e-06,3.4909311561387435e-05,-0.00013954471105148691,-2.3415242716040563e-05
149700000000.0,6,0.00385401345,-0.0083160392,0.037049523699999996,-0.001992,0.002913,0.002124,-0.0210646842,-0.5582141313,-9.790763227,-0.002151,0.056953,-1.0562,2.0000000000020002e-05,3.846153846076561e-06,-9.999999999998899e-05,-0.0021093547157124415,-0.001416601617904023,-0.00040247820136296575
149700000000.0,6,-0.0033244543499999996,-0.0079433865,0.032999377249999996,-0.000959,-0.001358,0.002133,-0.02121178395,-0.55828277785,-9.790763227,-0.002167,0.05696,-1.0562,2.0000000000020002e-05,3.846153846076561e-06,-2.0000000000020002e-05,0.0005059488281736468,0.0002014414298996403,3.2811302992985514e-05
149700000000.0,6,-0.0022359162,-0.0071392412,0.040040551949999996,-0.00416,-0.001331,0.002128,-0.021407916949999998,-0.558194518,-9.790763227,-0.002186,0.05695,-1.0561,-3.0000000000085514e-05,3.8461538462986056e-06,0.00012000000000000899,0.0013977944122168795,0.0011787009986354846,0.0004695528918923775
149700000000.0,6,-0.0009414384,-0.0107088618,0.04408089175,-0.002009,0.000782,0.002128,-0.021358883699999998,-0.5582141313,-9.790763227,-0.002181,0.056953,-1.0561,2.0000000000020002e-05,3.846153846076561e-06,-5.500000000002725e-05,0.00013791478763569565,5.182193752206743e-05,-0.00013960969342757812
149700000000.0,6,-0.008737725149999999,-0.004314926,0.04588531535,-0.004137,0.000801,0.001056,-0.021486370149999996,-0.55802780495,-9.790763227,-0.002195,0.056934,-1.0561,2.0000000000020002e-05,3.8461538462986056e-06,-5.500000000002725e-05,-0.0017249371613627107,-0.0015480880945859532,-0.0003399913603985838
149700000000.0,6,-0.00561921045,-0.0083552658,0.05771213524999999,-0.001995,0.001849,0.001058,-0.021466756849999998,-0.55802780495,-9.790763227,-0.002192,0.056933,-1.0561,-9.99999999995449e-06,3.846153846076561e-06,2.0000000000020002e-05,0.00015470968663219842,5.491886038955229e-05,-0.00014402422554637972
149700000000.0,6,-0.0025987622499999996,-0.0073353742,0.0442476048,-0.002017,-0.000284,0.002129,-0.0214961768,-0.5579885783499999,-9.790763227,-0.002195,0.05693,-1.0561,-1.0000000000065512e-05,3.846153846076561e-06,-2.0000000000020002e-05,-0.0002981272053783901,6.439796293511435e-05,9.89784131145699e-05
149700000000.0,6,-0.00438357255,3.9226599999999995e-05,0.047395539449999996,-0.002017,-0.000284,0.002129,-0.02150598345,-0.5578905118499999,-9.790763227,-0.002196,0.05692,-1.0561,-9.99999999995449e-06,3.8461538462986056e-06,5.000000000032756e-06,-0.0001374571987256823,6.811624202018862e-05,-3.832218446409019e-06
149700000000.0,6,-0.0041776329,-0.004128599649999999,0.04574802225,-0.002017,-0.000284,0.002129,-0.021564823349999998,-0.5579101251499999,-9.790763227,-0.002202,0.056922,-1.056,-1.0000000000065512e-05,3.846153846076561e-06,5.000000000032756e-06,0.00032206819430305456,5.615050128882082e-05,6.056366669837665e-07
149700000000.0,6,0.0029419949999999998,-0.01122861425,0.0388539473,-0.00095,-0.000292,0.002131,-0.02150598345,-0.5579885783499999,-9.790763227,-0.002196,0.05693,-1.056,-9.99999999995449e-06,3.8461538462986056e-06,9.999999999998899e-05,0.0015163517192855747,0.0014304855643585412,0.0004688374602217493
149700000000.0,6,0.0013533177,-0.006276256,0.04408089175,0.000148,0.002897,0.00106,-0.02125101055,-0.5581552914,-9.790763227,-0.00217,0.056947,-1.056,4.0000000000040004e-05,3.846153846076561e-06,-0.0001100000000000545,-0.0016212945773799448,-0.0014798184418285398,-0.0004454964428899366
149700000000.0,6,-0.00034323274999999994,-0.015347407249999999,0.0481114249,-0.000949,-0.000292,0.002131,-0.021349077049999998,-0.55836123105,-9.790763227,-0.002181,0.056968,-1.056,-1.0000000000065512e-05,3.846153846076561e-06,-3.3333333333551707e-06,-0.00014537586983928708,5.435014169941077e-05,-5.338137844235202e-05
149700000000.0,6,-0.0037853669,-0.01740680375,0.0320873588,-0.00201,-0.000282,0.001062,-0.021349077049999998,-0.5585475574,-9.7906651605,-0.002181,0.056987,-1.056,-9.99999999995449e-06,3.8461538462986056e-06,-3.3333333332441484e-06,-0.0003980590712074905,7.031774704935323e-05,0.00025620987002661355
149700000000.0,6,-0.0085906254,-0.011110934449999998,0.024310685349999996,-0.002016,-0.000284,0.00213,-0.021486370149999996,-0.55855736405,-9.7906651605,-0.002194,0.056988,-1.056,2.0000000000020002e-05,3.846153846076561e-06,-3.3333333333551707e-06,0.0005113208777234313,-0.00014500328716726685,-0.0002616093277669762
149700000000.0,6,-0.0033146476999999994,-0.007462860649999999,0.0398738389,-0.003068,0.000792,0.001058,-0.021525596749999997,-0.5584691042,-9.790763227,-0.002199,0.056979,-1.0559,-2.0000000000020002e-05,3.846153846076561e-06,2.999999999997449e-05,-0.00013742409773295772,0.0001622267681060663,-3.313078725664109e-05
149700000000.0,6,-0.0026870221,-0.0022359162,0.044218184849999995,-0.000937,0.001838,0.003195,-0.021407916949999998,-0.5584592975499999,-9.790763227,-0.002186,0.056977,-1.0559,9.99999999995449e-06,3.8461538462986056e-06,-9.99999999995449e-06,-0.00018231598776691227,-0.0001785626433070675,-3.2840123011967925e-05
149700000000.0,6,0.0033734876,-0.01697531115,0.04585589539999999,-0.003082,-0.000275,0.002128,-0.021329463749999996,-0.55853775075,-9.7906651605,-0.002179,0.056986,-1.0559,-2.0000000000020002e-05,3.846153846076561e-06,9.999999999998899e-05,0.002224608343434936,0.001386994007513298,0.00047103633332090666
149700000000.0,6,0.00040207264999999996,-0.0051779112,0.036431704749999995,-0.001992,0.001849,0.001058,-0.021201977299999997,-0.5585083308,-9.790763227,-0.002166,0.056983,-1.0559,3.0000000000085514e-05,3.8461538462986056e-06,-0.00012000000000000899,-0.0017756748804781675,-0.001430662469266375,-0.0003646989515934118
149700000000.0,6,0.00189268345,-0.007502087249999999,0.04392398535,-0.003051,0.002923,0.001055,-0.021045070899999997,-0.5584298776,-9.790763227,-0.00215,0.056975,-1.0559,-1.0000000000065512e-05,3.846153846076561e-06,9.99999999995449e-06,-0.00024212105522680716,0.00019254466765006306,7.972893829411021e-05
149700000000.0,6,0.0016082905999999998,-0.012121019399999999,0.04734650619999999,0.000133,0.000766,0.001064,-0.0210646842,-0.5587436903999999,-9.7906651605,-0.002151,0.057007,-1.0559,1.0000000000065512e-05,-0.00010000000000021103,1.0000000000065512e-05,0.000170348832088274,-2.8253832001556844e-05,0.0002175698907932455
149700000000.0,6,-0.00510926465,-0.0095712904,0.03970712585,-0.003062,0.000793,-9e-06,-0.02107449085,-0.5587436903999999,-9.7906651605,-0.002152,0.057007,-1.0559,-3.0000000000085514e-05,1.2499999999970868e-05,0.00010999999999994348,0.0013839920259670624,0.0010503231916267897,0.0002278181030399562
149700000000.0,6,0.0018240368999999999,-0.00814932615,0.0440514718,-0.002005,0.000782,0.002128,-0.020976424349999998,-0.55867504385,-9.7906651605,-0.002142,0.057,-1.0558,1.0000000000065512e-05,1.2499999999970868e-05,-2.0000000000020002e-05,0.0003342295424335062,0.000162064241141735,-4.02250393949366e-05
149700000000.0,6,-0.0018632635,-0.009590903699999999,0.040011132,-0.00093,0.001839,0.002128,-0.020888164499999997,-0.55873388375,-9.7906651605,-0.002133,0.057006,-1.0558,3.3333333333551707e-06,1.2500000000192912e-05,1.0000000000065512e-05,-0.00010879385223139248,-9.833213503429583e-05,-4.4430585811383594e-05
149700000000.0,6,-0.008208166049999998,-0.00732556755,0.0485429175,-0.002022,-0.001349,0.002131,-0.0211235241,-0.55875349705,-9.7906651605,-0.002157,0.057008,-1.0558,3.3333333332441484e-06,1.2499999999970868e-05,2.0000000000020002e-05,0.0002175378244710091,-5.320142661235927e-05,-0.0001776982946709027
149700000000.0,6,-0.0065704555,-0.010630408599999999,0.04478697055,-0.000933,0.000774,0.001062,-0.02111371745,-0.55889079015,-9.7906651605,-0.002156,0.057021,-1.0558,3.3333333333551707e-06,1.2499999999970868e-05,-0.00012000000000000899,-0.0019289400769290643,-0.0010704022381491374,-0.00018229607987774177
149700000000.0,6,-0.0074040207499999995,-0.007825706699999999,0.03192064575,-0.00201,0.000781,0.003195,-0.02117255735,-0.55885156355,-9.7906651605,-0.002163,0.057018,-1.0558,-4.999999999921734e-06,1.2500000000192912e-05,9.99999999995449e-06,-0.00018310803003807052,-2.3330103460672547e-05,-0.00010366498643266109
149700000000.0,6,-0.00960071035,-0.011934693049999999,0.03341125655,-0.000946,-0.000292,0.002131,-0.021378497,-0.5589398233999999,-9.7906651605,-0.002184,0.057027,-1.0557,-5.000000000032756e-06,1.2499999999970868e-05,-2.0000000000020002e-05,0.0005029539021842999,0.0001023181643797777,0.00012610051163780556
149700000000.0,6,-0.0025889556,-0.015406247149999998,0.04237453465,-0.001999,0.000783,0.00106,-0.021349077049999998,-0.55920460295,-9.7906651605,-0.002181,0.057053,-1.0557,2.0000000000020002e-05,1.2499999999970868e-05,-2.0000000000020002e-05,-0.0005200497466097131,-0.0002724574222632281,-0.00018883873060437928
149700000000.0,6,-0.005315204299999999,-0.008629852,0.04731708625,-0.00199,0.001848,0.001059,-0.0213196571,-0.55924382955,-9.7906651605,-0.002178,0.057058,-1.0557,-2.0000000000020002e-05,-0.00010000000000021103,3.0000000000085514e-05,0.0003842104986764572,7.140787911930069e-05,8.596982891784233e-05
149700000000.0,6,-0.011611073599999999,-0.0037363336499999997,0.04282564055,-0.000937,0.000773,0.00213,-0.021456950199999998,-0.55920460295,-9.7906651605,-0.002191,0.057054,-1.0557,2.0000000000020002e-05,5.555555555591951e-06,-2.0000000000020002e-05,0.00017551807069043912,8.469389680731965e-05,-2.863319929946595e-05
149700000000.0,6,-0.011052094549999999,-0.00858081875,0.03384274915,-0.001998,0.000782,0.00106,-0.02157463,-0.5592928628,-9.7906651605,-0.002203,0.057063,-1.0557,-2.0000000000020002e-05,5.555555555591951e-06,0.00012999999999996348,0.0013419417633810105,0.0013493583571480006,0.0004102136669145162
149700000000.0,6,0.00036284604999999996,-0.0125328987,0.0330876371,-0.000942,0.000772,0.003197,-0.0216138566,-0.5593909293,-9.7906651605,-0.002207,0.057073,-1.0557,9.99999999995449e-06,5.555555555591951e-06,-0.00010999999999994348,-0.0016930711879890314,-0.0015698685173815008,-0.0004654283417747651
149700000000.0,6,0.00171616375,-0.0033931009,0.0489547968,-0.00094,-0.000292,0.001064,-0.0216138566,-0.55940073595,-9.7906651605,-0.002208,0.057074,-1.0557,1.0000000000065512e-05,5.555555555591951e-06,-5.000000000032756e-06,-4.110128143394731e-05,0.0003027925066767523,0.00018337770500909123
149700000000.0,6,0.0031969679,-0.00812971285,0.0531324297,-0.000936,0.000773,0.00213,-0.02160404995,-0.55959686895,-9.7906651605,-0.002207,0.057094,-1.0556,9.99999999995449e-06,5.5555555553699065e-06,-5.000000000032756e-06,0.00022204964573813157,-0.000121178306902614,-0.00015808295019070773
149700000000.0,6,0.00171616375,-0.014523648649999998,0.04160961595,-0.004145,-0.000266,0.002126,-0.0216138566,-0.5596360955499999,-9.7906651605,-0.002208,0.057098,-1.0556,-9.99999999995449e-06,5.555555555591951e-06,3.666666666668483e-05,-0.00038034214150978185,-0.00019883401405396128,-4.6657138235706164e-05
149700000000.0,6,-0.00626644935,-0.006992141449999999,0.03711817025,-0.002003,0.000782,0.002128,-0.021711923099999995,-0.5595380290499999,-9.7906651605,-0.002218,0.057088,-1.0556,-2.0000000000020002e-05,5.555555555591951e-06,3.666666666668483e-05,-2.4260010993287784e-05,0.00024891694732143144,0.000144617244786982
149700000000.0,6,-0.0014317708999999998,-0.0027556686499999998,0.0434042329,-0.000942,-0.001356,-1e-06,-0.021770763000000002,-0.5595870623,-9.7906651605,-0.002223,0.057093,-1.0556,-3.3333333333551707e-06,5.555555555591951e-06,3.666666666668483e-05,0.0020883085779927757,0.0014263471674549333,0.00038285077960364955
149700000000.0,6,0.00171616375,-0.0039814999,0.0478956786,-0.00093,0.000774,0.001062,-0.021770763000000002,-0.5595478357,-9.7906651605,-0.002224,0.057089,-1.0556,-3.3333333333551707e-06,5.555555555591951e-06,4.999999999921734e-06,-3.0385090643542112e-05,-0.00013624762183739314,4.327689792893441e-05
149700000000.0,6,0.00683523505,-0.0029419949999999998,0.043551332649999996,-0.002002,0.000782,0.002128,-0.02164327655,-0.5595478357,-9.7906651605,-0.002211,0.057089,-1.0556,-3.3333333333551707e-06,5.555555555591951e-06,5.000000000032756e-06,0.00014186135695179458,5.5273009057055233e-05,9.844769569777867e-06
149700000000.0,6,0.0013533177,-0.00442279915,0.0419136221,-0.002005,-0.000282,0.001062,-0.0215550167,-0.5594105425999999,-9.7906651605,-0.002201,0.057075,-1.0556,2.0000000000020002e-05,5.555555555591951e-06,-0.00010999999999994348,-0.001868984531440021,-0.0012714843498611295,-0.0005153849374825992
149700000000.0,6,-0.006629295399999999,-0.000980665,0.03788308895,-0.001997,0.000783,0.00106,-0.0216530832,-0.55926344285,-9.7906651605,-0.002211,0.05706,-1.0555,-2.0000000000020002e-05,5.555555555591951e-06,0.00012000000000000899,0.0018586500604217404,0.0010758500809533444,0.0005265473860427416
149700000000.0,6,-0.01503359445,-0.00538385085,0.043570945949999995,-0.001994,0.001847,0.002126,-0.021623663249999998,-0.55920460295,-9.7906651605,-0.002209,0.057054,-1.0555,1.0000000000065512e-05,5.555555555591951e-06,-0.00012000000000000899,-0.0022259224689611112,-0.001081227575062016,-0.00040862612544401156
149700000000.0,6,-0.0108265416,-0.005942829899999999,0.04463006415,-0.003064,0.000791,0.001059,-0.021790376299999997,-0.5590967297999999,-9.7906651605,-0.002226,0.057042,-1.0555,9.99999999995449e-06,5.5555555553699065e-06,-1.0000000000065512e-05,0.0004242136350149084,-0.00018969029198645515,-3.896625591270908e-05
149700000000.0,6,-0.0023241760499999996,-0.00879656505,0.0371475902,-0.001993,0.001847,0.002126,-0.021770763000000002,-0.5590771164999999,-9.7906651605,-0.002224,0.057041,-1.0555,3.3333333333551707e-06,5.555555555591951e-06,2.0000000000020002e-05,-0.0002802405224754112,-9.923755750484986e-08,-0.000124135247758006
149700000000.0,6,0.00157887065,-0.0098262633,0.048817503699999994,-0.00306,0.001856,0.002124,-0.0216334699,-0.5590967297999999,-9.7906651605,-0.002209,0.057042,-1.0555,3.3333333333551707e-06,5.555555555591951e-06,-2.0000000000020002e-05,-0.00013323987165445028,5.796124621815224e-05,0.00010055135836151141
149700000000.0,6,-0.008168939449999999,-0.0081983594,0.049415709349999996,-0.000929,0.000774,0.001062,-0.021751149699999996,-0.5590771164999999,-9.7906651605,-0.002222,0.057041,-1.0554,3.3333333333551707e-06,5.555555555591951e-06,1.0000000000065512e-05,0.0002818680786786376,-0.0001033777367069888,-9.90377490474037e-05
149700000000.0,6,-0.0043737659,-0.01468055505,0.0452086565,-0.000937,-0.000292,0.001064,-0.021809989599999996,-0.5593320894,-9.7906651605,-0.002228,0.057067,-1.0554,-5.000000000032756e-06,5.555555555591951e-06,-1.0000000000065512e-05,1.1188074391932368e-07,0.00014204734388290063,0.00014509930833256357
149700000000.0,6,-0.0014611908499999999,-0.0111991943,0.0464050678,-0.003076,-0.000275,0.002128,-0.021888442799999998,-0.559371316,-9.7906651605,-0.002235,0.057071,-1.0554,-5.000000000032756e-06,-0.00010000000000021103,9.99999999995449e-06,0.00021782754591256892,-0.00010835663919639416,-0.00014308617143582447
149700000000.0,6,0.006246836049999999,-0.0022359162,0.041619422600000004,-0.000937,-0.000292,0.001064,-0.021809989599999996,-0.5593517026999999,-9.7906651605,-0.002228,0.057069,-1.0554,-9.99999999995449e-06,5.0000000000105516e-05,1.0000000000065512e-05,-0.0003202264497866869,3.1776039616682183e-05,4.031167752660547e-05
149700000000.0,6,0.0024516625,-0.00246146915,0.0383440015,-0.003062,0.000792,0.001059,-0.021751149699999996,-0.55912614975,-9.7906651605,-0.002222,0.057046,-1.0554,-1.0000000000065512e-05,5.0000000000105516e-05,-2.999999999997449e-05,-0.0002666773104900988,0.0006018318585911953,0.00034097188261317246
149700000000.0,6,0.00234378935,-0.0103362091,0.032950344,-0.002009,-0.000284,0.00213,-0.0216530832,-0.55918498965,-9.7906651605,-0.002211,0.057052,-1.0554,-9.99999999995449e-06,-0.00010000000000021103,0.000140000000000029,0.0021438497880821583,0.0006910907346777684,0.0001462420203206527
149700000000.0,6,0.0019024901,-0.0053642375499999995,0.0364022848,-0.00287,0.001814,0.003002,-0.0214961768,-0.55906730985,-9.7906651605,-0.002196,0.05704,-1.0553,2.999999999997449e-05,4.166666666582941e-06,-0.00012000000000000899,-0.0016920716219375187,-0.0013062814756992225,-0.0005873668266842547
149700000000.0,6,0.00122583125,-0.007119627899999999,0.04508117005,-0.002868,0.00075,0.000869,-0.02157463,-0.55910653645,-9.7906651605,-0.002204,0.057044,-1.0553,1.0000000000065512e-05,4.166666666804986e-06,-9.99999999995449e-06,-8.034626678976586e-05,3.270827805690324e-05,4.2602347165798804e-05
149700000000.0,6,-0.0016475171999999999,-0.0131212977,0.04566956905,-0.001798,0.001806,0.001937,-0.02154521005,-0.55924382955,-9.7906651605,-0.002201,0.057058,-1.0553,-5.000000000032756e-06,4.166666666582941e-06,-1.0000000000065512e-05,4.0983444803271984e-05,0.0002145193268185963,0.00016042326686421804
149700000000.0,6,0.00420705285,-0.014415775499999998,0.029949509099999997,-0.002867,0.000751,0.000869,-0.0214177236,-0.55943996255,-9.7906651605,-0.002187,0.057078,-1.0553,-5.000000000032756e-06,4.166666666804986e-06,4.0000000000040004e-05,-0.0003068244696465272,-8.327652111672634e-05,4.5072369305232396e-05
149700000000.0,6,-0.0010787315,-0.0079826131,0.034127142,-0.00074,-0.001396,-0.001258,-0.0215157901,-0.5595870623,-9.7906651605,-0.002198,0.057093,-1.0553,-2.0000000000020002e-05,4.166666666582941e-06,7.999999999996898e-05,0.001868876769484551,0.0012209125838114065,0.0004154643863124585
149700000000.0,6,-0.006864655,-0.008276812599999999,0.04639526115,-0.002862,0.000752,-0.000198,-0.021564823349999998,-0.55959686895,-9.7906651605,-0.002203,0.057094,-1.0553,1.0000000000065512e-05,4.166666666582941e-06,9.99999999995449e-06,0.0002771444899892783,-0.00012338381998699965,-2.537373521377395e-05
149700000000.0,6,0.00216726965,-0.00789435325,0.03727507665,-0.001805,0.000741,0.001938,-0.021466756849999998,-0.5595380290499999,-9.7906651605,-0.002193,0.057088,-1.0553,9.99999999995449e-06,4.166666666804986e-06,-0.00010999999999994348,-0.0019847203626780774,-0.001148795556223714,-0.000436290609533041
149700000000.0,6,-0.00102969825,-0.0131605243,0.027850886,-0.0018,0.000742,0.000871,-0.0214177236,-0.5594988024499999,-9.7906651605,-0.002187,0.057084,-1.0553,-2.0000000000020002e-05,4.166666666582941e-06,0.00012999999999996348,0.0016928510499556737,0.0012852519860206968,0.0003010272599205388
149700000000.0,6,0.00344213415,-0.00811009955,0.04384553215,0.000334,0.000724,0.000875,-0.0213981103,-0.559763582,-9.7906651605,-0.002186,0.057111,-1.0552,4.0000000000040004e-05,4.166666666804986e-06,-0.00012000000000000899,-0.0016206620251438542,-0.00105454109355696,-0.0004852057925277542
149700000000.0,6,0.00789435325,-0.0039814999,0.049229383,-0.000746,-0.000333,0.001942,-0.021358883699999998,-0.5598616485,-9.7906651605,-0.002182,0.057121,-1.0552,-9.99999999995449e-06,4.166666666582941e-06,-9.99999999995449e-06,0.00010156464537208754,-0.0001925128401158993,8.382189478473023e-05
149700000000.0,6,-0.000784532,-0.0042855060499999995,0.0478760653,-0.001774,0.003939,0.000865,-0.02121178395,-0.5598518418499999,-9.7906651605,-0.002166,0.05712,-1.0552,-2.0000000000020002e-05,4.166666666804986e-06,0.00012000000000000899,0.0017067455980164237,0.0012239218048550882,0.0005247940098479509
149700000000.0,6,-0.0035794272499999995,-0.009590903699999999,0.046973853499999996,-0.001813,-0.000324,0.00194,-0.021260817199999997,-0.55993029505,-9.7906651605,-0.002172,0.057128,-1.0552,2.0000000000020002e-05,4.166666666582941e-06,-0.0001300000000000745,-0.0016815947362830153,-0.0010881034646901266,-0.0003838616307429432
149700000000.0,6,-0.0034911673999999996,-0.0106892485,0.03858916775,-0.001785,0.001809,-0.000198,-0.02119217065,-0.5600283615499999,-9.7906651605,-0.002165,0.057138,-1.0552,-2.500000000016378e-06,4.166666666582941e-06,1.0000000000065512e-05,-0.00026236547424646206,-0.00020805290185887948,-6.28321803148868e-05
149700000000.0,6,-0.0026085689,-0.0094732239,0.041433096249999996,-0.001804,0.000741,0.001938,-0.021182364,-0.56004797485,-9.7906651605,-0.002163,0.05714,-1.0552,-2.500000000016378e-06,4.166666666804986e-06,2.0000000000020002e-05,0.0003847676551269885,-1.8420909124516882e-05,-0.00011551173250196056
149700000000.0,6,-0.0013631243499999997,-0.014808041499999999,0.036941650549999996,-0.002865,0.000751,0.000869,-0.021084297499999998,-0.5600970081,-9.790567094,-0.002154,0.057145,-1.0552,-2.500000000016378e-06,4.166666666582941e-06,-2.0000000000020002e-05,7.935896553401545e-06,9.271285055634237e-05,6.431449564492375e-05
149700000000.0,6,-0.00159848395,-0.0125917386,0.0361865385,-0.001801,-0.000322,-0.000194,-0.021143137399999998,-0.5602244945499999,-9.790567094,-0.00216,0.057158,-1.0552,-2.500000000016378e-06,4.166666666804986e-06,2.0000000000020002e-05,8.806929741922431e-06,-0.00024308473995837687,2.5961029227805632e-05
149700000000.0,6,-0.00252030905,-0.00805125965,0.041570389349999994,-0.001807,-0.000323,0.000873,-0.0211235241,-0.5602735278,-9.790567094,-0.002157,0.057163,-1.0551,-7.500000000049134e-06,4.166666666582941e-06,7.999999999996898e-05,0.001507036657779598,0.001534984239012438,0.0004085440165924048
149700000000.0,6,-0.0066096821,-0.00214765635,0.0481506515,-0.000723,0.001799,0.000871,-0.0212215906,-0.5603323677,-9.790567094,-0.002168,0.057169,-1.0551,-7.499999999938112e-06,4.166666666804986e-06,-9.999999999998899e-05,-0.001627200883722174,-0.0015303637788741664,-0.0004215036014298956
149700000000.0,6,-0.0029714149499999996,-0.00067665885,0.04590492865,0.000325,0.000722,0.00301,-0.021270623849999996,-0.5603127544,-9.790567094,-0.002172,0.057168,-1.0551,-7.499999999938112e-06,4.166666666582941e-06,9.99999999995449e-06,0.00028293767861028996,7.622008167018635e-05,-0.00015791182232394174
149700000000.0,6,0.00495235825,-0.01189546645,0.0328915041,-0.00394,-0.000306,0.000869,-0.02111371745,-0.56032256105,-9.790567094,-0.002157,0.057168,-1.0551,-7.500000000049134e-06,4.166666666582941e-06,7.00000000000145e-05,0.0014610226238593593,0.0015481731390667441,0.0006629582466238793
149700000000.0,6,0.012375992300000001,-0.0042462794499999994,0.0366376444,-0.001829,-0.002455,0.001944,-0.02105487755,-0.5601950746,-9.790567094,-0.002151,0.057155,-1.0551,2.0000000000020002e-05,4.166666666804986e-06,-7.00000000000145e-05,-0.0017978527430009827,-0.0014251884652893843,-0.000505960595160504
149700000000.0,6,0.0022555294999999998,-0.005982056499999999,0.035137226949999996,-0.000745,-0.000333,0.001942,-0.02111371745,-0.5602539145,-9.790567094,-0.002157,0.057161,-1.0551,1.0000000000065512e-05,4.166666666582941e-06,-1.0000000000065512e-05,-0.00026720141506436645,-0.00018775765435163905,-0.00016263176083197717
149700000000.0,6,0.00177500365,-0.0082179727,0.0382655483,-0.000736,0.000733,0.00194,-0.02107449085,-0.5604108208999999,-9.790567094,-0.002152,0.057177,-1.0551,9.99999999995449e-06,4.166666666804986e-06,-9.99999999995449e-06,0.00023396428345676124,0.0002549941334355488,0.00022511734123215055
149700000000.0,6,-0.0017455836999999998,-0.005668243699999999,0.0346763144,-0.001811,-0.000324,0.00194,-0.02115294405,-0.5604108208999999,-9.790567094,-0.00216,0.057177,-1.055,-2.0000000000020002e-05,4.166666666582941e-06,-2.0000000000020002e-05,-0.0006889638360596806,0.00021437936940693625,0.00031820126547138505
149700000000.0,6,0.0033734876,-0.0020397832,0.036480738,-0.001803,0.000742,0.001938,-0.0210254576,-0.56030294775,-9.790567094,-0.002148,0.057166,-1.055,9.99999999995449e-06,-0.00010000000000021103,0.0001300000000000745,0.0024680307294876747,0.0007775418043796112,3.3859437574446094e-05
149700000000.0,6,-0.0006668522,0.0017357770499999998,0.03813806185,-0.000739,-0.000332,0.000875,-0.0210254576,-0.5601754613,-9.790567094,-0.002148,0.057154,-1.055,-4.999999999921734e-06,5.0000000000105516e-05,-0.0001100000000000545,-0.0017035662405192054,-0.0011354101040730313,-0.00047250176720187165
149700000000.0,6,-0.00758054045,-0.002157463,0.04321790655,0.001403,0.000716,0.000877,-0.021143137399999998,-0.56018526795,-9.790567094,-0.00216,0.057154,-1.055,-5.000000000032756e-06,5.0000000000105516e-05,-2.999999999997449e-05,0.0013621758870968892,0.00021400401148108372,-5.01714234423245e-05
149700000000.0,6,-0.00530539765,-0.006158576199999999,0.04605202839999999,-0.000727,0.001798,0.001938,-0.02117255735,-0.5603715942999999,-9.790567094,-0.002163,0.057173,-1.055,-7.00000000000145e-05,3.333333333332966e-05,-9.99999999995449e-06,0.005211254583998071,0.0024588217485419506,0.0003550986638867215
149700000000.0,6,-0.0023339827,-0.0102773692,0.02554632325,-0.001805,-0.000323,0.000873,-0.021309850449999997,-0.56044024085,-9.790567094,-0.002177,0.05718,-1.055,-9.99999999995449e-06,3.333333333332966e-05,-4.999999999999449e-05,0.001775425652583762,0.0007721778878504448,-4.1873574205264497e-05
149700000000.0,6,-0.001765197,-0.00015690639999999998,0.0273605535,-0.001802,0.000742,0.001939,-0.021270623849999996,-0.5602343012,-9.790567094,-0.002173,0.057159,-1.0549,-5.0000000000105516e-05,3.333333333332966e-05,-6.0000000000060005e-05,0.0009145329602206209,0.0007124264940672198,0.00031807878056960837
149700000000.0,6,-0.0036676871,-0.0052857843499999994,0.0376771493,0.000334,-0.000339,-0.000191,-0.0213196571,-0.56034217435,-9.790567094,-0.002178,0.05717,-1.0549,-9.99999999995449e-06,-3.333333333332966e-05,-3.999999999992898e-05,0.0015699327565980858,0.0001886411697866741,-0.00012643845626209016
149700000000.0,6,-0.00361865385,-0.00640374245,0.04500271685,-0.001791,0.000744,-0.000196,-0.021368690349999997,-0.56042062755,-9.790567094,-0.002182,0.057178,-1.0549,-2.0000000000020002e-05,-3.333333333332966e-05,1.999999999990898e-05,0.0010584283007749884,-7.720482424899977e-05,-0.00038060219562002784
149700000000.0,6,0.0050013915,-0.010463695549999999,0.043061000149999994,-0.00286,0.001816,0.001935,-0.0211627507,-0.5604108208999999,-9.790567094,-0.002161,0.057177,-1.0549,4.0000000000040004e-05,-3.333333333332966e-05,3.0000000000085514e-05,-0.0019426264915541336,-0.000583154438103195,0.0001013884759256678
149700000000.0,6,0.0002353596,-0.0086102387,0.037814442399999995,-0.000735,0.000733,0.00194,-0.02103526425,-0.56045985415,-9.790567094,-0.002149,0.057183,-1.0549,-2.999999999997449e-05,9.999999999998899e-05,-2.0000000000020002e-05,-0.00019908699589823997,0.0003886937289954151,0.00014423752622455543
149700000000.0,6,-0.0005687857,-0.009433997299999998,0.040658370900000004,-0.001788,0.001808,0.000869,-0.020986230999999998,-0.56053830735,-9.790567094,-0.002143,0.05719,-1.0549,-8.000000000008001e-05,5.0000000000105516e-05,-7.00000000000145e-05,0.001598156598660777,0.0010092487495596547,-8.40959144029485e-05
149700000000.0,6,-0.00316754795,-0.0048640984,0.0321265854,-0.001799,-0.000322,-0.000194,-0.02107449085,-0.5604696607999999,-9.790567094,-0.002152,0.057183,-1.0549,-9.99999999995449e-06,4.999999999988347e-05,-0.00017999999999995797,-0.0022597807671986547,-0.0005914053840039291,-0.00029132789217811705
149700000000.0,6,-0.005727083599999999,-0.0118268199,0.040805470649999995,-0.001801,0.000742,0.001939,-0.02105487755,-0.5605285006999999,-9.790567094,-0.00215,0.05719,-1.0549,-4.0000000000040004e-05,-9.090909090847532e-06,9.999999999998899e-05,0.0022468496561806883,0.001585079423990221,0.0006397003267203383
149700000000.0,6,-0.00952225715,-0.00018632635,0.0423058881,0.000338,0.000725,0.000875,-0.02115294405,-0.5605088873999999,-9.790567094,-0.00216,0.057187,-1.0549,2.0000000000020002e-05,-9.090909091069577e-06,-2.0000000000020002e-05,0.0008903542009021936,-0.0004998186106552893,-0.0005440372157500262
149700000000.0,6,-0.00559959715,-0.00444241245,0.04141348295,-0.001809,-0.000324,0.00194,-0.0213392704,-0.56044024085,-9.790567094,-0.00218,0.05718,-1.0549,4.0000000000040004e-05,-9.090909090847532e-06,-0.00012000000000000899,-0.0015658828559969307,-0.0014609225523298797,-0.00034961444372133554
149700000000.0,6,-0.0056976636499999995,-0.00436395925,0.0399130655,-0.00076,-0.002464,0.001946,-0.0215354034,-0.5603715942999999,-9.790567094,-0.0022,0.057173,-1.0548,-1.4999999999987246e-05,-9.090909090847532e-06,0.00012999999999996348,0.0016404176121151137,0.0014028219714157242,0.0005151939133035133
149700000000.0,6,-0.00026477954999999995,-0.0023634026499999997,0.0490528633,-0.001795,0.000742,0.000871,-0.021584436649999997,-0.5602735278,-9.790567094,-0.002204,0.057164,-1.0548,-1.4999999999987246e-05,-9.090909090847532e-06,-2.999999999997449e-05,0.0002594928430362242,0.00026732906340432017,0.00010630376532116959
149700000000.0,6,0.008521978849999999,0.0053642375499999995,0.05563312545,-0.000743,-0.000333,0.001942,-0.0215354034,-0.5602146879,-9.790567094,-0.0022,0.057158,-1.0548,9.99999999995449e-06,-9.090909091069577e-06,-7.00000000000145e-05,0.00031244716604750256,0.0001682914631588872,-0.00012124248861467013
149700000000.0,6,0.0028831550999999997,-0.0066685220000000005,0.04949416255,-0.000737,-0.000332,0.000875,-0.021584436649999997,-0.56030294775,-9.790567094,-0.002205,0.057166,-1.0548,2.0000000000020002e-05,-9.090909090847532e-06,-7.00000000000145e-05,-0.002324912376903132,-0.0015204231516445788,-0.00035512757455136157
149700000000.0,6,-0.0047856452,-0.014719781649999998,0.02870406455,-0.002867,0.00075,0.001937,-0.0215550167,-0.5601950746,-9.790567094,-0.002201,0.057155,-1.0548,-1.0000000000065512e-05,-9.090909090847532e-06,2.0000000000020002e-05,0.0007748499646228479,-0.00019782685400016042,-0.00021942716795764206
149700000000.0,6,-0.00811009955,-0.00863965865,0.02391841935,-0.001792,0.001807,0.001937,-0.0215157901,-0.56012642805,-9.790567094,-0.002198,0.057148,-1.0548,1.0000000000065512e-05,-9.090909090847532e-06,0.00014999999999998348,0.001254112001566332,0.001343929584363357,0.0007775671643139859
149700000000.0,6,-0.00204958985,-0.0030008349,0.0325973046,-0.001788,0.002872,0.003002,-0.0214373369,-0.5600872014499999,-9.790567094,-0.00219,0.057144,-1.0547,7.999999999996898e-05,-9.090909091069577e-06,-0.000140000000000029,-0.004088901878286949,-0.0018354665365460932,-0.00016954024669352252
149700000000.0,6,0.000980665,0.00440318585,0.04294332035,-0.001817,-0.001389,0.001942,-0.021486370149999996,-0.5598518418499999,-9.7906651605,-0.002194,0.05712,-1.0547,2.0000000000020002e-05,-9.090909090847532e-06,0.000180000000000069,-0.004677470365044484,-0.0013238400839206133,-9.025631016729152e-05
149700000000.0,6,0.0014415775499999998,-0.010522535449999999,0.029017877349999995,-0.000745,-0.001397,0.000877,-0.0214961768,-0.5598910684499999,-9.7906651605,-0.002195,0.057124,-1.0547,9.99999999995449e-06,1.999999999990898e-05,-1.0000000000065512e-05,-5.007768934750523e-05,0.0001402449439369402,2.190017153569368e-05
149700000000.0,6,0.0019417166999999998,-0.01005181625,0.0291649771,-0.001791,0.001807,0.001937,-0.0213981103,-0.5599204884,-9.7906651605,-0.002186,0.057127,-1.0547,-9.99999999995449e-06,2.0000000000131024e-05,-5.000000000032756e-06,-3.4241199548590284e-05,-8.378446982515442e-05,8.061018251714902e-05
149700000000.0,6,-0.00756092715,0.00538385085,0.038157675149999994,-0.000722,0.000735,-0.000194,-0.021466756849999998,-0.55979300195,-9.7906651605,-0.002193,0.057114,-1.0547,-3.3333333333551707e-06,1.999999999990898e-05,-4.999999999921734e-06,0.00016007740216555932,-5.610796384902805e-05,8.270647723362945e-05
149700000000.0,6,-0.0040991797,-0.0025301156999999997,0.043688625749999994,-0.000741,-0.000333,0.001942,-0.0216334699,-0.5598028086,-9.7906651605,-0.00221,0.057115,-1.0547,-3.3333333333551707e-06,2.0000000000131024e-05,2.999999999997449e-05,-0.00027969673626224156,4.1557184809581926e-05,-0.0001484155717910718
149700000000.0,6,-0.0007158854499999999,-0.013376270599999998,0.03605905205,-0.003928,0.00076,0.000868,-0.021584436649999997,-0.55973416205,-9.7906651605,-0.002204,0.057108,-1.0546,-3.3333333333551707e-06,1.999999999990898e-05,-4.999999999999449e-05,0.0005049023330372382,0.00018406665003767309,4.890800802448414e-05
149700000000.0,6,0.005952636549999999,-0.010404855650000001,0.025144250599999998,-0.001808,-0.000324,0.001941,-0.0215157901,-0.5597145487499999,-9.7906651605,-0.002198,0.057106,-1.0546,5.0000000000105516e-05,-9.999999999998899e-05,2.0000000000020002e-05,-6.575523805638084e-05,-9.512095048602731e-05,4.271657096927006e-05
149700000000.0,6,0.00648219565,-0.00442279915,0.041452709549999994,-0.000749,-0.001398,0.001944,-0.02144714355,-0.5597047421,-9.7906651605,-0.002191,0.057105,-1.0546,-1.0000000000065512e-05,-5.0000000000105516e-05,2.0000000000020002e-05,-0.0005142412080654801,-0.00012505528621531425,0.00013540772705922244
149700000000.0,6,0.0007747253499999999,-0.0047464186,0.05415232129999999,0.000345,0.000727,-0.000192,-0.0214177236,-0.55998913495,-9.7906651605,-0.002188,0.057134,-1.0546,2.0000000000020002e-05,-4.999999999988347e-05,5.999999999994898e-05,-0.0005590119131699545,-0.0006430288297687436,-0.00023354480598886118
149700000000.0,6,-0.006060509699999999,-0.009688970199999999,0.0480133584,0.000323,-0.001406,0.000879,-0.021623663249999998,-0.56012642805,-9.790567094,-0.002209,0.057148,-1.0546,-2.999999999997449e-05,-5.0000000000105516e-05,-7.00000000000145e-05,0.0009402935807774626,0.0005841197305416213,0.00015521590672679109
149700000000.0,6,-0.00352058735,-0.0108069283,0.030204481999999998,-0.003932,0.00076,0.001935,-0.021623663249999998,-0.56006758815,-9.790567094,-0.002208,0.057142,-1.0546,8.999999999992347e-05,-5.0000000000105516e-05,0.00039000000000000146,-0.0019559686058910897,-0.00083375025211474,0.0002076235184481634
149700000000.0,6,-0.00326561445,-0.0089436648,0.03813806185,-0.000732,0.000733,0.001941,-0.021721729749999998,-0.5601362347,-9.790567094,-0.002219,0.057149,-1.0546,1.0000000000065512e-05,1.0000000000065512e-05,-6.999999999990347e-05,-0.0020678358939044406,-0.001565884091987213,-0.0006298994255610202
149700000000.0,6,-0.0039520799499999995,-0.01048330885,0.03243059155,0.000344,0.00179,0.001941,-0.021790376299999997,-0.56038140095,-9.790567094,-0.002225,0.057174,-1.0545,2.999999999997449e-05,1.0000000000065512e-05,-3.0000000000085514e-05,-0.0001917647903022235,0.00022617915793166077,0.00020158231067485266
149700000000.0,6,-0.0063350959,-0.005295591,0.0301848687,-0.000745,-0.000334,0.00301,-0.021947282699999997,-0.56047946745,-9.790567094,-0.002242,0.057184,-1.0545,-2.0000000000020002e-05,9.999999999843467e-06,1.0000000000065512e-05,0.0001925522736651586,-0.0003032846384358745,2.752330268701586e-05
149700000000.0,6,-0.0037363336499999997,-0.00869849855,0.0301848687,-0.002865,0.000751,0.001937,-0.022006122599999997,-0.56038140095,-9.790567094,-0.002247,0.057174,-1.0545,-2.0000000000020002e-05,1.0000000000065512e-05,9.99999999995449e-06,-0.0001631711830971383,-2.2556726784417336e-05,-1.547727295658774e-05
149700000000.0,6,0.00034323274999999994,-0.00797280645,0.0288511643,-0.002865,0.000751,0.001937,-0.022045349199999998,-0.56020488125,-9.790567094,-0.002251,0.057156,-1.0545,2.0000000000020002e-05,1.0000000000065512e-05,4.999999999999449e-05,0.00015261448941278344,0.00011512542626568312,0.0002603100956988236
149700000000.0,6,0.00679600845,0.0054721106999999995,0.0480133584,-0.001789,0.001808,0.001937,-0.021908056099999997,-0.5600283615499999,-9.7906651605,-0.002238,0.057138,-1.0545,-2.0000000000020002e-05,1.0000000000065512e-05,4.999999999999449e-05,0.0017920330418775277,0.0012805353593026148,0.000274776442531266
149700000000.0,6,0.00328522775,-0.00061781895,0.05489762669999999,-0.000734,-0.000331,0.000875,-0.021849216199999997,-0.5600773948,-9.790567094,-0.002231,0.057143,-1.0544,-9.99999999995449e-06,1.0000000000065512e-05,-3.999999999992898e-05,-0.0006065155002204226,0.0004056210417144879,0.0003620116610841828
149700000000.0,6,-0.00510926465,-0.00530539765,0.035892338999999995,-0.000743,-0.001397,0.000877,-0.02197670265,-0.5600283615499999,-9.7906651605,-0.002245,0.057138,-1.0544,-9.99999999995449e-06,9.999999999843467e-06,3.999999999992898e-05,0.00044344638984647466,-0.00030519174986842756,-0.0003638015785161208
149700000000.0,6,-0.00150041745,-0.013474337099999999,0.021682503149999997,-0.002873,-0.000315,0.001939,-0.0219865093,-0.5599401017,-9.7906651605,-0.002246,0.057129,-1.0544,3.999999999992898e-05,1.0000000000065512e-05,-9.999999999998899e-05,-0.0014902215306163424,-0.0013318458152487,-0.00043996654493350107
149700000000.0,6,0.0005099458,-0.0027066354,0.02917478375,-0.001792,0.000743,0.000871,-0.021908056099999997,-0.5597831953,-9.7906651605,-0.002238,0.057113,-1.0544,-6.666666666710341e-06,1.0000000000065512e-05,-9.99999999995449e-06,9.535130829360638e-05,-1.6305306303143752e-05,-0.0002029554411535628
149700000000.0,6,-0.00289296175,0.00065704555,0.04862137069999999,-0.00072,0.000735,-0.000194,-0.021947282699999997,-0.5598518418499999,-9.7906651605,-0.002242,0.05712,-1.0544,-6.666666666599319e-06,-0.00010000000000021103,-1.0000000000065512e-05,0.0001016253186688354,-0.00011187248717137166,5.126400665267372e-05
149700000000.0,6,-0.0057859235,-0.0084141057,0.04189400879999999,-0.002867,-0.000314,0.000871,-0.022192448949999995,-0.5597537753499999,-9.7906651605,-0.002267,0.05711,-1.0544,-6.666666666710341e-06,7.692307692375167e-06,0.000140000000000029,0.0014381025484294374,0.0014170523567531568,0.00047173651531534633
149700000000.0,6,-0.0015396440499999998,-0.01809326925,0.035470653049999995,-0.003925,0.000761,0.000868,-0.022104189099999998,-0.5596655155,-9.7906651605,-0.002257,0.057101,-1.0544,1.0000000000065512e-05,7.692307692375167e-06,-0.00012000000000000899,-0.0018827500170947586,-0.0012304584446742872,-0.0004244965162522041
149700000000.0,6,0.00361865385,-0.00962032365,0.03425462845,0.000334,-0.00034,0.000877,-0.0220257359,-0.5598910684499999,-9.7906651605,-0.00225,0.057125,-1.0544,9.99999999995449e-06,7.692307692153122e-06,-1.0000000000065512e-05,-0.00012513541785444393,-0.00022841692767472388,6.223240934505325e-05
149700000000.0,6,0.0031577413,-0.0018044235999999999,0.0628213999,0.002473,-0.000356,-0.000187,-0.022006122599999997,-0.5602343012,-9.790567094,-0.002248,0.057159,-1.0544,1.0000000000065512e-05,7.692307692375167e-06,-9.99999999995449e-06,0.0001928471457183223,-2.828622467632158e-05,-0.0001239898935899708
149700000000.0,6,-0.0011277647499999999,-0.0134154972,0.0557802252,-0.001791,0.000743,0.000871,-0.021908056099999997,-0.5602931411,-9.790567094,-0.002238,0.057165,-1.0543,-3.0000000000085514e-05,7.692307692375167e-06,0.0001300000000000745,0.001818258932046679,0.0014943208212421233,0.0003603966786265289
149700000000.0,6,-0.0004903325,-0.01572005995,0.01328801075,-0.003933,-0.000305,0.00087,-0.02195708935,-0.5602343012,-9.790567094,-0.002243,0.057159,-1.0543,1.0000000000065512e-05,7.692307692375167e-06,-0.0001100000000000545,-0.0016732323302862673,-0.0013216966549907117,-0.0003398598784074558
149700000000.0,6,-0.0020103632499999997,-0.0070705946499999995,0.027654752999999997,-0.000741,-0.001396,0.000877,-0.0220845758,-0.56020488125,-9.790567094,-0.002256,0.057156,-1.0543,9.99999999995449e-06,7.692307692153122e-06,-9.99999999995449e-06,8.990832125219117e-05,8.484322962187818e-06,0.00023621956312042114
149700000000.0,6,-6.864654999999999e-05,-0.004128599649999999,0.04800355175,-0.00072,0.001799,0.001939,-0.02207476915,-0.56030294775,-9.790567094,-0.002255,0.057166,-1.0543,-3.999999999992898e-05,7.692307692375167e-06,0.00010999999999994348,0.0014518146935475762,0.001205215902345902,0.0002478135777388979
149700000000.0,6,0.00271644205,-0.0037461403,0.048454657649999996,-0.002874,-0.001379,0.000873,-0.02201592925,-0.5602343012,-9.790567094,-0.002249,0.05716,-1.0543,1.999999999990898e-05,7.692307692375167e-06,-9.99999999995449e-06,7.072684314310407e-05,0.00010615391742696545,8.30404309315469e-05
149700000000.0,6,0.0006864654999999999,-0.0214373369,0.02599742915,-0.002865,-0.000313,0.000871,-0.021937476049999998,-0.560351981,-9.790567094,-0.00224,0.057171,-1.0543,1.0000000000065512e-05,7.692307692375167e-06,-9.00000000000345e-05,-0.0017309392520758193,-0.0015434495934814052,-0.000485301816443684
149700000000.0,6,0.0008139519499999999,-0.00622722275,0.0284000584,-0.000737,-0.000332,0.001943,-0.021908056099999997,-0.56030294775,-9.790567094,-0.002238,0.057166,-1.0543,-5.000000000032756e-06,7.692307692153122e-06,-9.99999999995449e-06,7.190168387974372e-05,0.00031076045453448664,-0.00012140417496653289
149700000000.0,6,0.005236751099999999,-0.0007649187,0.0418743955,-0.002848,0.001818,0.000868,-0.02170211645,-0.5600773948,-9.790567094,-0.002216,0.057143,-1.0543,-5.000000000032756e-06,7.692307692375167e-06,9.999999999998899e-05,0.0020418046560057856,0.0014077244014207846,0.0004889936873747058
149700000000.0,6,0.0013631243499999997,-0.0050013915,0.04712095325,-0.002853,0.001817,0.001935,-0.021564823349999998,-0.5600283615499999,-9.7906651605,-0.002203,0.057138,-1.0542,2.0000000000020002e-05,7.692307692375167e-06,-0.0001300000000000745,-0.002648075818642792,-0.0011069063342117325,-6.821937333206796e-05
149700000000.0,6,-0.0042168595,-0.005717276949999999,0.03156760635,-0.004987,0.001835,0.001931,-0.0215157901,-0.559763582,-9.7906651605,-0.002198,0.057111,-1.0542,-9.99999999995449e-06,3.333333333332966e-05,1.0000000000065512e-05,0.0007882804028745971,-2.1487876897152702e-05,-0.0002590957959615059
149700000000.0,6,-0.0016180972499999998,-0.0005295590999999999,0.020809711300000002,-0.00179,0.000744,0.000871,-0.021427530249999997,-0.559567449,-9.7906651605,-0.002188,0.057091,-1.0542,-0.000160000000000049,3.333333333332966e-05,-4.999999999999449e-05,0.008593669041495583,0.0032128043978048026,-0.00036413786288824745
149700000000.0,6,0.00269682875,-0.0072961475999999996,0.033244543499999994,-0.003923,0.000761,0.000868,-0.02125101055,-0.55938112265,-9.7906651605,-0.002171,0.057072,-1.0542,-0.00010999999999994348,3.333333333332966e-05,-7.999999999996898e-05,0.0018709494513311775,0.0008629462144311706,-0.00016470459542272664
149700000000.0,6,4.903325e-05,-0.00581534345,0.0516418189,-0.000736,-0.000331,0.001943,-0.021300043799999998,-0.5595184157499999,-9.7906651605,-0.002175,0.057086,-1.0542,9.99999999995449e-06,9.999999999998899e-05,-0.0001100000000000545,0.0007335111450115228,0.0006793994210450016,0.0003365165214299637
149700000000.0,6,-0.005540757249999999,-0.0054426907500000005,0.0505827007,-0.000739,-0.001396,0.000877,-0.0215354034,-0.5595870623,-9.7906651605,-0.0022,0.057093,-1.0542,-2.0000000000020002e-05,3.333333333332966e-05,-2.999999999997449e-05,0.00010078025945545188,0.00047946953400512804,0.00012446563975654357
149700000000.0,6,0.00159848395,-0.0126701918,0.030685007849999998,-0.002864,-0.000313,0.000871,-0.0214961768,-0.5595478357,-9.7906651605,-0.002196,0.057089,-1.0542,4.0000000000040004e-05,3.333333333332966e-05,-0.000140000000000029,-0.001417076815477425,-0.0018283116299688817,-0.000547891888926122
149700000000.0,6,-0.00177500365,-0.00514849125,0.0321854253,-0.001789,0.000744,0.000871,-0.021564823349999998,-0.55943996255,-9.7906651605,-0.002203,0.057077,-1.0542,1.0000000000065512e-05,3.333333333332966e-05,-0.00029999999999996696,-0.0006321281223740094,-0.006077167588018462,-0.0015289125876727372
149700000000.0,6,0.00114737805,-0.0166320784,0.0327738243,0.000337,-0.000339,0.000877,-0.02164327655,-0.5596262889,-9.7906651605,-0.002211,0.057097,-1.0541,9.99999999995449e-06,9.999999999998899e-05,-4.999999999999449e-05,-0.00026751885932191355,-0.0006286929905587879,-0.0002512070000710853
149700000000.0,6,-0.00030400615,-0.013915636349999998,0.046679654,0.000337,-0.000339,0.000877,-0.0216923098,-0.5599401017,-9.7906651605,-0.002215,0.057129,-1.0541,-1.0000000000065512e-05,-9.999999999998899e-05,0.00010999999999994348,0.002501578911799557,-0.0013444890465335035,-0.0007613860454347976
149700000000.0,6,0.0009610516999999999,-0.007198081099999999,0.0424824078,-0.001793,0.000743,0.001939,-0.02160404995,-0.55993029505,-9.7906651605,-0.002207,0.057128,-1.0541,-9.99999999995449e-06,9.999999999998899e-05,-0.00010999999999994348,-0.0018806123917316508,0.0016875201558235187,0.0006459650142374707
149700000000.0,6,-0.00118660465,-0.015278760699999998,0.021682503149999997,-0.002858,-0.000312,-0.000196,-0.0215550167,-0.55993029505,-9.7906651605,-0.002202,0.057128,-1.0541,2.0000000000020002e-05,-9.999999999998899e-05,8.999999999992347e-05,0.0024864857914958793,-0.001590729708712102,-0.0008059519505494439
149700000000.0,6,-0.0023045627499999996,-0.007727640199999999,0.022741621349999998,-0.001788,0.000744,0.000871,-0.0216334699,-0.5598518418499999,-9.7906651605,-0.00221,0.05712,-1.0541,-2.0000000000020002e-05,3.333333333332966e-05,-2.999999999997449e-05,0.00018265774075482133,2.250969323958074e-05,0.0001034090925009501
149700000000.0,6,-0.004834678449999999,-0.0146903617,0.0391873734,0.000346,0.000727,0.000875,-0.0216530832,-0.56006758815,-9.790567094,-0.002212,0.057142,-1.0541,2.999999999997449e-05,3.333333333332966e-05,-2.999999999997449e-05,-0.000748517838081858,-0.00024227191220949074,5.640497573755621e-05
149700000000.0,6,0.0016671305000000001,-0.010787315,0.04919996305,-0.000737,-0.001396,0.000877,-0.021711923099999995,-0.5602244945499999,-9.790567094,-0.002218,0.057159,-1.0541,-2.0000000000020002e-05,3.333333333332966e-05,-2.999999999997449e-05,-0.0016780231970872639,0.0018651980848527483,0.000808757544898564
149700000000.0,6,0.0013337044,-0.0069627215,0.033931009,-0.001792,0.000743,0.001939,-0.021682503149999997,-0.5603127544,-9.790567094,-0.002215,0.057167,-1.0541,1.0000000000065512e-05,-9.999999999998899e-05,8.999999999992347e-05,0.0016719099935735282,-0.0017031683085515503,-0.0007886853152693218
149700000000.0,6,0.0047856452,-0.009688970199999999,0.030939980749999995,-0.000734,-0.000331,0.001943,-0.02170211645,-0.5604304341999999,-9.790567094,-0.002216,0.057179,-1.0541,-6.666666666710341e-06,9.999999999998899e-05,-7.999999999996898e-05,-0.0020434694189754576,0.0014849167478492298,0.0007654835855793185
149700000000.0,6,0.00214765635,-0.006168382849999999,0.048140844849999996,0.000352,0.000728,-0.000192,-0.0215942433,-0.5605088873999999,-9.790567094,-0.002206,0.057187,-1.054,-6.666666666599319e-06,-1.999999999990898e-05,2.199999999996649e-05,-2.2084487328932756e-05,-4.493838200403388e-05,-0.00012175324321705983
149700000000.0,6,0.0016573238499999997,-9.80665e-05,0.052328284399999994,-0.000725,0.000735,0.001941,-0.021564823349999998,-0.56059714725,-9.790567094,-0.002202,0.057196,-1.054,-6.666666666710341e-06,-2.0000000000131024e-05,2.2000000000077513e-05,0.00012197268917885085,0.0002584140348775854,8.418366059537163e-05
149700000000.0,6,0.0048052584999999995,-0.00718827445,0.03990325885,-0.001786,0.000745,0.000871,-0.0214177236,-0.5606854071,-9.790567094,-0.002187,0.057205,-1.054,2.0000000000020002e-05,-1.999999999990898e-05,2.199999999996649e-05,-0.00015280450492544118,-0.0003538673026506345,2.169645802019282e-05
149700000000.0,6,0.0014317708999999998,-0.005315204299999999,0.0177696498,-0.00377,-0.001404,0.000709,-0.0214765635,-0.5604696607999999,-9.790567094,-0.002194,0.057183,-1.054,-6.666666666710341e-06,-2.0000000000131024e-05,2.2000000000077513e-05,-0.00035570103348214754,0.00018379460990658458,0.00011902895982796036
149700000000.0,6,0.0016377105499999999,-0.0070313680499999994,0.0277920461,-0.00161,0.001775,0.000707,-0.02138830365,-0.56040101425,-9.790567094,-0.002185,0.057176,-1.054,-6.666666666599319e-06,-1.999999999990898e-05,2.199999999996649e-05,0.0026203615021106186,-0.001731223924905656,-0.0008247236299484539
149700000000.0,6,0.006943108199999999,-0.0061879961500000006,0.047091533299999995,-0.000569,-0.00143,0.000715,-0.021309850449999997,-0.5604892741,-9.790567094,-0.002177,0.057186,-1.054,-6.666666666710341e-06,9.999999999998899e-05,-0.00012000000000000899,-0.0018059207537153843,0.0019649473604557155,0.000686733385493965
149700000000.0,6,9.806649999999999e-06,-0.0024516625,0.0518771785,0.000506,-0.000373,0.000715,-0.021407916949999998,-0.56063637385,-9.790567094,-0.002187,0.0572,-1.054,9.99999999995449e-06,-3.333333333332966e-05,2.0000000000020002e-05,0.00011878375592841439,-4.2551276713265196e-05,-4.258848096705403e-05
149700000000.0,6,-0.000392266,-0.0060703163499999995,0.03182257925,-0.001619,0.00071,0.000709,-0.021456950199999998,-0.5606069538999999,-9.790567094,-0.002192,0.057197,-1.054,1.0000000000065512e-05,-3.333333333332966e-05,-1.0000000000065512e-05,-6.658567246900504e-05,-0.00023042891567515156,-3.410687526678169e-05
149700000000.0,6,-0.0050013915,-0.015180694199999997,0.02283968785,-0.002691,0.000717,0.001775,-0.021486370149999996,-0.56061676055,-9.790567094,-0.002194,0.057199,-1.0539,-5.000000000032756e-06,-3.333333333332966e-05,7.999999999996898e-05,0.0020389879808915823,-0.0014052982888796972,-0.0005872780133923672
149700000000.0,6,-0.011640493549999999,-0.005933023249999999,0.041844975549999996,0.000493,-0.00144,0.001784,-0.0217315364,-0.56059714725,-9.790567094,-0.002219,0.057196,-1.0539,-5.000000000032756e-06,9.999999999998899e-05,-7.999999999996898e-05,-0.003187936163286914,0.001775417328669926,0.0010043477506789245
149700000000.0,6,-0.00781590005,0.0033931009,0.045728408949999994,0.001579,-0.000381,-0.000351,-0.02195708935,-0.56079328025,-9.790567094,-0.002243,0.057216,-1.0539,-4.999999999921734e-06,-1.4285714285744433e-05,-9.99999999995449e-06,0.001291799779368552,8.33817537189141e-05,-0.00027968785069287794
149700000000.0,6,-0.0033244543499999996,-0.010071429549999998,0.04288448045,-0.002707,-0.001414,0.001778,-0.02211399575,-0.56079328025,-9.790567094,-0.002259,0.057216,-1.0539,-5.000000000032756e-06,-1.4285714285744433e-05,-1.0000000000065512e-05,-5.39003046789166e-05,6.710571142520827e-05,-8.26965478160635e-05
149700000000.0,6,-0.0035696206,-0.019436780299999998,0.01475900825,-0.003757,0.000726,0.001773,-0.02217283565,-0.5607050203999999,-9.790567094,-0.002264,0.057208,-1.0539,9.99999999995449e-06,-1.4285714285744433e-05,4.999999999999449e-05,-0.0007095562720486337,-0.0005250717257019311,3.600968362932333e-05
149700000000.0,6,-0.00051975245,-0.0062958693,0.0303221618,-0.000559,-0.000365,0.000713,-0.022221868899999997,-0.5606854071,-9.790567094,-0.00227,0.057205,-1.0539,1.0000000000065512e-05,-1.4285714285522388e-05,-9.99999999995449e-06,-8.589896901797789e-05,-0.0002576893860677387,-4.484498832485473e-05
149700000000.0,6,-0.004393379199999999,-0.0008629851999999999,0.053367789299999996,-0.000531,0.003896,0.001773,-0.021947282699999997,-0.56057753395,-9.790567094,-0.002242,0.057194,-1.0539,-3.3333333333551707e-06,-1.4285714285744433e-05,-2.0000000000020002e-05,0.0005793626510625649,0.00032652902375485127,-9.629733419846964e-05
149700000000.0,6,-0.010247949249999999,-0.0068254284,0.04812123155,0.000506,0.00069,0.002848,-0.02207476915,-0.560744247,-9.790567094,-0.002255,0.057212,-1.0538,-3.3333333333551707e-06,-1.4285714285744433e-05,2.999999999997449e-05,-0.00045910932699261275,0.00024814895844915696,0.00022474056699134382
149700000000.0,6,-0.0065116155999999994,-0.01766177665,0.037049523699999996,-0.002681,0.001782,0.001773,-0.02191786275,-0.56083250685,-9.790567094,-0.002239,0.05722,-1.0538,-3.3333333333551707e-06,-1.4285714285744433e-05,7.00000000000145e-05,0.002154202818626244,-0.001972403263379885,-0.0006836314697963308
149700000000.0,6,-0.00169655045,-0.0065116155999999994,0.0223787753,0.000511,0.000691,0.00178,-0.021947282699999997,-0.5609207666999999,-9.790567094,-0.002241,0.057229,-1.0538,1.0000000000065512e-05,9.999999999998899e-05,-0.00010999999999994348,-0.0021079680625940567,0.0013882203626764955,0.0005414588766265993
149700000000.0,6,-0.00304986815,0.00612915625,0.032558078,-0.000544,0.002829,0.002842,-0.021937476049999998,-0.5608423134999999,-9.790567094,-0.002241,0.057221,-1.0538,-5.000000000032756e-06,-9.999999999998899e-05,0.00013999999999991797,0.0022612824531792197,-0.0012386119345189073,-0.0005831972247448691
149700000000.0,6,-0.0013337044,-0.009934136449999999,0.03360738955,-0.002689,0.000717,0.001775,-0.022006122599999997,-0.5607834735999999,-9.790567094,-0.002248,0.057215,-1.0538,-5.000000000032756e-06,9.999999999998899e-05,-0.00011999999999989797,-0.0018677212769192542,0.0017010866983064865,0.0006072428012110498
149700000000.0,6,-0.0020593965,-0.013807763199999998,0.030008348999999997,-0.001625,-0.000356,0.000711,-0.02203554255,-0.56095018665,-9.790567094,-0.002251,0.057232,-1.0538,5.000000000032756e-06,-5.555555555591951e-06,-1.0000000000065512e-05,0.00010222681052901583,-3.6498044015287334e-05,0.00012218549114512145
149700000000.0,6,-0.0060408964,-0.0028831550999999997,0.02058415835,-0.001639,-0.001423,0.00178,-0.0222414822,-0.5608030869,-9.790567094,-0.002272,0.057217,-1.0537,5.000000000032756e-06,-5.555555555591951e-06,1.0000000000065512e-05,-0.0002905321676660577,-0.0002212153833209829,-6.599004853541368e-05
149700000000.0,6,-0.008688691899999998,-0.0065312289,0.0364415114,-0.001628,-0.001421,-0.000354,-0.0224376152,-0.5609011533999999,-9.790567094,-0.002292,0.057227,-1.0537,-6.666666666710341e-06,-5.555555555591951e-06,-2.0000000000020002e-05,6.90325802216174e-05,0.00031530544489344337,6.44272689457881e-05
149700000000.0,6,-0.007207887749999999,-0.00397169325,0.05066115389999999,-0.000572,-0.001432,0.001782,-0.02272200805,-0.56091096005,-9.790567094,-0.00232,0.057228,-1.0537,-6.666666666599319e-06,-5.5555555553699065e-06,2.999999999997449e-05,6.757334690779548e-05,-2.4175218585886782e-05,-4.073163882040154e-05
149700000000.0,6,-0.0017946169499999999,-0.0009414384,0.03509800035,-0.002689,0.000717,0.001775,-0.022741621349999998,-0.5608030869,-9.790567094,-0.002323,0.057217,-1.0537,-6.666666666710341e-06,-5.555555555591951e-06,-2.0000000000020002e-05,0.0002700927091843497,-5.3045194532419515e-05,-3.9138930657545146e-05
149700000000.0,6,0.0017946169499999999,-0.0081787461,0.02374189965,-0.003742,0.001792,0.000704,-0.022584714949999998,-0.56059714725,-9.790567094,-0.002307,0.057196,-1.0537,2.0000000000020002e-05,-5.555555555591951e-06,1.0000000000065512e-05,-0.0006874163865137894,-0.0003534882318849686,5.628246864530784e-05
149700000000.0,6,0.00189268345,-0.008012033049999999,0.0409525704,0.000504,-0.000375,0.001782,-0.022545488349999997,-0.56061676055,-9.790567094,-0.002303,0.057198,-1.0537,-2.0000000000020002e-05,-5.555555555591951e-06,-4.0000000000040004e-05,0.0007542595150010212,0.00046933179545605164,-1.6369737911192672e-05
149700000000.0,6,-0.00152003075,-0.008708305199999999,0.044531997649999995,-0.000549,0.0007,0.000711,-0.02256510165,-0.56081289355,-9.790567094,-0.002305,0.057218,-1.0537,1.0000000000065512e-05,-5.555555555591951e-06,9.99999999995449e-06,-0.00013406050125816527,1.615774259478009e-05,2.287866381428527e-05
149700000000.0,6,-7.845319999999999e-05,-0.018387468749999997,0.04361997919999999,-0.000566,-0.001431,0.000715,-0.02266316815,-0.56100902655,-9.790567094,-0.002315,0.057239,-1.0537,9.99999999995449e-06,-5.5555555553699065e-06,4.999999999999449e-05,-0.00039258656280752313,-0.0002096994478422154,5.9069961731939014e-05
149700000000.0,6,-0.0009708583499999999,-0.00638412915,0.03703971705,-0.002696,-0.000349,0.001777,-0.022672974799999995,-0.56089134675,-9.790567094,-0.002315,0.057226,-1.0537,-9.99999999995449e-06,-5.555555555591951e-06,-9.99999999995449e-06,-0.0003381360906552777,-0.00023107820380596777,-0.00014880451430138164
149700000000.0,6,-0.0040011132,-0.0025889556,0.02297698095,-0.001624,-0.000356,0.000711,-0.02278084795,-0.5608030869,-9.790567094,-0.002327,0.057217,-1.0537,-1.0000000000065512e-05,-5.555555555591951e-06,-9.99999999995449e-06,0.0005407738276922425,0.0003918314117490329,4.344075520518187e-05
149700000000.0,6,0.00222610955,-0.010424468949999998,0.02791953255,-0.002674,0.001784,0.000706,-0.022731814700000002,-0.560744247,-9.790567094,-0.002321,0.057211,-1.0536,9.99999999995449e-06,-5.555555555591951e-06,-2.0000000000020002e-05,-0.0006200023446764347,-0.00014361452130917662,-2.61589235749371e-05
149700000000.0,6,0.0013925443,-0.00722750105,0.04274718735,-0.001615,0.000709,0.000709,-0.022643554849999997,-0.5606461804999999,-9.790567094,-0.002313,0.057201,-1.0536,6.666666666710341e-06,-5.555555555591951e-06,2.999999999997449e-05,6.880129215350306e-05,-0.0003731421929593637,-2.1037666520173914e-05
149700000000.0,6,0.0014121576,0.00840429905,0.05439748755,0.003702,-0.001466,0.000722,-0.02266316815,-0.56087173345,-9.790567094,-0.002315,0.057224,-1.0536,6.666666666599319e-06,-5.555555555591951e-06,-4.999999999999449e-05,0.0002502607919675215,6.74258426103247e-05,-7.689980573966082e-05
149700000000.0,6,0.00448163905,0.0048837117,0.0497589421,-0.001621,0.000708,0.001777,-0.022741621349999998,-0.56093057335,-9.790567094,-0.002323,0.057231,-1.0536,6.666666666710341e-06,-5.555555555591951e-06,4.0000000000040004e-05,-8.72189673583601e-05,0.00016156177972193042,0.0002036305561862184
149700000000.0,6,0.0009120184499999999,-0.0179853961,0.0080218397,-0.008013,0.001827,0.001764,-0.0226141349,-0.5606657937999999,-9.790567094,-0.002309,0.057203,-1.0536,-1.0000000000065512e-05,-5.5555555553699065e-06,-1.0000000000065512e-05,0.00027787645572843744,7.724332471181761e-05,-0.00011894707076759437
149700000000.0,6,0.004726805299999999,-0.021525596749999997,0.00354020065,-0.003762,-0.000339,0.001775,-0.022682781449999998,-0.56055792065,-9.790567094,-0.002317,0.057192,-1.0536,-9.99999999995449e-06,-5.555555555591951e-06,-9.99999999995449e-06,4.48704994804594e-05,0.00021968040073683248,0.00016590326807036648
149700000000.0,6,0.005727083599999999,0.011532620399999999,0.0659203013,0.004781,0.000656,0.001788,-0.0226337482,-0.56085212015,-9.790567094,-0.002312,0.057222,-1.0535,1.0000000000065512e-05,-5.555555555591951e-06,0.00012000000000000899,0.002211711119439741,-0.0018287613399403657,-0.0008718645311507345
149700000000.0,6,0.004834678449999999,0.0089828914,0.08685749905,0.00158,0.000683,0.001782,-0.0224964551,-0.56114631965,-9.790567094,-0.002298,0.057252,-1.0535,-2.0000000000020002e-05,9.999999999998899e-05,-9.999999999998899e-05,-0.0031366138580969927,0.0018522432101324426,0.0010681011796384032
149700000000.0,6,-0.0010885381499999998,-0.024595078199999995,0.034931287299999995,-0.004837,-0.001396,0.001775,-0.022555295,-0.5612345795,-9.790567094,-0.002304,0.057261,-1.0535,2.0000000000020002e-05,-3.333333333332966e-05,-1.5000000000098268e-05,0.00023278674359386575,-0.0005724779805904578,-0.0004312602139830424
149700000000.0,6,-0.007855126649999999,-0.0248108245,-0.00980665,-0.003751,-0.000337,-0.00036,-0.022672974799999995,-0.5611757395999999,-9.790567094,-0.002316,0.057255,-1.0535,-2.0000000000020002e-05,-3.333333333332966e-05,-1.4999999999987246e-05,0.0008607012947269843,0.000449400847060355,0.00015368439265806
149700000000.0,6,0.0032950343999999998,0.01056176205,0.0343428883,0.00267,0.002806,0.000713,-0.022447421849999996,-0.5610776731,-9.790567094,-0.002293,0.057245,-1.0535,2.0000000000020002e-05,-3.333333333332966e-05,0.00012000000000000899,0.0018658774163493597,-0.0016973209261783584,-0.000709268611502889
149700000000.0,6,-0.00250069575,0.0084141057,0.08146384155,0.002639,-0.000392,0.001786,-0.022486648449999997,-0.5613228393499999,-9.790567094,-0.002297,0.057271,-1.0535,-1.0000000000065512e-05,9.999999999998899e-05,-9.999999999998899e-05,-0.0017857666295238994,0.0017264058743369226,0.0007295205349091005
149700000000.0,6,-0.0005491723999999999,-0.0131997509,0.06320385925,-0.003762,-0.000339,0.001775,-0.0224964551,-0.5614012925499999,-9.790567094,-0.002298,0.057279,-1.0535,-1.999999999990898e-05,-4.999999999988347e-05,-9.99999999995449e-06,0.00031198465204484993,-7.794168901864573e-05,-8.01047600944016e-05
149700000000.0,6,0.0059036033,-0.01099325465,0.0051582979,-0.004797,0.002868,0.0007,-0.02221206225,-0.56106786645,-9.790567094,-0.002269,0.057244,-1.0535,2.999999999997449e-05,-5.0000000000105516e-05,0.00010999999999994348,0.0012126176717335846,-0.0018105592872019738,-0.0006909701945119195
149700000000.0,6,0.0056486304,0.00104931155,0.01101286795,-0.001622,-0.000355,0.000711,-0.022104189099999998,-0.5608423134999999,-9.790567094,-0.002258,0.057221,-1.0535,-1.0000000000065512e-05,3.333333333332966e-05,1.0000000000065512e-05,0.0002350253517847678,1.5877529127461543e-05,2.4912465181214927e-05
149700000000.0,6,0.0010395049,0.002157463,0.043776885599999996,0.000503,-0.001438,0.000717,-0.02213360905,-0.5609011533999999,-9.790567094,-0.002261,0.057227,-1.0534,1.0000000000065512e-05,3.333333333332966e-05,9.99999999995449e-06,-0.00016186678113944142,0.0003691004842347745,2.3339649931675144e-05
149700000000.0,6,0.0034617474499999998,-0.0102381426,0.052740163699999995,-0.001614,0.000711,0.000709,-0.02201592925,-0.5610776731,-9.790567094,-0.002248,0.057245,-1.0534,-9.99999999995449e-06,3.333333333332966e-05,-0.000140000000000029,-0.0018789930866222881,0.0015113140881604092,0.0008224566832398805
149700000000.0,6,0.0013337044,-0.01493552795,0.0407564374,-0.001627,-0.000356,0.001779,-0.02197670265,-0.5613228393499999,-9.790567094,-0.002245,0.05727,-1.0534,-1.0000000000065512e-05,-1.2499999999970868e-05,1.0000000000065512e-05,-1.799814605910055e-05,5.412137559135388e-05,-0.0001409398159249453
149700000000.0,6,0.004236472799999999,-0.0005491723999999999,0.02505599075,-0.001613,0.000711,0.000709,-0.02189824945,-0.5611953529,-9.790567094,-0.002236,0.057257,-1.0534,2.0000000000020002e-05,-1.2499999999970868e-05,2.0000000000020002e-05,-0.0004382065867757634,-0.0002435999627077301,4.359585090868423e-05
149700000000.0,6,-0.0031969679,0.015317987299999999,0.0342055952,-0.001614,0.000711,0.000709,-0.021937476049999998,-0.560744247,-9.790567094,-0.002241,0.057211,-1.0534,-1.0000000000065512e-05,-1.2499999999970868e-05,-4.0000000000040004e-05,-0.00021127256963751617,0.000373799310479761,0.00032011080089505706
149700000000.0,6,-0.0044914457,-0.00197113665,0.04378669225,-0.001597,0.002842,0.000706,-0.021849216199999997,-0.5606657937999999,-9.790567094,-0.002231,0.057203,-1.0534,2.0000000000020002e-05,-1.2499999999970868e-05,4.0000000000040004e-05,0.0006461583053168352,-0.00043660261757683116,-0.00036461694923317634
149700000000.0,6,0.0003334261,-0.018240369,0.042286274799999995,-0.001622,-0.000355,0.000711,-0.021888442799999998,-0.56085212015,-9.790567094,-0.002235,0.057223,-1.0534,-2.0000000000020002e-05,-1.2500000000192912e-05,-3.0000000000085514e-05,-0.0001463297913722461,0.00023094345502960856,5.5724321155026235e-05
149700000000.0,6,-0.009188831049999999,-0.00354020065,0.0394423463,-0.003744,0.001793,0.001771,-0.0219276694,-0.560744247,-9.790567094,-0.00224,0.057211,-1.0534,6.666666666710341e-06,-1.2499999999970868e-05,2.0000000000020002e-05,0.0005209818467538652,3.890644456872039e-05,-5.628031936033562e-05
149700000000.0,6,-0.00542307745,-0.00306948145,0.0348136075,-0.00268,0.000719,0.000707,-0.02195708935,-0.56061676055,-9.790567094,-0.002243,0.057198,-1.0534,6.666666666599319e-06,-1.2499999999970868e-05,5.999999999994898e-05,6.571408428865388e-05,5.556075090673573e-06,-0.0001403820161349767
149700000000.0,6,-0.00244185585,-0.007247114349999999,0.0361473119,-0.00056,-0.000365,0.00178,-0.022104189099999998,-0.56077366695,-9.790567094,-0.002257,0.057214,-1.0533,6.666666666710341e-06,-1.2499999999970868e-05,6.0000000000060005e-05,0.001822288224547941,-0.0017166649057815953,-0.0005449054886478288
149700000000.0,6,0.00122583125,-0.0095516771,0.0401876517,-0.001627,-0.000356,0.001779,-0.0221826423,-0.5608619267999999,-9.790567094,-0.002265,0.057224,-1.0533,-2.999999999997449e-05,9.999999999998899e-05,-0.00012000000000000899,-0.0018183766286190561,0.001742520377355783,0.0005645173891252186
149700000000.0,6,0.0014906108,-0.01328801075,0.03284247085,-0.000554,-0.000364,0.000713,-0.0221434157,-0.5610188332,-9.790567094,-0.002262,0.057239,-1.0533,2.999999999997449e-05,-7.692307692375167e-06,2.0000000000020002e-05,-0.0005034542106729101,-0.0003747280468031633,5.7684058045737174e-05
149700000000.0,6,0.00028439285,-0.0053544309,0.0202801522,-0.000554,-0.000364,0.000713,-0.0221238024,-0.5610188332,-9.790567094,-0.00226,0.05724,-1.0533,-2.999999999997449e-05,-7.692307692153122e-06,-4.0000000000040004e-05,0.00013329004519399557,0.00026587845410208644,4.382728932594837e-05
149700000000.0,6,-0.00330484105,-0.00985568325,0.0225160684,-0.000562,-0.001429,0.000715,-0.0222807088,-0.5611561263,-9.790567094,-0.002276,0.057253,-1.0533,2.0000000000020002e-05,-7.692307692375167e-06,3.0000000000085514e-05,-0.000586619255196652,-0.0001146774520370819,7.580581067678782e-05
149700000000.0,6,-0.004236472799999999,-0.00587418335,0.05243615755,-0.001634,-0.001421,0.001781,-0.0223983886,-0.5612541928,-9.790567094,-0.002288,0.057263,-1.0533,-2.999999999997449e-05,-7.692307692375167e-06,-2.0000000000020002e-05,0.00026899083215653485,0.00016994375035617182,8.364547163852709e-05
149700000000.0,6,-0.0046679654,0.0019122967499999998,0.051249552899999995,-0.001609,0.001775,0.001775,-0.022261095499999998,-0.56110709305,-9.790567094,-0.002274,0.057249,-1.0533,1.999999999990898e-05,-7.692307692153122e-06,-1.0000000000065512e-05,0.00034692405821934447,-5.4768118573411684e-05,-0.0002641214774317113
149700000000.0,6,0.0010787315,0.00681562175,0.0400307453,-0.001621,-0.000355,0.000711,-0.02217283565,-0.56093057335,-9.790567094,-0.002265,0.05723,-1.0533,1.0000000000065512e-05,-7.692307692375167e-06,2.0000000000020002e-05,-0.0005641634713711985,-0.00032161692345678006,0.00012037290493360775
149700000000.0,6,0.0055701772,-0.00293218835,0.03584330575,-0.001635,-0.001421,0.001781,-0.0221826423,-0.5609011533999999,-9.790567094,-0.002265,0.057227,-1.0533,-1.0000000000065512e-05,-7.692307692375167e-06,1.0000000000065512e-05,0.0004965912359435054,0.00041187078046434067,6.149968727275912e-05
149700000000.0,6,0.006894074949999999,-0.010600988649999999,0.03658861115,-0.001638,-0.002486,0.000715,-0.02215322235,-0.56100902655,-9.790567094,-0.002263,0.057238,-1.0532,-2.500000000016378e-06,-7.692307692375167e-06,9.99999999995449e-06,-0.0003635694967501213,-0.0003478077124252632,-0.00010369451036451593
149700000000.0,6,-0.0010395049,-0.0072765343,0.031508766449999996,-0.001612,0.000711,0.000709,-0.02215322235,-0.5609011533999999,-9.790567094,-0.002263,0.057227,-1.0532,-2.4999999999053557e-06,-7.692307692153122e-06,9.99999999995449e-06,0.0001019591842410239,2.7996354452941574e-05,-1.7477957269806943e-05
149700000000.0,6,-0.004795451849999999,-0.00601147645,0.034950900599999994,-0.001617,0.00071,0.001777,-0.022290515449999996,-0.5608227002,-9.790567094,-0.002276,0.057219,-1.0532,-2.500000000016378e-06,-7.692307692375167e-06,-3.999999999992898e-05,0.00015859268310366992,-7.272268901981072e-05,-1.7298410741051207e-05
149700000000.0,6,-0.0058055367999999994,0.0001176798,0.044531997649999995,-0.001617,0.00071,0.001777,-0.022329742049999997,-0.5608030869,-9.790567094,-0.00228,0.057218,-1.0532,-2.500000000016378e-06,-7.692307692375167e-06,-2.0000000000020002e-05,0.0006887605042824041,0.0005749044281326832,2.8045896929784764e-05
149700000000.0,6,-0.010875574849999998,-0.00887501825,0.050818060299999995,-0.00267,0.001785,0.000706,-0.0223395487,-0.56079328025,-9.790567094,-0.002282,0.057216,-1.0532,2.0000000000020002e-05,-7.692307692153122e-06,4.0000000000040004e-05,-0.0009549621590687618,-0.0004062049715032323,5.046985046963659e-05
149700000000.0,6,0.0009708583499999999,-0.0022751428,0.039001047049999994,-0.002692,-0.000347,0.001777,-0.022368968649999998,-0.56065598715,-9.790567094,-0.002285,0.057202,-1.0532,-9.99999999995449e-06,-7.692307692375167e-06,9.999999999998899e-05,0.002319347575252345,-0.001475251777997677,-0.0007871888622643097
149700000000.0,6,4.903325e-05,0.0011081514499999999,0.029880862549999995,-0.001603,0.001776,0.000708,-0.022192448949999995,-0.56045985415,-9.790567094,-0.002267,0.057182,-1.0532,-1.0000000000065512e-05,9.999999999998899e-05,-9.999999999998899e-05,-0.0016967378009790923,0.0015715009241530353,0.0006471980644299768
149700000000.0,6,-0.0008433719,-0.0043247326499999995,0.03766734265,-0.001617,0.00071,0.001777,-0.022202255599999998,-0.56040101425,-9.790567094,-0.002268,0.057176,-1.0532,2.0000000000020002e-05,-9.999999999998899e-05,9.999999999998899e-05,0.001811108076222423,-0.0014925794830897843,-0.000544086893343898
149700000000.0,6,-0.0013631243499999997,-0.0144746154,0.04468890405,-0.001639,-0.001422,0.002848,-0.0222807088,-0.5605873405999999,-9.790567094,-0.002275,0.057195,-1.0531,-1.0000000000065512e-05,9.999999999998899e-05,-8.000000000008001e-05,-0.002355164909755819,0.00124884126953817,0.0006213685833499349
149700000000.0,6,-0.0046287388,-0.0046287388,0.04333558635,-0.000561,-0.001429,0.000715,-0.0224572285,-0.5607050203999999,-9.790567094,-0.002293,0.057207,-1.0531,1.0000000000065512e-05,-1.6666666666775853e-05,-2.999999999997449e-05,0.00021439598914885227,0.00028016646438300263,2.427116180891975e-05
149700000000.0,6,-0.00403053315,-0.00987529655,0.03137147335,-0.001616,0.00071,0.001777,-0.0224572285,-0.5606854071,-9.790567094,-0.002294,0.057206,-1.0531,4.999999999921734e-06,-1.666666666655381e-05,5.000000000032756e-06,-0.0003196550990909319,-9.835919563383477e-05,3.831125769038213e-05
149700000000.0,6,-0.0012356379,-0.019181807399999997,0.02089797115,-0.00268,-0.000345,-0.000358,-0.02240819525,-0.5606657937999999,-9.790567094,-0.002289,0.057203,-1.0531,5.000000000032756e-06,-1.666666666655381e-05,5.000000000032756e-06,-4.655500851116767e-05,2.8419595267337172e-05,2.1417207718088527e-05
149700000000.0,6,-0.0020692031499999998,-0.0136312435,0.03839303475,-0.000535,0.001768,0.000709,-0.022329742049999997,-0.5608227002,-9.790567094,-0.00228,0.05722,-1.0531,-5.000000000032756e-06,-1.6666666666775853e-05,-2.0000000000020002e-05,4.5117459514437686e-05,0.00016987672414248145,0.00012005254662961207
149700000000.0,6,0.00522694445,-0.0024124359,0.05888893325,0.00051,-0.000373,0.001782,-0.0222807088,-0.5609796065999999,-9.790567094,-0.002276,0.057235,-1.0531,-4.999999999921734e-06,-1.6666666666775853e-05,2.0000000000020002e-05,0.00011111325638371583,-0.0002838215468496941,-0.00016475226035977952
149700000000.0,6,-5.88399e-05,-0.0038245934999999996,0.0361473119,-0.004828,-0.001394,0.000708,-0.0225356817,-0.56075405365,-9.790567094,-0.002302,0.057212,-1.0531,9.99999999995449e-06,-1.666666666655381e-05,0.00010999999999994348,0.002108840997150252,-0.00161041780495208,-0.0007459456162047795
149700000000.0,6,-0.0030008349,-0.0078845466,0.026134722249999996,-0.004821,0.000735,0.002839,-0.022584714949999998,-0.56059714725,-9.790567094,-0.002307,0.057196,-1.0531,-2.999999999997449e-05,9.999999999998899e-05,-0.00010999999999994348,-0.0015879653755359324,0.0020212937627175354,0.0008533974943873424
149700000000.0,6,-0.00075511205,-0.0065508421999999995,0.0304790682,-0.000557,-0.000364,0.001781,-0.022584714949999998,-0.56057753395,-9.790567094,-0.002307,0.057194,-1.053,2.0000000000020002e-05,-9.999999999998899e-05,8.999999999992347e-05,0.0018369675572663668,-0.001916980310359584,-0.0007881981740287536
149700000000.0,6,0.00397169325,-0.0021182363999999996,0.0491705431,0.000507,-0.001437,0.000717,-0.022672974799999995,-0.56081289355,-9.790567094,-0.002316,0.057218,-1.053,-1.0000000000065512e-05,5.0000000000105516e-05,-2.0000000000020002e-05,0.0003636783934204135,0.0002523122628583785,-9.820298897089685e-05
149700000000.0,6,0.0005491723999999999,-0.0061389629,0.04139386965,-0.003743,0.000729,0.000706,-0.022545488349999997,-0.56069521375,-9.790567094,-0.002303,0.057206,-1.053,9.99999999995449e-06,4.999999999988347e-05,-6.999999999990347e-05,-0.002302802949515348,0.001506781811027036,0.000744129285926376
149700000000.0,6,0.00218688295,-0.007639380349999999,0.02778223945,-0.001623,-0.000355,0.001779,-0.022388581949999996,-0.5605285006999999,-9.790567094,-0.002287,0.057189,-1.053,1.0000000000065512e-05,-4.999999999988347e-05,3.500000000000725e-05,-0.00026030277424063386,-0.000332825728385,7.93398575730242e-05
149700000000.0,6,2.941995e-05,-0.0045698989,0.030488874849999997,-0.002676,0.00072,0.000708,-0.022329742049999997,-0.5603127544,-9.790567094,-0.00228,0.057168,-1.053,-2.0000000000020002e-05,-5.0000000000105516e-05,3.4999999999896225e-05,0.0026995304334043735,-0.001030812003648851,-0.0008262967317037573
149700000000.0,6,-0.0047856452,-0.0047464186,0.04650313429999999,-0.00269,-0.000347,0.001777,-0.0224572285,-0.56028333445,-9.790567094,-0.002293,0.057164,-1.053,1.0000000000065512e-05,9.999999999998899e-05,-6.999999999990347e-05,-0.002938426041187353,0.001269428205595835,0.000742550303219569
149700000000.0,6,-0.00246146915,-0.007727640199999999,0.043365006299999995,-0.001614,0.00071,0.001777,-0.0223787753,-0.5602931411,-9.790567094,-0.002286,0.057165,-1.053,-4.0000000000040004e-05,-3.333333333332966e-05,-2.0000000000020002e-05,0.000872742177546848,0.0005327763715801126,-3.455476187586015e-05
149700000000.0,6,-0.00065704555,-0.00552114395,0.0357354326,-0.001626,-0.00142,0.000713,-0.022545488349999997,-0.56026372115,-9.790567094,-0.002302,0.057162,-1.053,-9.99999999995449e-06,-3.333333333332966e-05,2.0000000000020002e-05,-0.000457704952391752,-0.0007092967140576167,-0.0002683693701122092
149700000000.0,6,0.004344345949999999,0.00185345685,0.0349901272,-0.001614,0.00071,0.001777,-0.0224572285,-0.560155848,-9.790567094,-0.002294,0.057151,-1.053,4.999999999999449e-05,-3.333333333332966e-05,0.00020999999999993246,0.0012560508634107403,-0.002422889157821295,-0.0007988538883515472
149700000000.0,6,0.0008433719,-0.0067763951499999996,0.036480738,-0.001623,-0.000355,0.001779,-0.022545488349999997,-0.5601950746,-9.790567094,-0.002302,0.057155,-1.0529,8.999999999992347e-05,-8.000000000008001e-05,-4.999999999999449e-05,-0.003127464206348851,0.0007562451364755418,0.0009646291874982893
149700000000.0,6,-1.9613299999999997e-05,-0.01836785545,0.035882532349999996,-0.003747,0.000728,0.001773,-0.022418001899999998,-0.56028333445,-9.790567094,-0.00229,0.057164,-1.0529,-9.99999999995449e-06,-8.000000000008001e-05,-4.0000000000040004e-05,-7.857406997491267e-06,0.00020294792783137616,2.4295330163792705e-05
149700000000.0,6,-0.0039618866,-0.0136900834,0.0253992235,-0.001622,-0.000355,0.001779,-0.0223787753,-0.56032256105,-9.790567094,-0.002285,0.057168,-1.0529,-2.0000000000020002e-05,-7.999999999985796e-05,4.0000000000040004e-05,0.0001555244440443193,7.06482900763028e-05,-0.00018308863968430344
149700000000.0,6,-0.0028635417999999997,-0.001569064,0.03319551025,-0.002689,-0.000346,0.001777,-0.022574908299999998,-0.5601656546499999,-9.790567094,-0.002306,0.057152,-1.0529,-7.00000000000145e-05,-8.000000000008001e-05,1.0000000000065512e-05,0.0012381528355621951,0.0008212852084372724,-5.593702070877393e-05
149700000000.0,6,-0.005766310199999999,-0.0046875787,0.05443671415,-0.000555,-0.000364,0.001781,-0.022672974799999995,-0.5601950746,-9.790567094,-0.002315,0.057155,-1.0529,-0.00013999999999991797,-8.000000000008001e-05,0.0006799999999999029,-0.0003042995521030101,-0.007206309982038528,-0.002859999210701736
149700000000.0,6,-0.0030792880999999995,-0.012170052649999999,0.05323049619999999,-0.000563,-0.00143,0.001783,-0.02266316815,-0.56034217435,-9.790567094,-0.002315,0.05717,-1.0529,0.00030999999999992145,0.00010000000000021103,-9.999999999998899e-05,-0.009071157393553325,0.009762813745848087,0.005221445060507812
